'Start Wavelength	183.907
'End Wavelength	1046.922
'Gate Delay	5.000
'Gate Width (ms)	1.050
'Laser Output Level	0.000
'X Position	0.000
'Y Position	0.000
'Z Position	0.000
'Grid Point Number	1.000
'Shot Number	100.000
183.907	239.000
183.977	510.000
184.047	278
184.116	551
184.186	377
184.256	-247
184.325	-260
184.395	-944
184.465	762
184.534	-167
184.604	181
184.674	439
184.743	193
184.813	275
184.883	295
184.952	-121
185.022	415
185.092	-604
185.161	-347
185.231	-216
185.301	3
185.370	-322
185.440	-517
185.509	74
185.579	-496
185.649	-212
185.718	482
185.788	-25
185.857	-46
185.927	-101
185.996	-222
186.066	613
186.136	188
186.205	81
186.275	181
186.344	968
186.414	283
186.483	-96
186.553	1027
186.622	557
186.692	-201
186.761	-307
186.831	466
186.900	-133
186.970	224
187.039	243
187.109	-41
187.178	313
187.248	-219
187.317	233
187.387	337
187.456	-123
187.526	222
187.595	455
187.664	892
187.734	757
187.803	-27
187.873	912
187.942	-5
188.012	-253
188.081	134
188.150	-80
188.220	334
188.289	456
188.358	-26
188.428	536
188.497	-352
188.567	459
188.636	-379
188.705	-399
188.775	-447
188.844	-802
188.913	691
188.983	-218
189.052	52
189.121	204
189.191	462
189.260	959
189.329	457
189.399	-286
189.468	185
189.537	-96
189.606	497
189.676	739
189.745	-374
189.814	910
189.883	27
189.953	974
190.022	427
190.091	545
190.161	342
190.230	-481
190.299	-209
190.368	11
190.437	-873
190.507	-261
190.576	-353
190.645	299
190.714	537
190.783	-573
190.853	574
190.922	74
190.991	-169
191.060	419
191.129	-634
191.198	378
191.268	-161
191.337	-53
191.406	157
191.475	-182
191.544	-414
191.613	366
191.682	-309
191.752	-374
191.821	-81
191.890	219
191.959	-825
192.028	90
192.097	-117
192.166	648
192.235	-131
192.304	604
192.373	-206
192.442	169
192.511	-407
192.580	-149
192.650	-457
192.719	681
192.788	549
192.857	593
192.926	52
192.995	79
193.064	224
193.133	429
193.202	-236
193.271	502
193.340	-262
193.409	552
193.478	208
193.547	233
193.615	-5
193.684	245
193.753	-354
193.822	607
193.891	-579
193.960	170
194.029	-1056
194.098	-443
194.167	-621
194.236	884
194.305	223
194.374	-248
194.443	-88
194.512	220
194.580	536
194.649	-157
194.718	-452
194.787	574
194.856	298
194.925	642
194.994	-451
195.062	-43
195.131	-536
195.200	549
195.269	-80
195.338	-58
195.407	139
195.475	46
195.544	110
195.613	474
195.682	-84
195.751	756
195.819	453
195.888	1289
195.957	253
196.026	-55
196.094	431
196.163	-459
196.232	-45
196.301	-598
196.369	344
196.438	-72
196.507	462
196.576	-161
196.644	-79
196.713	-146
196.782	-322
196.850	46
196.919	475
196.988	250
197.056	-205
197.125	-571
197.194	171
197.262	-322
197.331	-8
197.400	371
197.468	18
197.537	-360
197.606	315
197.674	1390
197.743	733
197.812	601
197.880	140
197.949	69
198.017	199
198.086	77
198.155	-196
198.223	484
198.292	388
198.360	71
198.429	-676
198.497	-142
198.566	240
198.635	146
198.703	1088
198.772	225
198.840	216
198.909	-454
198.977	-199
199.046	560
199.114	231
199.183	-222
199.251	-44
199.320	-418
199.388	-207
199.457	-204
199.525	491
199.594	-89
199.662	-258
199.731	87
199.799	-202
199.867	1051
199.936	-1469
200.004	38
200.073	660
200.141	-538
200.210	-467
200.278	197
200.346	-587
200.415	692
200.483	67
200.552	-332
200.620	228
200.688	-367
200.757	-271
200.825	-207
200.893	92
200.962	-226
201.030	-186
201.098	722
201.167	-87
201.235	380
201.303	146
201.372	711
201.440	377
201.508	528
201.577	-656
201.645	451
201.713	-384
201.781	-265
201.850	-4
201.918	23
201.986	-5
202.055	323
202.123	51
202.191	10
202.259	588
202.327	469
202.396	38
202.464	919
202.532	160
202.600	766
202.669	-156
202.737	382
202.805	-839
202.873	80
202.941	-18
203.009	-170
203.078	86
203.146	-394
203.214	309
203.282	-1143
203.350	606
203.418	-285
203.487	347
203.555	-301
203.623	501
203.691	585
203.759	-12
203.827	-84
203.895	-229
203.963	-81
204.031	-180
204.099	282
204.168	-180
204.236	638
204.304	-550
204.372	112
204.440	-279
204.508	-531
204.576	281
204.644	-514
204.712	-70
204.780	-27
204.848	-21
204.916	104
204.984	67
205.052	623
205.120	-221
205.188	16
205.256	-850
205.324	423
205.392	-613
205.460	897
205.528	-1121
205.596	169
205.664	-300
205.732	-238
205.799	-747
205.867	484
205.935	-670
206.003	655
206.071	-264
206.139	-215
206.207	-44
206.275	-448
206.343	102
206.411	28
206.478	-297
206.546	-262
206.614	114
206.682	269
206.750	-380
206.818	-538
206.885	488
206.953	-1799
207.021	537
207.089	904
207.157	160
207.225	773
207.292	-95
207.360	-354
207.428	-31
207.496	-574
207.563	-193
207.631	653
207.699	-140
207.767	374
207.834	-754
207.902	210
207.970	172
208.038	586
208.105	-347
208.173	-446
208.241	117
208.309	-106
208.376	262
208.444	433
208.512	-122
208.579	-656
208.647	852
208.715	258
208.782	96
208.850	-816
208.918	-169
208.985	-19
209.053	-100
209.120	216
209.188	-353
209.256	275
209.323	-202
209.391	-202
209.459	1075
209.526	-252
209.594	-210
209.661	324
209.729	-764
209.796	267
209.864	397
209.932	-1190
209.999	519
210.067	130
210.134	-226
210.202	-260
210.269	659
210.337	124
210.404	-598
210.472	61
210.539	-333
210.607	-239
210.674	-211
210.742	439
210.809	-193
210.877	209
210.944	-67
211.012	-132
211.079	1119
211.146	-167
211.214	161
211.281	531
211.349	310
211.416	884
211.484	217
211.551	-719
211.618	395
211.686	23
211.753	-564
211.821	1244
211.888	-289
211.955	570
212.023	792
212.090	-401
212.157	125
212.225	82
212.292	567
212.359	1528
212.427	2241
212.494	983
212.561	67
212.629	300
212.696	178
212.763	510
212.831	-288
212.898	415
212.965	-75
213.032	65
213.100	360
213.167	56
213.234	824
213.301	467
213.369	301
213.436	572
213.503	117
213.570	578
213.638	-276
213.705	88
213.772	-229
213.839	713
213.906	530
213.973	30
214.041	-458
214.108	197
214.175	514
214.242	177
214.309	101
214.376	49
214.444	126
214.511	195
214.578	338
214.645	507
214.712	272
214.779	523
214.846	-556
214.913	1188
214.980	1299
215.048	45
215.115	347
215.182	1205
215.249	-88
215.316	241
215.383	219
215.450	281
215.517	316
215.584	493
215.651	277
215.718	-35
215.785	429
215.852	5
215.919	872
215.986	180
216.053	-708
216.120	-335
216.187	264
216.254	-1
216.321	-560
216.388	330
216.455	415
216.522	223
216.589	250
216.656	434
216.722	868
216.789	-214
216.856	481
216.923	329
216.990	450
217.057	-462
217.124	479
217.191	-13
217.258	1873
217.324	1186
217.391	856
217.458	141
217.525	72
217.592	261
217.659	-527
217.725	1029
217.792	238
217.859	1286
217.926	-705
217.993	-27
218.059	353
218.126	289
218.193	456
218.260	-18
218.327	12
218.393	-387
218.460	-623
218.527	-425
218.594	-655
218.660	-347
218.727	758
218.794	-605
218.860	1024
218.927	274
218.994	335
219.061	121
219.127	-539
219.194	879
219.261	840
219.327	449
219.394	381
219.461	-583
219.527	-18
219.594	442
219.661	160
219.727	-957
219.794	324
219.860	-959
219.927	674
219.994	1
220.060	313
220.127	1170
220.193	702
220.260	244
220.326	730
220.393	1746
220.460	1347
220.526	625
220.593	390
220.659	1766
220.726	0
220.792	2032
220.859	1123
220.925	2921
220.992	2382
221.058	2365
221.125	2410
221.191	1523
221.258	1197
221.324	573
221.391	520
221.457	151
221.524	401
221.590	1184
221.657	2060
221.723	993
221.789	765
221.856	1404
221.922	76
221.989	1375
222.055	1089
222.121	-395
222.188	1266
222.254	442
222.321	774
222.387	-83
222.453	229
222.520	1260
222.586	-234
222.652	-25
222.719	-303
222.785	1133
222.851	-362
222.918	730
222.984	-47
223.050	298
223.116	-1116
223.183	938
223.249	-442
223.315	-446
223.382	-514
223.448	-776
223.514	-558
223.580	-79
223.647	-404
223.713	81
223.779	-506
223.845	307
223.911	-404
223.978	-168
224.044	82
224.110	-222
224.176	236
224.242	387
224.309	-516
224.375	741
224.441	-275
224.507	-78
224.573	-345
224.639	379
224.705	-505
224.772	-110
224.838	129
224.904	982
224.970	-885
225.036	-287
225.102	-543
225.168	749
225.234	-10
225.300	-557
225.366	-352
225.432	396
225.499	-264
225.565	458
225.631	-147
225.697	-47
225.763	703
225.829	561
225.895	571
225.961	746
226.027	-465
226.093	976
226.159	1078
226.225	1555
226.291	3399
226.357	4093
226.423	2148
226.489	1044
226.554	1230
226.620	1362
226.686	544
226.752	1746
226.818	2700
226.884	4388
226.950	4118
227.016	2072
227.082	1388
227.148	741
227.214	844
227.279	348
227.345	579
227.411	-429
227.477	473
227.543	389
227.609	673
227.674	508
227.740	-264
227.806	663
227.872	-178
227.938	803
228.003	1432
228.069	584
228.135	-409
228.201	476
228.267	625
228.332	-52
228.398	-879
228.464	728
228.530	-1011
228.595	293
228.661	-595
228.727	-90
228.792	1245
228.858	-633
228.924	-728
228.990	1508
229.055	-1327
229.121	59
229.187	-382
229.252	-992
229.318	-95
229.384	861
229.449	128
229.515	-1760
229.581	-821
229.646	1034
229.712	186
229.777	629
229.843	-698
229.909	1281
229.974	1074
230.040	474
230.105	1138
230.171	91
230.236	1087
230.302	558
230.368	433
230.433	-355
230.499	367
230.564	637
230.630	-337
230.695	295
230.761	1341
230.826	-969
230.892	703
230.957	65
231.023	-453
231.088	428
231.154	569
231.219	556
231.284	321
231.350	1241
231.415	-296
231.481	348
231.546	-428
231.612	-369
231.677	-302
231.742	-646
231.808	1241
231.873	-520
231.939	-1844
232.004	862
232.069	805
232.135	-446
232.200	-75
232.265	538
232.331	-163
232.396	214
232.461	-543
232.527	-153
232.592	-215
232.657	-117
232.723	-452
232.788	-1110
232.853	157
232.918	-357
232.984	-522
233.049	-615
233.114	-503
233.179	482
233.245	537
233.310	352
233.375	-1471
233.440	181
233.506	-646
233.571	-394
233.636	-60
233.701	251
233.766	-770
233.832	1415
233.897	-314
233.962	-958
234.027	-12
234.092	-522
234.157	-76
234.222	-467
234.288	517
234.353	869
234.418	1593
234.483	688
234.548	207
234.613	704
234.678	979
234.743	-755
234.808	2184
234.873	90
234.938	1011
235.004	357
235.069	1050
235.134	-349
235.199	465
235.264	-71
235.329	-598
235.394	280
235.459	822
235.524	-698
235.589	769
235.654	-379
235.719	-894
235.784	759
235.849	-129
235.913	453
235.978	1323
236.043	849
236.108	594
236.173	-494
236.238	519
236.303	349
236.368	129
236.433	1469
236.498	47
236.563	1466
236.627	1907
236.692	6563
236.757	5898
236.822	3121
236.887	1634
236.952	1948
237.017	438
237.081	3029
237.146	1523
237.211	5234
237.276	5863
237.341	8365
237.405	5757
237.470	3020
237.535	1426
237.600	1787
237.664	1045
237.729	329
237.794	66
237.859	3368
237.923	1475
237.988	1197
238.053	1293
238.118	330
238.182	1453
238.247	3018
238.312	-150
238.376	1294
238.441	-1054
238.506	1837
238.570	28
238.635	1808
238.700	-299
238.764	-80
238.829	592
238.893	-85
238.958	1030
239.023	188
239.087	-248
239.152	709
239.216	8
239.281	497
239.346	123
239.410	-229
239.475	-416
239.539	1581
239.604	433
239.668	751
239.733	395
239.797	937
239.862	1433
239.926	1975
239.991	395
240.055	408
240.120	99
240.184	730
240.249	-619
240.313	204
240.378	145
240.442	818
240.507	1924
240.571	683
240.635	-307
240.700	747
240.764	319
240.829	5
240.893	-1040
240.957	992
241.022	1243
241.086	2619
241.151	-367
241.215	-376
241.279	963
241.344	-120
241.408	415
241.472	-103
241.537	1129
241.601	1795
241.665	-494
241.730	79
241.794	794
241.858	655
241.922	475
241.987	628
242.051	276
242.115	33
242.179	895
242.244	148
242.308	1328
242.372	315
242.436	377
242.501	929
242.565	-678
242.629	-43
242.693	737
242.757	-737
242.822	484
242.886	560
242.950	870
243.014	-654
243.078	644
243.142	880
243.206	-104
243.271	665
243.335	-861
243.399	1730
243.463	2828
243.527	8954
243.591	2112
243.655	1156
243.719	184
243.783	1732
243.847	1658
243.911	2179
243.975	1362
244.040	114
244.104	1649
244.168	505
244.232	62
244.296	641
244.360	1208
244.424	-440
244.488	683
244.552	1434
244.615	-203
244.679	265
244.743	-324
244.807	-626
244.871	564
244.935	71
244.999	-1309
245.063	-476
245.127	491
245.191	938
245.255	491
245.319	623
245.383	-627
245.446	2246
245.510	-415
245.574	743
245.638	1277
245.702	-1250
245.766	1630
245.829	924
245.893	-463
245.957	-208
246.021	662
246.085	232
246.149	401
246.212	2173
246.276	2188
246.340	291
246.404	1246
246.467	206
246.531	-953
246.595	1301
246.659	1310
246.722	-676
246.786	950
246.850	715
246.913	285
246.977	4
247.041	338
247.104	629
247.168	676
247.232	2295
247.295	2220
247.359	2148
247.423	1121
247.486	1007
247.550	686
247.614	633
247.677	1351
247.741	508
247.804	-120
247.868	1618
247.932	573
247.995	3409
248.059	929
248.122	-565
248.186	2048
248.249	1277
248.313	5090
248.376	5308
248.440	3050
248.503	130
248.567	1137
248.630	803
248.694	2846
248.757	3408
248.821	5883
248.884	4647
248.948	2367
249.011	4476
249.075	6695
249.138	5548
249.202	2152
249.265	971
249.328	2198
249.392	1033
249.455	1092
249.519	1040
249.582	734
249.645	2968
249.709	912
249.772	1672
249.835	1484
249.899	1492
249.962	1616
250.025	471
250.089	2601
250.152	4155
250.215	1205
250.279	1061
250.342	380
250.405	1627
250.468	1023
250.532	1433
250.595	3021
250.658	8734
250.721	15089
250.785	4717
250.848	3770
250.911	1022
250.974	2502
251.038	1780
251.101	3741
251.164	1706
251.227	3215
251.290	2452
251.354	3855
251.417	14005
251.480	12400
251.543	10267
251.606	26343
251.669	17316
251.732	7602
251.795	6402
251.859	6589
251.922	15407
251.985	8579
252.048	4813
252.111	2493
252.174	2186
252.237	4007
252.300	8027
252.363	8902
252.426	18982
252.489	6840
252.552	4694
252.615	2282
252.678	3201
252.741	5596
252.804	8652
252.867	21105
252.930	9952
252.993	4539
253.056	3520
253.119	2010
253.182	1587
253.245	2692
253.308	2217
253.371	1490
253.434	2172
253.497	1919
253.559	3733
253.622	2015
253.685	2548
253.748	2369
253.811	2179
253.874	2118
253.937	1018
254.000	1617
254.062	1335
254.125	2679
254.188	5604
254.251	2295
254.314	1268
254.376	1554
254.439	3159
254.502	1637
254.565	1486
254.628	4029
254.690	1255
254.753	72
254.816	-76
254.878	1691
254.941	2275
255.004	2712
255.067	1011
255.129	707
255.192	1184
255.255	-415
255.317	953
255.380	19
255.443	-139
255.505	-74
255.568	-293
255.631	489
255.693	619
255.756	-953
255.819	232
255.881	-860
255.944	398
256.006	-417
256.069	-732
256.132	427
256.194	411
256.257	1039
256.319	505
256.382	493
256.444	1102
256.507	977
256.569	388
256.632	295
256.694	1046
256.757	5210
256.819	14070
256.882	5916
256.944	2654
257.007	2603
257.069	1699
257.132	785
257.194	1679
257.257	1092
257.319	105
257.381	1456
257.444	5368
257.506	14090
257.569	15658
257.631	6090
257.693	3042
257.756	2093
257.818	573
257.880	1409
257.943	1365
258.005	22
258.067	1207
258.130	603
258.192	963
258.254	555
258.317	808
258.379	700
258.441	2383
258.503	2154
258.566	1884
258.628	2828
258.690	120
258.753	1126
258.815	1946
258.877	582
258.939	462
259.001	1305
259.064	310
259.126	70
259.188	775
259.250	882
259.312	1008
259.375	718
259.437	-188
259.499	727
259.561	385
259.623	825
259.685	1143
259.747	794
259.809	2492
259.872	3991
259.934	6988
259.996	7870
260.058	2188
260.120	315
260.182	722
260.244	805
260.306	238
260.368	1228
260.430	176
260.492	2381
260.554	4022
260.616	21
260.678	2768
260.740	3568
260.802	224
260.864	498
260.926	-101
260.988	544
261.050	732
261.112	3710
261.174	8005
261.236	3385
261.298	962
261.359	1223
261.421	2573
261.483	34
261.545	1386
261.607	-1352
261.669	271
261.731	483
261.793	2809
261.854	-148
261.916	1650
261.978	546
262.040	1411
262.102	1211
262.164	-621
262.225	-127
262.287	531
262.349	965
262.411	1780
262.472	838
262.534	823
262.596	1094
262.658	1256
262.719	-129
262.781	1436
262.843	971
262.904	613
262.966	1212
263.028	1095
263.090	4988
263.151	13429
263.213	5616
263.275	3481
263.336	688
263.398	905
263.459	-98
263.521	237
263.583	1827
263.644	1046
263.706	495
263.767	-405
263.829	804
263.891	634
263.952	21
264.014	-144
264.075	1387
264.137	5550
264.198	1728
264.260	648
264.321	67
264.383	1566
264.444	7862
264.506	2219
264.567	764
264.629	3383
264.690	5472
264.752	1545
264.813	1536
264.875	307
264.936	1833
264.998	560
265.059	33
265.120	834
265.182	581
265.243	8295
265.305	8249
265.366	2682
265.427	1012
265.489	517
265.550	-373
265.611	717
265.673	-286
265.734	18
265.795	465
265.857	46
265.918	669
265.979	3103
266.040	12638
266.102	11097
266.163	3350
266.224	2569
266.286	895
266.347	-900
266.408	447
266.469	229
266.530	264
266.592	-46
266.653	1328
266.714	1877
266.775	444
266.836	238
266.898	-52
266.959	1075
267.020	858
267.081	1283
267.142	-195
267.203	38
267.264	-462
267.326	640
267.387	-109
267.448	-548
267.509	572
267.570	-189
267.631	-851
267.692	-808
267.753	1343
267.814	-476
267.875	521
267.936	2353
267.997	2130
268.058	1597
268.119	175
268.180	542
268.241	-8
268.302	591
268.363	267
268.424	701
268.485	69
268.546	-236
268.607	-536
268.668	73
268.729	-676
268.790	286
268.851	489
268.912	1650
268.972	1054
269.033	642
269.094	-319
269.155	597
269.216	-30
269.277	156
269.338	-545
269.398	438
269.459	-95
269.520	836
269.581	774
269.642	1196
269.702	34
269.763	657
269.824	-291
269.885	521
269.945	608
270.006	730
270.067	-389
270.128	-638
270.188	-527
270.249	-792
270.310	-323
270.370	433
270.431	476
270.492	-11
270.553	387
270.613	805
270.674	2565
270.734	1010
270.795	-40
270.856	903
270.916	153
270.977	-107
271.038	609
271.098	619
271.159	-102
271.219	1415
271.280	744
271.340	337
271.401	-227
271.462	736
271.522	-12
271.583	903
271.643	504
271.704	518
271.764	-267
271.825	1424
271.885	6287
271.946	7999
272.006	2361
272.066	3765
272.127	5552
272.187	1390
272.248	180
272.308	1263
272.369	3419
272.429	2590
272.489	1614
272.550	1304
272.610	1702
272.671	1469
272.731	1349
272.791	966
272.852	272
272.912	1168
272.972	223
273.033	86
273.093	147
273.153	1064
273.214	1022
273.274	684
273.334	3842
273.394	6122
273.455	1334
273.515	1765
273.575	4908
273.635	2391
273.696	2702
273.756	4758
273.816	1984
273.876	1523
273.936	1993
273.997	4647
274.057	544
274.117	-36
274.177	860
274.237	7229
274.297	6118
274.358	3486
274.418	3722
274.478	3649
274.538	1095
274.598	169
274.658	2327
274.718	3436
274.778	941
274.838	661
274.898	1305
274.958	3525
275.018	4640
275.078	3422
275.138	1054
275.198	771
275.258	70
275.318	1151
275.378	1214
275.438	1603
275.498	116
275.558	2393
275.618	5833
275.678	3740
275.738	3162
275.798	2409
275.858	1398
275.918	187
275.978	395
276.038	1237
276.098	-81
276.157	1148
276.217	3446
276.277	1998
276.337	294
276.397	747
276.457	688
276.517	419
276.576	623
276.636	777
276.696	614
276.756	2561
276.815	1130
276.875	591
276.935	377
276.995	1214
277.055	898
277.114	1296
277.174	399
277.234	2783
277.293	767
277.353	55
277.413	421
277.472	637
277.532	448
277.592	681
277.651	2525
277.711	5467
277.771	1135
277.830	7641
277.890	5153
277.950	3493
278.009	10864
278.069	4672
278.128	4760
278.188	6105
278.248	2057
278.307	6628
278.367	3656
278.426	1143
278.486	916
278.545	639
278.605	694
278.664	14
278.724	363
278.783	2920
278.843	5610
278.902	1258
278.962	83
279.021	1403
279.081	1977
279.140	1944
279.199	943
279.259	1286
279.318	1756
279.378	2435
279.437	3360
279.496	9835
279.556	45548
279.615	30172
279.675	7964
279.734	3864
279.793	5631
279.853	5437
279.912	2872
279.971	1726
280.031	2045
280.090	2032
280.149	3849
280.208	6049
280.268	32104
280.327	27107
280.386	5574
280.445	4103
280.505	3381
280.564	2427
280.623	721
280.682	2340
280.742	3005
280.801	1443
280.860	428
280.919	656
280.978	588
281.037	-312
281.097	-80
281.156	883
281.215	437
281.274	1301
281.333	3791
281.392	2702
281.451	578
281.510	480
281.569	-483
281.628	406
281.688	-200
281.747	1107
281.806	149
281.865	365
281.924	-493
281.983	49
282.042	-151
282.101	-66
282.160	619
282.219	-95
282.278	178
282.337	1936
282.396	885
282.454	69
282.513	182
282.572	3681
282.631	1815
282.690	285
282.749	76
282.808	1151
282.867	-66
282.926	708
282.985	653
283.043	-42
283.102	100
283.161	461
283.220	1443
283.279	3720
283.338	2089
283.396	843
283.455	413
283.514	136
283.573	1471
283.631	699
283.690	505
283.749	1019
283.808	1665
283.866	2134
283.925	-337
283.984	1365
284.043	410
284.101	748
284.160	-168
284.219	2130
284.277	1087
284.336	1896
284.395	5649
284.453	3472
284.512	2348
284.570	2236
284.629	1901
284.688	2096
284.746	2540
284.805	2761
284.863	2769
284.922	5036
284.981	6206
285.039	9068
285.098	14083
285.156	26539
285.215	38103
285.273	34666
285.332	28023
285.390	17917
285.449	10554
285.507	8070
285.566	5782
285.624	4208
285.683	3878
285.741	2931
285.799	2049
285.858	1845
285.916	1748
285.975	2348
286.033	1505
286.091	730
286.150	908
286.208	1654
286.267	876
286.325	815
286.383	2400
286.442	1033
286.500	534
286.558	287
286.616	33
286.675	610
286.733	701
286.791	1079
286.850	780
286.908	1048
286.966	1905
287.024	603
287.083	648
287.141	157
287.199	252
287.257	961
287.315	-55
287.374	40
287.432	2093
287.490	1833
287.548	697
287.606	845
287.664	853
287.723	1851
287.781	2046
287.839	897
287.897	1497
287.955	1794
288.013	3015
288.071	6252
288.129	21371
288.187	53647
288.245	25821
288.303	8685
288.361	4479
288.419	3300
288.477	1768
288.535	1849
288.593	1045
288.651	1152
288.709	181
288.767	780
288.825	582
288.883	842
288.941	1369
288.999	626
289.057	336
289.115	462
289.173	-311
289.231	552
289.289	-225
289.346	-257
289.404	-332
289.462	830
289.520	1032
289.578	1404
289.636	505
289.694	469
289.751	448
289.809	-150
289.867	208
289.925	1328
289.983	243
290.040	693
290.098	-205
290.156	39
290.214	554
290.271	-134
290.329	681
290.387	249
290.444	156
290.502	-126
290.560	186
290.617	1270
290.675	227
290.733	-463
290.790	522
290.848	732
290.906	242
290.963	-167
291.021	691
291.078	467
291.136	512
291.194	4002
291.251	6950
291.309	1927
291.366	1126
291.424	118
291.481	256
291.539	557
291.596	621
291.654	167
291.711	343
291.769	-39
291.826	1308
291.884	668
291.941	-258
291.999	-335
292.056	357
292.114	523
292.171	16
292.228	319
292.286	-212
292.343	1059
292.401	1430
292.458	833
292.515	-190
292.573	1431
292.630	629
292.687	1086
292.745	982
292.802	1421
292.859	5080
292.917	5443
292.974	2523
293.031	344
293.089	210
293.146	703
293.203	78
293.260	663
293.318	1328
293.375	2567
293.432	1412
293.489	1138
293.546	1276
293.604	1045
293.661	2494
293.718	8319
293.775	4880
293.832	2619
293.889	1475
293.947	1406
294.004	744
294.061	828
294.118	2389
294.175	6681
294.232	10941
294.289	5056
294.346	1406
294.403	2258
294.460	1171
294.517	1133
294.574	894
294.631	1103
294.688	766
294.745	2328
294.802	10400
294.859	14827
294.916	5389
294.973	2339
295.030	1624
295.087	1385
295.144	415
295.201	1760
295.258	308
295.315	881
295.372	4286
295.429	5921
295.486	3712
295.542	2519
295.599	7740
295.656	14217
295.713	7766
295.770	7181
295.827	3321
295.883	2080
295.940	1330
295.997	2216
296.054	1768
296.111	1565
296.167	1378
296.224	731
296.281	56
296.338	992
296.394	633
296.451	784
296.508	3324
296.564	6098
296.621	5765
296.678	7661
296.734	11574
296.791	5809
296.848	2350
296.904	2023
296.961	4650
297.018	7671
297.074	6257
297.131	3068
297.187	1692
297.244	2161
297.301	5491
297.357	11605
297.414	4257
297.470	2663
297.527	1616
297.583	1862
297.640	1455
297.696	208
297.753	451
297.809	355
297.866	1008
297.922	1475
297.979	419
298.035	330
298.092	1054
298.148	4191
298.204	4118
298.261	1947
298.317	4589
298.374	9752
298.430	5290
298.486	2514
298.543	1554
298.599	2051
298.656	2445
298.712	3546
298.768	8130
298.824	5809
298.881	1749
298.937	2384
298.993	1272
299.050	794
299.106	1547
299.162	1504
299.218	1515
299.275	1360
299.331	828
299.387	1452
299.443	7991
299.500	7215
299.556	3109
299.612	1996
299.668	776
299.724	1695
299.780	2217
299.837	1251
299.893	2106
299.949	6704
300.005	6622
300.061	6782
300.117	11988
300.173	6018
300.229	2170
300.285	2751
300.341	3506
300.397	1920
300.453	652
300.510	1201
300.566	953
300.622	1411
300.678	3710
300.734	6369
300.790	6094
300.845	7293
300.901	4214
300.957	6636
301.013	5298
301.069	2319
301.125	1170
301.181	1081
301.237	2206
301.293	618
301.349	921
301.405	982
301.461	1743
301.516	2257
301.572	1885
301.628	1556
301.684	2500
301.740	3453
301.796	5586
301.851	4481
301.907	5124
301.963	5376
302.019	7388
302.074	19063
302.130	20370
302.186	11504
302.242	5154
302.297	3329
302.353	3093
302.409	4569
302.464	5270
302.520	3934
302.576	7993
302.631	9342
302.687	5692
302.743	3020
302.798	1924
302.854	2749
302.910	1902
302.965	1906
303.021	3689
303.076	4521
303.132	3376
303.187	4052
303.243	2272
303.299	2203
303.354	1011
303.410	2398
303.465	1278
303.521	1835
303.576	1420
303.632	1469
303.687	2680
303.743	7401
303.798	6503
303.853	2762
303.909	2143
303.964	2329
304.020	1973
304.075	3869
304.130	3147
304.186	5210
304.241	5755
304.297	4733
304.352	2699
304.358	2662
304.407	2358
304.449	2434
304.463	2464
304.518	1951
304.539	1790
304.573	1514
304.629	2505
304.630	2489
304.684	1922
304.720	3967
304.739	4941
304.794	7591
304.811	6677
304.850	4526
304.902	2401
304.905	2268
304.960	1746
304.992	1915
305.015	2012
305.071	2683
305.083	2418
305.126	1444
305.173	1880
305.181	1967
305.236	1411
305.264	1473
305.292	1525
305.347	1091
305.354	1211
305.402	1994
305.445	2432
305.457	2535
305.512	3121
305.535	2821
305.567	2516
305.622	2243
305.626	2344
305.678	4461
305.716	7602
305.733	8589
305.788	8774
305.807	7826
305.843	6557
305.897	8082
305.898	8090
305.953	7841
305.988	5478
306.008	4273
306.063	3068
306.078	2650
306.118	1754
306.168	1478
306.173	1444
306.228	1630
306.259	1324
306.283	1127
306.338	1335
306.349	1443
306.393	1782
306.440	2244
306.448	2360
306.503	2516
306.530	2403
306.558	2709
306.613	6135
306.620	6454
306.668	7947
306.711	9117
306.723	9064
306.778	6934
306.801	5430
306.833	4102
306.888	2750
306.892	2717
306.943	2384
306.982	1888
306.997	1719
307.052	1517
307.072	1576
307.107	2032
307.162	2892
307.163	2902
307.217	4262
307.253	5371
307.272	5495
307.327	5206
307.343	4664
307.381	3822
307.434	3362
307.436	3447
307.491	7104
307.524	10108
307.546	10513
307.600	8573
307.614	7444
307.655	4671
307.704	2913
307.710	2967
307.765	4036
307.795	5526
307.819	6472
307.874	9600
307.885	9636
307.929	8232
307.975	7032
307.984	7252
308.038	9463
308.065	11327
308.093	17958
308.148	35201
308.156	38551
308.202	51426
308.246	58662
308.257	57087
308.312	36299
308.336	26610
308.366	20267
308.421	12558
308.426	11868
308.475	8211
308.517	6518
308.530	6008
308.585	4939
308.607	4798
308.639	5304
308.694	5739
308.697	5825
308.748	9668
308.787	13346
308.803	13111
308.857	9834
308.877	8451
308.912	7839
308.967	7765
308.967	7772
309.021	10128
309.058	12575
309.076	15550
309.130	25142
309.148	29041
309.185	46422
309.238	74807
309.239	74925
309.293	72588
309.328	67047
309.348	60054
309.402	34122
309.418	27112
309.457	20016
309.508	12947
309.511	12727
309.566	10913
309.598	10475
309.620	11054
309.674	13198
309.688	13885
309.729	13276
309.778	10984
309.783	10716
309.837	8085
309.868	6521
309.892	7513
309.946	10457
309.959	11457
310.001	13031
310.049	14154
310.055	13791
310.109	8941
310.139	6261
310.163	5284
310.218	3907
310.229	3658
310.272	3279
310.319	2947
310.326	2907
310.381	2693
310.409	2648
310.435	2767
310.489	2872
310.499	2909
310.543	2698
310.589	2645
310.598	2753
310.652	3196
310.679	3482
310.706	3022
310.760	1935
310.769	1752
310.814	1920
310.859	2194
310.868	2101
310.923	1559
310.948	1360
310.977	1808
311.031	2451
311.038	2570
311.085	2062
311.128	1380
311.139	1487
311.193	2260
311.218	2522
311.247	2012
311.301	1135
311.308	1029
311.356	1500
311.398	1916
311.410	1946
311.464	2020
311.488	2082
311.518	1892
311.572	1500
311.578	1459
311.626	2144
311.668	2782
311.680	2879
311.734	3215
311.758	3368
311.788	3009
311.842	2386
311.847	2315
311.896	4589
311.937	6663
311.950	6258
312.004	4378
312.027	3547
312.058	3232
312.112	2682
312.117	2630
312.165	2525
312.207	2440
312.297	4518
312.386	3214
312.476	2787
312.566	4086
312.656	2739
312.745	1804
312.835	2609
312.925	2245
313.015	2864
313.104	3154
313.194	2515
313.284	1828
313.374	2440
313.463	2116
313.553	2517
313.643	1376
313.732	1976
313.822	1299
313.912	2445
314.001	1981
314.091	2817
314.180	4325
314.270	3644
314.360	2915
314.449	1926
314.539	1168
314.628	2188
314.718	2525
314.808	3110
314.897	1514
314.987	2651
315.076	1793
315.166	1993
315.255	2852
315.345	2897
315.434	1395
315.524	2764
315.613	2290
315.703	3445
315.792	4880
315.881	10304
315.971	2771
316.060	5709
316.150	8964
316.239	8930
316.328	3596
316.418	2802
316.507	2118
316.597	2882
316.686	2419
316.775	5125
316.865	8938
316.954	2981
317.043	1699
317.133	2576
317.222	1129
317.311	2429
317.400	94
317.490	2785
317.579	2261
317.668	2225
317.757	1888
317.847	6981
317.936	16420
318.025	6920
318.114	4028
318.203	3056
318.293	4421
318.382	7693
318.471	5906
318.560	12123
318.649	22165
318.738	4362
318.828	2322
318.917	2961
319.006	4490
319.095	11807
319.184	28478
319.273	11533
319.362	4186
319.451	2977
319.540	2032
319.629	4170
319.718	6195
319.807	4105
319.896	11073
319.985	33071
320.074	8491
320.163	3481
320.252	5689
320.341	7154
320.430	4870
320.519	4539
320.608	1940
320.697	3499
320.786	2299
320.875	3487
320.964	2642
321.053	5048
321.142	5435
321.230	5770
321.319	5895
321.408	12846
321.497	4865
321.586	5963
321.675	9524
321.764	8048
321.852	5789
321.941	7159
322.030	3988
322.119	7033
322.207	13230
322.296	12946
322.385	6759
322.474	6617
322.562	14116
322.651	8290
322.740	4888
322.829	9086
322.917	11269
323.006	5286
323.095	4182
323.183	4983
323.272	6947
323.361	12056
323.449	33515
323.538	10107
323.626	25606
323.715	12508
323.804	6918
323.892	23492
323.981	9324
324.069	4587
324.158	15559
324.246	10457
324.335	3616
324.424	4688
324.512	1736
324.601	2722
324.689	5179
324.778	9111
324.866	7443
324.954	3429
325.043	2156
325.131	5993
325.220	11167
325.308	10955
325.397	8430
325.485	3817
325.574	1650
325.662	2366
325.750	813
325.839	2115
325.927	1632
326.015	2348
326.104	4607
326.192	5874
326.280	1491
326.369	1534
326.457	1921
326.545	3319
326.634	1179
326.722	1500
326.810	1461
326.898	2331
326.987	1999
327.075	3515
327.163	5784
327.251	2668
327.340	3243
327.428	4229
327.516	1023
327.604	2243
327.692	2022
327.781	3814
327.869	4000
327.957	2246
328.045	1034
328.133	1373
328.221	2665
328.309	1902
328.397	1769
328.485	2793
328.574	2367
328.662	7080
328.750	4836
328.838	2933
328.926	1015
329.014	1859
329.102	2707
329.190	8614
329.278	3478
329.366	1744
329.454	1193
329.542	1859
329.630	1527
329.718	1940
329.806	1729
329.893	3171
329.981	1476
330.069	948
330.157	1847
330.245	2647
330.333	1618
330.421	1435
330.509	2627
330.597	8518
330.684	4921
330.772	4305
330.860	6553
330.948	8650
331.036	2414
331.123	1420
331.211	1331
331.299	2480
331.387	8487
331.475	11162
331.562	2785
331.650	2156
331.738	1948
331.825	3119
331.913	1284
332.001	2354
332.089	2752
332.176	5980
332.264	13472
332.352	8785
332.439	2420
332.527	2239
332.614	2588
332.702	3147
332.790	1675
332.877	7216
332.965	11187
333.052	2880
333.140	2817
333.228	6557
333.315	1223
333.403	2828
333.490	8549
333.578	5218
333.665	6074
333.753	3539
333.840	1294
333.928	2755
334.015	8107
334.103	13573
334.190	34820
334.278	6906
334.365	3868
334.452	2826
334.540	1405
334.627	2820
334.715	3422
334.802	8619
334.889	45552
334.977	32748
335.064	4019
335.151	2729
335.239	2051
335.326	4742
335.413	20236
335.501	20264
335.588	3478
335.675	3101
335.762	4108
335.850	6352
335.937	2952
336.024	12850
336.111	44281
336.199	13682
336.286	3269
336.373	2517
336.460	849
336.547	2229
336.635	2654
336.722	2191
336.809	1998
336.896	3527
336.983	12492
337.070	29082
337.157	34031
337.245	29632
337.332	16173
337.419	2564
337.506	1450
337.593	3830
337.680	12014
337.767	28463
337.854	6793
337.941	9023
338.028	9907
338.115	3527
338.202	5539
338.289	9509
338.376	26179
338.463	8167
338.550	19827
338.637	15197
338.724	7035
338.811	8898
338.898	2185
338.984	2063
339.071	2126
339.158	2085
339.245	5345
339.332	3842
339.419	7260
339.506	5112
339.593	166
339.679	1296
339.766	937
339.853	2918
339.940	3234
340.027	2285
340.113	1480
340.200	1903
340.287	1338
340.374	1595
340.460	2824
340.547	721
340.634	2082
340.720	8566
340.807	2688
340.894	1161
340.980	1090
341.067	883
341.154	1652
341.240	2603
341.327	2857
341.414	2470
341.500	1486
341.587	2163
341.674	711
341.760	2925
341.847	2144
341.933	1717
342.020	-214
342.106	790
342.193	1379
342.279	2410
342.366	1069
342.452	2744
342.539	1411
342.625	3467
342.712	7727
342.798	3560
342.885	1044
342.971	968
343.058	419
343.144	496
343.230	1110
343.317	1633
343.403	345
343.490	837
343.576	621
343.662	1188
343.749	1099
343.835	1197
343.921	3031
344.008	19811
344.094	34912
344.180	7373
344.267	1905
344.353	11050
344.439	11179
344.525	4477
344.612	5351
344.698	6634
344.784	2647
344.870	1574
344.957	1195
345.043	2491
345.129	388
345.215	3079
345.301	1493
345.387	816
345.474	978
345.560	1584
345.646	1218
345.732	1905
345.818	1671
345.904	1449
345.990	1189
346.076	2637
346.162	3096
346.249	1795
346.335	370
346.421	1755
346.507	3957
346.593	13626
346.679	1462
346.765	2444
346.851	-7
346.937	965
347.023	1692
347.108	1517
347.194	376
347.280	1689
347.366	563
347.452	4942
347.538	16438
347.624	13112
347.710	9611
347.796	2354
347.882	1186
347.967	1601
348.053	1829
348.139	2165
348.225	141
348.311	324
348.397	476
348.482	1737
348.568	1277
348.654	434
348.740	81
348.825	-176
348.911	2282
348.997	9051
349.083	14819
349.168	2500
349.254	1342
349.340	1033
349.425	407
349.511	1638
349.597	1237
349.682	3219
349.768	8756
349.854	3761
349.939	925
350.025	1296
350.110	418
350.196	696
350.282	-597
350.367	1571
350.453	2795
350.538	2185
350.624	562
350.709	1966
350.795	692
350.880	1231
350.966	813
351.051	3219
351.137	1503
351.222	1545
351.308	3399
351.393	7081
351.479	1232
351.564	237
351.649	1020
351.735	561
351.820	-44
351.906	893
351.991	1333
352.076	5304
352.162	6515
352.247	2002
352.332	1141
352.418	1829
352.503	2391
352.588	12646
352.673	6783
352.759	2112
352.844	621
352.929	1234
353.014	474
353.100	723
353.185	552
353.270	2389
353.355	1853
353.441	1241
353.526	1381
353.611	3260
353.696	1969
353.781	2512
353.866	-648
353.952	1549
354.037	1882
354.122	5826
354.207	3793
354.292	1463
354.377	655
354.462	888
354.547	152
354.632	1738
354.717	2113
354.802	-98
354.887	224
354.972	823
355.057	812
355.142	126
355.227	786
355.312	1414
355.397	2850
355.482	7770
355.567	2106
355.652	3670
355.737	2744
355.822	11601
355.907	6532
355.991	2603
356.076	100
356.161	748
356.246	205
356.331	1272
356.416	2199
356.501	20134
356.585	15405
356.670	2647
356.755	2416
356.840	2897
356.924	13174
357.009	41703
357.094	13857
357.179	2993
357.263	2030
357.348	2953
357.433	2404
357.517	2831
357.602	1934
357.687	930
357.771	3700
357.856	13728
357.941	6719
358.025	12933
358.110	42658
358.195	16521
358.279	2059
358.364	2296
358.448	7557
358.533	20037
358.617	13286
358.702	13411
358.787	3779
358.871	3508
358.956	1616
359.040	202
359.125	249
359.209	1433
359.294	7089
359.378	9726
359.462	2207
359.547	1883
359.631	1285
359.716	-213
359.800	1251
359.885	3612
359.969	-164
360.053	1325
360.138	772
360.222	1149
360.306	2310
360.391	3333
360.475	7670
360.559	11937
360.644	6712
360.728	4199
360.812	11329
360.896	27008
360.981	12037
361.065	6240
361.149	1463
361.233	964
361.318	-388
361.402	861
361.486	1395
361.570	387
361.654	894
361.739	3154
361.823	19027
361.907	25969
361.991	3216
362.075	2960
362.159	3753
362.243	3626
362.327	1887
362.411	5010
362.495	2085
362.580	1284
362.664	188
362.748	135
362.832	1082
362.916	964
363.000	7509
363.084	23118
363.168	28528
363.252	5483
363.336	2505
363.420	5724
363.503	24831
363.587	24488
363.671	3362
363.755	1630
363.839	3398
363.923	552
364.007	2320
364.091	3929
364.175	9361
364.258	38522
364.342	17187
364.426	12902
364.510	5748
364.594	6291
364.677	7012
364.761	23621
364.845	14372
364.929	4151
365.013	2772
365.096	3751
365.180	2679
365.264	12057
365.347	37760
365.431	15558
365.515	3222
365.598	518
365.682	1722
365.766	4533
365.849	4824
365.933	1936
366.017	4315
366.100	2575
366.184	516
366.267	2472
366.351	436
366.435	427
366.518	-402
366.602	968
366.685	-59
366.769	1392
366.852	3731
366.936	4940
367.019	1300
367.103	2716
367.186	7057
367.270	1412
367.353	-1251
367.436	1337
367.520	-2
367.603	1430
367.687	172
367.770	2093
367.853	2206
367.937	8266
368.020	10588
368.104	1574
368.187	2015
368.270	3304
368.353	1510
368.437	7309
368.520	18224
368.603	8341
368.687	7431
368.770	13190
368.853	2864
368.936	5644
369.020	5487
369.103	1181
369.186	-517
369.269	447
369.352	1722
369.436	3138
369.519	1915
369.602	-420
369.685	1384
369.768	785
369.851	889
369.934	633
370.018	105
370.101	1913
370.184	3978
370.267	2921
370.350	3476
370.433	5286
370.516	13064
370.599	14959
370.682	2345
370.765	8358
370.848	10453
370.931	17888
371.014	8245
371.097	275
371.180	1337
371.263	796
371.346	-828
371.429	871
371.511	44
371.594	2071
371.677	4839
371.760	6762
371.843	3642
371.926	17905
372.009	31855
372.091	12033
372.174	7879
372.257	19151
372.340	5731
372.423	9136
372.505	11089
372.588	4003
372.671	6508
372.754	16650
372.836	7519
372.919	13821
373.002	22615
373.085	4734
373.167	3121
373.250	7817
373.332	16044
373.415	27212
373.498	44400
373.580	17665
373.663	26413
373.746	29067
373.828	5783
373.911	4148
373.993	4962
374.076	24043
374.159	18790
374.241	7240
374.324	14950
374.406	10267
374.489	15274
374.571	38836
374.654	12208
374.736	9624
374.819	24627
374.901	36374
374.983	31552
375.066	6233
375.148	3878
375.231	20498
375.313	33181
375.395	10724
375.478	1155
375.560	2616
375.643	1860
375.725	8938
375.807	31509
375.890	28881
375.972	13386
376.054	9129
376.136	14717
376.219	5780
376.301	10906
376.383	23995
376.465	8417
376.548	5447
376.630	7021
376.712	21687
376.794	8624
376.877	545
376.959	-42
377.041	1995
377.123	6374
377.205	6287
377.287	135
377.369	1114
377.452	706
377.534	930
377.616	233
377.698	798
377.780	-1376
377.862	339
377.944	1194
378.026	-455
378.108	453
378.190	633
378.272	671
378.354	-90
378.436	156
378.518	2649
378.600	9327
378.682	6899
378.764	9511
378.846	7282
378.928	2859
379.010	3424
379.091	1594
379.173	877
379.255	-1073
379.337	926
379.419	6023
379.501	14173
379.583	6302
379.664	1721
379.746	2632
379.828	11956
379.910	11974
379.991	10644
380.073	1248
380.155	892
380.237	831
380.318	299
380.400	35
380.482	1968
380.564	2310
380.645	1824
380.727	1612
380.809	2278
380.890	244
380.972	-245
381.053	351
381.135	2429
381.217	2808
381.298	10471
381.380	3978
381.461	5951
381.543	22615
381.624	24111
381.706	4155
381.787	3351
381.869	3230
381.951	12243
382.032	34861
382.113	21962
382.195	2689
382.276	4646
382.358	6275
382.439	18140
382.521	24306
382.602	33549
382.684	16244
382.765	29576
382.846	32521
382.928	41592
383.009	21965
383.090	22117
383.172	66789
383.253	83966
383.334	31410
383.416	30930
383.497	15758
383.578	9265
383.659	19427
383.741	66409
383.822	131154
383.903	60329
383.984	25082
384.066	37182
384.147	20287
384.228	4748
384.309	3110
384.390	2131
384.471	1796
384.553	2385
384.634	2892
384.715	3385
384.796	1465
384.877	2153
384.958	9989
385.039	10038
385.120	2787
385.201	3398
385.282	3416
385.363	4174
385.444	2231
385.525	4954
385.606	15179
385.687	12307
385.768	4971
385.849	5189
385.930	19528
386.011	28975
386.092	6330
386.173	1991
386.254	2374
386.335	3882
386.416	2867
386.496	8094
386.577	10926
386.658	5548
386.739	2546
386.820	4112
386.901	1856
386.981	3792
387.062	1592
387.143	2704
387.224	9835
387.304	10207
387.385	3691
387.466	2367
387.547	4401
387.627	1889
387.708	4785
387.789	20417
387.869	20091
387.950	6236
388.031	571
388.111	1679
388.192	8736
388.273	12379
388.353	4810
388.434	2240
388.514	3794
388.595	19135
388.676	20078
388.756	10353
388.837	8554
388.917	4527
388.998	-465
389.078	2618
389.159	737
389.239	35
389.320	2846
389.400	793
389.480	5726
389.561	11471
389.641	4782
389.722	2380
389.802	1896
389.883	5801
389.963	13918
390.043	8403
390.124	2987
390.204	5037
390.284	11163
390.365	8230
390.445	17682
390.525	35122
390.605	22285
390.686	5596
390.766	2132
390.846	1819
390.927	-566
391.007	617
391.087	1492
391.167	-25
391.247	-617
391.328	3924
391.408	5491
391.488	4591
391.568	-1155
391.648	958
391.728	1142
391.808	1904
391.888	1064
391.969	6510
392.049	9378
392.129	6050
392.209	6039
392.289	13470
392.369	8217
392.449	10425
392.529	5396
392.609	4025
392.689	4530
392.769	11942
392.849	9295
392.929	12616
393.009	22050
393.089	12359
393.169	12006
393.248	51359
393.328	184455
393.408	170770
393.488	35259
393.568	8966
393.648	4548
393.728	2815
393.807	1460
393.887	3301
393.967	2261
394.047	3491
394.127	4095
394.206	9635
394.286	35670
394.366	114119
394.446	110561
394.525	30619
394.605	8094
394.685	8187
394.764	17972
394.844	25039
394.924	14612
395.003	2900
395.083	1370
395.163	2595
395.242	1714
395.322	2794
395.402	-564
395.481	4743
395.561	11090
395.640	26120
395.720	18450
395.799	30436
395.879	22558
395.958	16825
396.038	54519
396.117	147133
396.197	146282
396.276	56334
396.356	20033
396.435	14777
396.515	8415
396.594	6108
396.673	12727
396.753	60627
396.832	162349
396.912	102852
396.991	17716
397.070	6497
397.150	1439
397.229	3214
397.308	2024
397.388	3271
397.467	2061
397.546	1575
397.625	-1036
397.705	2722
397.784	1351
397.863	830
397.942	415
398.022	1262
398.101	9670
398.180	26454
398.259	12741
398.338	3012
398.417	714
398.497	855
398.576	1235
398.655	-304
398.734	953
398.813	1105
398.892	9673
398.971	28037
399.050	10779
399.129	607
399.208	481
399.287	848
399.366	-793
399.445	-18
399.524	398
399.603	-329
399.682	1783
399.761	8984
399.840	28942
399.919	20798
399.998	1371
400.077	-431
400.156	-1140
400.235	2465
400.313	255
400.392	759
400.471	5570
400.550	7937
400.629	691
400.708	1465
400.786	2316
400.865	7239
400.944	5602
401.023	3728
401.102	-238
401.180	174
401.259	-78
401.338	1419
401.416	713
401.495	615
401.574	1563
401.652	806
401.731	1451
401.810	-86
401.888	22
401.967	-245
402.046	284
402.124	1472
402.203	317
402.281	1525
402.360	1962
402.438	9244
402.517	4659
402.596	2095
402.674	937
402.753	221
402.831	597
402.910	1139
402.988	1052
403.066	3182
403.145	2005
403.223	1680
403.302	1014
403.380	1918
403.459	454
403.537	646
403.615	204
403.694	-823
403.772	-180
403.850	351
403.929	-556
404.007	298
404.085	1526
404.164	612
404.242	1920
404.320	12968
404.398	28033
404.477	25049
404.555	33766
404.633	29551
404.711	20615
404.789	12460
404.868	2346
404.946	345
405.024	308
405.102	34
405.180	-424
405.258	-1017
405.336	-62
405.415	96
405.493	1874
405.571	1164
405.649	-1117
405.727	-171
405.805	2147
405.883	839
405.961	2146
406.039	1679
406.117	-1193
406.195	1296
406.273	5742
406.351	22591
406.429	13164
406.507	2879
406.585	-325
406.663	881
406.740	-26
406.818	-321
406.896	-1039
406.974	1102
407.052	1314
407.130	13757
407.208	16173
407.285	3295
407.363	127
407.441	408
407.519	-491
407.596	823
407.674	1663
407.752	5843
407.830	7514
407.907	3725
407.985	-547
408.063	983
408.141	-468
408.218	2398
408.296	260
408.373	-342
408.451	-293
408.529	35
408.606	-814
408.684	-369
408.762	-629
408.839	-507
408.917	-1313
408.994	-132
409.072	-1760
409.149	500
409.227	158
409.304	471
409.382	-223
409.459	-419
409.537	555
409.614	-175
409.692	-996
409.769	-984
409.846	231
409.924	2498
410.001	-1441
410.079	35
410.156	733
410.233	772
410.311	-120
410.388	87
410.465	-24
410.543	-134
410.620	294
410.697	486
410.775	-1595
410.852	-1608
410.929	-28
411.006	486
411.083	-449
411.161	1480
411.238	2306
411.315	1647
411.392	-863
411.469	970
411.547	882
411.624	-1543
411.701	-481
411.778	893
411.855	425
411.932	100
412.009	-825
412.086	-73
412.163	536
412.240	501
412.317	207
412.394	515
412.471	453
412.548	-335
412.625	-730
412.702	830
412.779	977
412.856	953
412.933	-1220
413.010	-13
413.087	957
413.164	4833
413.241	5831
413.318	1177
413.395	409
413.471	188
413.548	280
413.625	860
413.702	-266
413.779	-151
413.855	-788
413.932	-315
414.009	-944
414.086	236
414.162	-728
414.239	1049
414.316	5371
414.393	10826
414.469	610
414.546	-346
414.623	-1424
414.699	421
414.776	-490
414.853	-390
414.929	-540
415.006	-365
415.082	566
415.159	-358
415.236	-331
415.312	-54
415.389	-300
415.465	380
415.542	-554
415.618	-424
415.695	443
415.771	-501
415.848	-837
415.924	638
416.000	-807
416.077	945
416.153	-2031
416.230	-794
416.306	-1294
416.383	-1078
416.459	-438
416.535	-109
416.612	-929
416.688	-1034
416.764	-850
416.841	-993
416.917	-820
416.993	-143
417.069	740
417.146	796
417.222	736
417.298	-85
417.374	-1107
417.451	834
417.527	-267
417.603	-100
417.679	-306
417.755	101
417.831	-1951
417.908	-100
417.984	89
418.060	-1916
418.136	-186
418.212	604
418.288	-477
418.364	-55
418.440	-1335
418.516	1393
418.592	1956
418.668	2588
418.744	1603
418.820	1477
418.896	-299
418.972	-482
419.048	-1041
419.124	1615
419.200	-622
419.276	-414
419.352	-846
419.428	-485
419.504	-765
419.579	805
419.655	-1514
419.731	-754
419.807	1372
419.883	2016
419.959	529
420.034	102
420.110	883
420.186	5761
420.262	3665
420.337	452
420.413	-938
420.489	-832
420.565	409
420.640	-182
420.716	-564
420.792	-1577
420.867	292
420.943	-1086
421.019	407
421.094	-404
421.170	-813
421.245	-818
421.321	-1035
421.397	-452
421.472	487
421.548	1685
421.623	1107
421.699	481
421.774	-235
421.850	-233
421.925	567
422.001	-436
422.076	-623
422.152	290
422.227	1195
422.302	2435
422.378	2792
422.453	6311
422.529	19706
422.604	71003
422.679	118102
422.755	59721
422.830	15447
422.905	5406
422.981	2175
423.056	1786
423.131	687
423.207	447
423.282	-97
423.357	2213
423.432	226
423.508	803
423.583	1454
423.658	1118
423.733	258
423.808	442
423.883	581
423.959	329
424.034	-708
424.109	363
424.184	-1207
424.259	-442
424.334	-1369
424.409	-824
424.484	-878
424.559	-101
424.634	-920
424.709	-474
424.784	383
424.859	-201
424.934	-341
425.009	4195
425.084	5761
425.159	1633
425.234	145
425.309	329
425.384	3893
425.459	5961
425.534	925
425.609	24
425.683	-182
425.758	-207
425.833	-1574
425.908	771
425.983	2152
426.058	5682
426.132	2014
426.207	475
426.282	3322
426.357	993
426.431	-538
426.506	402
426.581	-285
426.655	513
426.730	38
426.805	-851
426.879	-250
426.954	-373
427.029	188
427.103	8417
427.178	17696
427.253	7048
427.327	333
427.402	3005
427.476	8606
427.551	2994
427.625	569
427.700	1513
427.774	-1569
427.849	568
427.923	-1578
427.998	204
428.072	-999
428.147	2515
428.221	6734
428.296	15202
428.370	5910
428.444	989
428.519	2865
428.593	7196
428.667	5939
428.742	8104
428.816	6399
428.890	17305
428.965	20724
429.039	9498
429.113	7630
429.188	2844
429.262	-928
429.336	1312
429.410	2813
429.485	3684
429.559	5091
429.633	3244
429.707	411
429.781	4164
429.855	19084
429.930	22894
430.004	19391
430.078	32756
430.152	24041
430.226	25061
430.300	20028
430.374	2386
430.448	2627
430.522	11491
430.596	27308
430.670	14566
430.744	19319
430.818	24399
430.892	4068
430.966	395
431.040	-165
431.114	-509
431.188	-1153
431.262	-186
431.336	647
431.410	3846
431.484	7338
431.557	3432
431.631	-865
431.705	201
431.779	2377
431.853	13273
431.927	7264
432.000	610
432.074	-640
432.148	822
432.222	-372
432.295	-416
432.369	96
432.443	918
432.516	9250
432.590	18821
432.664	6310
432.737	54
432.811	-1266
432.885	-26
432.958	-428
433.032	-1018
433.106	-1512
433.179	-544
433.253	-1027
433.326	-560
433.400	-1673
433.473	-69
433.547	-1731
433.620	-924
433.694	-1595
433.767	465
433.841	-452
433.914	-575
433.988	-1072
434.061	-231
434.134	-1074
434.208	-330
434.281	-710
434.355	-547
434.428	-403
434.501	39
434.575	-1554
434.648	-315
434.721	-1166
434.795	-431
434.868	-1501
434.941	-979
435.014	-645
435.088	-549
435.161	-569
435.234	314
435.307	-810
435.381	-297
435.454	-750
435.527	325
435.600	-407
435.673	-60
435.746	-805
435.819	-463
435.892	-605
435.966	-370
436.039	-1023
436.112	558
436.185	-1383
436.258	-639
436.331	-2005
436.404	-814
436.477	-998
436.550	-1418
436.623	-976
436.696	-197
436.769	-858
436.842	-1330
436.915	-1361
436.987	-231
437.060	-1870
437.133	588
437.206	-1320
437.279	-713
437.352	-1400
437.425	-1015
437.498	-1261
437.570	622
437.643	-32
437.716	-1302
437.789	-1171
437.861	-39
437.934	1611
438.007	-116
438.080	-1679
438.152	-588
438.225	1370
438.298	11714
438.370	26582
438.443	9431
438.516	1004
438.588	-352
438.661	-1190
438.734	-90
438.806	-581
438.879	336
438.951	-212
439.024	698
439.096	-800
439.169	-247
439.241	-1565
439.314	-930
439.386	-127
439.459	1174
439.531	795
439.604	-444
439.676	-366
439.749	-400
439.821	-2054
439.893	-168
439.966	-414
440.038	-344
440.110	-560
440.183	-739
440.255	-1653
440.327	281
440.400	5009
440.472	17547
440.544	9018
440.617	1088
440.689	622
440.761	622
440.833	1179
440.905	717
440.978	-934
441.050	-786
441.122	-277
441.194	-984
441.266	-1588
441.338	-840
441.411	36
441.483	4177
441.555	5266
441.627	1221
441.699	2018
441.771	1276
441.843	-665
441.915	-586
441.987	-944
442.059	-121
442.131	-353
442.203	758
442.275	-49
442.347	1301
442.419	-323
442.491	5558
442.563	11568
442.635	6904
442.706	6868
442.778	4599
442.850	-222
442.922	-452
442.994	-412
443.066	780
443.137	-176
443.209	-422
443.281	-3
443.353	3331
443.425	8886
443.496	23943
443.568	18314
443.640	5379
443.711	341
443.783	-145
443.855	-28
443.926	-1131
443.998	11
444.070	1110
444.141	401
444.213	66
444.285	78
444.356	424
444.428	682
444.499	-401
444.571	-1281
444.642	-275
444.714	-1026
444.785	353
444.857	2965
444.928	5840
445.000	2250
445.071	4011
445.143	3721
445.214	658
445.285	3934
445.357	12090
445.428	21749
445.500	40301
445.571	24118
445.642	10079
445.714	7574
445.785	9310
445.856	612
445.928	776
445.999	-420
446.070	-54
446.141	-183
446.213	198
446.284	-289
446.355	779
446.426	38
446.497	-85
446.569	1245
446.640	995
446.711	-545
446.782	-207
446.853	213
446.924	314
446.995	-771
447.066	178
447.138	1154
447.209	759
447.280	-727
447.351	-1519
447.422	-1613
447.493	-9
447.564	-146
447.635	-461
447.706	-833
447.777	-1031
447.847	-1065
447.918	-595
447.989	-324
448.060	1431
448.131	3442
448.202	2058
448.273	326
448.344	723
448.414	-746
448.485	-426
448.556	-512
448.627	-132
448.698	-392
448.768	-481
448.839	-639
448.910	1088
448.981	1136
449.051	-607
449.122	-1605
449.193	-203
449.263	-872
449.334	-326
449.405	-786
449.475	443
449.546	597
449.616	2641
449.687	727
449.758	-451
449.828	-1219
449.899	-894
449.969	-1392
450.040	-505
450.110	411
450.181	423
450.251	-1382
450.322	-834
450.392	-363
450.463	-735
450.533	-1419
450.604	-477
450.674	-1817
450.744	-234
450.815	-1219
450.885	-142
450.955	-1061
451.026	-308
451.096	-231
451.166	-124
451.237	2430
451.307	6499
451.377	1302
451.447	-500
451.518	-895
451.588	119
451.658	-845
451.728	612
451.799	7189
451.869	7698
451.939	576
452.009	-478
452.079	-823
452.149	711
452.219	1910
452.289	8522
452.360	4232
452.430	-262
452.500	-77
452.570	182
452.640	1569
452.710	4880
452.780	6306
452.850	1905
452.920	580
452.990	-281
453.060	-326
453.129	128
453.199	1045
453.269	12150
453.339	19190
453.409	26258
453.479	31736
453.549	45878
453.619	44615
453.688	13236
453.758	396
453.828	772
453.898	-827
453.968	-409
454.037	-395
454.087	-252
454.107	-212
454.168	-719
454.177	-810
454.247	-835
454.249	-791
454.316	-371
454.330	-113
454.386	629
454.411	2018
454.456	4078
454.492	4617
454.525	5110
454.574	1589
454.595	68
454.655	-21
454.665	-6
454.734	124
454.736	251
454.804	2660
454.817	3880
454.873	8047
454.898	7910
454.943	7630
454.979	4733
455.013	2350
455.060	2011
455.082	1971
455.141	2096
455.152	1973
455.221	7764
455.222	7891
455.291	10631
455.303	9745
455.360	6052
455.384	6910
455.430	7922
455.465	6879
455.499	5724
455.546	7411
455.569	7847
455.627	4517
455.638	4039
455.707	370
455.708	388
455.777	569
455.789	436
455.846	-449
455.869	-140
455.916	533
455.950	491
455.985	275
456.031	553
456.054	743
456.112	410
456.124	331
456.193	505
456.193	486
456.262	938
456.274	1021
456.332	1056
456.355	1100
456.401	935
456.436	453
456.470	82
456.516	-101
456.540	-240
456.597	451
456.609	603
456.678	85
456.678	68
456.747	-137
456.759	-180
456.817	-349
456.840	-108
456.886	342
456.920	402
456.955	574
457.001	927
457.024	1023
457.082	742
457.093	650
457.162	1617
457.163	1637
457.232	1588
457.243	1589
457.301	1519
457.324	1031
457.370	218
457.405	582
457.439	921
457.485	278
457.508	-22
457.566	1349
457.577	1606
457.646	1127
457.647	1146
457.715	1441
457.727	1479
457.784	1626
457.808	2336
457.853	3453
457.889	3838
457.922	3862
457.969	3151
457.991	3136
458.050	3278
458.060	3265
458.129	5483
458.130	5524
458.198	4350
458.211	3908
458.267	2225
458.292	1642
458.336	1318
458.372	1544
458.405	2265
458.453	3334
458.474	3721
458.533	5867
458.543	6145
458.611	8340
458.614	8404
458.680	5087
458.694	4010
458.749	2281
458.775	2220
458.818	2173
458.855	2219
458.887	2119
458.936	1550
458.955	1438
459.016	1346
459.024	1366
459.093	2647
459.097	2661
459.162	2082
459.177	2059
459.230	2301
459.257	2344
459.299	2366
459.338	2813
459.368	3030
459.418	2841
459.437	2637
459.499	2176
459.505	2185
459.574	2025
459.579	2072
459.643	2333
459.659	2209
459.711	1883
459.740	2210
459.780	2889
459.820	3016
459.849	2778
459.900	2982
459.917	3179
459.981	3145
459.986	3097
460.054	3017
460.061	2985
460.123	3000
460.141	3227
460.191	3975
460.222	4005
460.260	3773
460.302	4120
460.328	3993
460.382	3405
460.397	3465
460.462	3731
460.465	3793
460.534	4720
460.543	5005
460.602	8934
460.623	10222
460.671	14445
460.703	18438
460.739	15422
460.783	9211
460.808	7512
460.864	3903
460.876	3765
460.944	3404
460.945	3392
461.013	3308
461.024	3257
461.081	3292
461.104	3491
461.150	3572
461.184	3404
461.218	3328
461.264	3212
461.286	3175
461.345	3148
461.355	3232
461.423	4241
461.425	4241
461.491	3693
461.505	3866
461.559	8697
461.585	10698
461.628	14343
461.665	18466
461.696	19195
461.745	20611
461.764	17871
461.825	5505
461.832	5300
461.901	3843
461.905	3893
461.969	3935
461.985	3647
462.037	3989
462.065	4448
462.105	5239
462.145	6226
462.173	8000
462.225	11207
462.241	11970
462.305	15794
462.310	15342
462.378	7233
462.385	6192
462.446	4246
462.465	3994
462.514	4230
462.545	4297
462.582	4157
462.625	4379
462.650	4645
462.705	4415
462.718	4538
462.785	5946
462.786	5973
462.854	6980
462.865	7237
462.922	8017
462.945	8308
462.990	6753
463.025	5078
463.058	4563
463.104	4033
463.126	4045
463.184	4301
463.194	4334
463.262	4060
463.264	4068
463.330	5293
463.344	5503
463.398	5257
463.424	5192
463.466	5580
463.504	5873
463.533	5894
463.583	5782
463.601	5791
463.663	5735
463.669	5883
463.737	8134
463.743	8285
463.805	13396
463.823	14967
463.873	20918
463.903	24723
463.940	24200
463.982	23688
464.008	19065
464.062	7574
464.076	7168
464.142	5699
464.144	5675
464.211	4877
464.221	4830
464.279	5618
464.301	5797
464.347	5906
464.381	6115
464.414	6782
464.461	7589
464.482	7930
464.540	8834
464.550	8574
464.617	6636
464.620	6560
464.685	7031
464.699	7083
464.753	8766
464.779	9650
464.820	9877
464.859	10048
464.888	9839
464.938	9471
464.956	9765
465.018	10772
465.023	10666
465.091	8842
465.098	8646
465.158	8558
465.177	8571
465.226	8781
465.257	8838
465.293	8512
465.336	7999
465.361	8513
465.416	9752
465.428	10888
465.495	17040
465.496	17116
465.563	24066
465.575	25341
465.631	27732
465.654	28678
465.698	18214
465.734	8993
465.765	8403
465.813	7731
465.833	7966
465.893	8801
465.900	8692
465.968	7584
465.972	7499
466.035	7005
466.052	6836
466.102	7145
466.131	7327
466.170	7414
466.210	7445
466.237	7650
466.290	8058
466.304	8160
466.369	8403
466.372	8418
466.439	8423
466.449	8394
466.506	9614
466.528	10081
466.573	14727
466.607	18151
466.641	24204
466.687	32633
466.708	34096
466.766	38019
466.775	35026
466.842	11742
466.845	10618
466.909	8682
466.925	8243
466.977	8463
467.004	8574
467.044	9496
467.083	10396
467.111	11488
467.163	13461
467.178	13589
467.242	13993
467.245	13976
467.312	13031
467.321	12881
467.379	13003
467.400	13005
467.446	14099
467.480	14842
467.559	13294
467.638	11672
467.717	11113
467.796	12618
467.875	12151
467.955	13013
468.034	23105
468.113	40315
468.192	51325
468.271	13398
468.350	11109
468.429	11816
468.508	11853
468.588	11258
468.667	11031
468.746	11638
468.825	11027
468.904	10088
468.983	12738
469.062	18637
469.141	19587
469.220	11289
469.299	11192
469.378	11598
469.456	13807
469.535	12677
469.614	12227
469.693	13487
469.772	16827
469.851	21289
469.930	13950
470.009	10468
470.088	10436
470.166	11590
470.245	12611
470.324	13068
470.403	12511
470.482	10760
470.560	9699
470.639	9954
470.718	12358
470.797	11743
470.875	12535
470.954	15970
471.033	16393
471.111	9488
471.190	9530
471.269	8898
471.347	9579
471.426	10513
471.505	11690
471.583	12215
471.662	11215
471.740	10064
471.819	10721
471.898	10357
471.976	10259
472.055	11137
472.133	10989
472.212	15388
472.290	14675
472.369	10844
472.447	10084
472.526	8877
472.604	9535
472.683	9149
472.761	9314
472.839	10118
472.918	9250
472.996	11342
473.075	11225
473.153	10694
473.231	9180
473.310	11157
473.388	10386
473.466	10681
473.545	11134
473.623	11959
473.701	11647
473.780	10755
473.858	8858
473.936	11830
474.014	9246
474.093	11526
474.171	15518
474.249	20599
474.327	12443
474.405	8040
474.484	8669
474.562	8276
474.640	8909
474.718	9381
474.796	8401
474.874	8567
474.952	8414
475.030	8299
475.108	8658
475.187	8300
475.265	8751
475.343	9306
475.421	10526
475.499	9128
475.577	10163
475.655	14830
475.733	25137
475.811	39787
475.889	34374
475.966	18642
476.044	9265
476.122	9913
476.200	10378
476.278	9642
476.356	9537
476.434	9837
476.512	10619
476.590	10429
476.667	10821
476.745	9269
476.823	10203
476.901	9873
476.979	10626
477.056	10517
477.134	10400
477.212	10228
477.290	9833
477.367	9569
477.445	9457
477.523	9679
477.601	8914
477.678	9460
477.756	12040
477.834	12126
477.911	8198
477.989	9664
478.066	9206
478.144	10246
478.222	8765
478.299	8439
478.377	8338
478.454	7897
478.532	8300
478.609	9089
478.687	9923
478.764	7961
478.842	9855
478.919	8945
478.997	9216
479.074	8300
479.152	10461
479.229	11625
479.307	8171
479.384	8384
479.461	8849
479.539	9671
479.616	10582
479.694	8589
479.771	9744
479.848	10923
479.926	13435
480.003	12930
480.080	9022
480.157	8447
480.235	8297
480.312	9024
480.389	11038
480.467	15922
480.544	17356
480.621	10243
480.698	10367
480.775	11012
480.853	10302
480.930	9036
481.007	10053
481.084	10346
481.161	9980
481.238	10183
481.315	8446
481.392	9489
481.470	8945
481.547	9294
481.624	8510
481.701	8751
481.778	9113
481.855	9593
481.932	16603
482.009	23459
482.086	13585
482.163	8660
482.240	8578
482.317	9508
482.393	8571
482.470	8975
482.547	9681
482.624	8596
482.701	9337
482.778	9117
482.855	8260
482.932	7711
483.009	7858
483.085	9566
483.162	9718
483.239	9377
483.316	7487
483.393	8833
483.469	7701
483.546	9806
483.623	10154
483.699	7939
483.776	8712
483.853	10490
483.930	16825
484.006	36026
484.083	54099
484.160	29076
484.236	40323
484.313	28450
484.389	22200
484.466	21897
484.543	20150
484.619	20097
484.696	22419
484.772	23387
484.849	23561
484.925	19954
485.002	19845
485.078	21150
485.155	20188
485.231	19294
485.308	18973
485.384	20361
485.461	25702
485.537	36607
485.614	38622
485.690	18827
485.766	18215
485.843	18470
485.919	20289
485.995	19774
486.072	17428
486.148	16205
486.224	16912
486.301	17582
486.377	19894
486.453	18508
486.530	20500
486.606	26386
486.682	27932
486.758	33266
486.835	35940
486.911	30240
486.987	44679
487.063	32996
487.139	31496
487.215	24555
487.292	19531
487.368	17790
487.444	19954
487.520	21751
487.596	18608
487.672	24614
487.748	35908
487.824	41303
487.900	23180
487.976	18669
488.052	19121
488.128	21031
488.204	17932
488.280	17809
488.356	24000
488.432	44537
488.508	55220
488.584	17903
488.660	15109
488.736	15385
488.812	14918
488.888	18261
488.964	21359
489.039	30225
489.115	37429
489.191	24209
489.267	16408
489.343	16573
489.418	14159
489.494	13768
489.570	12454
489.646	15378
489.722	15274
489.797	16420
489.873	26593
489.949	46771
490.024	31121
490.100	13678
490.176	13545
490.251	13586
490.327	15550
490.403	11708
490.478	12731
490.554	12109
490.629	12656
490.705	12326
490.781	12832
490.856	12337
490.932	13411
491.007	13537
491.083	12350
491.158	13373
491.234	20771
491.309	37296
491.385	31416
491.460	12387
491.536	14739
491.611	11570
491.686	13295
491.762	13962
491.837	21050
491.913	32120
491.988	42272
492.063	40578
492.139	22613
492.214	15950
492.289	10896
492.365	10558
492.440	11859
492.515	13054
492.590	13027
492.666	10062
492.741	15745
492.816	20833
492.891	11690
492.967	10265
493.042	9677
493.117	9103
493.192	10569
493.267	15435
493.342	29182
493.418	29458
493.493	10320
493.568	9486
493.643	10870
493.718	13381
493.793	15991
493.868	15131
493.943	9788
494.018	10946
494.093	9743
494.168	10533
494.243	8771
494.318	8438
494.393	9217
494.468	8965
494.543	8658
494.618	10003
494.693	9838
494.768	9542
494.842	10020
494.917	8547
494.992	8609
495.067	8584
495.142	8847
495.217	9607
495.292	9996
495.366	9774
495.441	11887
495.516	14756
495.591	18065
495.665	40084
495.740	65902
495.815	27172
495.890	12773
495.964	11532
496.039	14786
496.114	11283
496.188	11950
496.263	13113
496.338	11025
496.412	13421
496.487	14857
496.561	13934
496.636	13929
496.710	12777
496.785	14084
496.860	15301
496.934	11306
497.009	11784
497.083	12392
497.158	12765
497.232	14333
497.307	15350
497.381	13390
497.455	16838
497.530	20179
497.604	13589
497.679	14494
497.753	21823
497.827	22348
497.902	17860
497.976	24924
498.050	76348
498.125	211948
498.199	152748
498.273	20586
498.348	14835
498.422	13986
498.496	13357
498.570	13193
498.645	12021
498.719	12535
498.793	16964
498.867	26971
498.941	38389
499.016	112487
499.090	216178
499.164	53343
499.238	13384
499.312	12094
499.386	13345
499.460	13383
499.534	13993
499.609	17603
499.683	22639
499.757	22456
499.831	59885
499.905	169736
499.979	114924
500.053	28240
500.127	23832
500.201	14994
500.275	13756
500.349	13092
500.422	13716
500.496	18688
500.570	38623
500.644	106699
500.718	153824
500.792	27434
500.866	15350
500.940	18734
501.013	14609
501.087	14505
501.161	20090
501.235	29486
501.309	81685
501.382	174843
501.456	107187
501.530	38501
501.603	58893
501.677	19449
501.751	10491
501.825	16198
501.898	34919
501.972	74534
502.046	34383
502.119	15390
502.193	40038
502.266	77273
502.340	34273
502.413	44163
502.487	68244
502.561	36220
502.634	13510
502.708	10171
502.781	9499
502.855	9907
502.928	8409
503.002	8707
503.075	9202
503.149	10258
503.222	10489
503.295	10552
503.369	13553
503.442	21715
503.516	70023
503.589	136021
503.662	72860
503.736	31571
503.809	68477
503.882	50380
503.956	77122
504.029	49403
504.102	22492
504.175	21895
504.249	11408
504.322	13771
504.395	11128
504.468	8547
504.542	8733
504.615	7234
504.688	8404
504.761	5913
504.834	10185
504.907	9242
504.980	11560
505.053	8366
505.127	7062
505.200	14138
505.273	13928
505.346	8760
505.419	7627
505.492	7872
505.565	6136
505.638	7732
505.711	6493
505.784	6043
505.857	6228
505.930	9205
506.003	6082
506.076	8967
506.149	10321
506.221	11502
506.294	14124
506.367	38016
506.440	94028
506.513	35138
506.586	13148
506.659	8233
506.731	8151
506.804	8298
506.877	9599
506.950	9462
507.022	8602
507.095	9522
507.168	10445
507.241	7851
507.313	6250
507.386	6067
507.459	8395
507.531	5780
507.604	6232
507.677	7181
507.749	4701
507.822	8816
507.894	13488
507.967	15747
508.040	10979
508.112	10954
508.185	9849
508.257	8405
508.330	12388
508.402	9050
508.475	10013
508.547	10437
508.620	11879
508.692	15645
508.765	10824
508.837	8007
508.909	9127
508.982	7976
509.054	9235
509.127	7428
509.199	7522
509.271	6578
509.344	7656
509.416	8162
509.488	8474
509.560	8380
509.633	8442
509.705	9736
509.777	10883
509.849	12104
509.922	9757
509.994	9579
510.066	11479
510.138	10039
510.210	19126
510.283	14914
510.355	13332
510.427	11036
510.499	10589
510.571	9940
510.643	9097
510.715	14007
510.787	10103
510.859	11855
510.931	12267
511.003	12736
511.076	12201
511.148	10138
511.219	11925
511.291	20010
511.363	17048
511.435	11186
511.507	9016
511.579	9734
511.651	10030
511.723	9422
511.795	8592
511.867	9601
511.939	13594
512.010	22250
512.082	15448
512.154	7812
512.226	9726
512.298	14594
512.369	16004
512.441	12464
512.513	12031
512.585	8779
512.656	11337
512.728	9603
512.800	9148
512.871	9573
512.943	9549
513.015	7843
513.086	9469
513.158	8718
513.230	9095
513.301	10338
513.373	10587
513.444	8467
513.516	7971
513.588	8346
513.659	8788
513.731	10016
513.802	8049
513.874	15674
513.945	16335
514.016	8768
514.088	8682
514.159	7961
514.231	11542
514.302	14412
514.374	12392
514.445	12174
514.516	25767
514.588	14823
514.659	13617
514.730	20999
514.802	11965
514.873	7063
514.944	10230
515.016	9888
515.087	10078
515.158	15561
515.229	19470
515.301	7427
515.372	10014
515.443	7214
515.514	7724
515.585	6891
515.656	8345
515.728	7922
515.799	7583
515.870	8456
515.941	8764
516.012	7958
516.083	12016
516.154	10535
516.225	12282
516.296	11826
516.367	10079
516.438	10496
516.509	12692
516.580	19585
516.651	57206
516.722	127161
516.793	46337
516.864	19361
516.935	18526
517.006	20662
517.077	26530
517.148	57007
517.219	170360
517.289	198356
517.360	102469
517.431	30511
517.502	13805
517.573	14635
517.643	13075
517.714	15167
517.785	14915
517.856	14632
517.926	17021
517.997	16928
518.068	17417
518.138	22694
518.209	36549
518.280	130859
518.350	314123
518.421	92929
518.492	20876
518.562	16277
518.633	15508
518.703	13119
518.774	20897
518.845	29274
518.915	24787
518.986	15827
519.056	16100
519.127	22720
519.197	41343
519.268	101810
519.338	48475
519.408	16641
519.479	15475
519.549	11807
519.620	11680
519.690	9729
519.760	10334
519.831	9362
519.901	9294
519.971	10092
520.042	9924
520.112	11544
520.182	11784
520.253	12191
520.323	11231
520.393	18276
520.463	23359
520.534	19136
520.604	33227
520.674	15347
520.744	18177
520.814	38482
520.885	27012
520.955	47470
521.025	114272
521.095	30758
521.165	12120
521.235	10154
521.305	9746
521.375	8854
521.445	9620
521.515	8632
521.585	11931
521.655	8594
521.725	10019
521.795	9719
521.865	7748
521.935	16424
522.005	10489
522.075	7443
522.145	10140
522.215	9864
522.285	15382
522.355	20197
522.424	35664
522.494	24669
522.564	12279
522.634	18766
522.704	35217
522.774	11398
522.843	8507
522.913	7904
522.983	8363
523.053	7214
523.122	8634
523.192	9530
523.262	21050
523.331	16060
523.401	8567
523.471	6755
523.540	7519
523.610	5551
523.680	7029
523.749	8507
523.819	10678
523.888	8771
523.958	6669
524.027	7751
524.097	8847
524.166	7260
524.236	6775
524.305	9235
524.375	5988
524.444	6661
524.514	9864
524.583	8285
524.653	9887
524.722	11377
524.791	6909
524.861	8376
524.930	5458
524.999	6199
525.069	9794
525.138	9084
525.207	10827
525.277	7680
525.346	6890
525.415	7060
525.484	8277
525.554	8415
525.623	8439
525.692	6953
525.761	7157
525.830	7966
525.900	8201
525.969	11878
526.038	14322
526.107	21509
526.176	45663
526.245	29103
526.314	18787
526.383	32311
526.452	32080
526.522	62292
526.591	48763
526.660	20708
526.729	12997
526.797	15344
526.867	35821
526.935	114579
527.004	124668
527.073	45471
527.142	10278
527.211	8446
527.280	8315
527.349	8189
527.418	5595
527.487	8221
527.555	6177
527.624	5166
527.693	4422
527.762	7185
527.831	4733
527.899	7238
527.968	6872
528.037	5749
528.106	7749
528.174	10348
528.243	11006
528.312	14895
528.380	12598
528.449	5666
528.518	7663
528.586	4326
528.655	7364
528.723	6032
528.792	4427
528.861	6103
528.929	5440
528.998	7424
529.066	6917
529.135	7241
529.203	7366
529.272	7450
529.340	9436
529.409	10232
529.477	8878
529.545	9938
529.614	13088
529.682	13860
529.751	14282
529.819	17872
529.887	12457
529.956	10032
530.024	10881
530.092	9000
530.161	10297
530.229	10571
530.297	9940
530.365	10311
530.434	11143
530.502	9383
530.570	9085
530.638	7367
530.707	9927
530.775	10981
530.843	8512
530.911	10398
530.979	9711
531.047	10582
531.115	10497
531.183	9870
531.252	9993
531.320	9616
531.388	8814
531.456	10696
531.524	8978
531.592	11329
531.660	12398
531.728	9694
531.796	9961
531.864	9942
531.932	10887
532.000	10663
532.067	11633
532.135	11552
532.203	13627
532.271	13736
532.339	19354
532.407	23843
532.475	16861
532.542	13648
532.610	14106
532.678	16663
532.746	47424
532.814	64705
532.881	20081
532.949	12197
533.017	11361
533.084	10971
533.152	11369
533.220	10602
533.287	10241
533.355	11102
533.423	12980
533.490	10700
533.558	11872
533.625	11293
533.693	10877
533.761	11303
533.828	13183
533.896	12624
533.963	20040
534.031	20578
534.098	20346
534.166	14514
534.233	13123
534.300	15129
534.368	14299
534.435	12999
534.503	12905
534.570	12704
534.637	10607
534.705	12239
534.772	12961
534.840	14073
534.907	30873
534.974	23851
535.041	11763
535.109	11023
535.176	8412
535.243	9155
535.310	9899
535.378	7663
535.445	9246
535.512	8483
535.579	9307
535.646	7624
535.714	8824
535.781	11137
535.848	11750
535.915	14098
535.982	14671
536.049	13269
536.116	14687
536.183	11016
536.250	11058
536.317	10048
536.384	11053
536.451	10862
536.518	11187
536.585	8000
536.652	11418
536.719	11382
536.786	8775
536.853	9161
536.920	13278
536.987	13636
537.053	14533
537.120	44636
537.187	24598
537.254	7822
537.321	7601
537.388	8902
537.454	6771
537.521	6509
537.588	6408
537.654	8479
537.721	8590
537.788	8335
537.855	7512
537.921	7710
537.988	6064
538.055	7447
538.121	6893
538.188	7545
538.254	9706
538.321	11679
538.388	8929
538.454	7433
538.521	8001
538.587	6948
538.654	5893
538.720	6347
538.787	7316
538.853	7656
538.920	9236
538.986	9902
539.053	7645
539.119	7570
539.185	6772
539.252	8969
539.318	9420
539.385	9312
539.451	7658
539.517	8187
539.583	10408
539.650	19001
539.716	27666
539.782	8742
539.849	7029
539.915	8041
539.981	7237
540.047	7569
540.114	7109
540.180	8824
540.246	6149
540.312	8517
540.378	11856
540.444	12382
540.510	18212
540.576	29162
540.643	9773
540.709	5452
540.775	6891
540.841	7668
540.907	12788
540.973	15039
541.039	9899
541.105	9029
541.171	6608
541.237	5710
541.303	7797
541.369	8981
541.435	8394
541.500	10520
541.566	6315
541.632	6043
541.698	6141
541.764	7486
541.830	6237
541.896	5445
541.961	8042
542.027	5068
542.093	6270
542.159	7618
542.224	7234
542.290	10729
542.356	11271
542.421	11028
542.487	9000
542.553	7861
542.618	8088
542.684	6051
542.750	6541
542.815	8653
542.881	13177
542.947	30945
543.012	15165
543.078	6403
543.143	6228
543.209	7769
543.274	6071
543.340	8644
543.405	15873
543.471	14187
543.536	7810
543.602	7248
543.667	6225
543.732	7337
543.798	6010
543.863	6994
543.928	6092
543.994	6276
544.059	6873
544.124	6843
544.190	5931
544.255	6935
544.320	7495
544.386	6106
544.451	8309
544.516	8384
544.581	10232
544.646	23380
544.712	23467
544.777	9972
544.842	9583
544.907	9356
544.972	9361
545.037	8867
545.102	10043
545.168	8413
545.233	10237
545.298	10481
545.363	11112
545.428	11146
545.493	16754
545.558	22929
545.623	11708
545.688	8428
545.753	9583
545.818	8837
545.883	10821
545.947	9059
546.012	11645
546.077	9781
546.142	11082
546.207	8618
546.272	10434
546.337	9917
546.401	10486
546.466	9674
546.531	8942
546.596	9850
546.661	9583
546.725	9766
546.790	9230
546.855	9599
546.919	8682
546.984	10527
547.049	10651
547.113	13638
547.178	10031
547.243	13983
547.307	14164
547.372	16094
547.436	16517
547.501	13084
547.565	13818
547.630	14247
547.695	14658
547.759	17559
547.823	14869
547.888	13566
547.952	13440
548.017	14026
548.081	15572
548.146	18760
548.210	16619
548.274	13710
548.339	13049
548.403	13019
548.468	12067
548.532	12288
548.596	12159
548.660	12668
548.725	14823
548.789	16073
548.853	17127
548.917	15062
548.982	19677
549.046	17248
549.110	11479
549.174	12307
549.238	12491
549.303	13028
549.367	14982
549.431	13289
549.495	12657
549.559	12728
549.623	15750
549.687	17092
549.751	18408
549.815	16980
549.879	16866
549.943	15989
550.007	17467
550.071	17567
550.135	17446
550.199	15556
550.263	16622
550.327	18245
550.391	20167
550.455	16713
550.519	16834
550.582	18668
550.646	21924
550.710	20627
550.774	18884
550.838	19498
550.901	18672
550.965	20866
551.029	20468
551.093	24063
551.156	29539
551.220	47702
551.284	39667
551.347	30283
551.411	56590
551.475	44087
551.538	21482
551.602	19145
551.666	18338
551.729	17451
551.793	18410
551.856	17509
551.920	17372
551.983	17863
552.047	15980
552.110	17307
552.174	17727
552.237	16380
552.301	16342
552.364	16710
552.428	16205
552.491	16359
552.554	16798
552.618	17764
552.681	17767
552.745	18210
552.808	21725
552.871	23346
552.934	19432
552.998	17353
553.061	18370
553.124	17211
553.187	16576
553.251	18233
553.314	18840
553.377	18527
553.440	24700
553.503	50329
553.567	48961
553.630	19660
553.693	18348
553.756	18149
553.819	18250
553.882	17837
553.945	17749
554.008	17345
554.071	17997
554.134	17648
554.197	17018
554.260	16353
554.323	18843
554.386	17956
554.449	18523
554.512	18963
554.575	17464
554.638	17601
554.701	16352
554.764	17783
554.827	16890
554.889	15721
554.952	14737
555.015	14750
555.078	15514
555.141	16150
555.203	15911
555.266	15363
555.329	15749
555.391	15029
555.454	14447
555.517	15189
555.580	13916
555.642	12806
555.705	13664
555.768	13686
555.830	13553
555.893	13070
555.955	13401
556.018	12230
556.080	12748
556.143	13103
556.206	13482
556.268	12907
556.330	13439
556.393	12658
556.455	12996
556.518	17459
556.580	15256
556.643	11113
556.705	11846
556.767	10432
556.830	12151
556.892	11502
556.955	12902
557.017	11979
557.079	10814
557.142	11318
557.204	10652
557.266	14898
557.328	12442
557.391	10579
557.453	9685
557.515	9658
557.577	10887
557.639	10525
557.701	10243
557.764	8720
557.826	10388
557.888	10714
557.950	10015
558.012	9475
558.074	12928
558.136	22348
558.198	31951
558.260	14302
558.322	9991
558.384	10774
558.446	11469
558.508	12396
558.570	13732
558.632	18818
558.694	22319
558.756	28995
558.818	84196
558.880	128294
558.942	35781
559.003	33776
559.065	15992
559.127	11389
559.189	11162
559.251	12875
559.312	16862
559.374	43083
559.436	91245
559.498	31167
559.559	10499
559.621	11620
559.683	14502
559.744	26191
559.806	59630
559.868	53279
559.929	15569
559.991	13857
560.052	20214
560.114	33799
560.176	20129
560.237	26639
560.299	27057
560.360	10918
560.422	10033
560.483	10090
560.545	9627
560.606	8811
560.667	8886
560.729	8717
560.790	9431
560.852	9567
560.913	8599
560.974	8129
561.036	8304
561.097	8488
561.158	9179
561.220	8859
561.281	9037
561.342	9557
561.403	9490
561.465	10160
561.526	18459
561.587	16227
561.648	9383
561.709	9473
561.771	9205
561.832	8645
561.893	8748
561.954	9134
562.015	9457
562.076	8816
562.137	8463
562.198	8489
562.259	10103
562.320	8952
562.381	9808
562.442	10955
562.503	9467
562.564	9399
562.625	8600
562.686	9240
562.747	9254
562.808	9151
562.869	9997
562.930	12067
562.991	10684
563.051	10370
563.112	9737
563.173	9310
563.234	8664
563.294	8567
563.355	8495
563.416	9054
563.477	9346
563.537	9642
563.598	8998
563.659	9257
563.720	9484
563.780	8550
563.841	8890
563.901	8879
563.962	9502
564.023	8835
564.083	9022
564.144	9167
564.204	9278
564.265	9035
564.325	12776
564.386	22343
564.446	15281
564.507	8614
564.567	8659
564.628	8228
564.688	8360
564.749	8304
564.809	11158
564.869	11587
564.930	9439
564.990	8889
565.050	8243
565.111	8548
565.171	7994
565.231	7989
565.292	9479
565.352	7335
565.412	9258
565.472	7919
565.532	8160
565.593	8305
565.653	7980
565.713	7799
565.773	8429
565.833	8646
565.893	9901
565.953	8385
566.013	9109
566.074	9271
566.134	12959
566.194	17523
566.254	15046
566.314	11213
566.374	9503
566.434	9697
566.494	9402
566.554	7936
566.614	8160
566.673	8623
566.733	8612
566.793	8846
566.853	8988
566.913	8233
566.973	8502
567.033	9391
567.092	8629
567.152	8838
567.212	8441
567.272	9248
567.331	9752
567.391	9204
567.451	9297
567.511	13880
567.570	12024
567.630	8062
567.690	7989
567.749	8335
567.809	8190
567.868	8967
567.928	8664
567.988	8585
568.047	7881
568.107	8278
568.166	8768
568.226	7683
568.285	8273
568.345	7591
568.404	8265
568.464	8388
568.523	7743
568.582	8947
568.642	7927
568.701	8295
568.761	8934
568.820	9428
568.879	10295
568.939	12509
568.998	9114
569.057	7593
569.116	7645
569.176	7596
569.235	7346
569.294	7451
569.353	6747
569.413	8348
569.472	7484
569.531	7058
569.590	8106
569.649	8033
569.708	7861
569.767	8851
569.827	8171
569.886	6688
569.945	7002
570.004	6910
570.063	7630
570.122	8181
570.181	8493
570.240	9869
570.299	9295
570.358	7994
570.417	8451
570.475	6728
570.534	8216
570.593	7276
570.652	8260
570.711	6890
570.770	7756
570.829	8827
570.887	6877
570.946	7293
571.005	6992
571.064	7467
571.122	7883
571.181	8807
571.240	7770
571.299	6867
571.357	9443
571.416	9393
571.475	10260
571.533	9035
571.592	7375
571.650	7851
571.709	6753
571.768	7337
571.826	6879
571.885	7427
571.943	6711
572.002	6564
572.060	7297
572.119	6139
572.177	7270
572.236	7521
572.294	6988
572.352	6586
572.411	7131
572.469	6529
572.528	5862
572.586	6344
572.644	6519
572.703	7971
572.761	8224
572.819	6590
572.877	6377
572.936	6009
572.994	6035
573.052	6524
573.110	6309
573.169	5616
573.227	5483
573.285	6013
573.343	6291
573.401	6308
573.459	6515
573.517	5424
573.576	6096
573.634	6966
573.692	6083
573.750	6043
573.808	6557
573.866	7121
573.924	9181
573.982	8169
574.040	6589
574.098	6263
574.155	6235
574.213	6191
574.271	5086
574.329	6075
574.387	4605
574.445	5705
574.503	5268
574.560	4554
574.618	5436
574.676	4735
574.734	5463
574.792	5239
574.849	5615
574.907	5775
574.965	5162
575.022	5495
575.080	4430
575.138	5340
575.195	5547
575.253	5702
575.311	5397
575.368	6258
575.426	5697
575.483	5300
575.541	5358
575.598	5664
575.656	6069
575.713	4897
575.771	5054
575.828	5561
575.886	5938
575.943	6637
576.001	6214
576.058	5849
576.115	6111
576.173	7276
576.230	6878
576.287	7112
576.345	7504
576.402	6180
576.459	5961
576.517	6674
576.574	6294
576.631	7459
576.688	5006
576.746	6167
576.803	6601
576.860	5317
576.917	5992
576.974	5711
577.031	5689
577.089	5884
577.146	6050
577.203	6125
577.260	6764
577.317	6083
577.374	8127
577.431	7130
577.488	6752
577.545	6353
577.602	6107
577.659	6022
577.716	7570
577.773	5994
577.830	6227
577.886	6628
577.943	6775
578.000	7167
578.057	8277
578.114	9457
578.171	12464
578.227	15548
578.284	14911
578.341	12542
578.398	9850
578.454	9252
578.511	9009
578.568	8691
578.625	7495
578.681	6862
578.738	6382
578.794	5794
578.851	6670
578.908	6332
578.964	6286
579.021	6449
579.077	6156
579.134	6020
579.190	5888
579.247	6294
579.303	6566
579.360	5610
579.416	5666
579.473	5797
579.529	5105
579.586	6434
579.642	6599
579.698	5997
579.755	6960
579.811	7083
579.867	8354
579.924	7647
579.980	9524
580.036	11467
580.093	17033
580.149	23278
580.205	24519
580.261	18225
580.317	15729
580.374	12438
580.430	11908
580.486	10098
580.542	8177
580.598	7920
580.619	7864
580.654	7774
580.692	7158
580.710	6868
580.765	6416
580.767	6409
580.823	7154
580.838	6915
580.879	6308
580.911	6569
580.935	6784
580.984	7201
580.991	7264
581.047	8104
581.057	8209
581.103	8759
581.130	9284
581.159	9818
581.203	10997
581.215	11348
581.270	9748
581.276	9635
581.326	8544
581.349	8516
581.382	8525
581.422	8395
581.438	8333
581.494	7203
581.494	7196
581.550	7056
581.567	7048
581.606	7070
581.640	6501
581.661	6161
581.713	6983
581.717	7051
581.773	7167
581.786	7022
581.829	6605
581.859	6449
581.885	6290
581.932	6352
581.940	6373
581.996	6762
582.004	6820
582.052	7166
582.077	7053
582.107	6960
582.150	6433
582.163	6256
582.219	7120
582.223	7054
582.274	6349
582.296	6685
582.330	7139
582.368	6628
582.386	6514
582.441	6311
582.441	6312
582.497	6509
582.514	6549
582.552	6893
582.587	6921
582.608	6867
582.659	6693
582.663	6669
582.719	7402
582.732	7175
582.774	6728
582.805	6858
582.830	6907
582.877	7099
582.885	7115
582.941	7906
582.950	8027
582.996	8901
583.023	9634
583.052	10444
583.095	10926
583.107	11059
583.162	14522
583.168	14602
583.218	15155
583.240	14067
583.273	12288
583.313	11187
583.328	10872
583.384	9590
583.385	9577
583.439	9050
583.458	8724
583.494	8099
583.531	7317
583.549	6969
583.603	7748
583.605	7767
583.660	6503
583.676	6592
583.715	7028
583.748	7175
583.770	7211
583.820	6666
583.825	6605
583.881	6880
583.893	6648
583.936	5876
583.965	5749
583.991	5660
584.038	6418
584.046	6534
584.101	5841
584.110	5829
584.156	6013
584.183	6569
584.211	6905
584.255	6164
584.266	6017
584.321	5953
584.328	5972
584.376	6234
584.400	6306
584.431	6378
584.472	5999
584.486	5812
584.541	6273
584.545	6280
584.596	6301
584.617	6028
584.651	6033
584.689	7027
584.706	7230
584.761	6777
584.762	6771
584.816	5940
584.834	6042
584.871	6523
584.906	6676
584.926	6550
584.978	5445
584.980	5428
585.035	7247
585.051	7354
585.090	7059
585.123	6680
585.145	6708
585.195	7382
585.200	7423
585.254	7193
585.267	7260
585.309	7334
585.340	7377
585.364	7414
585.412	7836
585.419	7906
585.473	8575
585.484	8710
585.528	9380
585.556	10377
585.583	12131
585.628	16570
585.637	18075
585.692	32925
585.700	34538
585.747	39751
585.772	34044
585.801	22293
585.845	11591
585.856	10304
585.910	8326
585.917	8108
585.965	7863
585.989	7703
586.019	7608
586.061	7621
586.074	7531
586.128	7185
586.133	7175
586.183	7685
586.205	8042
586.237	8181
586.277	7628
586.292	7494
586.346	7286
586.349	7337
586.401	7741
586.421	7619
586.455	7967
586.493	9213
586.509	10128
586.564	13224
586.565	13380
586.618	20911
586.637	20103
586.672	14312
586.709	9918
586.727	8639
586.781	7740
586.781	7735
586.835	6956
586.853	6920
586.889	7318
586.925	6931
586.944	6528
586.996	6725
586.998	6745
587.052	7374
587.068	7361
587.106	6875
587.140	6918
587.161	7005
587.212	7128
587.215	7141
587.269	7369
587.284	7420
587.323	7231
587.356	7120
587.377	7141
587.427	7364
587.431	7382
587.485	7590
587.499	7580
587.539	7103
587.571	7027
587.593	7481
587.643	8463
587.648	8417
587.702	7416
587.715	7247
587.755	7738
587.786	8363
587.810	8317
587.858	7618
587.864	7631
587.917	8812
587.930	8909
587.971	9222
588.001	9652
588.025	9745
588.073	9469
588.079	9467
588.133	9736
588.145	9882
588.187	9871
588.217	9868
588.241	10150
588.288	11076
588.295	11256
588.348	12041
588.360	12409
588.402	13327
588.431	13857
588.456	14618
588.503	16553
588.510	16726
588.564	17954
588.575	18425
588.617	20722
588.646	22548
588.671	24512
588.718	29729
588.725	30856
588.778	43530
588.789	47619
588.832	77844
588.861	104509
588.886	152285
588.932	258229
588.939	269163
588.993	314752
589.004	312106
589.047	164439
589.075	82203
589.100	58469
589.147	29907
589.154	28846
589.207	23828
589.218	23194
589.261	23078
589.290	23751
589.314	25303
589.361	30144
589.368	31580
589.421	47595
589.433	52397
589.475	97172
589.504	137269
589.528	186696
589.576	270307
589.582	261364
589.635	128243
589.647	104236
589.689	51778
589.718	22443
589.742	19424
589.790	14900
589.795	14788
589.849	14733
589.861	15018
589.902	17184
589.932	17515
589.955	14864
590.004	10257
590.009	10193
590.062	9886
590.075	9803
590.115	8961
590.146	8461
590.168	8614
590.218	9060
590.222	9034
590.275	8779
590.289	8693
590.328	8678
590.360	8623
590.381	8567
590.431	8391
590.435	8349
590.488	8143
590.503	7978
590.541	7885
590.574	8114
590.594	8448
590.645	8827
590.647	8801
590.700	8409
590.716	8266
590.753	8268
590.787	8362
590.806	8133
590.859	7526
590.859	7530
590.912	8180
590.930	8437
590.965	7775
591.001	7186
591.018	7445
591.071	8044
591.072	8058
591.124	8057
591.143	8005
591.177	8123
591.214	8309
591.230	8302
591.283	8416
591.285	8421
591.336	8167
591.356	8121
591.389	8336
591.427	8674
591.442	8611
591.495	8155
591.498	8144
591.547	8180
591.569	8151
591.600	8172
591.640	8198
591.653	8184
591.706	8216
591.711	8232
591.759	8933
591.782	9275
591.811	9763
591.853	10504
591.864	10188
591.917	8525
591.924	8301
591.969	8360
591.995	8430
592.022	8324
592.066	8144
592.075	8339
592.127	9650
592.137	9920
592.180	11125
592.208	11828
592.233	10826
592.279	9017
592.285	8978
592.338	8757
592.350	8723
592.390	8217
592.421	7868
592.443	8095
592.491	8642
592.495	8617
592.548	8438
592.562	8410
592.600	8796
592.633	9147
592.653	8849
592.704	8075
592.705	8116
592.775	7906
592.846	8918
592.916	8622
592.987	8561
593.058	8869
593.128	8119
593.199	7393
593.270	7071
593.341	8035
593.411	7737
593.482	8017
593.553	8663
593.623	8430
593.694	8859
593.764	8880
593.835	7532
593.906	8550
593.976	7913
594.047	8786
594.117	11052
594.188	10706
594.258	8102
594.329	9324
594.399	8059
594.470	8476
594.540	8205
594.611	8353
594.681	7795
594.751	8284
594.822	8398
594.892	10308
594.963	9924
595.033	9782
595.103	9414
595.174	10413
595.244	15182
595.314	18397
595.384	9670
595.455	9357
595.525	9367
595.595	10342
595.665	10244
595.736	9387
595.806	9870
595.876	10328
595.946	9925
596.016	9782
596.087	9689
596.157	9762
596.227	9295
596.297	11069
596.367	9973
596.437	12581
596.507	16092
596.577	18890
596.647	11702
596.717	12093
596.787	11110
596.857	11627
596.927	11349
596.997	12649
597.067	11028
597.137	13132
597.207	11995
597.277	11704
597.347	11600
597.417	11778
597.487	11424
597.557	11408
597.626	12497
597.696	13091
597.766	15261
597.836	18814
597.906	13025
597.975	11330
598.045	11143
598.115	12051
598.185	11999
598.254	13615
598.324	13032
598.394	12719
598.464	12266
598.533	12867
598.603	12253
598.672	12605
598.742	12196
598.812	12230
598.881	12878
598.951	13247
599.020	12420
599.090	12324
599.159	13769
599.229	12921
599.299	12521
599.368	13245
599.437	12650
599.507	13113
599.576	13813
599.646	12158
599.715	13291
599.785	13004
599.854	12869
599.924	13684
599.993	12491
600.062	12797
600.132	13096
600.201	13417
600.270	15155
600.340	14699
600.409	13693
600.478	15895
600.547	14434
600.617	14610
600.686	13330
600.755	12123
600.824	12357
600.894	12938
600.963	12233
601.032	12718
601.101	12176
601.170	13266
601.239	11484
601.308	13743
601.378	12577
601.447	13379
601.516	12273
601.585	13316
601.654	13376
601.723	14040
601.792	13086
601.861	14161
601.930	16270
601.999	15540
602.068	14385
602.137	14923
602.206	14507
602.275	15235
602.343	15733
602.412	15478
602.481	15290
602.550	15593
602.619	15232
602.688	15815
602.756	15598
602.825	14813
602.894	15695
602.963	15429
603.032	15944
603.100	15951
603.169	15829
603.238	15393
603.307	15470
603.375	15835
603.444	16332
603.513	15466
603.581	15688
603.650	17267
603.719	14537
603.787	13604
603.856	14660
603.924	15087
603.993	14071
604.061	14906
604.130	15598
604.198	15717
604.267	15381
604.335	16509
604.404	16188
604.472	17191
604.541	16973
604.609	17170
604.678	17412
604.746	16875
604.815	17789
604.883	17550
604.951	17679
605.020	17688
605.088	16765
605.156	16815
605.225	15399
605.293	16476
605.361	15041
605.429	16048
605.498	16531
605.566	16968
605.634	17385
605.702	17688
605.771	17801
605.839	18401
605.907	16981
605.975	16266
606.043	16266
606.111	17472
606.180	16951
606.248	16146
606.316	16925
606.384	17780
606.452	17288
606.520	15125
606.588	14201
606.656	12824
606.724	13415
606.792	12613
606.860	12326
606.928	11701
606.996	11363
607.064	10389
607.132	11413
607.200	10709
607.267	11205
607.335	12308
607.403	12395
607.471	11527
607.539	11581
607.607	11931
607.674	9645
607.742	12362
607.810	10243
607.878	11281
607.946	10214
608.013	11526
608.081	12027
608.149	11198
608.216	10514
608.284	12938
608.352	10982
608.419	11724
608.487	15452
608.555	12343
608.622	10820
608.690	11914
608.757	12232
608.825	13589
608.893	13046
608.960	13240
609.028	13907
609.095	16670
609.163	12320
609.230	11299
609.298	11036
609.365	10362
609.432	10784
609.500	12657
609.567	12730
609.635	14442
609.702	14920
609.769	15701
609.837	14006
609.904	11264
609.971	11100
610.039	15699
610.106	20060
610.173	34354
610.241	77081
610.308	76043
610.375	41530
610.442	16166
610.509	12176
610.577	12892
610.644	11878
610.711	12198
610.778	11288
610.845	12652
610.912	12355
610.980	13699
611.047	14388
611.114	13560
611.181	12299
611.248	10941
611.315	13262
611.382	12776
611.449	12687
611.516	13797
611.583	13448
611.650	13216
611.717	13256
611.784	13721
611.851	14442
611.918	16341
611.984	18051
612.051	28816
612.118	54134
612.185	130014
612.252	81386
612.319	21970
612.386	17483
612.452	15845
612.519	17042
612.586	18645
612.653	16768
612.719	16075
612.786	14172
612.853	13045
612.919	13424
612.986	13321
613.053	12360
613.120	11743
613.186	11081
613.253	13965
613.319	11698
613.386	11931
613.453	12082
613.519	12596
613.586	12761
613.652	15503
613.719	13184
613.785	13590
613.852	12245
613.918	11995
613.985	13144
614.051	15378
614.118	18567
614.184	17749
614.250	12517
614.317	13401
614.383	11925
614.449	12205
614.516	12467
614.582	14315
614.648	12724
614.715	12949
614.781	11433
614.847	12810
614.914	12463
614.980	13092
615.046	12638
615.112	12203
615.179	11522
615.245	12377
615.311	12302
615.377	12783
615.443	12122
615.509	12989
615.575	13120
615.642	13167
615.708	13685
615.774	14566
615.840	17090
615.906	17992
615.972	22334
616.038	34546
616.104	70189
616.170	168904
616.236	142178
616.302	34626
616.368	23820
616.434	18115
616.500	17430
616.565	18214
616.631	20066
616.697	18359
616.763	18943
616.829	24887
616.895	40725
616.961	39421
617.026	20595
617.092	14611
617.158	15036
617.224	13664
617.289	12131
617.355	12929
617.421	12386
617.487	14546
617.552	12491
617.618	11926
617.684	11744
617.749	14535
617.815	11994
617.880	11677
617.946	10890
618.012	12176
618.077	11503
618.143	12123
618.208	12409
618.274	13491
618.339	11754
618.405	10440
618.470	11386
618.536	12220
618.601	13517
618.667	11649
618.732	11452
618.798	11321
618.863	10950
618.928	10735
618.994	11876
619.059	12336
619.124	12914
619.190	12134
619.255	10986
619.320	11935
619.386	10257
619.451	10318
619.516	10522
619.581	11815
619.647	10917
619.712	11176
619.777	11115
619.842	11509
619.907	10519
619.972	11282
620.038	11079
620.103	11415
620.168	9564
620.233	11624
620.298	10379
620.363	11237
620.428	10303
620.493	11316
620.558	11079
620.623	10946
620.688	10832
620.753	11277
620.818	10415
620.883	10858
620.948	10109
621.013	11232
621.078	11579
621.143	10052
621.207	13112
621.272	12094
621.337	12409
621.402	13731
621.467	15398
621.532	16370
621.596	12778
621.661	13391
621.726	12030
621.791	12675
621.855	12711
621.920	12759
621.985	13332
622.049	15589
622.114	14102
622.179	14454
622.243	14091
622.308	13428
622.373	14552
622.437	14131
622.502	12569
622.566	12933
622.631	11784
622.695	14169
622.760	12991
622.824	13051
622.889	12112
622.953	13173
623.018	15793
623.082	14647
623.147	13192
623.211	13311
623.276	12870
623.340	12003
623.404	12913
623.469	12192
623.533	12491
623.597	11906
623.662	11394
623.726	11218
623.790	11304
623.854	11568
623.919	11461
623.983	11383
624.047	12027
624.111	11504
624.176	11434
624.240	11155
624.304	13195
624.368	11148
624.432	11618
624.496	11185
624.560	12211
624.625	11782
624.689	11871
624.753	10917
624.817	11350
624.881	10998
624.945	10880
625.009	10677
625.073	10840
625.137	10977
625.201	11580
625.265	11984
625.329	10489
625.393	11661
625.456	11141
625.520	11461
625.584	11797
625.648	14192
625.712	21087
625.776	42800
625.839	47127
625.903	19774
625.967	11793
626.031	20022
626.095	29192
626.158	11846
626.222	7402
626.286	8867
626.349	8285
626.413	6911
626.477	9348
626.540	7663
626.604	7995
626.668	8852
626.731	8108
626.795	8453
626.858	8527
626.922	6710
626.986	8976
627.049	6255
627.113	7616
627.176	7811
627.240	7247
627.303	8119
627.366	7745
627.430	7491
627.493	7842
627.557	7261
627.620	8472
627.684	7105
627.747	7243
627.810	6499
627.874	7329
627.937	5736
628.000	7986
628.064	7472
628.127	5051
628.190	7452
628.253	7011
628.317	5752
628.380	6501
628.443	5918
628.506	5500
628.569	6477
628.632	5264
628.696	6509
628.759	5066
628.822	5266
628.885	4803
628.948	6722
629.011	5071
629.074	5255
629.137	4758
629.200	4739
629.263	6582
629.326	4109
629.389	4755
629.452	5879
629.515	5581
629.578	5248
629.641	5577
629.704	5041
629.767	4413
629.830	5339
629.892	4782
629.955	4966
630.018	6734
630.081	4627
630.144	6345
630.207	4206
630.269	6164
630.332	6266
630.395	4551
630.458	4888
630.520	2248
630.583	5692
630.646	4747
630.708	4437
630.771	4066
630.834	4737
630.896	3448
630.959	4623
631.021	3576
631.084	4766
631.146	4921
631.209	6512
631.272	3945
631.334	4829
631.397	4107
631.459	2843
631.522	3901
631.584	3656
631.646	4457
631.709	3957
631.771	5027
631.834	5826
631.896	4398
631.958	3333
632.021	4637
632.083	3169
632.145	4110
632.208	3732
632.270	4325
632.332	3385
632.395	2127
632.457	4494
632.519	2872
632.581	4772
632.643	2483
632.706	4732
632.768	2091
632.830	4394
632.892	3598
632.954	3869
633.016	3828
633.078	4526
633.141	2571
633.203	3469
633.265	3621
633.327	3700
633.389	2751
633.451	3939
633.513	4299
633.575	4681
633.637	4272
633.698	3457
633.760	4071
633.822	4427
633.884	3465
633.946	3603
634.008	2919
634.070	3690
634.132	4063
634.193	4225
634.255	4016
634.317	3574
634.379	4674
634.441	3958
634.502	2028
634.564	4431
634.626	3487
634.687	3663
634.749	3096
634.811	3354
634.873	2141
634.934	2730
634.996	3711
635.057	3394
635.119	2324
635.181	3081
635.242	3970
635.304	846
635.365	5020
635.427	2821
635.488	3714
635.550	3342
635.611	2974
635.673	1967
635.734	3969
635.796	2810
635.857	4220
635.918	3317
635.980	4529
636.041	3143
636.102	4547
636.164	4175
636.225	4164
636.286	2100
636.348	3995
636.409	2449
636.470	2498
636.531	3598
636.593	3426
636.654	4782
636.715	2961
636.776	2587
636.838	2924
636.899	4098
636.960	2067
637.021	2289
637.082	1941
637.143	3440
637.204	1913
637.265	2228
637.326	3071
637.387	2841
637.448	962
637.509	2994
637.570	2073
637.631	3997
637.692	758
637.753	1633
637.814	2210
637.875	2263
637.936	3447
637.997	2656
638.058	1913
638.119	3545
638.179	2484
638.240	2619
638.301	2038
638.362	1303
638.423	2025
638.483	3791
638.544	1142
638.605	2933
638.666	2063
638.726	2852
638.787	3182
638.848	1645
638.908	1732
638.969	2945
639.030	1680
639.090	960
639.151	1747
639.211	3231
639.272	3972
639.332	3712
639.393	2452
639.453	2132
639.514	2632
639.574	3130
639.635	1945
639.695	2923
639.756	1016
639.816	3487
639.877	2117
639.937	4230
639.997	3086
640.058	818
640.118	1237
640.178	2458
640.239	1734
640.299	2137
640.359	827
640.420	2400
640.480	2006
640.540	2249
640.600	1662
640.661	2985
640.721	763
640.781	3830
640.841	332
640.901	3432
640.961	2579
641.021	2677
641.082	1998
641.142	2976
641.202	3054
641.262	460
641.322	2725
641.382	1075
641.442	2763
641.502	2430
641.562	1788
641.622	1298
641.682	2485
641.742	1886
641.802	1829
641.861	2970
641.921	1592
641.981	2477
642.041	2064
642.101	2426
642.161	1071
642.221	1229
642.280	1419
642.340	1945
642.400	1288
642.460	2399
642.519	1995
642.579	1904
642.639	3043
642.698	-571
642.758	3729
642.818	2489
642.877	1353
642.937	2303
642.997	2001
643.056	2228
643.116	709
643.175	3971
643.235	1074
643.294	1792
643.354	2502
643.414	2448
643.473	2422
643.532	2483
643.592	2891
643.651	6440
643.711	12079
643.770	21652
643.830	51150
643.889	112794
643.948	27156
644.008	5296
644.067	2331
644.126	1532
644.186	2268
644.245	2480
644.304	458
644.363	3161
644.423	-404
644.482	1544
644.541	1806
644.600	205
644.659	2483
644.719	1710
644.778	3118
644.837	5079
644.896	10447
644.955	22764
645.014	8058
645.073	3019
645.132	2030
645.191	2651
645.250	320
645.309	2994
645.368	1887
645.427	3272
645.486	2292
645.545	5103
645.604	1320
645.663	1979
645.722	1236
645.781	1846
645.840	2395
645.898	2881
645.957	3921
646.016	4978
646.075	9955
646.134	18568
646.192	49565
646.251	74590
646.310	10787
646.369	3090
646.427	2974
646.486	839
646.545	945
646.603	1598
646.662	1754
646.721	1380
646.779	1486
646.838	824
646.896	1720
646.955	1971
647.014	3267
647.072	4594
647.131	14480
647.189	6787
647.248	789
647.306	2099
647.365	1490
647.423	-487
647.481	2449
647.540	-365
647.598	857
647.657	635
647.715	2038
647.773	1154
647.832	1835
647.890	-126
647.948	-23
648.007	1671
648.065	-454
648.123	-470
648.181	1706
648.240	2041
648.298	249
648.356	1312
648.414	1819
648.472	1194
648.531	633
648.589	1229
648.647	577
648.705	1456
648.763	1034
648.821	1605
648.879	436
648.937	1102
648.995	1389
649.053	1823
649.111	2394
649.169	4970
649.227	7845
649.285	13730
649.343	40118
649.401	20245
649.459	5335
649.516	3953
649.574	497
649.632	4196
649.690	4634
649.748	2887
649.806	2369
649.863	6186
649.921	9663
649.979	6081
650.037	1751
650.094	12
650.152	1126
650.210	570
650.268	776
650.325	391
650.383	-210
650.440	977
650.498	790
650.556	570
650.613	-30
650.671	1430
650.728	875
650.786	665
650.843	1424
650.901	-855
650.958	1057
651.016	244
651.073	623
651.131	220
651.188	148
651.246	548
651.303	-93
651.360	789
651.418	41
651.475	59
651.532	-424
651.590	745
651.647	-430
651.704	1057
651.762	51
651.819	1142
651.876	-83
651.933	52
651.990	1193
652.048	-739
652.105	606
652.162	272
652.219	-232
652.276	1218
652.333	284
652.390	591
652.448	1196
652.505	367
652.562	-117
652.619	1075
652.676	863
652.733	1452
652.790	401
652.847	-202
652.904	157
652.961	-531
653.017	-422
653.074	1024
653.131	-430
653.188	-1115
653.245	31
653.302	482
653.359	-716
653.415	663
653.472	-403
653.529	456
653.586	-628
653.642	145
653.699	128
653.756	-439
653.813	330
653.869	307
653.926	-1110
653.983	-445
654.039	18
654.096	-383
654.152	1239
654.209	-792
654.266	606
654.322	-897
654.379	977
654.435	1195
654.492	565
654.548	1886
654.605	1359
654.661	1520
654.717	943
654.774	-48
654.830	247
654.887	538
654.943	-566
655.000	901
655.056	583
655.112	1169
655.168	-997
655.225	327
655.281	623
655.337	1279
655.394	1988
655.450	2420
655.506	1749
655.562	2216
655.618	2693
655.675	287
655.731	186
655.787	-233
655.843	672
655.899	-195
655.955	397
656.011	793
656.067	121
656.123	1565
656.179	750
656.235	2914
656.291	-261
656.347	1721
656.403	562
656.459	454
656.515	1340
656.571	1014
656.627	-263
656.683	649
656.739	682
656.795	124
656.850	457
656.906	1440
656.962	396
657.018	-358
657.074	159
657.129	1017
657.185	738
657.241	1459
657.297	78
657.352	924
657.408	119
657.464	1379
657.519	258
657.575	-639
657.630	156
657.686	-199
657.742	121
657.797	-224
657.853	3
657.908	1195
657.964	-970
658.019	-263
658.075	818
658.130	1026
658.186	-842
658.241	-35
658.297	-751
658.352	49
658.407	138
658.463	-468
658.518	151
658.573	-32
658.629	-1056
658.684	533
658.739	-38
658.795	-718
658.850	-189
658.905	105
658.960	-16
659.016	-540
659.071	-348
659.126	40
659.181	-684
659.236	1710
659.291	733
659.346	-160
659.401	535
659.457	275
659.512	-137
659.567	935
659.622	-377
659.677	-537
659.732	-772
659.787	-142
659.842	100
659.897	1018
659.952	198
660.007	-354
660.061	202
660.116	-185
660.171	-56
660.226	-533
660.281	119
660.336	-396
660.391	850
660.445	-642
660.500	493
660.555	378
660.610	-849
660.664	-260
660.719	-209
660.774	530
660.828	378
660.883	-28
660.938	-231
660.992	-723
661.047	133
661.101	86
661.156	-304
661.211	78
661.265	-1160
661.320	-109
661.374	72
661.429	-515
661.483	480
661.538	-338
661.592	-769
661.647	-105
661.701	-125
661.755	596
661.810	539
661.864	-517
661.919	-1011
661.973	1
662.027	-352
662.081	39
662.136	-545
662.190	441
662.244	21
662.299	-301
662.353	-59
662.407	197
662.461	-322
662.515	-35
662.569	-156
662.624	973
662.678	65
662.732	174
662.786	-842
662.840	-53
662.894	-231
662.948	487
663.002	-108
663.056	546
663.110	-247
663.164	-334
663.218	173
663.272	-260
663.326	-500
663.380	285
663.434	-238
663.488	-218
663.542	-520
663.595	694
663.649	885
663.703	684
663.757	281
663.811	-87
663.864	-636
663.918	22
663.972	113
664.026	190
664.079	-363
664.133	1133
664.187	-589
664.240	-135
664.294	324
664.348	230
664.401	-535
664.455	21
664.508	176
664.562	194
664.615	170
664.669	294
664.722	581
664.776	524
664.829	-117
664.883	148
664.936	-425
664.990	852
665.043	-168
665.097	307
665.150	1588
665.203	518
665.257	305
665.310	128
665.363	215
665.417	564
665.470	155
665.523	591
665.576	-268
665.630	553
665.683	-140
665.736	853
665.789	101
665.842	-554
665.895	611
665.949	588
666.002	527
666.055	125
666.108	979
666.161	331
666.214	-108
666.267	8
666.320	1274
666.373	472
666.426	-62
666.479	-24
666.532	403
666.585	665
666.638	749
666.691	462
666.744	780
666.796	782
666.849	-111
666.902	1135
666.955	444
667.008	-340
667.060	-366
667.113	1
667.166	185
667.219	682
667.271	-343
667.324	826
667.377	-87
667.430	495
667.482	139
667.535	342
667.587	166
667.640	562
667.693	-209
667.745	759
667.798	947
667.850	181
667.903	345
667.955	693
668.008	143
668.060	445
668.113	320
668.165	149
668.218	679
668.270	319
668.322	575
668.375	322
668.427	332
668.479	407
668.532	483
668.584	1712
668.636	231
668.689	643
668.741	-371
668.793	891
668.845	903
668.898	575
668.950	1029
669.002	134
669.054	398
669.106	58
669.158	1086
669.211	40
669.263	-171
669.315	1886
669.367	900
669.419	671
669.471	536
669.523	1317
669.575	1023
669.627	780
669.679	235
669.731	814
669.783	180
669.835	1112
669.886	517
669.938	522
669.990	620
670.042	438
670.094	806
670.146	1501
670.197	987
670.249	2275
670.301	2762
670.353	4296
670.404	6589
670.456	10088
670.508	15046
670.560	25656
670.611	44222
670.663	76019
670.715	173810
670.766	256852
670.818	96206
670.869	21573
670.921	9944
670.972	6905
671.024	4375
671.075	3612
671.127	2126
671.178	2167
671.230	1576
671.281	1677
671.333	1411
671.384	2049
671.436	1147
671.487	1969
671.538	1606
671.590	1512
671.641	2026
671.692	4287
671.744	7082
671.795	5175
671.846	1450
671.897	1220
671.949	1073
672.000	1487
672.051	1120
672.102	1125
672.153	-146
672.204	998
672.256	687
672.307	266
672.358	1492
672.409	613
672.460	682
672.511	-133
672.562	1208
672.613	232
672.664	-123
672.715	1099
672.766	439
672.817	981
672.868	602
672.919	637
672.970	-487
673.021	1406
673.071	-716
673.122	1511
673.173	380
673.224	1114
673.275	-473
673.326	84
673.376	514
673.427	626
673.478	566
673.528	994
673.579	-338
673.630	625
673.680	1701
673.731	302
673.782	-146
673.832	667
673.883	197
673.934	460
673.984	599
674.035	514
674.085	234
674.136	754
674.186	409
674.237	858
674.287	1598
674.338	670
674.388	996
674.438	-426
674.489	294
674.539	1315
674.589	80
674.640	4
674.690	474
674.740	449
674.791	581
674.841	1142
674.891	863
674.942	-118
674.992	-75
675.042	-88
675.092	-150
675.142	1041
675.193	-298
675.243	153
675.293	357
675.343	-54
675.393	-168
675.443	599
675.493	-158
675.543	-446
675.593	-264
675.643	-163
675.693	722
675.743	192
675.793	103
675.843	451
675.893	121
675.943	530
675.993	410
676.043	505
676.093	733
676.142	171
676.192	-288
676.242	350
676.292	520
676.341	275
676.391	-350
676.441	-328
676.491	-655
676.540	-182
676.590	-46
676.640	478
676.689	37
676.739	-315
676.789	-1174
676.838	192
676.888	246
676.937	141
676.987	449
677.037	251
677.086	-611
677.136	-78
677.185	-429
677.235	-723
677.284	117
677.333	-347
677.383	-907
677.432	-363
677.482	236
677.531	482
677.580	-304
677.630	366
677.679	-72
677.728	-331
677.778	55
677.827	385
677.876	102
677.925	189
677.975	479
678.024	-81
678.073	173
678.122	3
678.171	-662
678.220	249
678.269	-32
678.319	312
678.368	-907
678.417	186
678.466	570
678.515	968
678.564	-43
678.613	-687
678.662	-625
678.711	42
678.760	-396
678.809	627
678.857	-379
678.906	707
678.955	-185
679.004	378
679.053	-46
679.102	169
679.151	-158
679.199	128
679.248	-257
679.297	-816
679.346	-35
679.394	186
679.443	-842
679.492	1276
679.540	-342
679.589	-75
679.638	-893
679.686	607
679.735	193
679.784	1057
679.832	-205
679.881	32
679.929	-869
679.978	495
680.026	-498
680.075	31
680.123	-859
680.172	-658
680.220	-742
680.268	168
680.317	-330
680.365	40
680.414	-1
680.462	729
680.510	854
680.559	-349
680.607	-240
680.655	-1131
680.703	-115
680.752	-135
680.800	-516
680.848	-318
680.896	-322
680.945	-313
680.993	74
681.041	-812
681.089	-646
681.137	-1098
681.185	-220
681.233	-348
681.258	-179
681.281	-34
681.329	482
681.377	-292
681.380	-263
681.425	17
681.473	511
681.502	451
681.521	378
681.569	166
681.617	-486
681.624	-414
681.665	-64
681.713	741
681.745	96
681.761	-238
681.809	-80
681.857	429
681.867	335
681.904	-40
681.952	-152
681.989	251
682.000	351
682.048	-81
682.096	-236
682.111	-262
682.143	-350
682.191	-66
682.233	940
682.239	1073
682.286	921
682.334	-566
682.354	1
682.382	744
682.430	170
682.476	346
682.477	336
682.525	775
682.572	440
682.598	269
682.620	93
682.667	474
682.715	491
682.720	557
682.763	1068
682.810	360
682.841	596
682.857	720
682.905	19
682.952	1085
682.963	882
683.000	29
683.047	414
683.085	1547
683.095	1853
683.142	733
683.190	800
683.206	945
683.237	1211
683.284	809
683.328	912
683.332	905
683.379	1175
683.426	1718
683.449	1527
683.473	1333
683.521	1236
683.568	998
683.571	1015
683.615	1125
683.662	1755
683.693	1541
683.709	1385
683.757	1010
683.804	1789
683.814	1681
683.851	1272
683.898	1432
683.936	961
683.945	849
683.992	623
684.039	859
684.057	1043
684.086	1269
684.133	1142
684.179	1334
684.180	1330
684.227	1175
684.274	1806
684.300	1777
684.321	1740
684.368	1508
684.415	929
684.422	894
684.462	772
684.509	853
684.543	1688
684.556	1938
684.603	1569
684.649	1511
684.665	1603
684.696	1812
684.743	2290
684.786	1660
684.790	1607
684.837	2342
684.883	1835
684.908	2112
684.930	2336
684.977	1755
685.023	2289
685.029	2265
685.070	1871
685.117	2401
685.150	2184
685.164	2141
685.210	2399
685.257	2503
685.272	2598
685.303	2675
685.350	2477
685.393	2315
685.396	2311
685.443	1858
685.490	2394
685.514	2678
685.536	2825
685.583	2498
685.629	2181
685.636	2252
685.675	2757
685.722	2385
685.757	3044
685.768	3226
685.815	2320
685.861	3036
685.878	2869
685.908	2687
685.954	2819
686.000	2853
686.000	2849
686.047	2410
686.093	2981
686.121	3685
686.139	4078
686.185	3057
686.232	3169
686.242	3181
686.278	3204
686.324	3012
686.363	3075
686.370	3095
686.416	2584
686.463	2577
686.484	2713
686.509	2901
686.555	2542
686.601	2812
686.606	2821
686.647	2743
686.693	2543
686.727	2336
686.739	2323
686.785	3730
686.831	3004
686.848	3308
686.877	3716
686.923	2876
686.969	2659
686.969	2657
687.015	2767
687.061	2658
687.090	2783
687.107	2893
687.153	3419
687.199	3085
687.211	3001
687.245	2790
687.291	3768
687.332	3720
687.336	3715
687.382	3178
687.428	3267
687.453	3539
687.474	3731
687.520	3626
687.565	2904
687.574	2989
687.611	3381
687.657	3348
687.695	3586
687.702	3625
687.748	3281
687.794	3485
687.816	3332
687.839	3132
687.885	3061
687.931	3049
687.937	3101
687.976	3607
688.022	3123
688.058	3410
688.067	3463
688.113	3559
688.158	3335
688.179	3258
688.204	3213
688.249	3441
688.295	3617
688.300	3708
688.340	4332
688.386	4015
688.421	3792
688.431	3689
688.477	3649
688.522	3654
688.542	3474
688.567	3388
688.613	3578
688.658	3343
688.663	3415
688.703	4028
688.749	3943
688.784	3743
688.794	3643
688.839	3652
688.884	3810
688.905	3715
688.930	3705
688.975	3736
689.020	3547
689.026	3550
689.065	3660
689.110	3576
689.146	4065
689.155	4156
689.201	3403
689.246	3613
689.267	3538
689.291	3639
689.336	4345
689.381	4224
689.388	4313
689.426	4688
689.471	4410
689.509	4683
689.516	4680
689.561	4568
689.606	3720
689.630	3498
689.651	3497
689.696	3935
689.741	3899
689.750	3945
689.785	4084
689.830	4161
689.871	4196
689.875	4197
689.920	3936
689.965	3937
689.992	3533
690.010	3365
690.054	3925
690.099	3956
690.112	4249
690.144	5004
690.189	4651
690.233	4619
690.233	4627
690.278	4792
690.323	5092
690.354	5298
690.367	5362
690.412	5042
690.457	4857
690.474	5083
690.501	5602
690.546	5533
690.590	5530
690.595	5551
690.635	6014
690.680	6697
690.716	6680
690.724	6820
690.769	8439
690.813	9797
690.836	10289
690.857	11634
690.902	14762
690.946	18557
690.957	19396
690.991	26701
691.035	36920
691.077	47175
691.080	47298
691.124	45444
691.168	42890
691.198	41676
691.213	38422
691.257	28672
691.301	19525
691.318	15846
691.346	14122
691.390	11498
691.434	8653
691.439	8346
691.478	7790
691.522	7089
691.559	6577
691.567	6554
691.611	6362
691.655	6154
691.680	5911
691.699	5857
691.743	5685
691.787	5872
691.800	5851
691.831	5880
691.875	5434
691.919	5850
691.921	5837
691.964	5622
692.008	5752
692.041	5304
692.052	5259
692.096	5805
692.139	5936
692.162	5981
692.183	5894
692.227	5494
692.271	5632
692.282	5560
692.315	5508
692.359	5466
692.402	5587
692.403	5601
692.447	5798
692.490	5676
692.523	5999
692.534	6132
692.578	6225
692.622	6072
692.643	6249
692.666	6369
692.709	6411
692.753	6146
692.763	6219
692.797	6564
692.840	6105
692.884	6366
692.884	6385
692.928	6332
692.971	6838
693.004	6565
693.015	6422
693.059	6277
693.102	6379
693.124	6316
693.146	6512
693.189	6595
693.233	7071
693.245	7154
693.276	7808
693.320	8647
693.363	9108
693.365	9126
693.407	10442
693.450	11480
693.485	12389
693.493	12899
693.537	15486
693.580	18124
693.605	19537
693.624	22721
693.667	30415
693.710	38167
693.725	40928
693.753	55092
693.797	77704
693.840	101235
693.845	103569
693.883	99964
693.926	95089
693.966	90661
693.970	88722
694.013	67712
694.056	46241
694.086	31605
694.099	29842
694.142	24209
694.185	18598
694.206	15818
694.229	14871
694.272	13075
694.315	11347
694.326	10923
694.358	10650
694.401	9949
694.444	9488
694.446	9423
694.487	8632
694.530	8103
694.566	7626
694.573	7598
694.616	7258
694.659	7046
694.686	6640
694.702	6554
694.745	6855
694.787	6693
694.806	6573
694.830	6401
694.873	6286
694.916	6192
694.926	6134
694.959	6048
695.002	6026
695.044	5884
695.046	5866
695.087	6054
695.130	6192
695.166	6249
695.172	6264
695.215	6493
695.258	6023
695.286	6153
695.301	6279
695.343	6415
695.386	6546
695.406	6531
695.428	6439
695.471	6294
695.514	6285
695.526	6201
695.556	6255
695.599	6528
695.641	6586
695.646	6599
695.684	6547
695.726	6170
695.766	5943
695.769	5962
695.811	6157
695.854	5983
695.886	6049
695.896	6114
695.938	6229
695.981	6290
696.005	6381
696.023	6275
696.065	5847
696.108	5445
696.125	5257
696.150	5422
696.192	5649
696.235	6085
696.245	6101
696.277	6096
696.319	6215
696.361	6254
696.365	6257
696.404	6685
696.446	6910
696.485	7104
696.488	7125
696.530	7150
696.572	7269
696.604	7266
696.614	7229
696.656	6998
696.698	6737
696.724	6611
696.740	6510
696.783	6055
696.825	5768
696.844	5527
696.867	5694
696.909	6146
696.951	6509
696.964	6638
696.992	6603
697.034	6364
697.076	6211
697.083	6158
697.118	6305
697.160	6512
697.202	6686
697.203	6671
697.244	6473
697.286	6264
697.323	5986
697.327	5992
697.369	5921
697.411	5784
697.442	5753
697.453	5778
697.494	5724
697.536	5721
697.562	5714
697.578	5783
697.620	5815
697.661	5904
697.682	5884
697.703	5817
697.744	5860
697.786	5807
697.801	5744
697.828	5931
697.869	6139
697.911	6477
697.921	6540
697.952	6638
697.994	6686
698.035	6795
698.040	6781
698.077	6298
698.118	5694
698.160	5150
698.160	5130
698.201	5547
698.243	5949
698.279	6287
698.284	6330
698.325	6592
698.367	6761
698.399	6923
698.408	6885
698.449	6591
698.491	6289
698.518	6070
698.532	6109
698.573	6188
698.614	6212
698.638	6242
698.656	6357
698.697	6532
698.738	6737
698.757	6805
698.779	6718
698.820	6520
698.862	6320
698.877	6229
698.903	6591
698.944	7129
698.985	7672
698.996	7802
699.026	7438
699.067	6898
699.116	6236
699.235	6443
699.354	6445
699.474	6729
699.593	7060
699.713	7166
699.832	6424
699.951	6027
700.070	6261
700.190	6384
700.309	6311
700.428	6911
700.547	6182
700.667	6761
700.786	6846
700.905	6924
701.024	5677
701.143	5636
701.262	5512
701.381	5429
701.500	4925
701.619	5384
701.738	5755
701.857	5687
701.976	5621
702.095	6569
702.214	5773
702.333	5925
702.452	5425
702.571	5985
702.690	4993
702.809	5586
702.928	5002
703.047	5438
703.165	6000
703.284	5234
703.403	4881
703.522	4924
703.640	5722
703.759	6202
703.878	7304
703.997	5570
704.115	4529
704.234	5718
704.353	4642
704.471	5558
704.590	4895
704.708	5234
704.827	4536
704.946	4864
705.064	5358
705.183	5454
705.301	7052
705.420	10011
705.538	7921
705.656	7079
705.775	7196
705.893	9026
706.012	11647
706.130	7262
706.249	7182
706.367	7021
706.485	7646
706.604	7176
706.722	6531
706.840	7796
706.958	7598
707.077	7111
707.195	7183
707.313	7280
707.431	6234
707.549	5651
707.668	6368
707.786	6928
707.904	6716
708.022	6415
708.140	6435
708.258	6587
708.376	6635
708.494	6255
708.612	7380
708.730	10306
708.848	10044
708.966	9090
709.084	7764
709.202	8464
709.320	8762
709.438	7526
709.556	8540
709.674	7892
709.791	8033
709.909	7968
710.027	8583
710.145	8860
710.263	8284
710.380	7692
710.498	7991
710.616	8311
710.733	7115
710.851	7665
710.969	8394
711.086	8150
711.204	7537
711.322	7427
711.439	7463
711.557	7108
711.674	7762
711.792	7654
711.909	7050
712.027	6884
712.144	7192
712.262	7360
712.379	8411
712.497	11252
712.614	11633
712.732	9851
712.849	8792
712.966	9501
713.084	9509
713.201	9595
713.318	9733
713.436	8826
713.553	9743
713.670	9441
713.787	10108
713.905	10231
714.022	9075
714.139	8467
714.256	8979
714.373	8333
714.490	10314
714.608	15994
714.725	46070
714.842	43578
714.959	9059
715.076	8586
715.193	8167
715.310	8996
715.427	7980
715.544	7712
715.661	7346
715.778	7159
715.895	8490
716.011	8157
716.128	7866
716.245	8020
716.362	8992
716.479	7726
716.596	7348
716.713	7389
716.829	7988
716.946	7858
717.063	7223
717.180	6929
717.296	7183
717.413	7260
717.530	6467
717.646	6396
717.763	6677
717.880	6825
717.996	6666
718.113	6647
718.229	6294
718.346	5403
718.462	5702
718.579	6277
718.695	6605
718.812	7946
718.928	7773
719.045	6558
719.161	6326
719.277	5831
719.394	5680
719.510	6254
719.626	5798
719.743	7689
719.859	7643
719.975	7937
720.092	15056
720.208	26587
720.324	8265
720.440	6670
720.557	6154
720.673	7660
720.789	10405
720.905	20325
721.021	8979
721.137	6567
721.253	6772
721.369	5854
721.486	7160
721.602	9041
721.718	7224
721.834	5334
721.950	5616
722.066	5024
722.181	5563
722.297	5911
722.413	6273
722.529	5527
722.645	5593
722.761	5252
722.877	4342
722.993	4536
723.108	5991
723.224	5791
723.340	5255
723.456	5639
723.571	5289
723.687	4726
723.803	4717
723.918	4991
724.034	4779
724.150	5399
724.265	4898
724.381	8688
724.497	9977
724.612	4556
724.728	4791
724.843	4505
724.959	5383
725.074	8576
725.190	9574
725.305	4469
725.421	4835
725.536	4235
725.651	4401
725.767	4123
725.882	4545
725.997	3964
726.113	4036
726.228	3963
726.343	3852
726.459	3828
726.574	4719
726.689	4128
726.804	4481
726.920	4063
727.035	4596
727.150	4430
727.265	4195
727.380	4410
727.495	3307
727.610	3447
727.725	3841
727.841	4888
727.956	5979
728.071	5329
728.186	3284
728.301	3294
728.416	3246
728.531	3527
728.645	3509
728.760	4588
728.875	3666
728.990	3628
729.105	3838
729.220	3008
729.335	3529
729.449	3590
729.564	3422
729.679	3297
729.794	2836
729.908	3730
730.023	4267
730.138	2418
730.253	3451
730.367	2593
730.482	3422
730.596	3222
730.711	2902
730.826	3667
730.940	3167
731.055	3395
731.169	3027
731.284	3214
731.398	2757
731.513	4143
731.627	2988
731.742	4044
731.856	3503
731.970	2614
732.085	2974
732.199	3734
732.313	3390
732.428	6180
732.542	13142
732.656	8108
732.771	3283
732.885	3616
732.999	3944
733.113	3809
733.227	4237
733.342	3737
733.456	3165
733.570	3347
733.684	3068
733.798	3343
733.912	3498
734.026	2848
734.140	4054
734.254	3571
734.368	5950
734.482	5830
734.596	2800
734.710	3929
734.824	3442
734.938	2890
735.052	2730
735.166	3598
735.280	3375
735.393	2378
735.507	3258
735.621	3536
735.735	6189
735.849	3019
735.962	3492
736.076	2792
736.190	3679
736.303	4480
736.417	4613
736.531	2700
736.644	2555
736.758	2831
736.872	2592
736.985	2798
737.099	2429
737.212	2683
737.326	2916
737.439	3250
737.553	3429
737.666	2434
737.780	2033
737.893	2628
738.007	3250
738.120	2579
738.233	3077
738.347	3055
738.460	3356
738.573	2639
738.687	2198
738.800	2814
738.913	2661
739.026	2307
739.140	2315
739.253	2726
739.366	2306
739.479	2063
739.592	2688
739.705	2907
739.818	2936
739.932	2793
740.045	2892
740.158	2540
740.271	2507
740.384	2053
740.497	2392
740.610	3164
740.723	2161
740.836	3071
740.949	2055
741.062	2820
741.174	2473
741.287	2728
741.400	2110
741.513	1897
741.626	2411
741.739	2869
741.851	1637
741.964	2226
742.077	2204
742.189	2623
742.302	3161
742.415	3007
742.527	2293
742.640	2514
742.753	2690
742.865	2089
742.978	1856
743.090	3301
743.203	1736
743.316	2655
743.428	2467
743.541	2347
743.653	2018
743.766	2183
743.878	2052
743.990	2996
744.103	3483
744.215	2783
744.327	1770
744.440	3019
744.552	2343
744.664	2072
744.777	2987
744.889	2211
745.001	2920
745.113	2631
745.226	1895
745.338	2582
745.450	2796
745.562	2409
745.674	2949
745.786	2573
745.898	2936
746.010	1937
746.122	2411
746.234	2308
746.347	2079
746.459	1442
746.570	2634
746.682	3513
746.794	3184
746.906	2982
747.018	2036
747.130	2682
747.242	2536
747.354	1340
747.466	3046
747.577	2252
747.689	2420
747.801	3484
747.913	1619
748.024	2630
748.136	2231
748.248	3113
748.359	1923
748.471	3190
748.583	2566
748.694	2762
748.806	3050
748.918	2715
749.029	2570
749.141	2504
749.252	2946
749.364	2362
749.475	2971
749.587	2792
749.698	2342
749.809	2676
749.921	2108
750.032	3034
750.144	2326
750.255	2130
750.366	2513
750.478	2690
750.589	2991
750.700	2932
750.811	3053
750.923	3121
751.034	2773
751.145	4065
751.256	2256
751.367	2909
751.479	1696
751.590	2826
751.701	2363
751.812	2658
751.923	2395
752.034	3222
752.145	2046
752.256	2195
752.367	2202
752.478	2956
752.589	2902
752.700	3438
752.811	2067
752.922	3324
753.032	2119
753.143	3319
753.254	2345
753.365	3132
753.476	3001
753.586	2848
753.697	2951
753.808	3430
753.919	2627
754.029	3360
754.140	2864
754.251	2716
754.361	3437
754.472	2891
754.582	2862
754.693	2912
754.804	3002
754.914	2294
755.025	3115
755.135	2992
755.246	3193
755.356	2442
755.466	4151
755.577	3218
755.687	3531
755.798	3317
755.908	3326
756.018	3169
756.129	3287
756.239	3647
756.349	3959
756.460	3467
756.570	3166
756.680	3975
756.790	3521
756.900	4607
757.011	3566
757.121	3841
757.231	3853
757.341	3512
757.451	3001
757.561	3914
757.671	2899
757.781	4251
757.891	5085
758.001	4145
758.111	4555
758.221	5134
758.331	5530
758.441	4300
758.551	4260
758.661	4739
758.771	5408
758.880	4412
758.990	4857
759.100	5156
759.210	5112
759.320	5097
759.429	5207
759.539	5456
759.649	5860
759.758	6532
759.868	5684
759.978	5815
760.087	6351
760.197	6692
760.307	6665
760.416	6030
760.526	5746
760.635	7501
760.745	7523
760.854	8149
760.964	7374
761.073	7773
761.182	8086
761.292	7718
761.401	8762
761.511	8240
761.620	8512
761.729	8566
761.839	8709
761.948	10000
762.057	9539
762.166	9677
762.276	9920
762.385	10977
762.494	11631
762.603	10716
762.712	12020
762.822	12537
762.931	13250
763.040	13834
763.149	13093
763.258	14655
763.367	16615
763.476	17078
763.585	16577
763.694	18574
763.803	19205
763.912	20964
764.021	22994
764.130	23068
764.238	25557
764.347	27006
764.456	29151
764.565	31630
764.674	34232
764.783	37508
764.891	41588
765.000	47646
765.109	52749
765.217	59814
765.326	68904
765.435	79102
765.543	93874
765.652	111177
765.761	137325
765.869	166719
765.978	208110
766.086	262335
766.195	322163
766.303	367483
766.412	320218
766.520	297139
766.629	339135
766.737	303864
766.846	249063
766.954	197549
767.062	158328
767.171	125251
767.279	102724
767.387	84108
767.496	73215
767.604	63606
767.712	55672
767.820	50149
767.928	46622
768.037	41789
768.145	40469
768.253	38897
768.361	37867
768.469	37062
768.577	37544
768.685	40583
768.793	40951
768.901	46570
769.009	55354
769.117	64092
769.225	79046
769.333	102196
769.441	140028
769.549	196844
769.657	279715
769.765	339568
769.873	284564
769.981	297536
770.088	259312
770.196	194176
770.304	145598
770.412	111855
770.519	90406
770.627	74549
770.735	59498
770.842	53039
770.950	45939
771.058	39234
771.165	36133
771.273	30814
771.380	28949
771.488	26691
771.595	23332
771.703	22606
771.810	19958
771.918	19178
772.025	17745
772.133	16424
772.240	15398
772.348	15671
772.455	14852
772.562	12908
772.670	13424
772.777	13337
772.884	12640
772.991	11887
773.099	10357
773.206	9511
773.313	9444
773.420	9804
773.528	8986
773.635	9063
773.742	9061
773.849	9040
773.956	7906
774.063	8425
774.170	7933
774.277	8704
774.384	7019
774.491	7010
774.598	6836
774.705	7260
774.812	7136
774.919	6510
775.026	6021
775.133	6571
775.239	6320
775.346	6445
775.453	6254
775.560	5563
775.667	5841
775.773	5199
775.880	5539
775.987	5329
776.093	6249
776.200	5098
776.307	4923
776.413	5778
776.520	4519
776.627	5548
776.733	4572
776.840	3963
776.946	5352
777.053	6153
777.159	7042
777.266	4152
777.372	7327
777.478	5621
777.585	5378
777.691	4280
777.798	4301
777.904	4957
778.010	3804
778.117	4303
778.223	3480
778.329	3254
778.435	3078
778.542	3925
778.648	3910
778.754	2619
778.860	3429
778.966	3095
779.072	3446
779.178	3862
779.284	3734
779.391	4153
779.497	2795
779.603	6974
779.708	5592
779.815	14537
779.920	47572
780.026	86543
780.132	17946
780.238	5195
780.344	3936
780.450	4008
780.556	3021
780.661	2758
780.767	2465
780.873	2547
780.979	3200
781.085	2375
781.190	2850
781.296	2245
781.402	1721
781.507	1871
781.613	2593
781.719	2147
781.824	1833
781.930	2836
782.035	1669
782.141	2558
782.246	2688
782.352	2367
782.457	1903
782.563	2201
782.668	1715
782.773	1680
782.879	1352
782.984	2226
783.090	2311
783.195	2282
783.300	1358
783.405	1762
783.511	1337
783.616	2173
783.721	1998
783.826	1589
783.932	2380
784.037	2524
784.142	628
784.247	1571
784.352	2378
784.457	1243
784.562	1388
784.667	1742
784.772	1539
784.877	241
784.982	1580
785.087	2227
785.192	1977
785.297	1823
785.402	1835
785.507	1778
785.611	1930
785.716	2077
785.821	1283
785.926	865
786.031	1892
786.135	2054
786.240	1883
786.345	156
786.450	2077
786.554	1499
786.659	1416
786.763	335
786.868	1903
786.973	2484
787.077	1554
787.182	1383
787.286	2048
787.391	1962
787.495	986
787.600	931
787.704	724
787.809	1333
787.913	1229
788.017	2058
788.122	1475
788.226	2281
788.330	961
788.435	1473
788.539	1122
788.643	1866
788.747	711
788.852	1484
788.956	1036
789.060	2270
789.164	712
789.268	504
789.372	1205
789.476	1044
789.580	1500
789.684	394
789.788	1445
789.892	723
789.996	2038
790.100	1269
790.204	1266
790.308	1344
790.412	462
790.516	1056
790.620	597
790.724	304
790.828	553
790.931	217
791.035	1994
791.139	1106
791.242	-492
791.346	1853
791.450	812
791.554	1328
791.657	359
791.761	1604
791.864	1004
791.968	1035
792.072	623
792.175	823
792.279	-178
792.382	734
792.486	643
792.589	326
792.693	1783
792.796	-874
792.899	1307
793.003	976
793.106	-283
793.209	302
793.313	1508
793.416	-1221
793.519	1545
793.623	1217
793.726	1122
793.829	1130
793.932	726
794.035	286
794.138	1046
794.242	1116
794.345	1997
794.448	3025
794.551	6171
794.654	25663
794.757	52092
794.860	10134
794.963	1823
795.066	513
795.169	1521
795.272	297
795.375	931
795.477	373
795.580	850
795.683	254
795.786	597
795.889	-65
795.991	1903
796.094	927
796.197	-633
796.300	582
796.402	476
796.505	62
796.608	407
796.710	445
796.813	639
796.915	-54
797.018	683
797.120	301
797.223	-480
797.326	1259
797.428	215
797.530	386
797.633	774
797.735	1278
797.838	615
797.940	1667
798.042	92
798.145	501
798.247	1365
798.349	-1110
798.452	1126
798.554	-313
798.656	-659
798.758	907
798.860	-73
798.962	221
799.065	419
799.167	165
799.269	1216
799.371	1704
799.473	744
799.575	-852
799.677	512
799.779	1920
799.881	-1179
799.983	1051
800.085	745
800.187	77
800.289	-142
800.390	466
800.492	666
800.594	1760
800.696	729
800.798	904
800.899	689
801.001	-595
801.103	-180
801.205	94
801.306	1096
801.408	-558
801.509	289
801.611	43
801.713	3
801.814	-364
801.916	-224
802.017	-556
802.119	-661
802.220	-473
802.322	-1351
802.423	2096
802.525	-703
802.626	331
802.727	-63
802.829	1368
802.930	-1849
803.031	1294
803.133	157
803.234	-54
803.335	-324
803.436	-463
803.538	161
803.639	-668
803.740	-39
803.841	-109
803.942	-575
804.043	831
804.144	-237
804.245	-267
804.346	-419
804.447	-837
804.548	-273
804.649	1453
804.750	-184
804.851	-580
804.952	-197
805.053	147
805.154	-1180
805.255	1249
805.355	-201
805.456	-179
805.557	452
805.658	-886
805.758	743
805.859	-298
805.960	-820
806.061	-32
806.161	267
806.262	526
806.362	-394
806.463	-176
806.564	712
806.664	142
806.765	468
806.865	-216
806.966	325
807.066	-273
807.166	742
807.267	-175
807.367	-434
807.468	1106
807.568	-1212
807.668	157
807.769	521
807.869	333
807.969	-812
808.069	-568
808.170	592
808.270	-535
808.370	241
808.470	166
808.570	-944
808.670	-167
808.770	678
808.870	-652
808.970	798
809.070	-380
809.170	145
809.271	535
809.370	-334
809.470	516
809.570	437
809.670	-220
809.770	-43
809.870	341
809.970	-181
810.070	57
810.169	119
810.269	-2167
810.369	327
810.469	53
810.568	-617
810.668	-474
810.768	-861
810.867	-204
810.967	-296
811.066	524
811.166	137
811.265	662
811.365	-523
811.464	-439
811.564	-242
811.663	855
811.763	-570
811.862	240
811.962	735
812.061	-90
812.160	-983
812.260	24
812.359	-98
812.458	572
812.557	1894
812.657	2770
812.756	710
812.855	89
812.954	-316
813.053	439
813.153	-400
813.252	-839
813.351	-317
813.450	186
813.549	-695
813.648	228
813.747	-712
813.846	792
813.945	-673
814.044	-922
814.143	100
814.242	174
814.341	-1183
814.439	885
814.538	-610
814.637	77
814.736	-68
814.835	274
814.933	-762
815.032	-327
815.131	-248
815.229	-209
815.328	327
815.427	-199
815.525	328
815.624	-32
815.722	-46
815.821	127
815.919	-636
816.018	-659
816.116	413
816.215	-14
816.313	-254
816.412	411
816.510	-901
816.609	1315
816.707	2
816.805	-956
816.904	-403
817.002	160
817.100	-517
817.198	165
817.296	-352
817.395	-1097
817.493	562
817.591	-1145
817.689	-127
817.787	-513
817.885	-469
817.983	85
818.081	218
818.179	1245
818.277	3790
818.375	3938
818.473	1531
818.571	460
818.669	67
818.767	299
818.865	783
818.963	291
819.061	102
819.158	518
819.256	2129
819.354	2620
819.452	8960
819.549	4808
819.647	1951
819.745	501
819.842	1146
819.940	-497
820.038	-242
820.135	-608
820.233	853
820.330	-456
820.428	-669
820.525	224
820.623	-478
820.720	-458
820.818	-51
820.915	-872
821.012	435
821.110	-1156
821.207	113
821.304	-1077
821.402	54
821.499	526
821.596	1328
821.693	569
821.791	151
821.888	-31
821.985	444
822.082	-1050
822.179	901
822.276	-292
822.373	194
822.470	-26
822.567	-449
822.664	-811
822.761	100
822.858	-569
822.955	-103
823.052	-270
823.149	-157
823.246	-735
823.343	333
823.440	314
823.536	-904
823.633	-583
823.730	-273
823.827	493
823.923	-747
824.020	1047
824.117	-791
824.213	-627
824.310	-82
824.407	-320
824.503	572
824.600	607
824.696	-579
824.793	755
824.889	-688
824.986	-360
825.082	-640
825.179	-2
825.275	-58
825.371	-924
825.468	497
825.564	-873
825.660	675
825.757	-448
825.853	299
825.949	-687
826.045	-582
826.142	-554
826.238	-656
826.334	-434
826.430	-903
826.526	291
826.622	-201
826.718	-57
826.814	-1255
826.910	1103
827.006	-379
827.102	-1261
827.198	779
827.294	-374
827.390	218
827.486	548
827.582	-1183
827.678	-1027
827.774	575
827.869	-1525
827.965	1626
828.061	-1622
828.157	-526
828.252	-971
828.348	-719
828.444	292
828.539	-985
828.635	-243
828.731	119
828.826	-1022
828.922	-22
829.017	-1064
829.113	112
829.208	-990
829.304	-518
829.399	813
829.495	-929
829.590	207
829.685	-1215
829.781	-5
829.876	-173
829.971	276
830.066	-459
830.162	95
830.257	-965
830.352	-575
830.447	211
830.543	72
830.638	-1044
830.733	444
830.828	-1243
830.923	-303
831.018	-43
831.113	-183
831.208	-418
831.303	116
831.398	88
831.493	-1013
831.588	-271
831.683	-1899
831.778	-542
831.873	-216
831.967	934
832.062	-1143
832.157	-776
832.252	642
832.346	-905
832.441	-224
832.536	-156
832.631	397
832.725	-727
832.820	-57
832.914	-583
833.009	-1059
833.104	-133
833.198	-72
833.293	-917
833.387	83
833.482	-137
833.576	-351
833.670	-3
833.765	-529
833.859	-1437
833.954	555
834.048	173
834.142	169
834.237	-918
834.331	-748
834.425	-170
834.519	-416
834.613	-62
834.708	-984
834.802	231
834.896	-681
834.990	-480
835.084	170
835.178	480
835.272	-809
835.366	-796
835.460	-1060
835.554	-547
835.648	-120
835.742	-1088
835.836	106
835.930	-1588
836.024	-342
836.117	194
836.211	-1290
836.305	133
836.399	1007
836.493	-1513
836.586	46
836.680	-776
836.774	-106
836.867	859
836.961	-991
837.055	-926
837.148	401
837.242	-893
837.335	-771
837.429	-430
837.522	-798
837.616	372
837.709	478
837.803	-740
837.896	-703
837.989	-424
838.083	432
838.176	1116
838.269	12
838.363	-531
838.456	-437
838.549	97
838.642	-629
838.735	145
838.829	717
838.922	-497
839.015	-429
839.108	-1058
839.201	388
839.294	-772
839.387	115
839.480	-1101
839.573	-1065
839.666	-213
839.759	-20
839.852	-1378
839.945	-1003
840.038	-1294
840.131	-794
840.223	-643
840.316	462
840.409	-1533
840.502	-579
840.594	-229
840.687	-1802
840.780	-14
840.873	-738
840.965	-94
841.058	-656
841.150	901
841.243	-343
841.336	-49
841.428	-287
841.521	-1001
841.613	-687
841.706	192
841.798	-829
841.890	-689
841.983	-922
842.075	-140
842.167	-758
842.260	-564
842.352	890
842.444	133
842.537	962
842.629	1989
842.721	-243
842.813	273
842.905	-1115
842.997	-114
843.090	-526
843.182	817
843.274	701
843.366	2909
843.458	6110
843.550	3472
843.642	34
843.734	-757
843.826	-372
843.918	-618
844.009	-24
844.101	-1453
844.193	-351
844.285	-782
844.377	-152
844.469	-281
844.560	-740
844.652	525
844.744	370
844.835	-291
844.927	-714
845.019	381
845.110	-67
845.202	-694
845.293	-473
845.385	-591
845.476	-257
845.568	473
845.659	-719
845.751	-173
845.842	-250
845.934	-1344
846.025	-897
846.116	-125
846.208	-77
846.299	-876
846.390	-223
846.482	374
846.573	440
846.664	-523
846.755	-789
846.846	-313
846.937	-1169
847.029	-591
847.120	-1050
847.211	-316
847.302	210
847.393	-1136
847.484	107
847.575	-806
847.666	-928
847.757	-210
847.847	-89
847.938	785
848.029	-808
848.120	-1713
848.211	-909
848.302	-965
848.392	-602
848.483	-95
848.574	-226
848.664	-810
848.755	-687
848.846	-333
848.936	-456
849.027	-408
849.118	-205
849.208	-1583
849.299	-229
849.389	-902
849.480	-219
849.570	376
849.661	1742
849.751	1823
849.841	-443
849.932	-1291
850.022	-1236
850.112	-6
850.203	-832
850.293	-249
850.383	-1037
850.474	-1530
850.564	-1119
850.654	-674
850.744	-48
850.834	-393
850.924	-542
851.014	101
851.104	-242
851.194	-675
851.284	-295
851.374	409
851.464	-516
851.554	-593
851.644	-160
851.734	444
851.824	417
851.914	873
852.004	3889
852.094	3353
852.183	-71
852.273	-147
852.363	-1005
852.452	-88
852.542	-126
852.632	-393
852.721	-194
852.811	-582
852.901	-250
852.990	-1261
853.080	-249
853.169	-497
853.259	-504
853.348	-1369
853.438	-639
853.527	116
853.617	-263
853.706	332
853.795	470
853.885	3223
853.974	6695
854.063	11746
854.152	15502
854.242	4320
854.331	-410
854.420	-443
854.509	-1413
854.598	-120
854.687	-444
854.777	-342
854.866	-33
854.955	25
855.044	-1181
855.133	-527
855.222	-203
855.311	-488
855.400	112
855.488	-914
855.577	-368
855.666	-73
855.755	108
855.844	46
855.933	-675
856.021	-940
856.110	-485
856.199	-653
856.288	-966
856.376	-989
856.465	-1135
856.554	-668
856.642	-581
856.731	-733
856.819	-607
856.908	-1181
856.996	157
857.085	-854
857.173	-274
857.262	-271
857.350	-365
857.438	-345
857.527	-524
857.615	-551
857.703	-336
857.792	-850
857.880	-728
857.968	-472
858.056	-29
858.145	-934
858.233	-464
858.321	-1586
858.409	-350
858.497	-1146
858.585	-650
858.673	-740
858.761	-1011
858.849	-644
858.937	-678
859.025	-951
859.113	-371
859.201	-494
859.289	-143
859.377	-249
859.465	-741
859.552	-956
859.640	133
859.728	64
859.816	-75
859.903	-922
859.991	-1143
860.079	-1082
860.166	-580
860.254	-1033
860.342	-500
860.429	-632
860.517	-1064
860.604	1068
860.692	203
860.779	-652
860.867	-730
860.954	-980
861.042	-709
861.129	-1236
861.216	-1130
861.304	-1150
861.391	-185
861.478	-1067
861.565	-374
861.653	-591
861.740	-849
861.827	-903
861.914	-515
862.001	-1455
862.089	-596
862.176	-248
862.263	-932
862.350	-544
862.437	-783
862.524	-734
862.611	-1077
862.698	-906
862.785	-538
862.871	-195
862.958	-725
863.045	-546
863.132	-1350
863.219	-925
863.306	-361
863.392	-483
863.479	-634
863.566	-760
863.652	-526
863.739	-847
863.826	-638
863.912	-642
863.999	-971
864.086	-1005
864.172	-383
864.259	-1024
864.345	-967
864.432	-450
864.518	-351
864.604	-279
864.691	-978
864.777	180
864.863	-353
864.950	224
865.036	-271
865.122	-702
865.209	-189
865.295	-381
865.381	-391
865.467	-99
865.553	-481
865.639	-259
865.726	296
865.812	776
865.898	3186
865.984	3189
866.070	8105
866.156	6709
866.242	342
866.328	-377
866.414	-683
866.499	-728
866.585	-194
866.671	131
866.757	-952
866.843	-608
866.928	-857
867.014	-727
867.100	-369
867.186	-244
867.271	-583
867.357	136
867.442	-866
867.528	-284
867.614	-1043
867.699	-191
867.785	-339
867.870	-557
867.956	-23
868.041	265
868.127	-255
868.212	102
868.297	-350
868.383	-30
868.468	-363
868.553	74
868.639	-676
868.724	-128
868.809	-594
868.894	95
868.979	-223
869.065	-869
869.150	-690
869.235	-519
869.320	-736
869.405	-975
869.490	-323
869.575	-1005
869.660	-739
869.745	-332
869.830	-1106
869.915	-884
870.000	-942
870.085	-949
870.169	101
870.254	-663
870.339	-1003
870.424	-888
870.509	-560
870.593	-823
870.678	-354
870.763	-519
870.847	-173
870.932	-651
871.016	-1383
871.101	-1574
871.186	-215
871.270	-699
871.355	-392
871.439	-459
871.523	-1314
871.608	-469
871.692	-345
871.777	-225
871.861	-1088
871.945	-559
872.030	-439
872.114	-895
872.198	-1338
872.282	-283
872.367	-673
872.451	-1076
872.535	-26
872.619	-825
872.703	-554
872.787	-837
872.871	66
872.955	-509
873.039	-1120
873.123	-936
873.207	-782
873.291	-1444
873.375	-899
873.459	-735
873.543	-446
873.627	-615
873.711	-711
873.794	-730
873.878	-668
873.962	-1341
874.045	-1101
874.129	-1182
874.137	-1180
874.213	-1153
874.245	-813
874.296	-270
874.352	-617
874.380	-784
874.460	-617
874.464	-612
874.547	-941
874.568	-883
874.631	-656
874.676	-844
874.714	-1034
874.784	-569
874.798	-473
874.881	-11
874.892	-188
874.965	-1447
874.999	-1144
875.048	-698
875.107	-640
875.131	-625
875.215	-514
875.215	-514
875.298	-758
875.323	-688
875.381	-554
875.430	-501
875.465	-429
875.538	-253
875.548	-238
875.631	-983
875.646	-935
875.714	-714
875.753	-927
875.798	-1185
875.861	-527
875.881	-298
875.964	-227
875.968	-230
876.047	-343
876.076	-187
876.130	188
876.183	37
876.213	-87
876.291	-397
876.296	-415
876.379	-457
876.398	-369
876.462	-227
876.506	-368
876.545	-427
876.613	-540
876.628	-563
876.711	-827
876.721	-725
876.794	119
876.828	-259
876.877	-829
876.935	-1146
876.960	-1256
877.043	-407
877.043	-408
877.125	-559
877.150	-353
877.208	302
877.258	-143
877.291	-530
877.365	-223
877.374	-180
877.456	-372
877.472	-409
877.539	-570
877.579	-254
877.622	148
877.687	-12
877.704	-105
877.787	-473
877.794	-470
877.869	-350
877.901	-354
877.952	-261
878.008	-171
878.034	-192
878.115	-754
878.117	-761
878.199	-1269
878.222	-993
878.282	-52
878.329	121
878.364	6
878.437	163
878.447	240
878.529	-200
878.544	-201
878.611	-414
878.651	-260
878.694	3
878.758	112
878.776	113
878.858	-111
878.865	-101
878.941	85
878.972	67
879.023	-47
879.078	-500
879.105	-607
879.185	-302
879.187	-295
879.269	-149
879.292	-96
879.351	8
879.399	44
879.433	-97
879.506	64
879.516	179
879.598	-280
879.613	-183
879.680	-240
879.720	-71
879.762	301
879.827	287
879.844	196
879.926	-189
879.933	-159
880.007	539
880.040	362
880.089	-156
880.147	-165
880.171	48
880.253	996
880.254	994
880.335	639
880.360	785
880.417	1376
880.467	1367
880.499	1373
880.574	1889
880.580	1907
880.662	681
880.680	486
880.744	-189
880.787	-179
880.825	62
880.893	702
880.907	783
880.989	489
881.000	446
881.070	-17
881.106	-14
881.152	256
881.213	314
881.233	350
881.315	706
881.319	723
881.396	766
881.426	638
881.478	617
881.532	409
881.559	212
881.639	628
881.641	643
881.722	534
881.745	556
881.803	739
881.852	229
881.885	-113
881.958	529
881.966	594
882.047	464
882.064	488
882.129	569
882.171	375
882.210	438
882.277	683
882.291	695
882.372	1114
882.383	1158
882.454	1143
882.489	829
882.535	566
882.596	461
882.616	371
882.697	-81
882.702	-88
882.778	691
882.808	777
882.859	350
882.914	625
882.940	942
883.020	632
883.021	628
883.102	8
883.127	-120
883.183	290
883.233	416
883.264	323
883.339	441
883.345	492
883.426	762
883.445	835
883.507	833
883.551	723
883.587	579
883.657	953
883.668	994
883.749	636
883.763	586
883.830	721
883.869	798
883.910	670
883.975	417
883.991	489
884.072	732
884.081	782
884.152	949
884.187	975
884.233	1071
884.292	1095
884.314	1028
884.394	1058
884.398	1036
884.475	664
884.504	628
884.555	979
884.610	1140
884.636	1185
884.716	1475
884.716	1480
884.797	994
884.821	877
884.877	1115
884.927	1164
884.958	950
885.033	501
885.038	537
885.118	963
885.139	1129
885.199	1146
885.244	1136
885.279	1230
885.350	1224
885.359	1199
885.439	933
885.456	824
885.520	663
885.561	862
885.600	899
885.667	755
885.680	861
885.760	1316
885.773	1404
885.840	1256
885.878	1137
885.920	1358
885.984	1484
886.000	1275
886.080	554
886.089	456
886.160	731
886.195	822
886.240	799
886.300	875
886.320	1047
886.400	1634
886.406	1657
886.480	1622
886.511	1633
886.560	1458
886.616	1293
886.640	1371
886.720	1414
886.722	1410
886.800	1230
886.827	1176
886.879	1422
886.932	1355
886.959	1505
887.038	2423
887.039	2422
887.119	1372
887.143	1024
887.198	1527
887.248	2013
887.278	1928
887.354	1602
887.358	1611
887.437	1692
887.459	1704
887.517	1881
887.564	2061
887.596	1869
887.669	1218
887.676	1237
887.755	1537
887.774	1555
887.835	1566
887.880	1736
887.914	1539
887.985	883
887.994	956
888.073	1639
888.090	1783
888.153	1715
888.195	1605
888.232	1698
888.300	1896
888.311	1845
888.391	1434
888.405	1340
888.470	1232
888.510	1183
888.549	1613
888.615	2306
888.628	2189
888.708	1413
888.720	1294
888.787	1610
888.825	1729
888.866	2056
888.930	2587
888.945	2559
889.024	2362
889.035	2327
889.103	2097
889.140	1936
889.182	1740
889.245	1493
889.261	1508
889.340	1515
889.349	1510
889.419	1641
889.454	1714
889.498	2092
889.559	2602
889.577	2503
889.656	2037
889.664	1988
889.735	2171
889.768	2252
889.814	2120
889.873	1931
889.978	2666
890.083	1878
890.187	1598
890.292	1399
890.397	1701
890.501	1432
890.606	2217
890.710	2722
890.815	2150
890.919	1315
891.024	2744
891.128	1998
891.233	1976
891.337	1628
891.442	1789
891.546	2009
891.650	1869
891.755	1151
891.859	3722
891.963	1787
892.068	1886
892.172	1051
892.276	1612
892.380	1628
892.484	994
892.589	990
892.693	2644
892.797	1217
892.901	2011
893.005	1546
893.109	2079
893.213	2117
893.317	2305
893.421	2733
893.525	2008
893.629	1633
893.733	1630
893.837	1228
893.941	1382
894.045	3073
894.148	4560
894.252	9485
894.356	6474
894.460	2462
894.564	858
894.667	2351
894.771	1902
894.875	605
894.978	1633
895.082	1352
895.186	2038
895.289	2101
895.393	1585
895.496	1611
895.600	1502
895.703	1233
895.807	786
895.910	1181
896.014	1176
896.117	1851
896.221	1686
896.324	916
896.427	2197
896.531	1522
896.634	1124
896.737	1125
896.840	1414
896.944	1330
897.047	987
897.150	1578
897.253	1699
897.356	1793
897.460	1214
897.563	1427
897.666	1288
897.769	742
897.872	882
897.975	855
898.078	1484
898.181	1212
898.284	1700
898.387	962
898.490	1526
898.593	1429
898.695	1523
898.798	49
898.901	1545
899.004	1313
899.107	1481
899.209	921
899.312	681
899.415	1627
899.518	1792
899.620	1355
899.723	1361
899.826	1519
899.928	1160
900.031	1279
900.133	672
900.236	1392
900.338	1469
900.441	819
900.543	1382
900.646	911
900.748	1879
900.851	1762
900.953	1234
901.055	1544
901.158	1831
901.260	1319
901.362	1751
901.465	1511
901.567	1133
901.669	1799
901.771	1234
901.873	1347
901.976	1269
902.078	1224
902.180	1342
902.282	767
902.384	1008
902.486	1221
902.588	2097
902.690	1754
902.792	1181
902.894	911
902.996	1575
903.098	993
903.200	1050
903.302	1488
903.404	1350
903.505	876
903.607	1084
903.709	2151
903.811	1909
903.913	1697
904.014	1620
904.116	1143
904.218	793
904.319	1415
904.421	1502
904.523	1517
904.624	1911
904.726	1930
904.827	809
904.929	1427
905.030	1993
905.132	1589
905.233	2296
905.335	1517
905.436	1554
905.537	1532
905.639	1364
905.740	1009
905.841	1383
905.943	1024
906.044	1534
906.145	824
906.247	1644
906.348	1747
906.449	1859
906.550	1246
906.651	1388
906.752	587
906.854	953
906.955	705
907.056	629
907.157	743
907.258	1492
907.359	885
907.460	1614
907.561	707
907.662	1272
907.762	1177
907.863	462
907.964	678
908.065	1600
908.166	1359
908.267	1506
908.367	890
908.468	1047
908.569	662
908.670	1992
908.770	669
908.871	1882
908.971	1543
909.072	2104
909.173	1200
909.273	679
909.374	1551
909.474	1662
909.575	1015
909.675	962
909.776	1014
909.876	774
909.977	1480
910.077	1252
910.177	685
910.278	1514
910.378	1472
910.478	1871
910.579	1209
910.679	2239
910.779	1175
910.879	1729
910.980	1001
911.080	2001
911.180	448
911.280	1098
911.380	1101
911.480	1459
911.580	1186
911.680	1533
911.780	895
911.880	1638
911.980	99
912.080	1144
912.180	1407
912.280	1545
912.380	1302
912.480	1445
912.580	1307
912.679	1045
912.779	1172
912.879	1698
912.979	1397
913.078	1093
913.178	1181
913.278	911
913.377	574
913.477	1666
913.577	819
913.676	1280
913.776	1567
913.875	1549
913.975	915
914.074	451
914.174	1259
914.273	646
914.373	1472
914.472	1583
914.572	1049
914.671	1249
914.770	1293
914.870	1202
914.969	1512
915.068	1500
915.167	759
915.267	1594
915.366	1272
915.465	917
915.564	2032
915.663	1340
915.763	751
915.862	1845
915.961	914
916.060	467
916.159	1116
916.258	709
916.357	1191
916.456	2124
916.555	636
916.654	409
916.752	1216
916.851	1100
916.950	1397
917.049	1968
917.148	1426
917.247	2140
917.345	982
917.444	1117
917.543	2269
917.642	1409
917.740	891
917.839	1583
917.937	1269
918.036	740
918.135	1141
918.233	1701
918.332	1142
918.430	1012
918.529	783
918.627	953
918.726	1684
918.824	1279
918.923	1003
919.021	1271
919.119	975
919.218	1039
919.316	1767
919.414	1012
919.512	1771
919.611	1942
919.709	916
919.807	878
919.905	1101
920.003	1957
920.102	981
920.200	2334
920.298	187
920.396	1279
920.494	945
920.592	1202
920.690	1565
920.788	1418
920.886	871
920.984	1873
921.082	1145
921.180	2178
921.277	1497
921.375	1207
921.473	1661
921.571	1984
921.669	1283
921.766	2104
921.864	1573
921.962	1322
922.060	1200
922.157	2034
922.255	2436
922.352	2092
922.450	1741
922.548	2333
922.645	2538
922.743	1736
922.840	1823
922.938	2478
923.035	1588
923.133	3191
923.230	1490
923.327	2732
923.425	2381
923.522	2973
923.619	1818
923.717	1710
923.814	1923
923.911	2252
924.008	2730
924.106	2038
924.203	2275
924.300	2100
924.397	1445
924.494	3223
924.591	2262
924.688	2330
924.786	2971
924.883	2470
924.979	1481
925.077	2261
925.173	2631
925.270	3079
925.367	1595
925.464	2863
925.561	2639
925.658	2014
925.755	1835
925.852	2876
925.948	2611
926.045	3205
926.142	2021
926.239	2132
926.335	2222
926.432	2529
926.529	2338
926.625	2467
926.722	1663
926.818	2382
926.915	1791
927.011	2673
927.108	2330
927.204	1977
927.301	1362
927.397	2551
927.494	2231
927.590	2965
927.687	1683
927.783	1882
927.879	1615
927.976	1568
928.072	1294
928.168	1997
928.264	1202
928.361	1686
928.457	2212
928.553	2037
928.649	1935
928.745	2122
928.841	1559
928.937	2717
929.033	1281
929.129	1901
929.225	1139
929.321	1501
929.417	1792
929.513	2028
929.609	1329
929.705	1276
929.801	1757
929.897	1898
929.993	1121
930.089	2190
930.184	2207
930.280	2255
930.376	2005
930.471	2079
930.567	1428
930.663	1986
930.758	2064
930.854	1191
930.950	1361
931.045	1447
931.141	1998
931.236	2599
931.332	1685
931.427	1795
931.523	1190
931.618	1748
931.714	1287
931.809	1707
931.905	1942
932.000	2514
932.095	1536
932.191	1928
932.286	1514
932.381	2125
932.476	1054
932.572	1579
932.667	1806
932.762	2044
932.857	1838
932.952	2012
933.047	924
933.142	1770
933.237	1338
933.332	1407
933.427	2073
933.522	1540
933.617	612
933.712	1590
933.807	1811
933.902	1492
933.997	1337
934.092	1274
934.187	1218
934.282	1825
934.376	1635
934.471	1282
934.566	1439
934.661	2010
934.755	1966
934.850	1301
934.945	1152
935.039	1335
935.134	1179
935.228	1429
935.323	1561
935.417	1874
935.512	1456
935.606	739
935.701	1324
935.795	1858
935.890	1148
935.984	1683
936.079	632
936.173	1248
936.267	963
936.362	379
936.456	1376
936.550	2111
936.644	1269
936.738	1754
936.833	1649
936.927	1437
937.021	1811
937.115	1564
937.209	95
937.303	2392
937.397	1855
937.491	1744
937.585	1554
937.679	1301
937.773	1557
937.867	1047
937.961	1304
938.055	906
938.149	1367
938.243	1463
938.337	1551
938.430	754
938.524	1947
938.618	1993
938.712	1827
938.805	1407
938.899	943
938.993	1921
939.086	1854
939.180	2318
939.274	2101
939.367	1904
939.461	356
939.554	2122
939.648	1035
939.741	1283
939.835	1742
939.928	1724
940.022	1050
940.115	1514
940.208	1219
940.302	1710
940.395	1320
940.488	848
940.582	1727
940.675	699
940.768	1412
940.861	819
940.954	2043
941.048	861
941.141	1148
941.234	1272
941.327	851
941.420	2035
941.513	1085
941.606	230
941.699	1216
941.792	1062
941.885	1467
941.978	930
942.071	1126
942.164	817
942.257	720
942.349	1997
942.442	463
942.535	984
942.628	1678
942.721	1788
942.813	359
942.906	1827
942.999	1441
943.091	1446
943.184	1442
943.277	1186
943.369	735
943.462	1214
943.554	652
943.647	1216
943.739	1580
943.832	1172
943.924	646
944.017	871
944.109	223
944.201	1669
944.294	141
944.386	1152
944.478	895
944.571	1519
944.663	946
944.755	1496
944.847	1516
944.940	1172
945.032	118
945.124	1512
945.216	1286
945.308	860
945.400	436
945.492	487
945.584	1041
945.676	1684
945.768	1357
945.860	1311
945.952	563
946.044	1580
946.136	974
946.228	742
946.320	917
946.412	1370
946.503	1301
946.595	1617
946.687	491
946.779	930
946.870	536
946.962	567
947.054	1255
947.145	1175
947.237	611
947.329	1771
947.420	1281
947.512	1518
947.603	586
947.695	1277
947.786	515
947.878	415
947.969	676
948.061	568
948.152	652
948.243	1726
948.335	990
948.426	325
948.517	-82
948.609	435
948.700	534
948.791	902
948.882	412
948.973	441
949.065	546
949.156	922
949.247	579
949.338	1029
949.429	81
949.520	1172
949.611	-622
949.702	1741
949.793	516
949.884	1674
949.975	816
950.066	1432
950.157	384
950.247	-147
950.338	301
950.429	1660
950.520	1319
950.611	676
950.701	1170
950.792	1257
950.883	914
950.973	1424
951.064	461
951.155	1189
951.245	915
951.336	1346
951.427	922
951.517	1114
951.608	1214
951.698	857
951.788	1051
951.879	493
951.969	1022
952.060	831
952.150	513
952.240	1584
952.331	-30
952.421	1777
952.511	991
952.602	1454
952.692	789
952.782	1193
952.872	535
952.962	1237
953.052	1273
953.143	408
953.233	1438
953.323	1308
953.413	212
953.503	1136
953.593	853
953.683	1022
953.773	104
953.863	176
953.953	366
954.042	1537
954.132	521
954.222	2025
954.312	304
954.402	755
954.492	390
954.581	2315
954.671	985
954.761	591
954.850	2354
954.940	1043
955.030	137
955.119	328
955.209	1068
955.298	572
955.388	185
955.477	1359
955.567	268
955.656	1541
955.746	843
955.835	1446
955.925	725
956.014	1780
956.103	680
956.193	1456
956.282	882
956.371	1737
956.461	1238
956.550	628
956.639	1401
956.728	1482
956.817	1716
956.906	1719
956.995	1449
957.085	1153
957.174	906
957.263	1048
957.352	1122
957.441	1100
957.530	1661
957.619	749
957.708	1257
957.796	721
957.885	1281
957.974	1888
958.063	1987
958.152	1290
958.241	2125
958.329	1486
958.418	1053
958.507	1137
958.596	3089
958.684	1885
958.773	1733
958.861	2483
958.950	2700
959.039	2538
959.127	1960
959.216	2776
959.304	2282
959.393	2245
959.481	2096
959.570	2512
959.658	2610
959.746	2381
959.835	2741
959.923	2730
960.011	2283
960.100	2358
960.188	2170
960.276	1818
960.365	1404
960.453	2203
960.541	1256
960.629	1851
960.717	1387
960.805	1231
960.893	1248
960.981	1480
961.069	1424
961.158	1767
961.245	1117
961.333	2020
961.421	773
961.509	2061
961.597	1474
961.685	864
961.773	1132
961.861	943
961.949	1501
962.036	714
962.124	419
962.212	356
962.299	169
962.387	-62
962.475	501
962.562	-108
962.650	1419
962.738	1244
962.825	266
962.913	1722
963.000	662
963.088	1378
963.175	-306
963.263	1271
963.350	-63
963.438	1295
963.525	1087
963.612	2426
963.700	3496
963.787	5732
963.874	1680
963.962	573
964.049	1107
964.136	886
964.223	472
964.310	922
964.398	584
964.485	1008
964.572	164
964.659	1526
964.746	1261
964.833	1208
964.920	177
965.007	825
965.094	455
965.181	-88
965.268	788
965.355	918
965.441	31
965.528	588
965.615	926
965.702	332
965.789	367
965.875	-56
965.962	360
966.049	-157
966.136	670
966.222	232
966.309	261
966.395	321
966.482	-671
966.569	441
966.655	-308
966.742	-105
966.828	326
966.915	-75
967.001	1240
967.087	228
967.174	768
967.260	158
967.347	700
967.433	1107
967.519	3209
967.605	958
967.692	516
967.778	527
967.864	897
967.950	-183
968.036	-349
968.123	817
968.209	243
968.295	276
968.381	354
968.467	51
968.553	-754
968.639	793
968.725	-564
968.811	84
968.897	332
968.983	-65
969.069	-826
969.154	857
969.240	745
969.326	-344
969.412	372
969.497	-41
969.583	-852
969.669	1493
969.755	58
969.840	916
969.926	1291
970.012	235
970.097	907
970.183	-462
970.268	262
970.354	383
970.439	1685
970.525	2162
970.610	124
970.696	1233
970.781	274
970.866	350
970.952	823
971.037	-502
971.122	-719
971.208	741
971.293	-376
971.378	-409
971.463	-189
971.549	-170
971.634	-340
971.719	735
971.804	65
971.889	1610
971.974	90
972.059	-234
972.144	242
972.229	323
972.314	-452
972.399	755
972.484	-2
972.569	1591
972.654	-599
972.739	1607
972.824	525
972.908	165
972.993	274
973.078	-243
973.163	-161
973.247	77
973.332	-1633
973.417	667
973.501	-794
973.586	621
973.671	-132
973.755	-101
973.840	430
973.924	-400
974.009	-835
974.093	230
974.178	1241
974.262	1310
974.346	186
974.431	372
974.515	-645
974.600	-508
974.684	205
974.768	121
974.852	-282
974.937	-1161
975.021	-183
975.105	190
975.189	-477
975.273	303
975.358	-588
975.442	-809
975.526	-106
975.610	-730
975.694	-444
975.778	685
975.862	519
975.946	-1001
976.030	606
976.114	-876
976.198	305
976.281	222
976.365	-286
976.449	-685
976.533	-434
976.617	-879
976.700	-491
976.784	361
976.868	-929
976.951	801
977.035	-89
977.119	115
977.202	13
977.286	261
977.369	-394
977.453	967
977.536	-638
977.620	-342
977.703	-574
977.787	-242
977.870	350
977.953	-22
978.037	-1387
978.120	1663
978.203	-743
978.287	541
978.370	-275
978.453	-704
978.536	-5
978.620	492
978.703	-187
978.786	-131
978.869	-627
978.952	-933
979.035	799
979.118	-95
979.201	-552
979.284	379
979.367	-1240
979.450	549
979.533	-1460
979.616	-109
979.699	-1839
979.782	847
979.865	-614
979.948	380
980.030	-66
980.113	-369
980.196	-821
980.279	454
980.361	449
980.444	-6
980.526	-562
980.609	-257
980.692	-596
980.774	201
980.857	-1145
980.939	183
981.022	-80
981.104	-295
981.187	-1268
981.269	388
981.352	744
981.434	-964
981.516	-393
981.599	412
981.681	172
981.763	426
981.846	178
981.928	-40
982.010	258
982.092	-1249
982.174	853
982.256	-668
982.339	-949
982.421	-103
982.503	71
982.585	-104
982.667	-725
982.749	184
982.831	-646
982.913	-385
982.995	732
983.077	-351
983.158	1288
983.240	-1427
983.322	-152
983.404	275
983.486	-1161
983.568	124
983.649	-341
983.731	699
983.813	-681
983.894	108
983.976	-590
984.058	-685
984.139	497
984.221	-621
984.302	1088
984.384	-136
984.465	-479
984.547	114
984.628	-1075
984.710	-463
984.791	621
984.872	-88
984.954	14
985.035	182
985.116	-582
985.198	-942
985.279	97
985.360	-799
985.441	-365
985.522	845
985.604	578
985.685	-1726
985.766	392
985.847	467
985.928	-1308
986.009	-52
986.090	-538
986.171	214
986.252	-803
986.333	-379
986.414	-114
986.495	-163
986.576	-42
986.656	346
986.737	656
986.818	-20
986.899	-589
986.980	-33
987.060	88
987.141	-318
987.222	-132
987.302	-405
987.383	-262
987.464	-512
987.544	28
987.625	-144
987.705	355
987.786	263
987.866	-444
987.947	-411
988.027	-728
988.108	-134
988.188	-73
988.268	759
988.349	-218
988.429	-157
988.509	348
988.589	249
988.670	-2060
988.750	1260
988.830	-51
988.910	594
988.990	-120
989.070	168
989.151	-563
989.231	-113
989.311	112
989.391	311
989.471	214
989.551	200
989.631	-323
989.711	715
989.791	-1430
989.870	-135
989.950	15
990.030	-448
990.110	-207
990.190	-223
990.269	-64
990.349	-290
990.429	-344
990.509	305
990.588	-1027
990.668	-489
990.747	-509
990.827	1072
990.907	346
990.986	-122
991.066	469
991.145	483
991.225	652
991.304	-551
991.383	513
991.463	-198
991.542	-107
991.622	459
991.701	-1047
991.780	-581
991.859	-501
991.939	-319
992.018	-53
992.097	422
992.176	-402
992.256	170
992.335	-550
992.414	566
992.493	-901
992.572	180
992.651	370
992.730	-704
992.809	-372
992.888	-668
992.967	-139
993.046	393
993.125	-251
993.203	-329
993.282	597
993.361	-313
993.440	34
993.519	-421
993.597	-183
993.676	-611
993.755	-277
993.834	578
993.912	-816
993.991	1156
994.069	-1179
994.148	-333
994.226	-1328
994.305	97
994.384	-993
994.462	176
994.540	-441
994.619	-211
994.697	-702
994.776	-814
994.854	540
994.932	45
995.011	-521
995.089	-361
995.167	-238
995.245	169
995.324	-865
995.402	188
995.480	-547
995.558	-282
995.636	-586
995.714	-164
995.792	780
995.870	-710
995.948	-1233
996.026	-777
996.104	-1205
996.182	923
996.260	-1213
996.338	831
996.416	-1665
996.494	18
996.572	274
996.649	-686
996.727	-1032
996.805	690
996.883	-16
996.960	-649
997.038	413
997.116	-249
997.193	-1095
997.271	396
997.348	-221
997.426	-130
997.504	-1429
997.581	103
997.658	-172
997.736	-968
997.813	-762
997.891	1233
997.968	-1605
998.046	-205
998.123	-1275
998.200	142
998.277	-1402
998.355	540
998.432	-1901
998.509	-429
998.586	9
998.663	308
998.741	-328
998.818	-546
998.895	-1135
998.972	-630
999.049	-865
999.126	412
999.203	-710
999.280	807
999.357	-641
999.434	-520
999.511	440
999.587	912
999.664	-792
999.741	-454
999.818	-405
999.895	-932
999.971	-658
1000.048	-916
1000.125	440
1000.202	-340
1000.278	-606
1000.355	248
1000.431	-844
1000.508	-282
1000.584	-168
1000.661	123
1000.738	-448
1000.814	-370
1000.890	-159
1000.967	-637
1001.043	-314
1001.120	-1381
1001.196	-172
1001.272	-1158
1001.349	-835
1001.425	171
1001.501	-816
1001.577	-949
1001.654	-559
1001.730	-454
1001.806	-319
1001.882	-1299
1001.958	11
1002.034	389
1002.110	-127
1002.186	-627
1002.262	-1239
1002.338	-802
1002.414	-81
1002.490	-143
1002.566	-765
1002.642	-648
1002.718	11
1002.794	287
1002.870	-1106
1002.945	-1141
1003.021	-159
1003.097	-922
1003.173	-59
1003.248	-531
1003.324	-773
1003.400	-95
1003.475	-1225
1003.551	-617
1003.626	-1054
1003.702	-339
1003.777	-537
1003.853	-835
1003.928	-1375
1004.004	-1446
1004.079	-1023
1004.155	-691
1004.230	-1666
1004.305	286
1004.381	-1295
1004.456	-527
1004.531	-491
1004.607	-1783
1004.682	-1201
1004.757	145
1004.832	-1383
1004.907	-997
1004.982	-644
1005.057	-849
1005.133	-1113
1005.208	-1017
1005.283	-1432
1005.358	-1127
1005.433	-1733
1005.508	-628
1005.583	-1749
1005.657	-876
1005.732	-573
1005.807	-639
1005.882	-729
1005.957	-536
1006.032	87
1006.106	-148
1006.181	-856
1006.256	-157
1006.331	-1139
1006.405	-355
1006.480	-815
1006.554	-823
1006.629	-976
1006.704	-1375
1006.778	-1237
1006.853	-532
1006.927	-1486
1007.002	-1183
1007.076	-969
1007.150	-927
1007.225	-883
1007.299	-1212
1007.373	28
1007.448	-1005
1007.522	378
1007.596	-984
1007.671	-821
1007.745	-478
1007.819	-1733
1007.893	-1365
1007.967	-1268
1008.041	-1576
1008.115	-237
1008.190	-1657
1008.264	-758
1008.338	-2111
1008.412	-1453
1008.486	-1639
1008.560	-2102
1008.633	-1391
1008.707	-1552
1008.781	-624
1008.855	-1577
1008.929	-418
1009.003	-1330
1009.076	-603
1009.150	-13
1009.224	-667
1009.298	-529
1009.371	-1383
1009.445	296
1009.519	-585
1009.592	-1577
1009.666	-600
1009.739	-997
1009.813	-1986
1009.886	-693
1009.960	-695
1010.033	-629
1010.107	-1266
1010.180	-1690
1010.253	-709
1010.327	-1786
1010.400	-1141
1010.473	-1687
1010.547	247
1010.620	-1217
1010.693	-295
1010.766	-1512
1010.840	-416
1010.913	-1261
1010.986	-1411
1011.059	-452
1011.132	-1039
1011.205	-127
1011.278	-1411
1011.351	-1481
1011.424	-382
1011.497	-1216
1011.570	-515
1011.643	-1182
1011.716	-904
1011.789	-1116
1011.862	-145
1011.934	-701
1012.007	-1484
1012.080	-697
1012.153	-522
1012.225	-261
1012.298	-1205
1012.371	-1210
1012.443	-422
1012.516	-1627
1012.588	-1076
1012.661	-1157
1012.733	-1545
1012.806	-45
1012.879	-1080
1012.951	-1171
1013.023	-216
1013.096	-524
1013.168	-2077
1013.241	-673
1013.313	-855
1013.385	-1574
1013.458	-1132
1013.530	-856
1013.602	-1595
1013.674	-891
1013.746	-1722
1013.819	-1644
1013.891	-1075
1013.963	-1863
1014.035	-624
1014.107	-751
1014.179	-199
1014.251	-1610
1014.323	-817
1014.395	-1166
1014.467	-370
1014.539	-1399
1014.611	-1100
1014.683	-1137
1014.754	-221
1014.826	-1744
1014.898	-104
1014.970	-2304
1015.042	-154
1015.113	-672
1015.185	-422
1015.257	-2018
1015.328	69
1015.400	-1136
1015.471	-911
1015.543	-2414
1015.615	-1155
1015.686	-1431
1015.757	-1463
1015.829	-567
1015.901	-1025
1015.972	-484
1016.043	-369
1016.115	-683
1016.186	-145
1016.257	-1308
1016.328	-781
1016.400	-463
1016.471	-1846
1016.542	-822
1016.613	-81
1016.685	-1719
1016.756	-375
1016.827	-1139
1016.898	-1494
1016.969	-645
1017.040	-1328
1017.111	-950
1017.182	-822
1017.253	-465
1017.324	-1026
1017.395	-1517
1017.466	-369
1017.537	-992
1017.608	-277
1017.678	-1201
1017.749	-1338
1017.820	-1486
1017.891	-1017
1017.961	-1053
1018.032	-1181
1018.103	-754
1018.173	-307
1018.244	-2218
1018.315	-824
1018.385	-495
1018.456	-372
1018.526	-1591
1018.597	-1044
1018.667	-947
1018.738	-1108
1018.808	-380
1018.878	-351
1018.949	-740
1019.019	-553
1019.089	-1037
1019.160	-593
1019.230	-2071
1019.300	-1037
1019.371	-1702
1019.441	-409
1019.511	-432
1019.581	-1360
1019.651	-1074
1019.721	-947
1019.791	-1254
1019.861	-1509
1019.931	-1787
1020.001	-1181
1020.071	-1212
1020.141	-1100
1020.211	-1140
1020.281	-942
1020.351	-1893
1020.421	-519
1020.491	-1059
1020.560	-1314
1020.630	-923
1020.700	-1338
1020.770	-797
1020.839	-595
1020.909	-978
1020.979	-1573
1021.048	-1512
1021.118	-1659
1021.187	-1984
1021.257	-590
1021.326	-989
1021.396	-1306
1021.465	-525
1021.535	-918
1021.604	-2108
1021.674	-822
1021.743	-904
1021.812	-1853
1021.882	-1290
1021.951	-1520
1022.020	-1232
1022.089	-378
1022.159	-1875
1022.228	-532
1022.297	-1232
1022.366	-2319
1022.435	-1223
1022.504	-1815
1022.573	-454
1022.642	-670
1022.711	-1640
1022.781	-285
1022.849	-1201
1022.918	-953
1022.987	-650
1023.056	-1522
1023.125	-1807
1023.194	-770
1023.263	-1159
1023.331	-984
1023.400	-1447
1023.469	-653
1023.538	-776
1023.606	-1011
1023.675	-1492
1023.744	-839
1023.812	-1441
1023.881	-999
1023.949	-890
1024.018	-1230
1024.086	-142
1024.155	-1262
1024.223	-1038
1024.292	-1174
1024.360	-1650
1024.429	-1032
1024.497	-1942
1024.565	-934
1024.634	-1963
1024.702	-931
1024.770	-1160
1024.838	-1142
1024.907	-1406
1024.975	-483
1025.043	-967
1025.111	-1939
1025.179	-546
1025.247	-820
1025.315	-689
1025.383	-922
1025.451	-1206
1025.519	-1158
1025.587	-1438
1025.655	-605
1025.723	-1569
1025.791	-507
1025.859	-1129
1025.927	-347
1025.995	-1819
1026.062	-957
1026.130	-892
1026.198	-1212
1026.266	-1467
1026.333	-386
1026.401	-1776
1026.469	-936
1026.536	-1460
1026.604	-868
1026.671	-2018
1026.739	-1174
1026.806	-705
1026.874	-1673
1026.941	-1689
1027.009	-1064
1027.076	-1581
1027.144	152
1027.211	-1788
1027.278	-1666
1027.345	-1997
1027.413	-1187
1027.480	-2761
1027.547	-1511
1027.614	-1230
1027.682	-542
1027.749	-1541
1027.816	-1319
1027.883	-1275
1027.950	-728
1028.017	-2257
1028.084	-231
1028.151	-1977
1028.218	-787
1028.285	-1374
1028.352	-634
1028.419	-1774
1028.486	-2284
1028.553	-1429
1028.619	-1638
1028.686	-1145
1028.753	-1190
1028.820	-1526
1028.886	-1536
1028.953	-1472
1029.020	-747
1029.086	-1572
1029.153	-1084
1029.220	-2245
1029.286	-596
1029.353	-1484
1029.419	-1088
1029.486	-1425
1029.552	-1009
1029.619	-1244
1029.685	-497
1029.751	-1502
1029.818	-772
1029.884	-1718
1029.951	-1001
1030.017	-2208
1030.083	-1757
1030.149	-1820
1030.216	-1354
1030.282	-1285
1030.348	-1316
1030.414	-1835
1030.480	-1608
1030.546	-1019
1030.612	-1341
1030.678	-2121
1030.744	-981
1030.810	-1407
1030.876	-376
1030.942	-1314
1031.008	-964
1031.074	-2717
1031.140	-605
1031.206	-1300
1031.272	-887
1031.337	-1422
1031.403	-1050
1031.469	-1741
1031.534	-1618
1031.600	-1408
1031.666	-2103
1031.731	-1047
1031.797	-1361
1031.863	-1554
1031.928	-1536
1031.994	-1768
1032.059	-1683
1032.125	-1064
1032.190	-1503
1032.256	-1319
1032.321	-1534
1032.386	-1378
1032.452	-1654
1032.517	-1484
1032.582	-2228
1032.647	-1589
1032.713	-1449
1032.778	-1076
1032.843	-1495
1032.908	-2325
1032.974	-1085
1033.039	-2465
1033.104	-151
1033.169	-1612
1033.234	-1358
1033.299	-1566
1033.364	-1500
1033.429	-1078
1033.494	-1362
1033.559	-1643
1033.624	-1686
1033.688	-1741
1033.753	-1643
1033.818	-1932
1033.883	-1260
1033.948	-1999
1034.013	-1833
1034.077	-1952
1034.142	-894
1034.207	-1615
1034.271	-1327
1034.336	-679
1034.400	-1622
1034.465	-1725
1034.530	-1847
1034.594	-2044
1034.658	-876
1034.723	-1698
1034.787	-889
1034.852	-2123
1034.916	-1511
1034.981	-1806
1035.045	-1741
1035.109	-2152
1035.173	-1589
1035.238	-1969
1035.302	-646
1035.366	-2061
1035.430	-2186
1035.495	-1713
1035.559	-764
1035.623	-1349
1035.687	-1868
1035.751	-1760
1035.815	-1976
1035.879	-1939
1035.943	-971
1036.007	-1353
1036.071	-1528
1036.135	-1754
1036.198	-1020
1036.262	-1874
1036.326	-1990
1036.390	-1216
1036.454	-1361
1036.517	-1422
1036.581	-1410
1036.645	-1813
1036.709	-703
1036.772	-1903
1036.836	-1722
1036.900	-1604
1036.963	-1322
1037.026	-2228
1037.090	-1592
1037.154	-1403
1037.217	-2092
1037.280	-2060
1037.344	-672
1037.407	-1464
1037.471	-1384
1037.534	-2528
1037.597	-2368
1037.661	-2065
1037.724	-1851
1037.787	-2049
1037.850	-1396
1037.913	-1149
1037.977	-1187
1038.040	-1521
1038.103	-1770
1038.166	-1654
1038.229	-724
1038.292	-2110
1038.355	-1030
1038.418	-2111
1038.481	-1291
1038.544	-1804
1038.607	-1047
1038.670	-1949
1038.732	-2390
1038.795	-2349
1038.858	-1271
1038.921	-1237
1038.984	-1417
1039.046	-2052
1039.109	-1182
1039.172	-1664
1039.234	-1464
1039.297	-1891
1039.360	-1173
1039.422	-2470
1039.485	-1642
1039.547	-2054
1039.610	-1812
1039.672	-2097
1039.734	-997
1039.797	-1798
1039.859	-1604
1039.922	-1365
1039.984	-913
1040.046	-2185
1040.109	-1345
1040.171	-1797
1040.233	-1211
1040.295	-1868
1040.358	-2139
1040.420	-1734
1040.482	-1670
1040.544	-2480
1040.606	-1937
1040.668	-1950
1040.730	-1304
1040.792	-1393
1040.854	-1460
1040.916	-1758
1040.978	-1529
1041.040	-1388
1041.102	-1200
1041.164	-2099
1041.225	-1978
1041.287	-2303
1041.349	-1574
1041.411	-1902
1041.472	-1989
1041.534	-1395
1041.596	-1485
1041.657	-1654
1041.719	-1247
1041.781	-1648
1041.842	-1631
1041.904	-1524
1041.965	-1314
1042.027	-1887
1042.088	-1311
1042.150	-2293
1042.211	-967
1042.272	-1019
1042.334	-1127
1042.395	-1749
1042.456	-2013
1042.518	-1153
1042.579	-879
1042.640	-1524
1042.701	-1086
1042.763	-1917
1042.824	-2059
1042.885	-1648
1042.946	-1544
1043.007	-996
1043.068	-1257
1043.129	-1206
1043.190	-1110
1043.251	-918
1043.312	-589
1043.373	-2633
1043.434	-1146
1043.495	-1604
1043.556	-437
1043.616	-1235
1043.677	-1557
1043.738	-1759
1043.799	-905
1043.859	-1385
1043.920	-555
1043.981	-1402
1044.041	-1102
1044.102	-1793
1044.162	-652
1044.223	-1945
1044.284	-1262
1044.344	-1926
1044.405	-742
1044.465	-1157
1044.525	-1419
1044.586	-750
1044.646	-738
1044.707	-1052
1044.767	-1393
1044.827	-2070
1044.887	-2213
1044.948	-1528
1045.008	-1654
1045.068	-1573
1045.128	-1219
1045.188	-1561
1045.249	-935
1045.309	-1494
1045.369	-568
1045.429	-913
1045.489	-1317
1045.549	-1032
1045.609	-1628
1045.669	-1177
1045.729	-1432
1045.789	-1022
1045.848	-1194
1045.908	-1505
1045.968	-490
1046.028	-1090
1046.088	-482
1046.147	-827
1046.207	-440
1046.267	-1400
1046.326	-603
1046.386	-1283
1046.446	-448
1046.505	-122
1046.565	-107
1046.624	-1482
1046.684	50
1046.743	521
1046.803	466
1046.862	645
1046.922	0
