'Start Wavelength	183.907
'End Wavelength	1046.922
'Gate Delay	5.000
'Gate Width (ms)	1.050
'Laser Output Level	0.000
'X Position	0.000
'Y Position	0.000
'Z Position	0.000
'Grid Point Number	1.000
'Shot Number	100.000
183.907	602.000
183.977	161.000
184.047	220
184.116	421
184.186	949
184.256	63
184.325	923
184.395	-344
184.465	1274
184.534	81
184.604	201
184.674	457
184.743	-79
184.813	324
184.883	-269
184.952	536
185.022	595
185.092	454
185.161	37
185.231	-49
185.301	274
185.370	1107
185.440	189
185.509	120
185.579	275
185.649	834
185.718	753
185.788	150
185.857	91
185.927	72
185.996	458
186.066	905
186.136	548
186.205	712
186.275	191
186.344	378
186.414	17
186.483	416
186.553	1498
186.622	982
186.692	1350
186.761	783
186.831	179
186.900	137
186.970	333
187.039	461
187.109	949
187.178	594
187.248	766
187.317	764
187.387	778
187.456	744
187.526	859
187.595	1117
187.664	117
187.734	735
187.803	447
187.873	205
187.942	1142
188.012	210
188.081	663
188.150	74
188.220	1281
188.289	1188
188.358	758
188.428	596
188.497	539
188.567	1103
188.636	373
188.705	1000
188.775	130
188.844	524
188.913	763
188.983	1043
189.052	538
189.121	342
189.191	344
189.260	339
189.329	251
189.399	517
189.468	456
189.537	332
189.606	449
189.676	481
189.745	380
189.814	394
189.883	287
189.953	470
190.022	652
190.091	702
190.161	1028
190.230	186
190.299	256
190.368	684
190.437	1422
190.507	70
190.576	749
190.645	452
190.714	596
190.783	458
190.853	842
190.922	1108
190.991	332
191.060	322
191.129	43
191.198	500
191.268	19
191.337	706
191.406	1459
191.475	753
191.544	1111
191.613	604
191.682	909
191.752	329
191.821	863
191.890	493
191.959	283
192.028	-63
192.097	470
192.166	-85
192.235	241
192.304	690
192.373	885
192.442	-99
192.511	-339
192.580	-1
192.650	488
192.719	327
192.788	648
192.857	522
192.926	414
192.995	619
193.064	1316
193.133	388
193.202	237
193.271	1121
193.340	486
193.409	915
193.478	957
193.547	361
193.615	1218
193.684	1087
193.753	341
193.822	1249
193.891	317
193.960	1109
194.029	566
194.098	971
194.167	460
194.236	1157
194.305	576
194.374	-151
194.443	334
194.512	624
194.580	519
194.649	73
194.718	511
194.787	348
194.856	625
194.925	1335
194.994	893
195.062	44
195.131	-152
195.200	-31
195.269	823
195.338	490
195.407	1207
195.475	335
195.544	210
195.613	657
195.682	510
195.751	888
195.819	434
195.888	862
195.957	734
196.026	33
196.094	1657
196.163	208
196.232	70
196.301	-544
196.369	709
196.438	699
196.507	958
196.576	650
196.644	478
196.713	1
196.782	1138
196.850	775
196.919	-39
196.988	443
197.056	-389
197.125	519
197.194	542
197.262	269
197.331	-204
197.400	727
197.468	473
197.537	746
197.606	574
197.674	975
197.743	520
197.812	444
197.880	482
197.949	420
198.017	299
198.086	224
198.155	676
198.223	458
198.292	1281
198.360	702
198.429	211
198.497	1228
198.566	499
198.635	763
198.703	932
198.772	491
198.840	662
198.909	242
198.977	407
199.046	295
199.114	934
199.183	281
199.251	137
199.320	323
199.388	300
199.457	-103
199.525	616
199.594	369
199.662	547
199.731	504
199.799	1124
199.867	501
199.936	-256
200.004	988
200.073	700
200.141	789
200.210	-19
200.278	931
200.346	984
200.415	759
200.483	529
200.552	972
200.620	637
200.688	1189
200.757	521
200.825	406
200.893	1144
200.962	871
201.030	768
201.098	372
201.167	-369
201.235	267
201.303	750
201.372	579
201.440	661
201.508	929
201.577	1084
201.645	1222
201.713	392
201.781	442
201.850	1830
201.918	211
201.986	545
202.055	1227
202.123	311
202.191	605
202.259	-112
202.327	398
202.396	788
202.464	733
202.532	251
202.600	799
202.669	1267
202.737	368
202.805	589
202.873	319
202.941	707
203.009	446
203.078	1232
203.146	736
203.214	198
203.282	-385
203.350	705
203.418	1014
203.487	470
203.555	256
203.623	847
203.691	243
203.759	814
203.827	298
203.895	942
203.963	810
204.031	1012
204.099	778
204.168	1263
204.236	562
204.304	1319
204.372	957
204.440	652
204.508	196
204.576	206
204.644	584
204.712	-113
204.780	832
204.848	348
204.916	-45
204.984	734
205.052	810
205.120	160
205.188	700
205.256	123
205.324	-364
205.392	-62
205.460	363
205.528	-339
205.596	973
205.664	1574
205.732	63
205.799	1086
205.867	1911
205.935	-19
206.003	1546
206.071	460
206.139	-25
206.207	410
206.275	601
206.343	155
206.411	503
206.478	-13
206.546	747
206.614	214
206.682	1045
206.750	584
206.818	1365
206.885	1425
206.953	-293
207.021	1648
207.089	562
207.157	624
207.225	711
207.292	270
207.360	-106
207.428	-401
207.496	291
207.563	564
207.631	-63
207.699	615
207.767	544
207.834	973
207.902	916
207.970	589
208.038	373
208.105	614
208.173	55
208.241	578
208.309	1252
208.376	215
208.444	1438
208.512	526
208.579	180
208.647	1366
208.715	1080
208.782	705
208.850	377
208.918	533
208.985	802
209.053	893
209.120	1107
209.188	273
209.256	887
209.323	-473
209.391	292
209.459	1330
209.526	1215
209.594	1119
209.661	497
209.729	10
209.796	371
209.864	1239
209.932	-215
209.999	1527
210.067	842
210.134	753
210.202	-25
210.269	1578
210.337	1544
210.404	804
210.472	1020
210.539	391
210.607	501
210.674	412
210.742	523
210.809	311
210.877	536
210.944	984
211.012	299
211.079	2412
211.146	1158
211.214	840
211.281	1719
211.349	1037
211.416	1604
211.484	1373
211.551	654
211.618	1433
211.686	593
211.753	1213
211.821	1204
211.888	474
211.955	1293
212.023	1696
212.090	1432
212.157	323
212.225	875
212.292	1601
212.359	1811
212.427	4070
212.494	1941
212.561	945
212.629	869
212.696	1152
212.763	690
212.831	642
212.898	1085
212.965	633
213.032	342
213.100	566
213.167	-85
213.234	800
213.301	698
213.369	302
213.436	143
213.503	117
213.570	733
213.638	575
213.705	-44
213.772	-102
213.839	69
213.906	960
213.973	1249
214.041	669
214.108	1284
214.175	1360
214.242	352
214.309	756
214.376	1000
214.444	366
214.511	613
214.578	408
214.645	913
214.712	1409
214.779	979
214.846	730
214.913	2042
214.980	1880
215.048	2852
215.115	2339
215.182	1478
215.249	1674
215.316	13
215.383	621
215.450	1332
215.517	641
215.584	619
215.651	828
215.718	1192
215.785	759
215.852	397
215.919	333
215.986	752
216.053	993
216.120	176
216.187	353
216.254	124
216.321	2
216.388	878
216.455	778
216.522	1017
216.589	676
216.656	813
216.722	967
216.789	475
216.856	1286
216.923	1111
216.990	895
217.057	-137
217.124	1205
217.191	702
217.258	2099
217.324	842
217.391	978
217.458	828
217.525	1437
217.592	464
217.659	-446
217.725	644
217.792	-147
217.859	2404
217.926	7
217.993	576
218.059	1577
218.126	640
218.193	339
218.260	1800
218.327	450
218.393	463
218.460	-153
218.527	1090
218.594	503
218.660	720
218.727	961
218.794	-82
218.860	1093
218.927	356
218.994	-34
219.061	203
219.127	569
219.194	738
219.261	758
219.327	877
219.394	1208
219.461	-384
219.527	734
219.594	-114
219.661	856
219.727	4
219.794	1127
219.860	741
219.927	1722
219.994	3955
220.060	3107
220.127	2708
220.193	3414
220.260	2488
220.326	2906
220.393	1648
220.460	2191
220.526	1195
220.593	1300
220.659	3091
220.726	1070
220.792	2393
220.859	2603
220.925	3265
220.992	2708
221.058	2333
221.125	3049
221.191	2721
221.258	886
221.324	1500
221.391	917
221.457	583
221.524	903
221.590	1553
221.657	2818
221.723	1592
221.789	1685
221.856	1565
221.922	968
221.989	1496
222.055	1641
222.121	157
222.188	2148
222.254	1368
222.321	1283
222.387	-284
222.453	502
222.520	1211
222.586	583
222.652	1412
222.719	314
222.785	884
222.851	443
222.918	396
222.984	534
223.050	331
223.116	-878
223.183	1394
223.249	-131
223.315	350
223.382	657
223.448	574
223.514	69
223.580	574
223.647	435
223.713	112
223.779	427
223.845	-51
223.911	645
223.978	559
224.044	300
224.110	-321
224.176	1186
224.242	416
224.309	-486
224.375	1017
224.441	425
224.507	333
224.573	-311
224.639	1849
224.705	-185
224.772	175
224.838	70
224.904	490
224.970	816
225.036	228
225.102	78
225.168	1206
225.234	1180
225.300	-143
225.366	756
225.432	417
225.499	920
225.565	685
225.631	788
225.697	413
225.763	1080
225.829	868
225.895	978
225.961	1662
226.027	975
226.093	947
226.159	1861
226.225	3133
226.291	4572
226.357	5560
226.423	3544
226.489	2665
226.554	1797
226.620	2397
226.686	1655
226.752	3128
226.818	4197
226.884	8328
226.950	7638
227.016	3340
227.082	3260
227.148	1710
227.214	2312
227.279	1687
227.345	1554
227.411	3521
227.477	5716
227.543	5796
227.609	6794
227.674	6925
227.740	4176
227.806	3798
227.872	2210
227.938	1516
228.003	2452
228.069	1330
228.135	1121
228.201	934
228.267	585
228.332	1668
228.398	-241
228.464	714
228.530	719
228.595	1155
228.661	-157
228.727	98
228.792	1119
228.858	-168
228.924	104
228.990	2661
229.055	330
229.121	2074
229.187	463
229.252	-271
229.318	756
229.384	291
229.449	669
229.515	-979
229.581	780
229.646	1955
229.712	364
229.777	778
229.843	742
229.909	910
229.974	1226
230.040	1267
230.105	702
230.171	120
230.236	1047
230.302	1186
230.368	1069
230.433	931
230.499	1001
230.564	1421
230.630	629
230.695	438
230.761	1203
230.826	-323
230.892	2331
230.957	866
231.023	274
231.088	-37
231.154	962
231.219	1625
231.284	998
231.350	1537
231.415	189
231.481	682
231.546	147
231.612	915
231.677	1025
231.742	-663
231.808	1568
231.873	465
231.939	-458
232.004	1535
232.069	1827
232.135	566
232.200	863
232.265	861
232.331	386
232.396	188
232.461	566
232.527	349
232.592	455
232.657	568
232.723	1272
232.788	156
232.853	1231
232.918	1131
232.984	65
233.049	97
233.114	430
233.179	1097
233.245	2468
233.310	1433
233.375	344
233.440	812
233.506	427
233.571	231
233.636	551
233.701	719
233.766	911
233.832	560
233.897	1004
233.962	-338
234.027	1566
234.092	1385
234.157	658
234.222	128
234.288	1422
234.353	1238
234.418	1478
234.483	1775
234.548	924
234.613	631
234.678	1342
234.743	138
234.808	2510
234.873	73
234.938	1207
235.004	1298
235.069	564
235.134	585
235.199	1321
235.264	1206
235.329	-592
235.394	1050
235.459	909
235.524	594
235.589	875
235.654	879
235.719	-310
235.784	1421
235.849	1039
235.913	1524
235.978	875
236.043	1534
236.108	1658
236.173	413
236.238	1374
236.303	934
236.368	928
236.433	1809
236.498	1376
236.563	1793
236.627	3058
236.692	10947
236.757	9644
236.822	3620
236.887	1992
236.952	2951
237.017	512
237.081	2673
237.146	2165
237.211	5257
237.276	11571
237.341	16911
237.405	7795
237.470	3282
237.535	2455
237.600	1817
237.664	1733
237.729	833
237.794	686
237.859	3844
237.923	1939
237.988	818
238.053	2254
238.118	1098
238.182	2010
238.247	3287
238.312	1244
238.376	2216
238.441	-403
238.506	1576
238.570	-375
238.635	2018
238.700	1165
238.764	1021
238.829	1405
238.893	416
238.958	1423
239.023	1053
239.087	1178
239.152	2013
239.216	1084
239.281	2386
239.346	1287
239.410	2477
239.475	537
239.539	3298
239.604	2149
239.668	4654
239.733	5033
239.797	9993
239.862	11403
239.926	13127
239.991	8076
240.055	4936
240.120	3494
240.184	3141
240.249	1156
240.313	1540
240.378	1537
240.442	1685
240.507	1777
240.571	1379
240.635	726
240.700	1337
240.764	1535
240.829	406
240.893	66
240.957	1044
241.022	1737
241.086	2944
241.151	644
241.215	151
241.279	1860
241.344	1249
241.408	2166
241.472	1004
241.537	2182
241.601	1880
241.665	517
241.730	1001
241.794	2101
241.858	766
241.922	814
241.987	1385
242.051	852
242.115	-41
242.179	1941
242.244	221
242.308	1736
242.372	632
242.436	-20
242.501	741
242.565	891
242.629	487
242.693	1577
242.757	152
242.822	18
242.886	1987
242.950	1722
243.014	285
243.078	1060
243.142	150
243.206	720
243.271	1198
243.335	1420
243.399	1773
243.463	4603
243.527	13174
243.591	4215
243.655	1842
243.719	488
243.783	1666
243.847	2420
243.911	2476
243.975	1952
244.040	-192
244.104	2167
244.168	802
244.232	1132
244.296	1321
244.360	2309
244.424	274
244.488	1688
244.552	2453
244.615	-428
244.679	1189
244.743	579
244.807	204
244.871	1198
244.935	1969
244.999	-105
245.063	904
245.127	2077
245.191	1678
245.255	1037
245.319	1811
245.383	-399
245.446	1545
245.510	500
245.574	1229
245.638	1723
245.702	-45
245.766	2212
245.829	1891
245.893	628
245.957	999
246.021	2465
246.085	978
246.149	1619
246.212	4141
246.276	3642
246.340	1683
246.404	1966
246.467	1993
246.531	-203
246.595	2796
246.659	1794
246.722	-231
246.786	1832
246.850	2025
246.913	1460
246.977	797
247.041	1565
247.104	1002
247.168	1610
247.232	2825
247.295	4812
247.359	2456
247.423	1763
247.486	2109
247.550	2135
247.614	1115
247.677	1645
247.741	629
247.804	1334
247.868	2288
247.932	1859
247.995	4935
248.059	2494
248.122	815
248.186	2745
248.249	2570
248.313	7878
248.376	7832
248.440	4297
248.503	1087
248.567	2998
248.630	2097
248.694	2579
248.757	4705
248.821	8515
248.884	5932
248.948	4646
249.011	6387
249.075	9115
249.138	8343
249.202	4012
249.265	1598
249.328	3457
249.392	1832
249.455	2605
249.519	1875
249.582	2471
249.645	3961
249.709	3184
249.772	2300
249.835	1842
249.899	2208
249.962	2631
250.025	989
250.089	3803
250.152	4192
250.215	2331
250.279	1692
250.342	2424
250.405	2621
250.468	1408
250.532	2124
250.595	4294
250.658	12420
250.721	22373
250.785	7665
250.848	4738
250.911	2235
250.974	2788
251.038	2781
251.101	5716
251.164	2696
251.227	3716
251.290	3287
251.354	4588
251.417	17870
251.480	17730
251.543	12978
251.606	33065
251.669	24988
251.732	8595
251.795	8527
251.859	9779
251.922	21321
251.985	12516
252.048	5071
252.111	3894
252.174	2352
252.237	5015
252.300	10237
252.363	10886
252.426	28158
252.489	9656
252.552	5269
252.615	3914
252.678	5162
252.741	9339
252.804	11695
252.867	27924
252.930	14345
252.993	7308
253.056	4911
253.119	2870
253.182	1607
253.245	3670
253.308	3859
253.371	1982
253.434	2491
253.497	2018
253.559	5489
253.622	3749
253.685	3522
253.748	2695
253.811	1846
253.874	2630
253.937	2232
254.000	2041
254.062	3945
254.125	4469
254.188	5464
254.251	3013
254.314	2273
254.376	2698
254.439	3354
254.502	3056
254.565	2686
254.628	6314
254.690	2526
254.753	1780
254.816	1512
254.878	1760
254.941	3710
255.004	3239
255.067	2373
255.129	2025
255.192	1822
255.255	1155
255.317	1566
255.380	2274
255.443	1982
255.505	2558
255.568	1154
255.631	793
255.693	1929
255.756	1741
255.819	3860
255.881	2588
255.944	2205
256.006	1363
256.069	1135
256.132	1031
256.194	1731
256.257	2579
256.319	1917
256.382	3162
256.444	5790
256.507	3498
256.569	2886
256.632	2783
256.694	2232
256.757	6599
256.819	19688
256.882	8159
256.944	3157
257.007	3494
257.069	3244
257.132	2194
257.194	2186
257.257	1924
257.319	1759
257.381	2288
257.444	5834
257.506	21263
257.569	22085
257.631	7815
257.693	4293
257.756	2900
257.818	1616
257.880	2052
257.943	2181
258.005	1146
258.067	1397
258.130	1452
258.192	2134
258.254	2112
258.317	1657
258.379	1669
258.441	3364
258.503	3366
258.566	2437
258.628	3919
258.690	1010
258.753	2205
258.815	2769
258.877	2121
258.939	1954
259.001	1998
259.064	1185
259.126	1548
259.188	1224
259.250	1234
259.312	2268
259.375	2459
259.437	1558
259.499	1484
259.561	1411
259.623	2050
259.685	1464
259.747	2294
259.809	3007
259.872	5062
259.934	6709
259.996	7298
260.058	3467
260.120	1739
260.182	2155
260.244	2232
260.306	522
260.368	1928
260.430	1485
260.492	2215
260.554	3535
260.616	2232
260.678	4651
260.740	4188
260.802	2883
260.864	2731
260.926	1679
260.988	2479
261.050	2437
261.112	2892
261.174	5724
261.236	4221
261.298	1324
261.359	2876
261.421	3942
261.483	2105
261.545	2746
261.607	1070
261.669	1968
261.731	2510
261.793	3378
261.854	1260
261.916	2632
261.978	2850
262.040	2809
262.102	2362
262.164	2806
262.225	1523
262.287	1720
262.349	2561
262.411	2791
262.472	3738
262.534	1694
262.596	2453
262.658	1695
262.719	1281
262.781	2776
262.843	1894
262.904	2389
262.966	2499
263.028	3002
263.090	7053
263.151	15611
263.213	6515
263.275	2763
263.336	1485
263.398	2314
263.459	1111
263.521	1965
263.583	2791
263.644	3599
263.706	2620
263.767	1181
263.829	1719
263.891	1954
263.952	1437
264.014	1554
264.075	1698
264.137	4290
264.198	2846
264.260	1311
264.321	1964
264.383	2261
264.444	5731
264.506	1975
264.567	2926
264.629	3767
264.690	3531
264.752	3356
264.813	2175
264.875	1773
264.936	2350
264.998	2365
265.059	2840
265.120	2519
265.182	3025
265.243	9493
265.305	10593
265.366	4164
265.427	2473
265.489	3508
265.550	1373
265.611	2334
265.673	2477
265.734	2314
265.795	2275
265.857	1328
265.918	1788
265.979	5011
266.040	16259
266.102	14509
266.163	5337
266.224	3855
266.286	2477
266.347	1431
266.408	1420
266.469	2634
266.530	2959
266.592	1880
266.653	2717
266.714	2892
266.775	2277
266.836	1932
266.898	2230
266.959	2390
267.020	2720
267.081	3734
267.142	2124
267.203	1978
267.264	1453
267.326	2857
267.387	1536
267.448	1618
267.509	2095
267.570	1903
267.631	1321
267.692	995
267.753	2862
267.814	962
267.875	2541
267.936	4267
267.997	2104
268.058	2248
268.119	2056
268.180	2362
268.241	1251
268.302	2574
268.363	1429
268.424	2135
268.485	2775
268.546	817
268.607	2002
268.668	1338
268.729	1969
268.790	1506
268.851	2515
268.912	2668
268.972	3470
269.033	1259
269.094	1748
269.155	1822
269.216	1345
269.277	1304
269.338	1661
269.398	2474
269.459	1602
269.520	2447
269.581	2180
269.642	1401
269.702	1906
269.763	2405
269.824	2068
269.885	2045
269.945	2650
270.006	2618
270.067	1377
270.128	1593
270.188	1894
270.249	2438
270.310	1869
270.370	2059
270.431	2141
270.492	1759
270.553	2219
270.613	1963
270.674	3770
270.734	2676
270.795	2521
270.856	1957
270.916	1459
270.977	1618
271.038	2162
271.098	2282
271.159	2238
271.219	3116
271.280	2140
271.340	2021
271.401	1671
271.462	2262
271.522	2767
271.583	1912
271.643	1905
271.704	1802
271.764	2576
271.825	4221
271.885	9277
271.946	11369
272.006	5580
272.066	6026
272.127	10809
272.187	14810
272.248	7918
272.308	3712
272.369	7830
272.429	4552
272.489	4177
272.550	3419
272.610	3507
272.671	3138
272.731	3524
272.791	3261
272.852	2807
272.912	3106
272.972	3186
273.033	2232
273.093	2393
273.153	3081
273.214	3086
273.274	2842
273.334	5746
273.394	9042
273.455	3417
273.515	4737
273.575	6985
273.635	4556
273.696	4755
273.756	8377
273.816	4584
273.876	3026
273.936	3824
273.997	4928
274.057	2902
274.117	3005
274.177	3320
274.237	10217
274.297	8632
274.358	5316
274.418	7114
274.478	6580
274.538	3223
274.598	2168
274.658	4102
274.718	4317
274.778	3624
274.838	3090
274.898	3006
274.958	5646
275.018	8737
275.078	6645
275.138	3563
275.198	2968
275.258	2396
275.318	2891
275.378	3611
275.438	3658
275.498	2483
275.558	3788
275.618	6668
275.678	6369
275.738	5346
275.798	3771
275.858	2158
275.918	2353
275.978	3341
276.038	3293
276.098	3467
276.157	3949
276.217	7448
276.277	5203
276.337	3270
276.397	3294
276.457	3602
276.517	3638
276.576	3488
276.636	2391
276.696	2958
276.756	4249
276.815	4205
276.875	3318
276.935	3395
276.995	3629
277.055	4159
277.114	3576
277.174	3896
277.234	5644
277.293	3907
277.353	2848
277.413	2979
277.472	2579
277.532	2298
277.592	3693
277.651	7056
277.711	11557
277.771	5644
277.830	13327
277.890	11503
277.950	8770
278.009	22271
278.069	10196
278.128	10735
278.188	12419
278.248	6955
278.307	14359
278.367	9294
278.426	4758
278.486	4048
278.545	2818
278.605	4170
278.664	3179
278.724	3472
278.783	4905
278.843	9835
278.902	4199
278.962	3004
279.021	3366
279.081	4438
279.140	4148
279.199	3355
279.259	3781
279.318	4231
279.378	4804
279.437	6264
279.496	14811
279.556	46398
279.615	34835
279.675	11004
279.734	7980
279.793	8840
279.853	11289
279.912	6647
279.971	6032
280.031	4923
280.090	6058
280.149	9559
280.208	7946
280.268	32084
280.327	31982
280.386	8912
280.445	7155
280.505	5916
280.564	4628
280.623	3630
280.682	4920
280.742	6628
280.801	3865
280.860	3623
280.919	3384
280.978	3288
281.037	3717
281.097	3188
281.156	3716
281.215	3630
281.274	4195
281.333	6451
281.392	5820
281.451	3574
281.510	3692
281.569	3139
281.628	3548
281.688	2545
281.747	4006
281.806	3517
281.865	3095
281.924	3194
281.983	4003
282.042	2939
282.101	2910
282.160	3878
282.219	3643
282.278	3448
282.337	4507
282.396	4455
282.454	3535
282.513	3312
282.572	6108
282.631	4494
282.690	3061
282.749	1976
282.808	3422
282.867	3378
282.926	4185
282.985	3388
283.043	3412
283.102	3196
283.161	3739
283.220	3883
283.279	7571
283.338	4747
283.396	3191
283.455	3144
283.514	3089
283.573	3535
283.631	3152
283.690	3339
283.749	4078
283.808	4658
283.866	4338
283.925	3578
283.984	4162
284.043	3497
284.101	3653
284.160	4064
284.219	4496
284.277	4605
284.336	4449
284.395	8228
284.453	7428
284.512	5520
284.570	5502
284.629	4895
284.688	6145
284.746	6088
284.805	6555
284.863	7309
284.922	8961
284.981	11345
285.039	15478
285.098	22985
285.156	44492
285.215	63339
285.273	64865
285.332	47248
285.390	28030
285.449	18039
285.507	13094
285.566	9621
285.624	8732
285.683	7339
285.741	6676
285.799	5856
285.858	5425
285.916	5052
285.975	4126
286.033	4897
286.091	4535
286.150	3461
286.208	4430
286.267	4647
286.325	4378
286.383	4317
286.442	4832
286.500	4612
286.558	3769
286.616	4139
286.675	4898
286.733	3611
286.791	4073
286.850	4064
286.908	4676
286.966	5080
287.024	4164
287.083	3927
287.141	3495
287.199	4577
287.257	4805
287.315	4435
287.374	4738
287.432	4404
287.490	4514
287.548	4333
287.606	4084
287.664	4222
287.723	4836
287.781	5217
287.839	4833
287.897	4954
287.955	5651
288.013	6621
288.071	9219
288.129	29109
288.187	74554
288.245	34964
288.303	13709
288.361	8294
288.419	7274
288.477	6148
288.535	5919
288.593	5079
288.651	4144
288.709	3430
288.767	4074
288.825	3296
288.883	3917
288.941	3761
288.999	3954
289.057	3138
289.115	3464
289.173	4203
289.231	4155
289.289	3761
289.346	3270
289.404	5077
289.462	4626
289.520	4210
289.578	3557
289.636	4113
289.694	4247
289.751	3460
289.809	3438
289.867	4354
289.925	4819
289.983	4308
290.040	4130
290.098	4003
290.156	3682
290.214	4588
290.271	3827
290.329	5170
290.387	4578
290.444	3564
290.502	4218
290.560	4024
290.617	3906
290.675	3249
290.733	3892
290.790	4373
290.848	4187
290.906	3332
290.963	4296
291.021	3570
291.078	3908
291.136	3494
291.194	4720
291.251	7571
291.309	4081
291.366	4487
291.424	3347
291.481	3511
291.539	4195
291.596	3447
291.654	4255
291.711	3680
291.769	3547
291.826	4825
291.884	4135
291.941	3436
291.999	4459
292.056	2836
292.114	3991
292.171	4489
292.228	4084
292.286	4852
292.343	4787
292.401	4487
292.458	4517
292.515	4452
292.573	4262
292.630	4976
292.687	3635
292.745	3819
292.802	3681
292.859	6519
292.917	7247
292.974	5742
293.031	3977
293.089	3327
293.146	3922
293.203	3558
293.260	3747
293.318	4170
293.375	4314
293.432	4221
293.489	4327
293.546	4280
293.604	4725
293.661	5696
293.718	12270
293.775	7698
293.832	5206
293.889	5770
293.947	5332
294.004	4066
294.061	4138
294.118	5601
294.175	7929
294.232	8380
294.289	5233
294.346	4741
294.403	4775
294.460	4960
294.517	4279
294.574	4357
294.631	4667
294.688	4199
294.745	5902
294.802	12095
294.859	12607
294.916	5810
294.973	5189
295.030	4722
295.087	4401
295.144	3509
295.201	4681
295.258	4117
295.315	4373
295.372	7170
295.429	9354
295.486	5711
295.542	4499
295.599	7003
295.656	10218
295.713	8140
295.770	9685
295.827	5919
295.883	4686
295.940	4701
295.997	4582
296.054	4503
296.111	4391
296.167	4767
296.224	4447
296.281	4002
296.338	4058
296.394	3627
296.451	3926
296.508	5859
296.564	7833
296.621	6194
296.678	10880
296.734	14229
296.791	7192
296.848	5428
296.904	5206
296.961	7090
297.018	10727
297.074	8064
297.131	5119
297.187	4723
297.244	5584
297.301	11040
297.357	16473
297.414	7950
297.470	5845
297.527	4520
297.583	4958
297.640	4785
297.696	3835
297.753	3828
297.809	3987
297.866	3497
297.922	4838
297.979	3225
298.035	3661
298.092	4319
298.148	6856
298.204	6861
298.261	5338
298.317	6219
298.374	12938
298.430	8495
298.486	4969
298.543	4394
298.599	4097
298.656	5229
298.712	5824
298.768	9942
298.824	8303
298.881	5215
298.937	5482
298.993	4665
299.050	4719
299.106	4351
299.162	4131
299.218	4815
299.275	4709
299.331	5126
299.387	6404
299.443	14663
299.500	28220
299.556	21812
299.612	10220
299.668	9734
299.724	21671
299.780	25921
299.837	11397
299.893	10347
299.949	21381
300.005	28050
300.061	21015
300.117	31378
300.173	16259
300.229	9447
300.285	7455
300.341	7478
300.397	6671
300.453	6193
300.510	5815
300.566	7536
300.622	12190
300.678	32873
300.734	40313
300.790	21335
300.845	18144
300.901	21993
300.957	30588
301.013	16240
301.069	7970
301.125	6631
301.181	5389
301.237	5998
301.293	4441
301.349	4186
301.405	4404
301.461	4301
301.516	4884
301.572	4524
301.628	4061
301.684	4541
301.740	5576
301.796	7850
301.851	6018
301.907	7103
301.963	7564
302.019	10850
302.074	25080
302.130	25395
302.186	14248
302.242	6833
302.297	5682
302.353	5770
302.409	7548
302.464	7313
302.520	6337
302.576	10752
302.631	11879
302.687	7705
302.743	4667
302.798	4559
302.854	4263
302.910	4804
302.965	4251
303.021	5372
303.076	5124
303.132	5826
303.187	7003
303.243	4935
303.299	4718
303.354	4678
303.410	4027
303.465	4382
303.521	3744
303.576	3609
303.632	3900
303.687	5116
303.743	10076
303.798	9991
303.853	5873
303.909	4709
303.964	3566
304.020	5187
304.075	5479
304.130	5200
304.186	6275
304.241	7362
304.297	5861
304.352	4790
304.358	4715
304.407	4104
304.449	4530
304.463	4678
304.518	4476
304.539	4252
304.573	3878
304.629	4058
304.630	4067
304.684	4673
304.720	7160
304.739	8354
304.794	11386
304.811	10346
304.850	7875
304.902	5842
304.905	5716
304.960	4875
304.992	4495
305.015	4185
305.071	4460
305.083	4331
305.126	3877
305.173	3813
305.181	3816
305.236	3834
305.264	3805
305.292	3777
305.347	4329
305.354	4290
305.402	4038
305.445	4080
305.457	4068
305.512	4401
305.535	4309
305.567	4254
305.622	4477
305.626	4517
305.678	5973
305.716	9526
305.733	10593
305.788	10916
305.807	9822
305.843	8377
305.897	11071
305.898	11095
305.953	10049
305.988	7508
306.008	6272
306.063	5162
306.078	4814
306.118	3892
306.168	3459
306.173	3425
306.228	3374
306.259	3502
306.283	3651
306.338	3299
306.349	3417
306.393	3956
306.440	4380
306.448	4438
306.503	4519
306.530	4318
306.558	4463
306.613	6331
306.620	6430
306.668	7281
306.711	9878
306.723	10090
306.778	8001
306.801	6721
306.833	5739
306.888	4452
306.892	4436
306.943	4292
306.982	3888
306.997	3803
307.052	4356
307.072	4088
307.107	3741
307.162	4316
307.163	4314
307.217	4554
307.253	5163
307.272	5259
307.327	4790
307.343	4704
307.381	4811
307.434	5088
307.436	5167
307.491	6766
307.524	8561
307.546	8895
307.600	8827
307.614	8282
307.655	6552
307.704	4787
307.710	4745
307.765	5127
307.795	5900
307.819	6429
307.874	7693
307.885	7729
307.929	7468
307.975	7859
307.984	8381
308.038	11740
308.065	13956
308.093	23323
308.148	46486
308.156	51418
308.202	69593
308.246	79006
308.257	76498
308.312	42759
308.336	29343
308.366	21598
308.421	13048
308.426	12342
308.475	9427
308.517	7989
308.530	7640
308.585	6538
308.607	6341
308.639	6369
308.694	6205
308.697	6250
308.748	8427
308.787	9455
308.803	9112
308.857	8343
308.877	7809
308.912	8098
308.967	9221
308.967	9231
309.021	12597
309.058	15243
309.076	18826
309.130	31225
309.148	35877
309.185	61721
309.238	106312
309.239	106535
309.293	107728
309.328	95577
309.348	83094
309.402	43308
309.418	33274
309.457	24552
309.508	16756
309.511	16589
309.566	15146
309.598	14621
309.620	16131
309.674	21046
309.688	22251
309.729	20474
309.778	17434
309.783	17170
309.837	13302
309.868	11248
309.892	12164
309.946	14722
309.959	15572
310.001	16941
310.049	17891
310.055	17377
310.109	11333
310.139	8225
310.163	7330
310.218	5658
310.229	5313
310.272	5396
310.319	5770
310.326	5733
310.381	5345
310.409	5202
310.435	5271
310.489	5289
310.499	5301
310.543	5443
310.589	5483
310.598	5508
310.652	5751
310.679	5853
310.706	5566
310.760	4785
310.769	4688
310.814	5010
310.859	5265
310.868	5281
310.923	5317
310.948	5346
310.977	5568
311.031	5849
311.038	5896
311.085	5222
311.128	4474
311.139	4544
311.193	5027
311.218	5148
311.247	5135
311.301	5201
311.308	5204
311.356	5192
311.398	5172
311.410	5139
311.464	4912
311.488	4786
311.518	4856
311.572	5027
311.578	5043
311.626	5539
311.668	5926
311.680	6002
311.734	6292
311.758	6418
311.788	6081
311.842	5438
311.847	5364
311.896	6457
311.937	7403
311.950	7136
312.004	5893
312.027	5350
312.058	5569
312.112	5954
312.117	5982
312.165	5849
312.207	5723
312.297	6312
312.386	5120
312.476	6676
312.566	7741
312.656	6919
312.745	5719
312.835	6146
312.925	6392
313.015	7583
313.104	7579
313.194	7747
313.284	7074
313.374	8284
313.463	8186
313.553	8361
313.643	7986
313.732	8549
313.822	9543
313.912	10258
314.001	10599
314.091	10614
314.180	11107
314.270	11889
314.360	10780
314.449	11344
314.539	10241
314.628	11078
314.718	11151
314.808	11070
314.897	12103
314.987	13633
315.076	12779
315.166	13024
315.255	12537
315.345	11604
315.434	11647
315.524	11754
315.613	12220
315.703	15258
315.792	35452
315.881	99825
315.971	30408
316.060	15184
316.150	13013
316.239	13325
316.328	10232
316.418	11186
316.507	12378
316.597	14023
316.686	13773
316.775	14850
316.865	14439
316.954	11657
317.043	10591
317.133	10100
317.222	8728
317.311	8256
317.400	7579
317.490	10628
317.579	10872
317.668	12064
317.757	17254
317.847	55564
317.936	142364
318.025	43441
318.114	42292
318.203	21076
318.293	13838
318.382	22098
318.471	20825
318.560	22050
318.649	25353
318.738	11705
318.828	8892
318.917	8429
319.006	8643
319.095	12284
319.184	25195
319.273	14834
319.362	10481
319.451	8103
319.540	7698
319.629	10114
319.718	12506
319.807	9431
319.896	13570
319.985	30846
320.074	12234
320.163	9789
320.252	10047
320.341	11627
320.430	11463
320.519	12479
320.608	11699
320.697	13319
320.786	15582
320.875	17129
320.964	17586
321.053	19917
321.142	22060
321.230	24168
321.319	25873
321.408	31289
321.497	25944
321.586	23980
321.675	21545
321.764	21268
321.852	20258
321.941	23623
322.030	21837
322.119	25502
322.207	32023
322.296	31298
322.385	30954
322.474	34813
322.562	40950
322.651	28157
322.740	23905
322.829	21479
322.917	20141
323.006	17444
323.095	16467
323.183	15235
323.272	15984
323.361	17788
323.449	27516
323.538	14936
323.626	21264
323.715	14133
323.804	11518
323.892	19189
323.981	12739
324.069	10349
324.158	13296
324.246	12078
324.335	10526
324.424	10991
324.512	9260
324.601	9616
324.689	10130
324.778	12284
324.866	10292
324.954	8716
325.043	8076
325.131	8761
325.220	11068
325.308	10584
325.397	10585
325.485	9917
325.574	6560
325.662	7718
325.750	7038
325.839	9190
325.927	6326
326.015	7318
326.104	8541
326.192	9210
326.280	7693
326.369	7486
326.457	7656
326.545	9943
326.634	7899
326.722	7847
326.810	7914
326.898	9687
326.987	10900
327.075	10706
327.163	11434
327.251	8331
327.340	9602
327.428	12882
327.516	14314
327.604	11922
327.692	9701
327.781	8841
327.869	8718
327.957	7897
328.045	7621
328.133	7091
328.221	7013
328.309	6684
328.397	7886
328.485	8837
328.574	14695
328.662	22270
328.750	14159
328.838	9835
328.926	8367
329.014	7135
329.102	7777
329.190	10982
329.278	8878
329.366	7485
329.454	6627
329.542	7159
329.630	6111
329.718	7444
329.806	7254
329.893	7861
329.981	6884
330.069	6672
330.157	7770
330.245	8858
330.333	7357
330.421	7371
330.509	7995
330.597	13891
330.684	9342
330.772	8395
330.860	7857
330.948	9573
331.036	8664
331.123	6914
331.211	7211
331.299	7249
331.387	9609
331.475	11374
331.562	7682
331.650	7802
331.738	7385
331.825	8273
331.913	7662
332.001	7677
332.089	7189
332.176	9807
332.264	12123
332.352	9304
332.439	8013
332.527	7495
332.614	7375
332.702	8269
332.790	8148
332.877	10324
332.965	12955
333.052	9428
333.140	10890
333.228	15012
333.315	10241
333.403	10126
333.490	11771
333.578	12028
333.665	18039
333.753	15154
333.840	11984
333.928	14145
334.015	17908
334.103	25268
334.190	42204
334.278	33650
334.365	39458
334.452	37691
334.540	29633
334.627	31525
334.715	38695
334.802	52492
334.889	89304
334.977	94013
335.064	54348
335.151	33662
335.239	25919
335.326	23961
335.413	34163
335.501	34948
335.588	25769
335.675	27778
335.762	35258
335.850	47913
335.937	62666
336.024	92599
336.111	133691
336.199	100639
336.286	54474
336.373	35732
336.460	26175
336.547	21006
336.635	17462
336.722	15584
336.809	14329
336.896	14005
336.983	18398
337.070	28375
337.157	33046
337.245	24348
337.332	19039
337.419	13170
337.506	11770
337.593	12250
337.680	15130
337.767	24801
337.854	12572
337.941	13290
338.028	13300
338.115	10008
338.202	10579
338.289	13170
338.376	19394
338.463	12357
338.550	17674
338.637	15578
338.724	10185
338.811	11906
338.898	8292
338.984	8583
339.071	9951
339.158	9443
339.245	10628
339.332	9499
339.419	9912
339.506	9706
339.593	7950
339.679	8904
339.766	8610
339.853	9163
339.940	9667
340.027	8303
340.113	8377
340.200	8757
340.287	8086
340.374	8315
340.460	8554
340.547	6849
340.634	9218
340.720	14963
340.807	10052
340.894	8335
340.980	8749
341.067	8280
341.154	8277
341.240	9389
341.327	10815
341.414	9511
341.500	8377
341.587	8531
341.674	8622
341.760	10772
341.847	9983
341.933	8530
342.020	6712
342.106	7553
342.193	7605
342.279	9655
342.366	7737
342.452	9362
342.539	7537
342.625	9930
342.712	14727
342.798	10710
342.885	7328
342.971	7181
343.058	7058
343.144	7373
343.230	7797
343.317	8303
343.403	7680
343.490	7355
343.576	6931
343.662	7948
343.749	7886
343.835	8047
343.921	10560
344.008	31221
344.094	48875
344.180	14430
344.267	9620
344.353	18286
344.439	16692
344.525	11140
344.612	11457
344.698	10908
344.784	8098
344.870	8043
344.957	7158
345.043	10070
345.129	8120
345.215	9992
345.301	7995
345.387	6767
345.474	6626
345.560	7469
345.646	6577
345.732	7111
345.818	7722
345.904	7800
345.990	7954
346.076	8069
346.162	8727
346.249	8502
346.335	7294
346.421	8437
346.507	12165
346.593	23113
346.679	8836
346.765	10415
346.851	16120
346.937	13087
347.023	9753
347.108	8707
347.194	8105
347.280	8636
347.366	11494
347.452	31423
347.538	47536
347.624	27916
347.710	18409
347.796	9966
347.882	8469
347.967	8488
348.053	8357
348.139	7457
348.225	7991
348.311	7173
348.397	8259
348.482	10012
348.568	10119
348.654	15735
348.740	38415
348.825	40564
348.911	20356
348.997	22588
349.083	25316
349.168	10182
349.254	9243
349.340	8891
349.425	8474
349.511	9317
349.597	9312
349.682	11273
349.768	18175
349.854	12144
349.939	8363
350.025	8153
350.110	7865
350.196	8311
350.282	7342
350.367	9092
350.453	8322
350.538	8877
350.624	7623
350.709	8450
350.795	8099
350.880	7584
350.966	8240
351.051	9443
351.137	7905
351.222	8496
351.308	10372
351.393	14993
351.479	8823
351.564	7844
351.649	8128
351.735	8243
351.820	7320
351.906	7287
351.991	7333
352.076	12809
352.162	14211
352.247	9224
352.332	7715
352.418	8804
352.503	10301
352.588	19933
352.673	14024
352.759	9230
352.844	7486
352.929	7717
353.014	6877
353.100	8367
353.185	7849
353.270	8867
353.355	8559
353.441	9017
353.526	7749
353.611	8271
353.696	9518
353.781	8834
353.866	6438
353.952	8598
354.037	8812
354.122	12806
354.207	11014
354.292	8462
354.377	8093
354.462	7483
354.547	7598
354.632	8892
354.717	8353
354.802	7618
354.887	7445
354.972	7538
355.057	6844
355.142	7179
355.227	7872
355.312	8537
355.397	10688
355.482	15311
355.567	10157
355.652	10736
355.737	10641
355.822	20223
355.907	15048
355.991	9379
356.076	7086
356.161	8635
356.246	8709
356.331	7868
356.416	11380
356.501	33970
356.585	27004
356.670	9993
356.755	10889
356.840	11234
356.924	24584
357.009	58331
357.094	22912
357.179	11208
357.263	10057
357.348	10390
357.433	9834
357.517	10057
357.602	8812
357.687	9843
357.771	11210
357.856	17013
357.941	14035
358.025	24964
358.110	63500
358.195	28785
358.279	11393
358.364	10752
358.448	17350
358.533	30312
358.617	21183
358.702	23545
358.787	12319
358.871	10727
358.956	10258
359.040	8837
359.125	7852
359.209	9673
359.294	14348
359.378	21655
359.462	16268
359.547	9584
359.631	8857
359.716	8030
359.800	8620
359.885	10155
359.969	8073
360.053	9289
360.138	8353
360.222	8551
360.306	10415
360.391	9998
360.475	12885
360.559	17248
360.644	16097
360.728	13147
360.812	23721
360.896	41731
360.981	20005
361.065	13356
361.149	12103
361.233	10826
361.318	10035
361.402	10921
361.486	12524
361.570	11617
361.654	12134
361.739	16583
361.823	36143
361.907	45782
361.991	20712
362.075	23065
362.159	32722
362.243	56820
362.327	110488
362.411	128086
362.495	57527
362.580	36079
362.664	33679
362.748	40853
362.832	62280
362.916	121812
363.000	243292
363.084	268676
363.168	138503
363.252	55487
363.336	34626
363.420	29793
363.503	38979
363.587	37734
363.671	22840
363.755	21891
363.839	27577
363.923	28873
364.007	37718
364.091	51185
364.175	80893
364.258	163807
364.342	287125
364.426	353288
364.510	203413
364.594	88355
364.677	51565
364.761	59970
364.845	40613
364.929	23485
365.013	19413
365.096	17658
365.180	16046
365.264	21411
365.347	39374
365.431	21337
365.515	13431
365.598	11443
365.682	13623
365.766	13200
365.849	13435
365.933	12327
366.017	13818
366.100	12118
366.184	11646
366.267	12612
366.351	11222
366.435	11381
366.518	10053
366.602	11868
366.685	10954
366.769	11719
366.852	12429
366.936	14246
367.019	11863
367.103	11213
367.186	14610
367.270	11936
367.353	11128
367.436	13926
367.520	13542
367.603	13918
367.687	12910
367.770	14763
367.853	14318
367.937	20042
368.020	22833
368.104	12161
368.187	13074
368.270	13906
368.353	11677
368.437	13187
368.520	16233
368.603	14443
368.687	17931
368.770	24185
368.853	11732
368.936	12727
369.020	11846
369.103	9790
369.186	8799
369.269	9699
369.352	10654
369.436	11323
369.519	10592
369.602	8280
369.685	10238
369.768	8649
369.851	9130
369.934	9266
370.018	9090
370.101	9966
370.184	11458
370.267	10642
370.350	11807
370.433	15173
370.516	34418
370.599	65199
370.682	28677
370.765	19395
370.848	20285
370.931	29321
371.014	15918
371.097	9318
371.180	9232
371.263	9641
371.346	8673
371.429	9635
371.511	8771
371.594	10048
371.677	11554
371.760	13235
371.843	12659
371.926	33187
372.009	51094
372.091	22051
372.174	18347
372.257	29370
372.340	15700
372.423	15033
372.505	14942
372.588	10666
372.671	15810
372.754	28347
372.836	17671
372.919	17454
373.002	23305
373.085	12486
373.167	12299
373.250	18648
373.332	29372
373.415	45560
373.498	69091
373.580	41903
373.663	96689
373.746	91066
373.828	23263
373.911	15499
373.993	14850
374.076	24903
374.159	22823
374.241	17331
374.324	27186
374.406	21891
374.489	30873
374.571	59956
374.654	27259
374.736	22401
374.819	41920
374.901	57706
374.983	52165
375.066	19738
375.148	15684
375.231	26944
375.313	35579
375.395	21596
375.478	14971
375.560	15076
375.643	15004
375.725	24507
375.807	49646
375.890	37927
375.972	17126
376.054	16960
376.136	17355
376.219	13545
376.301	23684
376.383	40961
376.465	19870
376.548	15371
376.630	18254
376.712	35172
376.794	19144
376.877	10237
376.959	8550
377.041	10568
377.123	11561
377.205	12499
377.287	8853
377.369	10458
377.452	10594
377.534	10095
377.616	10032
377.698	10934
377.780	9547
377.862	10435
377.944	10102
378.026	9366
378.108	10210
378.190	9111
378.272	9717
378.354	9408
378.436	9083
378.518	10281
378.600	13851
378.682	13940
378.764	19588
378.846	17923
378.928	10958
379.010	11746
379.091	10149
379.173	9720
379.255	8631
379.337	9493
379.419	14746
379.501	25653
379.583	13862
379.664	9980
379.746	11332
379.828	19892
379.910	23993
379.991	21254
380.073	9647
380.155	9737
380.237	8526
380.318	9293
380.400	9389
380.482	10930
380.564	10465
380.645	10415
380.727	10416
380.809	11315
380.890	9058
380.972	8379
381.053	9347
381.135	10421
381.217	12738
381.298	20885
381.380	12719
381.461	15183
381.543	35493
381.624	38369
381.706	13513
381.787	11121
381.869	12185
381.951	24373
382.032	53946
382.113	36225
382.195	12620
382.276	13639
382.358	17850
382.439	32443
382.521	39378
382.602	51991
382.684	29215
382.765	46266
382.846	60000
382.928	87356
383.009	53005
383.090	50835
383.172	138184
383.253	167202
383.334	63422
383.416	52521
383.497	33348
383.578	27097
383.659	44392
383.741	132483
383.822	249255
383.903	124317
383.984	48307
384.066	57432
384.147	37457
384.228	20832
384.309	20329
384.390	19954
384.471	19504
384.553	18181
384.634	16505
384.715	16038
384.796	13743
384.877	15386
384.958	22964
385.039	23768
385.120	15685
385.201	15388
385.282	15016
385.363	16328
385.444	17091
385.525	21350
385.606	34302
385.687	29910
385.768	18870
385.849	20422
385.930	39708
386.011	49880
386.092	24073
386.173	18080
386.254	17150
386.335	18663
386.416	17451
386.496	22757
386.577	25292
386.658	19056
386.739	17302
386.820	19626
386.901	17837
386.981	20861
387.062	21134
387.143	24896
387.224	33859
387.304	34939
387.385	29652
387.466	27136
387.547	30004
387.627	29395
387.708	34064
387.789	48901
387.869	48661
387.950	30585
388.031	22684
388.111	20605
388.192	24797
388.273	25432
388.353	21123
388.434	18568
388.514	20911
388.595	37659
388.676	38735
388.756	25824
388.837	22326
388.917	18840
388.998	13010
389.078	15258
389.159	13858
389.239	12266
389.320	15923
389.400	12982
389.480	18268
389.561	25140
389.641	18118
389.722	14670
389.802	14693
389.883	19331
389.963	29934
390.043	21935
390.124	14416
390.204	17250
390.284	23847
390.365	19781
390.445	25807
390.525	45072
390.605	39499
390.686	18484
390.766	16666
390.846	16065
390.927	13666
391.007	13425
391.087	16117
391.167	15819
391.247	14336
391.328	17116
391.408	18650
391.488	18287
391.568	16207
391.648	18582
391.728	20184
391.808	20315
391.888	20839
391.969	26295
392.049	30074
392.129	26576
392.209	30321
392.289	40146
392.369	35232
392.449	36414
392.529	35484
392.609	40197
392.689	46234
392.769	62704
392.849	70758
392.929	85124
393.009	120057
393.089	165336
393.169	270981
393.248	498500
393.328	705909
393.408	655665
393.488	436987
393.568	237575
393.648	139045
393.728	93798
393.807	67103
393.887	54408
393.967	44742
394.047	38959
394.127	33944
394.206	39130
394.286	71740
394.366	186920
394.446	177802
394.525	57235
394.605	29711
394.685	27475
394.764	33899
394.844	56141
394.924	61963
395.003	31720
395.083	21407
395.163	21517
395.242	18903
395.322	20133
395.402	17706
395.481	23878
395.561	32278
395.640	78388
395.720	126468
395.799	81159
395.879	44574
395.958	40751
396.038	92293
396.117	233849
396.197	232100
396.276	93688
396.356	57089
396.435	61258
396.515	76052
396.594	110187
396.673	212944
396.753	443834
396.832	636178
396.912	505357
396.991	250689
397.070	124311
397.150	77359
397.229	68382
397.308	109831
397.388	169631
397.467	92570
397.546	39340
397.625	26308
397.705	26980
397.784	22368
397.863	21026
397.942	18403
398.022	18566
398.101	20568
398.180	30949
398.259	21254
398.338	16285
398.417	14146
398.497	13833
398.576	13449
398.655	12134
398.734	13471
398.813	13008
398.892	18046
398.971	28474
399.050	18918
399.129	10983
399.208	11002
399.287	11344
399.366	10153
399.445	11253
399.524	10314
399.603	9249
399.682	11549
399.761	16613
399.840	28660
399.919	23775
399.998	10720
400.077	9506
400.156	8227
400.235	11874
400.313	9018
400.392	9445
400.471	14936
400.550	17416
400.629	9606
400.708	10212
400.786	8672
400.865	11740
400.944	10336
401.023	10575
401.102	7086
401.180	8596
401.259	8472
401.338	7511
401.416	8512
401.495	7440
401.574	9085
401.652	6979
401.731	8685
401.810	7137
401.888	7364
401.967	7323
402.046	7536
402.124	8261
402.203	6274
402.281	8465
402.360	7373
402.438	11461
402.517	8670
402.596	8695
402.674	7420
402.753	7438
402.831	7542
402.910	8779
402.988	10071
403.066	15128
403.145	13004
403.223	11955
403.302	14376
403.380	13272
403.459	12785
403.537	10225
403.615	10181
403.694	9023
403.772	9833
403.850	8900
403.929	8309
404.007	8530
404.085	9824
404.164	9134
404.242	8805
404.320	16255
404.398	30173
404.477	30763
404.555	46663
404.633	40194
404.711	24741
404.789	16597
404.868	8477
404.946	7885
405.024	7656
405.102	6781
405.180	5914
405.258	5462
405.336	7889
405.415	5927
405.493	7606
405.571	8732
405.649	6186
405.727	6056
405.805	9222
405.883	9746
405.961	9229
406.039	7978
406.117	7171
406.195	9011
406.273	14010
406.351	33274
406.429	21416
406.507	7757
406.585	5755
406.663	7587
406.740	7353
406.818	6749
406.896	5561
406.974	7801
407.052	7402
407.130	23128
407.208	26628
407.285	10304
407.363	7613
407.441	7031
407.519	6928
407.596	9665
407.674	20241
407.752	55561
407.830	40363
407.907	12301
407.985	7254
408.063	7772
408.141	6137
408.218	7786
408.296	6191
408.373	8330
408.451	9560
408.529	9077
408.606	8944
408.684	9731
408.762	9739
408.839	10118
408.917	11357
408.994	13273
409.072	13017
409.149	17948
409.227	25818
409.304	35313
409.382	40272
409.459	45420
409.537	53446
409.614	53545
409.692	44995
409.769	45116
409.846	57188
409.924	64449
410.001	51865
410.079	41236
410.156	32344
410.233	25711
410.311	20912
410.388	19578
410.465	17176
410.543	15559
410.620	15994
410.697	14963
410.775	14377
410.852	13490
410.929	15339
411.006	15431
411.083	13844
411.161	14083
411.238	14185
411.315	12728
411.392	11153
411.469	11403
411.547	11983
411.624	8653
411.701	9715
411.778	9595
411.855	9957
411.932	8831
412.009	7910
412.086	8809
412.163	8057
412.240	7814
412.317	8718
412.394	8606
412.471	8264
412.548	7825
412.625	6798
412.702	8093
412.779	7674
412.856	8201
412.933	6966
413.010	7297
413.087	7312
413.164	11507
413.241	13719
413.318	7441
413.395	6888
413.471	7991
413.548	6262
413.625	7355
413.702	6929
413.779	6463
413.855	5794
413.932	5483
414.009	5809
414.086	6160
414.162	5964
414.239	7858
414.316	10924
414.393	18158
414.469	7949
414.546	6290
414.623	5959
414.699	6372
414.776	5317
414.853	5868
414.929	6404
415.006	6076
415.082	6173
415.159	6107
415.236	5441
415.312	6954
415.389	6666
415.465	6104
415.542	5549
415.618	5227
415.695	7180
415.771	4963
415.848	5619
415.924	5928
416.000	5426
416.077	6163
416.153	4525
416.230	4959
416.306	4909
416.383	5010
416.459	6067
416.535	5208
416.612	5688
416.688	4774
416.764	5155
416.841	5178
416.917	4475
416.993	5116
417.069	6509
417.146	6104
417.222	6329
417.298	5556
417.374	4954
417.451	5229
417.527	5486
417.603	5485
417.679	5359
417.755	5991
417.831	3611
417.908	6578
417.984	5598
418.060	5168
418.136	6546
418.212	6542
418.288	6704
418.364	6774
418.440	5825
418.516	6851
418.592	7303
418.668	8702
418.744	8395
418.820	8422
418.896	6961
418.972	6662
419.048	6730
419.124	9057
419.200	6500
419.276	7702
419.352	6626
419.428	7722
419.504	7394
419.579	8362
419.655	7949
419.731	9280
419.807	9662
419.883	12133
419.959	11410
420.034	10017
420.110	12013
420.186	16334
420.262	16797
420.337	12762
420.413	12756
420.489	13434
420.565	15001
420.640	14256
420.716	15972
420.792	16077
420.867	17244
420.943	17691
421.019	19627
421.094	20395
421.170	21868
421.245	23307
421.321	24971
421.397	27053
421.472	39912
421.548	57359
421.623	48656
421.699	42866
421.774	45190
421.850	52249
421.925	61672
422.001	72188
422.076	86242
422.152	104716
422.227	131739
422.302	165111
422.378	209070
422.453	263733
422.529	288312
422.604	246780
422.679	192558
422.755	245474
422.830	278005
422.905	253571
422.981	210408
423.056	168496
423.131	137843
423.207	110879
423.282	91433
423.357	77857
423.432	65247
423.508	57352
423.583	50462
423.658	45453
423.733	40441
423.808	36611
423.883	35965
423.959	37764
424.034	39158
424.109	36537
424.184	29701
424.259	24825
424.334	22787
424.409	19791
424.484	18187
424.559	17498
424.634	16006
424.709	15088
424.784	15526
424.859	14178
424.934	13349
425.009	16945
425.084	19610
425.159	13564
425.234	11627
425.309	11155
425.384	12837
425.459	12690
425.534	10900
425.609	9370
425.683	8779
425.758	10103
425.833	8875
425.908	9674
425.983	11306
426.058	16317
426.132	11162
426.207	8860
426.282	10263
426.357	8614
426.431	7766
426.506	8263
426.581	7651
426.655	8252
426.730	6096
426.805	6236
426.879	7202
426.954	7308
427.029	8165
427.103	16248
427.178	27359
427.253	15354
427.327	7647
427.402	7502
427.476	9411
427.551	7740
427.625	6961
427.700	6653
427.774	7044
427.849	7493
427.923	6414
427.998	8701
428.072	10408
428.147	23437
428.221	80381
428.296	170931
428.370	95013
428.444	23702
428.519	12860
428.593	12439
428.667	12415
428.742	16137
428.816	37151
428.890	120824
428.965	151527
429.039	48056
429.113	16375
429.188	9748
429.262	8209
429.336	9151
429.410	10584
429.485	9669
429.559	10889
429.633	11078
429.707	12987
429.781	33976
429.855	116568
429.930	140406
430.004	53012
430.078	49848
430.152	107369
430.226	228663
430.300	199825
430.374	66448
430.448	25462
430.522	22856
430.596	31752
430.670	56222
430.744	145683
430.818	137468
430.892	34375
430.966	11097
431.040	8126
431.114	6057
431.188	5804
431.262	5985
431.336	5436
431.410	7822
431.484	9104
431.557	9278
431.631	8484
431.705	17673
431.779	66481
431.853	165834
431.927	105519
432.000	23832
432.074	8755
432.148	6410
432.222	5216
432.295	5237
432.369	3841
432.443	4669
432.516	13217
432.590	25273
432.664	10674
432.737	3801
432.811	2887
432.885	3400
432.958	3769
433.032	2995
433.106	2225
433.179	4227
433.253	3074
433.326	3280
433.400	2423
433.473	3477
433.547	3284
433.620	3466
433.694	3309
433.767	4260
433.841	3234
433.914	3341
433.988	4527
434.061	4204
434.134	3640
434.208	3947
434.281	3125
434.355	3031
434.428	3632
434.501	3937
434.575	3626
434.648	3367
434.721	3509
434.795	3833
434.868	2813
434.941	4288
435.014	4190
435.088	5412
435.161	6446
435.234	7224
435.307	8208
435.381	11551
435.454	16330
435.527	23353
435.600	26427
435.673	24233
435.746	18923
435.819	15517
435.892	12361
435.966	10188
436.039	7137
436.112	8407
436.185	5401
436.258	5710
436.331	4698
436.404	5080
436.477	3948
436.550	5116
436.623	3383
436.696	3836
436.769	3418
436.842	4113
436.915	3944
436.987	4320
437.060	3414
437.133	3458
437.206	3208
437.279	3142
437.352	2794
437.425	2983
437.498	2928
437.570	4114
437.643	3056
437.716	2951
437.789	2497
437.861	3518
437.934	4521
438.007	3520
438.080	2296
438.152	2573
438.225	4081
438.298	17029
438.370	35174
438.443	14907
438.516	5574
438.588	3503
438.661	2897
438.734	2713
438.806	3302
438.879	4295
438.951	2918
439.024	3462
439.096	1822
439.169	2727
439.241	2809
439.314	3260
439.386	2633
439.459	4407
439.531	3548
439.604	2778
439.676	3136
439.749	3103
439.821	2923
439.893	3506
439.966	2971
440.038	2783
440.110	3309
440.183	3022
440.255	2432
440.327	4778
440.400	8489
440.472	21889
440.544	13455
440.617	4355
440.689	4295
440.761	3984
440.833	4413
440.905	3959
440.978	2604
441.050	4267
441.122	3624
441.194	3014
441.266	3373
441.338	2418
441.411	4795
441.483	9597
441.555	9948
441.627	5887
441.699	5083
441.771	5146
441.843	5029
441.915	4984
441.987	5499
442.059	6904
442.131	7795
442.203	9229
442.275	12332
442.347	21500
442.419	50164
442.491	159239
442.563	238274
442.635	111139
442.706	34519
442.778	18781
442.850	12810
442.922	11441
442.994	11213
443.066	13113
443.137	16872
443.209	21563
443.281	35204
443.353	73073
443.425	189182
443.496	349336
443.568	335439
443.640	164676
443.711	57271
443.783	27407
443.855	17610
443.926	12940
443.998	10549
444.070	8940
444.141	8606
444.213	8212
444.285	8006
444.356	7366
444.428	7717
444.499	6667
444.571	7088
444.642	8004
444.714	7883
444.785	9757
444.857	10063
444.928	13344
445.000	14573
445.071	18557
445.143	23608
445.214	35611
445.285	59551
445.357	133625
445.428	288006
445.500	374972
445.571	339340
445.642	237075
445.714	103828
445.785	43204
445.856	22320
445.928	16815
445.999	12283
446.070	9658
446.141	8564
446.213	8258
446.284	6480
446.355	6284
446.426	5117
446.497	4032
446.569	4402
446.640	5143
446.711	3676
446.782	3429
446.853	2760
446.924	3636
446.995	1685
447.066	2680
447.138	3309
447.209	2526
447.280	2410
447.351	2717
447.422	1579
447.493	2720
447.564	2263
447.635	2645
447.706	1449
447.777	2196
447.847	2038
447.918	1053
447.989	2135
448.060	2559
448.131	2354
448.202	3019
448.273	1718
448.344	2172
448.414	1423
448.485	2255
448.556	1756
448.627	1747
448.698	2129
448.768	1592
448.839	1472
448.910	1475
448.981	1707
449.051	1267
449.122	1530
449.193	1743
449.263	1603
449.334	1240
449.405	1881
449.475	2645
449.546	2303
449.616	3528
449.687	2309
449.758	2737
449.828	1033
449.899	1719
449.969	420
450.040	1962
450.110	1328
450.181	1557
450.251	1016
450.322	2289
450.392	1387
450.463	2119
450.533	1181
450.604	1862
450.674	1759
450.744	2703
450.815	3368
450.885	3937
450.955	3488
451.026	4109
451.096	2211
451.166	4210
451.237	4652
451.307	7453
451.377	4161
451.447	3915
451.518	1933
451.588	2306
451.658	1341
451.728	2304
451.799	4574
451.869	5086
451.939	1498
452.009	1352
452.079	1772
452.149	3466
452.219	2726
452.289	5639
452.360	4384
452.430	4177
452.500	4585
452.570	9990
452.640	21748
452.710	49521
452.780	53271
452.850	31023
452.920	16189
452.990	9642
453.060	7056
453.129	4638
453.199	3840
453.269	8844
453.339	11036
453.409	13274
453.479	15258
453.549	19293
453.619	18508
453.688	7267
453.758	2494
453.828	1900
453.898	1620
453.968	1892
454.037	1746
454.087	1697
454.107	1659
454.168	1281
454.177	1203
454.247	1369
454.249	1360
454.316	627
454.330	831
454.386	1480
454.411	1763
454.456	2118
454.492	3019
454.525	3808
454.574	2243
454.595	1543
454.655	1162
454.665	1072
454.734	2598
454.736	2635
454.804	2760
454.817	3254
454.873	5072
454.898	4836
454.943	4354
454.979	3466
455.013	2673
455.060	2675
455.082	2689
455.141	2245
455.152	2127
455.221	4396
455.222	4455
455.291	5434
455.303	5553
455.360	5922
455.384	6998
455.430	8284
455.465	6745
455.499	5393
455.546	4802
455.569	4509
455.627	4244
455.638	4200
455.707	1472
455.708	1500
455.777	2157
455.789	2201
455.846	2345
455.869	2294
455.916	2124
455.950	2345
455.985	2552
456.031	2668
456.054	2691
456.112	2395
456.124	2284
456.193	2782
456.193	2760
456.262	2548
456.274	2665
456.332	3030
456.355	3256
456.401	3573
456.436	3559
456.470	3557
456.516	2765
456.540	2344
456.597	3111
456.609	3223
456.678	3580
456.678	3557
456.747	3775
456.759	3742
456.817	3460
456.840	3530
456.886	3546
456.920	3644
456.955	3836
457.001	4407
457.024	4631
457.082	4534
457.093	4481
457.162	4662
457.163	4692
457.232	5114
457.243	5273
457.301	5681
457.324	5525
457.370	5452
457.405	6251
457.439	7127
457.485	7406
457.508	7682
457.566	9542
457.577	10448
457.646	16716
457.647	16866
457.715	36084
457.727	40692
457.784	65190
457.808	83872
457.853	105151
457.889	116978
457.922	117990
457.969	86865
457.991	85499
458.050	100388
458.060	103232
458.129	166681
458.130	168420
458.198	159066
458.211	142894
458.267	84126
458.292	62137
458.336	45719
458.372	45496
458.405	60055
458.453	87133
458.474	102430
458.533	167735
458.543	171627
458.611	238160
458.614	238693
458.680	151154
458.694	122948
458.749	61934
458.775	45463
458.818	28287
458.855	21624
458.887	17863
458.936	14486
458.955	13293
459.016	11394
459.024	11178
459.093	10282
459.097	10203
459.162	8606
459.177	8555
459.230	8625
459.257	8729
459.299	8678
459.338	8335
459.368	8279
459.418	8154
459.437	7892
459.499	7206
459.505	7148
459.574	6625
459.579	6635
459.643	6887
459.659	6952
459.711	7292
459.740	7431
459.780	7397
459.820	7154
459.849	6876
459.900	7277
459.917	7436
459.981	7089
459.986	7035
460.054	7015
460.061	7024
460.123	7067
460.141	7025
460.191	7259
460.222	7346
460.260	7461
460.302	7816
460.328	7949
460.382	8208
460.397	8381
460.462	9621
460.465	9986
460.534	17943
460.543	19119
460.602	38601
460.623	46312
460.671	67087
460.703	87067
460.739	75151
460.783	48501
460.808	40732
460.864	13635
460.876	10935
460.944	7924
460.945	7891
461.013	7318
461.024	7185
461.081	6984
461.104	7207
461.150	7004
461.184	6731
461.218	6870
461.264	7273
461.286	7356
461.345	7071
461.355	6978
461.423	7016
461.425	6994
461.491	6480
461.505	6589
461.559	7886
461.585	8317
461.628	9481
461.665	10886
461.696	10851
461.745	10686
461.764	10160
461.825	7420
461.832	7404
461.901	7595
461.905	7672
461.969	7421
461.985	7124
462.037	7252
462.065	7541
462.105	7632
462.145	7672
462.173	8220
462.225	9070
462.241	9180
462.305	10262
462.310	10195
462.378	8938
462.385	8719
462.446	8248
462.465	8150
462.514	7973
462.545	7934
462.582	7397
462.625	6940
462.650	7137
462.705	7379
462.718	7497
462.785	8083
462.786	8088
462.854	8054
462.865	8067
462.922	7962
462.945	7916
462.990	7723
463.025	7617
463.058	7741
463.104	7515
463.126	7243
463.184	7146
463.194	7288
463.262	7706
463.264	7730
463.330	7942
463.344	7974
463.398	8557
463.424	8663
463.466	7839
463.504	7343
463.533	7950
463.583	8772
463.601	8613
463.663	7957
463.669	7999
463.737	8853
463.743	8861
463.805	10493
463.823	11091
463.873	11690
463.903	12020
463.940	11778
463.982	11653
464.008	10905
464.062	8665
464.076	8512
464.142	7872
464.144	7874
464.211	7958
464.221	7969
464.279	7932
464.301	7826
464.347	8082
464.381	8268
464.414	8551
464.461	9066
464.482	9100
464.540	9038
464.550	8973
464.617	8316
464.620	8290
464.685	9118
464.699	9240
464.753	9115
464.779	9075
464.820	9778
464.859	10495
464.888	10173
464.938	9507
464.956	9763
465.018	10410
465.023	10421
465.091	10410
465.098	10419
465.158	9763
465.177	9529
465.226	9734
465.257	9737
465.293	9412
465.336	9071
465.361	9624
465.416	10876
465.428	11033
465.495	11790
465.496	11814
465.563	12346
465.575	12510
465.631	14217
465.654	14862
465.698	12525
465.734	10378
465.765	10040
465.813	9529
465.833	9514
465.893	9557
465.900	9566
465.968	9401
465.972	9380
466.035	9894
466.052	10016
466.102	9590
466.131	9271
466.170	9474
466.210	9732
466.237	10001
466.290	10459
466.304	10414
466.369	9976
466.372	9984
466.439	9802
466.449	9740
466.506	10377
466.528	10651
466.573	12265
466.607	13337
466.641	14703
466.687	16692
466.708	16982
466.766	17634
466.775	16970
466.842	11655
466.845	11383
466.909	11019
466.925	10913
466.977	11562
467.004	11892
467.044	12085
467.083	12242
467.111	13008
467.163	14358
467.178	14450
467.242	14716
467.245	14658
467.312	12911
467.321	12657
467.379	12580
467.400	12513
467.446	14392
467.480	15704
467.559	13419
467.638	13014
467.717	14102
467.796	15288
467.875	16207
467.955	16318
468.034	21886
468.113	27205
468.192	33757
468.271	32321
468.350	40484
468.429	51398
468.508	50362
468.588	34525
468.667	22995
468.746	19274
468.825	17985
468.904	15591
468.983	14638
469.062	16570
469.141	16708
469.220	13119
469.299	13045
469.378	13668
469.456	14328
469.535	14426
469.614	14227
469.693	13943
469.772	15192
469.851	16655
469.930	14989
470.009	13778
470.088	13575
470.166	14972
470.245	16293
470.324	17624
470.403	15349
470.482	13975
470.560	13820
470.639	12997
470.718	14256
470.797	12182
470.875	13483
470.954	13900
471.033	14159
471.111	12575
471.190	11829
471.269	12094
471.347	11469
471.426	12816
471.505	12708
471.583	13295
471.662	13064
471.740	13357
471.819	13662
471.898	12252
471.976	12059
472.055	12890
472.133	13419
472.212	16693
472.290	14004
472.369	12073
472.447	11997
472.526	12441
472.604	13620
472.683	12013
472.761	12639
472.839	12477
472.918	13699
472.996	12952
473.075	14034
473.153	12378
473.231	12792
473.310	13381
473.388	13998
473.466	14640
473.545	14449
473.623	14811
473.701	15258
473.780	14495
473.858	12407
473.936	15239
474.014	13714
474.093	15145
474.171	17046
474.249	15680
474.327	14729
474.405	13957
474.484	13772
474.562	12800
474.640	12538
474.718	13428
474.796	12391
474.874	12858
474.952	12788
475.030	12000
475.108	12656
475.187	12833
475.265	13012
475.343	14444
475.421	13708
475.499	11649
475.577	12730
475.655	14318
475.733	15919
475.811	19317
475.889	18317
475.966	14665
476.044	12546
476.122	12934
476.200	13780
476.278	11786
476.356	11869
476.434	13201
476.512	12761
476.590	13015
476.667	13296
476.745	11976
476.823	13094
476.901	13154
476.979	12484
477.056	12095
477.134	11995
477.212	13578
477.290	12402
477.367	12223
477.445	12400
477.523	12212
477.601	11575
477.678	11981
477.756	12773
477.834	12394
477.911	11893
477.989	12755
478.066	12043
478.144	12166
478.222	12675
478.299	13457
478.377	14439
478.454	13768
478.532	11945
478.609	11635
478.687	12772
478.764	12406
478.842	12167
478.919	11627
478.997	12331
479.074	11989
479.152	12466
479.229	13805
479.307	12158
479.384	12200
479.461	12003
479.539	11964
479.616	13458
479.694	12027
479.771	12791
479.848	12230
479.926	13144
480.003	14335
480.080	12883
480.157	12302
480.235	12396
480.312	12737
480.389	13642
480.467	14672
480.544	16044
480.621	15498
480.698	15263
480.775	15121
480.853	15103
480.930	13623
481.007	14725
481.084	17363
481.161	21524
481.238	15887
481.315	13832
481.392	13703
481.470	13249
481.547	14673
481.624	14819
481.701	14323
481.778	15385
481.855	15441
481.932	18303
482.009	20567
482.086	18670
482.163	20669
482.240	23451
482.317	22315
482.393	21285
482.470	19066
482.547	18535
482.624	17317
482.701	17504
482.778	16695
482.855	18205
482.932	17267
483.009	19555
483.085	22970
483.162	25988
483.239	27028
483.316	23622
483.393	23331
483.469	20968
483.546	19233
483.623	18408
483.699	16909
483.776	15899
483.853	15119
483.930	17698
484.006	21944
484.083	28352
484.160	24886
484.236	30506
484.313	26837
484.389	25656
484.466	28437
484.543	31774
484.619	35468
484.696	37950
484.772	27860
484.849	24557
484.925	21722
485.002	22298
485.078	20414
485.155	19660
485.231	18906
485.308	18283
485.384	19356
485.461	20964
485.537	20754
485.614	23457
485.690	17244
485.766	17621
485.843	17617
485.919	19976
485.995	18756
486.072	17964
486.148	18024
486.224	17105
486.301	17417
486.377	18507
486.453	17013
486.530	20475
486.606	23363
486.682	23030
486.758	24228
486.835	26334
486.911	24159
486.987	30029
487.063	30701
487.139	36506
487.215	37694
487.292	36081
487.368	38211
487.444	46163
487.520	64153
487.596	103868
487.672	260316
487.748	645489
487.824	862005
487.900	346117
487.976	120150
488.052	65903
488.128	47007
488.204	34538
488.280	30449
488.356	28515
488.432	29894
488.508	32879
488.584	22360
488.660	20217
488.736	20100
488.812	19263
488.888	21380
488.964	21606
489.039	26946
489.115	31633
489.191	25449
489.267	19057
489.343	17286
489.418	16144
489.494	16872
489.570	15859
489.646	17700
489.722	17706
489.797	18099
489.873	20940
489.949	24995
490.024	22332
490.100	15977
490.176	18050
490.251	17380
490.327	18289
490.403	16260
490.478	16657
490.554	16136
490.629	15682
490.705	15142
490.781	17423
490.856	14728
490.932	16443
491.007	15752
491.083	15595
491.158	14506
491.234	16205
491.309	20111
491.385	19250
491.460	14981
491.536	16286
491.611	14074
491.686	16063
491.762	16042
491.837	19139
491.913	24403
491.988	29696
492.063	29483
492.139	17419
492.214	15304
492.289	13746
492.365	13134
492.440	14549
492.515	13629
492.590	14317
492.666	13242
492.741	14707
492.816	15584
492.891	13881
492.967	14095
493.042	13430
493.117	12147
493.192	14933
493.267	18379
493.342	29636
493.418	32275
493.493	14295
493.568	13243
493.643	12172
493.718	13699
493.793	13452
493.868	14105
493.943	13907
494.018	13522
494.093	12853
494.168	12754
494.243	11747
494.318	12934
494.393	12634
494.468	11864
494.543	11753
494.618	12485
494.693	11822
494.768	12483
494.842	12232
494.917	12106
494.992	12399
495.067	12215
495.142	12034
495.217	11996
495.292	12995
495.366	12603
495.441	12201
495.516	13406
495.591	16262
495.665	29121
495.740	45868
495.815	22522
495.890	13437
495.964	11040
496.039	15352
496.114	15954
496.188	20427
496.263	17582
496.338	12624
496.412	12239
496.487	12719
496.561	13109
496.636	13528
496.710	13048
496.785	14724
496.860	13106
496.934	11654
497.009	12840
497.083	12541
497.158	12482
497.232	12521
497.307	13999
497.381	12560
497.455	13119
497.530	15006
497.604	13249
497.679	12712
497.753	14486
497.827	15527
497.902	13109
497.976	17258
498.050	36893
498.125	94177
498.199	78868
498.273	16245
498.348	14592
498.422	13793
498.496	13449
498.570	14648
498.645	12379
498.719	11303
498.793	14765
498.867	17103
498.941	20035
499.016	49388
499.090	92859
499.164	33537
499.238	13642
499.312	13851
499.386	13659
499.460	13856
499.534	13882
499.609	14642
499.683	15665
499.757	16820
499.831	28529
499.905	66754
499.979	55162
500.053	16661
500.127	16953
500.201	15038
500.275	13005
500.349	13622
500.422	14414
500.496	16186
500.570	23193
500.644	45393
500.718	63709
500.792	20664
500.866	14851
500.940	14908
501.013	14231
501.087	14848
501.161	17188
501.235	18665
501.309	33856
501.382	60746
501.456	47484
501.530	21179
501.603	24527
501.677	16316
501.751	12638
501.825	15088
501.898	18993
501.972	28937
502.046	20247
502.119	13959
502.193	20112
502.266	29597
502.340	19232
502.413	20641
502.487	28083
502.561	19237
502.634	14874
502.708	14449
502.781	13183
502.855	14160
502.928	12517
503.002	14608
503.075	12734
503.149	14097
503.222	14584
503.295	14946
503.369	16950
503.442	20487
503.516	33030
503.589	54533
503.662	42560
503.736	34136
503.809	50006
503.882	58432
503.956	93540
504.029	181293
504.102	405871
504.175	510991
504.249	235520
504.322	100836
504.395	56207
504.468	38350
504.542	29139
504.615	23821
504.688	20075
504.761	15554
504.834	17323
504.907	15874
504.980	15848
505.053	14325
505.127	12579
505.200	16455
505.273	13624
505.346	12282
505.419	10824
505.492	13578
505.565	11641
505.638	12549
505.711	10130
505.784	10001
505.857	9586
505.930	12411
506.003	9265
506.076	12742
506.149	10756
506.221	10072
506.294	13720
506.367	17151
506.440	32897
506.513	20845
506.586	10417
506.659	9058
506.731	9888
506.804	10225
506.877	10436
506.950	9913
507.022	10930
507.095	9946
507.168	11398
507.241	11371
507.313	9187
507.386	9078
507.459	10630
507.531	9481
507.604	9081
507.677	9086
507.749	8736
507.822	11209
507.894	13049
507.967	15285
508.040	11524
508.112	12157
508.185	11143
508.257	10439
508.330	12636
508.402	10642
508.475	10767
508.547	11755
508.620	10756
508.692	13082
508.765	11716
508.837	10929
508.909	9874
508.982	10190
509.054	11346
509.127	10860
509.199	10452
509.271	9404
509.344	9608
509.416	10286
509.488	9874
509.560	10791
509.633	10456
509.705	10254
509.777	10473
509.849	13009
509.922	10344
509.994	11417
510.066	10525
510.138	10179
510.210	15869
510.283	13607
510.355	13026
510.427	12239
510.499	11479
510.571	11072
510.643	11028
510.715	13512
510.787	10257
510.859	12608
510.931	11457
511.003	12408
511.076	12137
511.148	10049
511.219	11547
511.291	14436
511.363	13013
511.435	11785
511.507	10395
511.579	12274
511.651	11531
511.723	10819
511.795	10521
511.867	10006
511.939	11872
512.010	13550
512.082	12977
512.154	10092
512.226	10282
512.298	13507
512.369	14350
512.441	13470
512.513	12606
512.585	10939
512.656	12016
512.728	11622
512.800	11556
512.871	12181
512.943	11027
513.015	10628
513.086	12166
513.158	11719
513.230	10841
513.301	12582
513.373	12948
513.444	11813
513.516	11518
513.588	11359
513.659	11792
513.731	11744
513.802	10669
513.874	15092
513.945	16075
514.016	11658
514.088	11114
514.159	10997
514.231	13311
514.302	15020
514.374	13214
514.445	12147
514.516	17070
514.588	12650
514.659	12584
514.730	13962
514.802	13990
514.873	9626
514.944	13990
515.016	12670
515.087	11379
515.158	13231
515.229	15562
515.301	11284
515.372	12423
515.443	11388
515.514	12180
515.585	10865
515.656	13505
515.728	12522
515.799	11782
515.870	12376
515.941	12512
516.012	12356
516.083	14421
516.154	14076
516.225	14488
516.296	15936
516.367	14837
516.438	15904
516.509	16755
516.580	25384
516.651	64756
516.722	149855
516.793	64213
516.864	20895
516.935	20943
517.006	22896
517.077	27179
517.148	64450
517.219	220024
517.289	272892
517.360	64016
517.431	27059
517.502	17653
517.573	18682
517.643	17658
517.714	19054
517.785	20463
517.856	21519
517.926	26418
517.997	27632
518.068	29398
518.138	37207
518.209	58789
518.280	192096
518.350	472956
518.421	185185
518.492	65091
518.562	72823
518.633	98671
518.703	167615
518.774	365141
518.845	730893
518.915	585561
518.986	215501
519.056	100726
519.127	68452
519.197	56910
519.268	61723
519.338	43108
519.408	26829
519.479	25015
519.549	21593
519.620	20766
519.690	18053
519.760	17324
519.831	16606
519.901	15336
519.971	15774
520.042	15828
520.112	15561
520.182	16721
520.253	15920
520.323	13845
520.393	15238
520.463	18105
520.534	13622
520.604	21150
520.674	15843
520.744	15644
520.814	20003
520.885	19727
520.955	24255
521.025	45243
521.095	20919
521.165	13856
521.235	12676
521.305	12590
521.375	13534
521.445	14762
521.515	13294
521.585	15419
521.655	13339
521.725	14988
521.795	15142
521.865	11643
521.935	16663
522.005	13054
522.075	14173
522.145	14907
522.215	13790
522.285	14693
522.355	16385
522.424	20591
522.494	18961
522.564	15533
522.634	19420
522.704	30014
522.774	16617
522.843	14094
522.913	14422
522.983	15479
523.053	13842
523.122	15034
523.192	15637
523.262	21143
523.331	19583
523.401	14891
523.471	12865
523.540	13875
523.610	13432
523.680	15317
523.749	15424
523.819	17491
523.888	16386
523.958	14826
524.027	14474
524.097	14855
524.166	15113
524.236	13902
524.305	16114
524.375	13641
524.444	14060
524.514	17617
524.583	15134
524.653	15897
524.722	17026
524.791	15210
524.861	17527
524.930	16635
524.999	16870
525.069	18599
525.138	18669
525.207	18829
525.277	20021
525.346	20902
525.415	24159
525.484	26197
525.554	29187
525.623	35950
525.692	43253
525.761	47427
525.830	57721
525.900	75691
525.969	128506
526.038	254052
526.107	549837
526.176	1188294
526.245	803423
526.314	329479
526.383	685538
526.452	816880
526.522	1118690
526.591	797759
526.660	202542
526.729	117680
526.797	127194
526.867	214936
526.935	624620
527.004	1446635
527.073	771155
527.142	183230
527.211	84554
527.280	55549
527.349	43259
527.418	31619
527.487	29685
527.555	24116
527.624	21252
527.693	21297
527.762	21719
527.831	18313
527.899	20774
527.968	18174
528.037	16759
528.106	18238
528.174	18300
528.243	18927
528.312	19551
528.380	20213
528.449	14876
528.518	18068
528.586	15009
528.655	16897
528.723	15711
528.792	15129
528.861	14983
528.929	13938
528.998	16292
529.066	20632
529.135	27545
529.203	26013
529.272	32099
529.340	37286
529.409	35593
529.477	31136
529.545	31346
529.614	34755
529.682	38644
529.751	41919
529.819	45725
529.887	47834
529.956	45417
530.024	43002
530.092	39170
530.161	40208
530.229	42159
530.297	45363
530.365	44842
530.434	47778
530.502	48021
530.570	42846
530.638	39119
530.707	38520
530.775	37377
530.843	37414
530.911	41444
530.979	41228
531.047	45260
531.115	43285
531.183	40360
531.252	38880
531.320	37400
531.388	37105
531.456	44070
531.524	43208
531.592	46440
531.660	50824
531.728	46153
531.796	43866
531.864	43742
531.932	42620
532.000	43814
532.067	48629
532.135	50145
532.203	53202
532.271	55667
532.339	56788
532.407	57564
532.475	54386
532.542	51474
532.610	51494
532.678	53562
532.746	74575
532.814	91827
532.881	60746
532.949	54634
533.017	50627
533.084	48693
533.152	46845
533.220	47425
533.287	48055
533.355	49292
533.423	50148
533.490	52036
533.558	50854
533.625	49007
533.693	47359
533.761	46638
533.828	46020
533.896	47030
533.963	54100
534.031	56126
534.098	62279
534.166	60832
534.233	55970
534.300	59377
534.368	57029
534.435	55611
534.503	57319
534.570	61733
534.637	64456
534.705	73448
534.772	89411
534.840	180487
534.907	616258
534.974	545401
535.041	109345
535.109	61535
535.176	53282
535.243	52578
535.310	51136
535.378	48655
535.445	48447
535.512	46510
535.579	45906
535.646	44076
535.714	46117
535.781	48488
535.848	48798
535.915	48845
535.982	47877
536.049	46804
536.116	46692
536.183	43771
536.250	41657
536.317	43135
536.384	44353
536.451	44746
536.518	45575
536.585	43111
536.652	46654
536.719	46121
536.786	41384
536.853	41981
536.920	43764
536.987	44492
537.053	42924
537.120	62255
537.187	56348
537.254	45132
537.321	44563
537.388	44992
537.454	41546
537.521	42698
537.588	41850
537.654	42330
537.721	44996
537.788	43661
537.855	42443
537.921	42633
537.988	40713
538.055	40748
538.121	37865
538.188	37384
538.254	37722
538.321	40123
538.388	40146
538.454	43124
538.521	43864
538.587	43971
538.654	42445
538.720	41136
538.787	41895
538.853	40456
538.920	39457
538.986	36825
539.053	35321
539.119	39162
539.185	37977
539.252	41033
539.318	42792
539.385	45983
539.451	41591
539.517	41229
539.583	40891
539.650	44233
539.716	51327
539.782	37880
539.849	36793
539.915	38878
539.981	37536
540.047	38485
540.114	37372
540.180	39954
540.246	40777
540.312	42429
540.378	43014
540.444	42584
540.510	48162
540.576	55785
540.643	40883
540.709	38054
540.775	38693
540.841	37766
540.907	38425
540.973	40661
541.039	39507
541.105	40352
541.171	41615
541.237	41721
541.303	40903
541.369	42975
541.435	41925
541.500	40368
541.566	36213
541.632	36672
541.698	37551
541.764	40675
541.830	37485
541.896	37811
541.961	38340
542.027	38611
542.093	41212
542.159	41606
542.224	38193
542.290	40121
542.356	40690
542.421	39670
542.487	37114
542.553	36467
542.618	37773
542.684	36760
542.750	37520
542.815	39386
542.881	41673
542.947	55735
543.012	45763
543.078	37133
543.143	35436
543.209	38152
543.274	36422
543.340	38588
543.405	43152
543.471	44890
543.536	39324
543.602	39974
543.667	37487
543.732	40235
543.798	40143
543.863	39611
543.928	38276
543.994	38541
544.059	39752
544.124	40634
544.190	40800
544.255	42377
544.320	42188
544.386	41887
544.451	43716
544.516	43188
544.581	43702
544.646	52973
544.712	54636
544.777	44656
544.842	43193
544.907	43508
544.972	43969
545.037	46594
545.102	46842
545.168	47249
545.233	48076
545.298	47734
545.363	49152
545.428	51938
545.493	55124
545.558	59314
545.623	52578
545.688	50955
545.753	53079
545.818	55001
545.883	58464
545.947	58492
546.012	61122
546.077	59787
546.142	64895
546.207	65784
546.272	70709
546.337	71742
546.401	75260
546.466	77765
546.531	79723
546.596	85646
546.661	88493
546.725	93604
546.790	97650
546.855	106862
546.919	114793
546.984	126114
547.049	135993
547.113	152905
547.178	169714
547.243	188163
547.307	219560
547.372	237583
547.436	238712
547.501	251985
547.565	264438
547.630	240834
547.695	236489
547.759	237625
547.823	241563
547.888	244544
547.952	251656
548.017	261398
548.081	268945
548.146	263597
548.210	272573
548.274	291231
548.339	278270
548.403	257876
548.468	244064
548.532	244700
548.596	249501
548.660	252668
548.725	276256
548.789	293377
548.853	279312
548.917	274325
548.982	262010
549.046	237254
549.110	218989
549.174	230607
549.238	267302
549.303	287705
549.367	292420
549.431	276469
549.495	261496
549.559	268945
549.623	306476
549.687	323066
549.751	326330
549.815	378073
549.879	375804
549.943	366294
550.007	382078
550.071	373164
550.135	338821
550.199	329946
550.263	321029
550.327	308851
550.391	320744
550.455	352252
550.519	364291
550.582	389027
550.646	430187
550.710	433936
550.774	428394
550.838	436405
550.901	450476
550.965	473505
551.029	499950
551.093	537172
551.156	592420
551.220	654543
551.284	653011
551.347	532134
551.411	478528
551.475	461630
551.538	462526
551.602	426700
551.666	411016
551.729	388700
551.793	385123
551.856	375091
551.920	372359
551.983	372891
552.047	368124
552.110	372837
552.174	377340
552.237	381388
552.301	356739
552.364	342425
552.428	335122
552.491	351448
552.554	349026
552.618	349439
552.681	352376
552.745	340574
552.808	356668
552.871	372745
552.934	363291
552.998	350996
553.061	344283
553.124	333602
553.187	334570
553.251	343215
553.314	342694
553.377	347970
553.440	371154
553.503	390692
553.567	389460
553.630	370470
553.693	366879
553.756	369657
553.819	361205
553.882	351011
553.945	353340
554.008	355573
554.071	358249
554.134	357506
554.197	339944
554.260	331799
554.323	339952
554.386	348238
554.449	360633
554.512	354693
554.575	344541
554.638	341618
554.701	337791
554.764	336508
554.827	325180
554.889	315534
554.952	297595
555.015	296654
555.078	301084
555.141	304191
555.203	296986
555.266	296838
555.329	296140
555.391	287734
555.454	279729
555.517	272794
555.580	265354
555.642	256084
555.705	254533
555.768	253140
555.830	244437
555.893	232353
555.955	226184
556.018	225829
556.080	226819
556.143	230167
556.206	227157
556.268	223493
556.330	219858
556.393	213066
556.455	207029
556.518	207006
556.580	198675
556.643	191154
556.705	189762
556.767	185104
556.830	184846
556.892	180618
556.955	177781
557.017	172609
557.079	172846
557.142	169314
557.204	167050
557.266	170950
557.328	157313
557.391	148882
557.453	145545
557.515	143555
557.577	146929
557.639	145650
557.701	147564
557.764	144067
557.826	145337
557.888	147398
557.950	153634
558.012	167881
558.074	223373
558.136	486043
558.198	783853
558.260	297576
558.322	164980
558.384	158283
558.446	162251
558.508	169427
558.570	184012
558.632	212908
558.694	279360
558.756	487368
558.818	1175768
558.880	1575808
558.942	875672
559.003	891711
559.065	398442
559.127	208612
559.189	192460
559.251	213378
559.312	315020
559.374	727684
559.436	1352986
559.498	635671
559.559	242999
559.621	192815
559.683	220354
559.744	373728
559.806	956296
559.868	946453
559.929	301554
559.991	223995
560.052	389854
560.114	812130
560.176	471387
560.237	578602
560.299	647235
560.360	174289
560.422	95149
560.483	82036
560.545	77420
560.606	73366
560.667	69821
560.729	68040
560.790	63767
560.852	63033
560.913	61384
560.974	60615
561.036	59940
561.097	61041
561.158	59612
561.220	57415
561.281	55065
561.342	53815
561.403	53242
561.465	55514
561.526	59659
561.587	59574
561.648	51578
561.709	51790
561.771	50050
561.832	49325
561.893	48272
561.954	48781
562.015	48100
562.076	46668
562.137	45062
562.198	46602
562.259	46605
562.320	46964
562.381	46236
562.442	46621
562.503	44344
562.564	44117
562.625	43847
562.686	42889
562.747	43124
562.808	42751
562.869	42837
562.930	42386
562.991	40967
563.051	40837
563.112	41071
563.173	40501
563.234	39603
563.294	39197
563.355	38924
563.416	39180
563.477	39334
563.537	38410
563.598	37930
563.659	38740
563.720	37601
563.780	37914
563.841	38591
563.901	37809
563.962	37807
564.023	37153
564.083	37028
564.144	36552
564.204	36259
564.265	35978
564.325	36455
564.386	38954
564.446	37150
564.507	35026
564.567	36013
564.628	35514
564.688	34756
564.749	34907
564.809	35900
564.869	35186
564.930	33543
564.990	34764
565.050	33856
565.111	34654
565.171	33902
565.231	34404
565.292	35082
565.352	33428
565.412	33686
565.472	34043
565.532	33641
565.593	32552
565.653	33558
565.713	34015
565.773	34091
565.833	35393
565.893	36148
565.953	32910
566.013	33101
566.074	32862
566.134	32845
566.194	33924
566.254	33873
566.314	32270
566.374	32037
566.434	31145
566.494	32425
566.554	31950
566.614	31989
566.673	33718
566.733	34027
566.793	33355
566.853	34180
566.913	34104
566.973	32950
567.033	33992
567.092	32766
567.152	33109
567.212	33326
567.272	34163
567.331	35137
567.391	34572
567.451	36374
567.511	37025
567.570	35370
567.630	34185
567.690	33936
567.749	33120
567.809	34230
567.868	33153
567.928	32055
567.988	33993
568.047	33434
568.107	32964
568.166	32773
568.226	33929
568.285	34182
568.345	34810
568.404	34685
568.464	33529
568.523	32521
568.582	33973
568.642	33585
568.701	32238
568.761	32662
568.820	32002
568.879	32403
568.939	34311
568.998	33916
569.057	33740
569.116	33026
569.176	32913
569.235	32988
569.294	32905
569.353	32044
569.413	31709
569.472	31261
569.531	31121
569.590	30381
569.649	31609
569.708	31429
569.767	32545
569.827	31774
569.886	31836
569.945	30891
570.004	32545
570.063	32034
570.122	33157
570.181	33202
570.240	34243
570.299	34171
570.358	33817
570.417	33158
570.475	33739
570.534	34313
570.593	33653
570.652	34382
570.711	34241
570.770	32557
570.829	33727
570.887	33925
570.946	34830
571.005	34103
571.064	34112
571.122	33682
571.181	33223
571.240	32487
571.299	31957
571.357	30805
571.416	32208
571.475	32446
571.533	34493
571.592	35109
571.650	35201
571.709	36278
571.768	40176
571.826	39637
571.885	38319
571.943	34160
572.002	34132
572.060	32573
572.119	31619
572.177	31693
572.236	33101
572.294	32745
572.352	34335
572.411	35291
572.469	34328
572.528	31950
572.586	32271
572.644	32525
572.703	30889
572.761	31634
572.819	31132
572.877	29284
572.936	30495
572.994	28672
573.052	31119
573.110	30927
573.169	31963
573.227	30423
573.285	32321
573.343	30073
573.401	30129
573.459	30716
573.517	32058
573.576	32141
573.634	32680
573.692	31951
573.750	31509
573.808	30890
573.866	29914
573.924	29714
573.982	30199
574.040	29122
574.098	29677
574.155	29138
574.213	28849
574.271	30173
574.329	32915
574.387	29551
574.445	28167
574.503	26973
574.560	27710
574.618	27229
574.676	28630
574.734	27772
574.792	27547
574.849	26459
574.907	25342
574.965	23550
575.022	23560
575.080	23397
575.138	23643
575.195	23328
575.253	23305
575.311	23453
575.368	22269
575.426	22124
575.483	24399
575.541	23829
575.598	23421
575.656	24839
575.713	25598
575.771	26107
575.828	24485
575.886	23921
575.943	23951
576.001	22313
576.058	22576
576.115	21788
576.173	23488
576.230	24252
576.287	25417
576.345	23872
576.402	24267
576.459	24825
576.517	23684
576.574	22561
576.631	22763
576.688	21752
576.746	21694
576.803	21447
576.860	20813
576.917	21949
576.974	22741
577.031	22695
577.089	22250
577.146	20950
577.203	20386
577.260	21687
577.317	21013
577.374	21126
577.431	21517
577.488	20703
577.545	20499
577.602	21203
577.659	21635
577.716	21443
577.773	21878
577.830	20279
577.886	21848
577.943	21039
578.000	21591
578.057	21097
578.114	22101
578.171	22672
578.227	25462
578.284	24435
578.341	23755
578.398	22950
578.454	22495
578.511	21814
578.568	22483
578.625	21451
578.681	20864
578.738	21429
578.794	21481
578.851	21907
578.908	21238
578.964	21151
579.021	22121
579.077	21479
579.134	23111
579.190	21494
579.247	21612
579.303	20818
579.360	21548
579.416	21362
579.473	21195
579.529	21463
579.586	21741
579.642	22029
579.698	22322
579.755	21954
579.811	22369
579.867	23337
579.924	23266
579.980	23983
580.036	25454
580.093	27426
580.149	31407
580.205	32001
580.261	29314
580.317	28168
580.374	27136
580.430	26300
580.486	24599
580.542	24652
580.598	25114
580.619	25041
580.654	24945
580.692	25178
580.710	25339
580.765	24803
580.767	24815
580.823	25872
580.838	25885
580.879	26015
580.911	26401
580.935	26742
580.984	26197
580.991	26154
581.047	26481
581.057	26289
581.103	25559
581.130	26345
581.159	27225
581.203	27051
581.215	27046
581.270	26155
581.276	26097
581.326	25662
581.349	25219
581.382	24673
581.422	25242
581.438	25482
581.494	25813
581.494	25785
581.550	24923
581.567	25223
581.606	25843
581.640	25593
581.661	25547
581.713	25562
581.717	25574
581.773	26814
581.786	26412
581.829	25114
581.859	25665
581.885	26179
581.932	26038
581.940	26042
581.996	26456
582.004	26507
582.052	26645
582.077	26421
582.107	26358
582.150	26359
582.163	26309
582.219	25981
582.223	25925
582.274	25646
582.296	26010
582.330	26430
582.368	26467
582.386	26640
582.441	27444
582.441	27452
582.497	27589
582.514	27415
582.552	27416
582.587	27891
582.608	28055
582.659	28286
582.663	28320
582.719	28602
582.732	28523
582.774	28391
582.805	29147
582.830	29761
582.877	30658
582.885	30844
582.941	32460
582.950	32829
582.996	34543
583.023	36252
583.052	38308
583.095	37836
583.107	37617
583.162	38085
583.168	37945
583.218	36403
583.240	34787
583.273	32484
583.313	31092
583.328	30629
583.384	30077
583.385	30048
583.439	28969
583.458	29067
583.494	29529
583.531	28818
583.549	28418
583.603	28140
583.605	28118
583.660	27604
583.676	27662
583.715	28194
583.748	28164
583.770	27983
583.820	28277
583.825	28305
583.881	28482
583.893	28157
583.936	27286
583.965	27726
583.991	27980
584.038	28341
584.046	28382
584.101	28453
584.110	28441
584.156	28646
584.183	28608
584.211	28331
584.255	29233
584.266	29597
584.321	30449
584.328	30497
584.376	30497
584.400	30464
584.431	30394
584.472	30842
584.486	30973
584.541	32328
584.545	32349
584.596	32960
584.617	33261
584.651	33650
584.689	34234
584.706	34376
584.761	35121
584.762	35140
584.816	36568
584.834	36710
584.871	36931
584.906	37678
584.926	38101
584.978	39792
584.980	39857
585.035	41799
585.051	42376
585.090	43866
585.123	45668
585.145	47049
585.195	49802
585.200	50122
585.254	55513
585.267	57262
585.309	63110
585.340	67157
585.364	70805
585.412	82297
585.419	84206
585.473	103856
585.484	110252
585.528	142922
585.556	179585
585.583	234670
585.628	374631
585.637	417274
585.692	794838
585.700	833446
585.747	952069
585.772	831896
585.801	565578
585.845	269373
585.856	225619
585.910	121688
585.917	112454
585.965	84130
585.989	74976
586.019	68035
586.061	61391
586.074	59748
586.128	54405
586.133	53960
586.183	50548
586.205	50063
586.237	48848
586.277	46195
586.292	45572
586.346	45066
586.349	45032
586.401	43472
586.421	42956
586.455	42839
586.493	43197
586.509	43426
586.564	44215
586.565	44277
586.618	48610
586.637	50057
586.672	52418
586.709	56449
586.727	58649
586.781	62543
586.781	62524
586.835	52428
586.853	49976
586.889	45857
586.925	42158
586.944	40917
586.996	40800
586.998	40820
587.052	40664
587.068	40645
587.106	40453
587.140	40268
587.161	40437
587.212	41331
587.215	41338
587.269	41073
587.284	40935
587.323	41395
587.356	42329
587.377	42618
587.427	43085
587.431	43149
587.485	44139
587.499	44268
587.539	44654
587.571	45137
587.593	45859
587.643	48206
587.648	48336
587.702	48012
587.715	47999
587.755	47674
587.786	48013
587.810	48581
587.858	48907
587.864	48944
587.917	49648
587.930	49646
587.971	49375
588.001	49587
588.025	49635
588.073	49151
588.079	49114
588.133	48667
588.145	48674
588.187	49546
588.217	49831
588.241	49831
588.288	50538
588.295	50732
588.348	52215
588.360	52356
588.402	52280
588.431	52384
588.456	52815
588.503	54404
588.510	54776
588.564	57327
588.575	57987
588.617	60226
588.646	61403
588.671	62856
588.718	67072
588.725	68077
588.778	78729
588.789	81708
588.832	108177
588.861	131765
588.886	180236
588.932	292034
588.939	303937
588.993	359720
589.004	357102
589.047	196262
589.075	110900
589.100	91433
589.147	66509
589.154	65840
589.207	61394
589.218	60744
589.261	61714
589.290	62813
589.314	64131
589.361	67747
589.368	69066
589.421	82801
589.433	86741
589.475	131939
589.504	170612
589.528	220494
589.576	313447
589.582	304382
589.635	164628
589.647	139843
589.689	90846
589.718	61770
589.742	59678
589.790	56523
589.795	56495
589.849	55745
589.861	55843
589.902	56101
589.932	55601
589.955	54982
590.004	53781
590.009	53787
590.062	53888
590.075	53786
590.115	52662
590.146	51929
590.168	52424
590.218	53546
590.222	53596
590.275	53891
590.289	53975
590.328	55683
590.360	56647
590.381	56739
590.431	57253
590.435	57313
590.488	57467
590.503	57483
590.541	57913
590.574	58337
590.594	59085
590.645	60891
590.647	60972
590.700	61869
590.716	62180
590.753	63729
590.787	64858
590.806	65478
590.859	67313
590.859	67377
590.912	67892
590.930	68160
590.965	68595
591.001	68852
591.018	68693
591.071	67978
591.072	67916
591.124	66913
591.143	66719
591.177	67643
591.214	68522
591.230	69156
591.283	70876
591.285	70873
591.336	69825
591.356	69429
591.389	69318
591.427	68975
591.442	68710
591.495	67618
591.498	67479
591.547	68217
591.569	68578
591.600	69293
591.640	69988
591.653	70414
591.706	71846
591.711	71964
591.759	73806
591.782	74681
591.811	75706
591.853	76966
591.864	77052
591.917	76935
591.924	76867
591.969	77270
591.995	77443
592.022	78084
592.066	78917
592.075	79313
592.127	81423
592.137	81736
592.180	82479
592.208	82840
592.233	83776
592.279	85377
592.285	85712
592.338	87904
592.350	88302
592.390	87327
592.421	86525
592.443	87584
592.491	89604
592.495	89737
592.548	90420
592.562	90520
592.600	91235
592.633	91702
592.653	91529
592.704	90340
592.705	90903
592.775	93315
592.846	96337
592.916	96281
592.987	95977
593.058	98028
593.128	98347
593.199	99740
593.270	100417
593.341	102543
593.411	105130
593.482	107299
593.553	111669
593.623	112188
593.694	115633
593.764	118677
593.835	116751
593.906	118567
593.976	119762
594.047	124578
594.117	129834
594.188	133836
594.258	131306
594.329	132727
594.399	137530
594.470	139983
594.540	144136
594.611	147315
594.681	145742
594.751	145735
594.822	152269
594.892	156984
594.963	162128
595.033	164966
595.103	169054
595.174	171418
595.244	179152
595.314	182914
595.384	185935
595.455	189904
595.525	195909
595.595	203019
595.665	202265
595.736	199016
595.806	203062
595.876	205725
595.946	206234
596.016	214703
596.087	222359
596.157	223365
596.227	221213
596.297	237717
596.367	247656
596.437	260890
596.507	260021
596.577	260279
596.647	267986
596.717	278608
596.787	284336
596.857	284342
596.927	287007
596.997	288498
597.067	291457
597.137	296104
597.207	296537
597.277	297809
597.347	288695
597.417	281092
597.487	280380
597.557	286931
597.626	293348
597.696	297459
597.766	296138
597.836	282250
597.906	268979
597.975	267115
598.045	270620
598.115	282773
598.185	301024
598.254	329515
598.324	356115
598.394	361342
598.464	351465
598.533	346352
598.603	327589
598.672	317673
598.742	325687
598.812	326674
598.881	334213
598.951	333259
599.020	339233
599.090	350118
599.159	354274
599.229	343359
599.299	336943
599.368	345810
599.437	343022
599.507	321023
599.576	311144
599.646	311724
599.715	305397
599.785	303815
599.854	298882
599.924	296642
599.993	296052
600.062	301855
600.132	308867
600.201	326514
600.270	367057
600.340	384735
600.409	379268
600.478	376756
600.547	385969
600.617	354973
600.686	299339
600.755	278558
600.824	267481
600.894	265038
600.963	268487
601.032	267654
601.101	260814
601.170	253300
601.239	246478
601.308	249745
601.378	252482
601.447	253877
601.516	257921
601.585	258339
601.654	264383
601.723	268794
601.792	274564
601.861	283566
601.930	290828
601.999	298919
602.068	294822
602.137	299371
602.206	301421
602.275	306575
602.343	308772
602.412	309073
602.481	312573
602.550	314935
602.619	322436
602.688	324179
602.756	329436
602.825	328689
602.894	338778
602.963	340691
603.032	344794
603.100	344557
603.169	343492
603.238	351537
603.307	345765
603.375	348671
603.444	357616
603.513	351121
603.581	359344
603.650	369571
603.719	342058
603.787	348291
603.856	356989
603.924	362902
603.993	372158
604.061	383031
604.130	396671
604.198	403502
604.267	407439
604.335	414831
604.404	419759
604.472	425713
604.541	429399
604.609	436151
604.678	436921
604.746	442583
604.815	454828
604.883	457761
604.951	448815
605.020	461008
605.088	457689
605.156	458435
605.225	464633
605.293	465567
605.361	466458
605.429	466874
605.498	479375
605.566	481828
605.634	505105
605.702	516860
605.771	529824
605.839	532242
605.907	515173
605.975	506650
606.043	497302
606.111	496400
606.180	502746
606.248	486822
606.316	483149
606.384	490732
606.452	472294
606.520	467910
606.588	484402
606.656	485444
606.724	477359
606.792	455076
606.860	417671
606.928	383999
606.996	371740
607.064	365448
607.132	376929
607.200	395437
607.267	409000
607.335	413671
607.403	421449
607.471	409794
607.539	398730
607.607	397251
607.674	358264
607.742	357334
607.810	355413
607.878	353936
607.946	362496
608.013	376815
608.081	382768
608.149	385300
608.216	400063
608.284	408232
608.352	410739
608.419	408690
608.487	396838
608.555	391487
608.622	401362
608.690	426541
608.757	461164
608.825	467130
608.893	457948
608.960	435880
609.028	419039
609.095	418842
609.163	419078
609.230	378122
609.298	351634
609.365	373854
609.432	396920
609.500	426112
609.567	477174
609.635	529560
609.702	550944
609.769	528370
609.837	426227
609.904	379987
609.971	390412
610.039	415612
610.106	489702
610.173	740761
610.241	1309957
610.308	935058
610.375	497651
610.442	418020
610.509	396009
610.577	395684
610.644	399596
610.711	411867
610.778	420194
610.845	435318
610.912	458510
610.980	472214
611.047	472516
611.114	464956
611.181	454866
611.248	455126
611.315	473833
611.382	485075
611.449	498102
611.516	506631
611.583	499849
611.650	502661
611.717	509923
611.784	516514
611.851	533428
611.918	550205
611.984	610663
612.051	741527
612.118	1093188
612.185	1828224
612.252	1454604
612.319	766020
612.386	651091
612.452	596774
612.519	567626
612.586	557256
612.653	564734
612.719	579430
612.786	558713
612.853	529211
612.919	517380
612.986	526976
613.053	500844
613.120	474647
613.186	459202
613.253	466763
613.319	464859
613.386	464620
613.453	474741
613.519	475725
613.586	469827
613.652	475341
613.719	472727
613.785	476874
613.852	480769
613.918	479086
613.985	484608
614.051	499967
614.118	494700
614.184	479838
614.250	478001
614.317	487909
614.383	482682
614.449	491901
614.516	485011
614.582	488357
614.648	483586
614.715	480593
614.781	470028
614.847	470966
614.914	469594
614.980	459256
615.046	463379
615.112	475574
615.179	475236
615.245	480757
615.311	472964
615.377	474773
615.443	486570
615.509	487344
615.575	501512
615.642	499910
615.708	507032
615.774	528823
615.840	550104
615.906	573984
615.972	640560
616.038	809211
616.104	1259931
616.170	1992170
616.236	1825493
616.302	989974
616.368	800155
616.434	642528
616.500	591925
616.565	624098
616.631	736174
616.697	656788
616.763	650762
616.829	835617
616.895	1267791
616.961	1242238
617.026	728513
617.092	555564
617.158	516370
617.224	504387
617.289	472728
617.355	453638
617.421	447983
617.487	449465
617.552	429103
617.618	426298
617.684	427414
617.749	427887
617.815	416281
617.880	407469
617.946	406857
618.012	416023
618.077	422424
618.143	406127
618.208	409418
618.274	432775
618.339	434557
618.405	376662
618.470	374962
618.536	377453
618.601	372340
618.667	351680
618.732	339182
618.798	336334
618.863	333832
618.928	331271
618.994	335071
619.059	333027
619.124	335269
619.190	333006
619.255	331731
619.320	331917
619.386	334312
619.451	330484
619.516	322081
619.581	329998
619.647	338967
619.712	338109
619.777	327198
619.842	327866
619.907	334473
619.972	336652
620.038	335490
620.103	328744
620.168	330495
620.233	337034
620.298	336306
620.363	341965
620.428	347471
620.493	351101
620.558	356138
620.623	361093
620.688	359924
620.753	356680
620.818	363488
620.883	363683
620.948	366206
621.013	362208
621.078	359171
621.143	361946
621.207	363542
621.272	359509
621.337	351018
621.402	349482
621.467	345588
621.532	349925
621.596	349927
621.661	340058
621.726	337748
621.791	340848
621.855	341445
621.920	339363
621.985	341905
622.049	350154
622.114	351085
622.179	352420
622.243	358935
622.308	367799
622.373	377086
622.437	370234
622.502	356244
622.566	354506
622.631	352532
622.695	360676
622.760	355274
622.824	354812
622.889	355079
622.953	359979
623.018	374727
623.082	376480
623.147	371691
623.211	364601
623.276	365189
623.340	353543
623.404	349119
623.469	344335
623.533	349194
623.597	342315
623.662	342725
623.726	324156
623.790	309976
623.854	302395
623.919	303457
623.983	308918
624.047	314034
624.111	315958
624.176	320204
624.240	322466
624.304	328437
624.368	319437
624.432	319239
624.496	323533
624.560	336190
624.625	336126
624.689	335189
624.753	345424
624.817	333514
624.881	325100
624.945	300373
625.009	296056
625.073	298018
625.137	302728
625.201	312599
625.265	314972
625.329	300381
625.393	305272
625.456	305379
625.520	313953
625.584	315208
625.648	323128
625.712	325947
625.776	328175
625.839	313911
625.903	274150
625.967	257437
626.031	270975
626.095	307710
626.158	287864
626.222	239048
626.286	225831
626.349	219109
626.413	206652
626.477	204702
626.540	207689
626.604	203833
626.668	200852
626.731	197715
626.795	197751
626.858	196821
626.922	194724
626.986	191302
627.049	192201
627.113	198598
627.176	190939
627.240	185951
627.303	184611
627.366	182614
627.430	186660
627.493	182212
627.557	177963
627.620	182279
627.684	189717
627.747	188185
627.810	173438
627.874	158971
627.937	153698
628.000	158897
628.064	154670
628.127	140860
628.190	139894
628.253	135779
628.317	132985
628.380	125729
628.443	123238
628.506	122700
628.569	118573
628.632	114028
628.696	113455
628.759	112719
628.822	107123
628.885	103927
628.948	103635
629.011	101833
629.074	99285
629.137	96776
629.200	94535
629.263	93270
629.326	91443
629.389	91383
629.452	90021
629.515	88398
629.578	88963
629.641	88739
629.704	89047
629.767	87657
629.830	85073
629.892	84003
629.955	81850
630.018	83708
630.081	82331
630.144	83368
630.207	79799
630.269	82692
630.332	78864
630.395	77592
630.458	76758
630.520	73405
630.583	74668
630.646	74285
630.708	76117
630.771	76328
630.834	80703
630.896	77881
630.959	78634
631.021	74820
631.084	74991
631.146	75434
631.209	75862
631.272	73584
631.334	77775
631.397	76929
631.459	77372
631.522	78980
631.584	80093
631.646	83731
631.709	86056
631.771	84357
631.834	83458
631.896	79381
631.958	76896
632.021	75723
632.083	73134
632.145	72250
632.208	71924
632.270	71248
632.332	69154
632.395	70455
632.457	71340
632.519	69064
632.581	69580
632.643	68229
632.706	69747
632.768	66483
632.830	69336
632.892	70891
632.954	71008
633.016	72355
633.078	70502
633.141	69902
633.203	70769
633.265	69517
633.327	69553
633.389	69193
633.451	70907
633.513	69396
633.575	71893
633.637	69160
633.698	71054
633.760	73525
633.822	76880
633.884	76906
633.946	78529
634.008	80039
634.070	82807
634.132	85513
634.193	90427
634.255	96716
634.317	96781
634.379	93905
634.441	87833
634.502	82870
634.564	78372
634.626	73589
634.687	70197
634.749	68392
634.811	68120
634.873	66355
634.934	68608
634.996	67441
635.057	67006
635.119	68216
635.181	69654
635.242	69416
635.304	68858
635.365	72429
635.427	69255
635.488	69846
635.550	68550
635.611	70369
635.673	69372
635.734	74108
635.796	76741
635.857	81425
635.918	85225
635.980	92854
636.041	95941
636.102	101040
636.164	100337
636.225	97618
636.286	87542
636.348	80935
636.409	76015
636.470	70588
636.531	69945
636.593	68274
636.654	66398
636.715	65015
636.776	64695
636.838	61682
636.899	62501
636.960	61800
637.021	61828
637.082	59402
637.143	58522
637.204	58229
637.265	59559
637.326	59285
637.387	61502
637.448	58989
637.509	58979
637.570	60113
637.631	60104
637.692	56974
637.753	56167
637.814	56640
637.875	56170
637.936	57229
637.997	55634
638.058	56976
638.119	57073
638.179	56948
638.240	56986
638.301	56105
638.362	54060
638.423	54445
638.483	54616
638.544	52893
638.605	54923
638.666	53359
638.726	54715
638.787	53686
638.848	54628
638.908	52673
638.969	51173
639.030	50553
639.090	50794
639.151	51944
639.211	52636
639.272	52442
639.332	53696
639.393	53786
639.453	55172
639.514	56900
639.574	53316
639.635	49940
639.695	49762
639.756	48873
639.816	49663
639.877	49035
639.937	50796
639.997	49791
640.058	47864
640.118	48525
640.178	50139
640.239	48330
640.299	48927
640.359	49565
640.420	52103
640.480	56645
640.540	60915
640.600	61500
640.661	57652
640.721	53886
640.781	56750
640.841	52672
640.901	50884
640.961	50014
641.021	51498
641.082	52933
641.142	50237
641.202	49299
641.262	45745
641.322	48152
641.382	47289
641.442	46965
641.502	46614
641.562	47942
641.622	48442
641.682	51026
641.742	54575
641.802	52710
641.861	49112
641.921	45085
641.981	46501
642.041	44293
642.101	44616
642.161	42138
642.221	43836
642.280	43966
642.340	44370
642.400	44089
642.460	47047
642.519	44943
642.579	45480
642.639	46531
642.698	44008
642.758	48868
642.818	47108
642.877	45411
642.937	46537
642.997	46764
643.056	46415
643.116	44826
643.175	48162
643.235	47568
643.294	49295
643.354	50783
643.414	54121
643.473	59309
643.532	67609
643.592	80906
643.651	112740
643.711	171955
643.770	298507
643.830	620891
643.889	1050997
643.948	401370
644.008	122733
644.067	79378
644.126	63035
644.186	55549
644.245	51543
644.304	47044
644.363	47602
644.423	43725
644.482	46728
644.541	48867
644.600	48693
644.659	56279
644.719	67005
644.778	89292
644.837	134568
644.896	249763
644.955	503563
645.014	203514
645.073	68565
645.132	54025
645.191	51640
645.250	47639
645.309	51168
645.368	55485
645.427	66943
645.486	104702
645.545	166611
645.604	64403
645.663	46271
645.722	45768
645.781	47776
645.840	51943
645.898	59186
645.957	75035
646.016	102230
646.075	161111
646.134	281337
646.192	632924
646.251	838187
646.310	226684
646.369	88660
646.427	71936
646.486	58268
646.545	47634
646.603	44257
646.662	41351
646.721	42484
646.779	40644
646.838	42528
646.896	49458
646.955	61779
647.014	87037
647.072	151659
647.131	364936
647.189	195300
647.248	49615
647.306	40359
647.365	37131
647.423	32610
647.481	35568
647.540	32594
647.598	32771
647.657	32224
647.715	32391
647.773	31268
647.832	31722
647.890	28555
647.948	29345
648.007	28334
648.065	26947
648.123	27611
648.181	29180
648.240	28201
648.298	26267
648.356	27509
648.414	27187
648.472	26213
648.531	26874
648.589	26155
648.647	26087
648.705	26443
648.763	25957
648.821	27301
648.879	26451
648.937	30528
648.995	33605
649.053	39263
649.111	53358
649.169	79992
649.227	128549
649.285	252580
649.343	609944
649.401	333316
649.459	69688
649.516	43184
649.574	33718
649.632	36463
649.690	39948
649.748	45044
649.806	60571
649.863	105640
649.921	267934
649.979	190271
650.037	38428
650.094	25604
650.152	24328
650.210	21549
650.268	23036
650.325	21624
650.383	21770
650.440	19711
650.498	19598
650.556	19424
650.613	18614
650.671	19465
650.728	18858
650.786	20426
650.843	27048
650.901	20509
650.958	17544
651.016	17716
651.073	16606
651.131	16558
651.188	15656
651.246	16426
651.303	15312
651.360	15794
651.418	14197
651.475	15315
651.532	15352
651.590	16508
651.647	13913
651.704	13947
651.762	15284
651.819	15784
651.876	14145
651.933	14273
651.990	15094
652.048	12684
652.105	13483
652.162	13835
652.219	12472
652.276	13168
652.333	13891
652.390	11924
652.448	12782
652.505	13894
652.562	12984
652.619	12734
652.676	13387
652.733	14433
652.790	12166
652.847	12155
652.904	12314
652.961	11971
653.017	10564
653.074	12631
653.131	12312
653.188	12039
653.245	11780
653.302	12135
653.359	11590
653.415	12903
653.472	11420
653.529	12753
653.586	11494
653.642	12306
653.699	12794
653.756	10947
653.813	11248
653.869	12434
653.926	11253
653.983	11735
654.039	11882
654.096	11864
654.152	12035
654.209	11015
654.266	12415
654.322	11223
654.379	11891
654.435	11917
654.492	11019
654.548	12033
654.605	11013
654.661	12281
654.717	11153
654.774	11307
654.830	11436
654.887	11610
654.943	11379
655.000	11785
655.056	11536
655.112	10438
655.168	9948
655.225	11423
655.281	12560
655.337	12145
655.394	10600
655.450	10711
655.506	10339
655.562	10976
655.618	11716
655.675	10466
655.731	9634
655.787	10754
655.843	11042
655.899	9594
655.955	11336
656.011	11400
656.067	9952
656.123	10615
656.179	9736
656.235	11634
656.291	9572
656.347	12021
656.403	10033
656.459	10227
656.515	10088
656.571	10297
656.627	10677
656.683	10665
656.739	10224
656.795	10302
656.850	10455
656.906	11233
656.962	11950
657.018	11470
657.074	13256
657.129	18480
657.185	25950
657.241	55914
657.297	33830
657.352	12647
657.408	10484
657.464	10954
657.519	8483
657.575	9229
657.630	9087
657.686	9035
657.742	8937
657.797	9538
657.853	9116
657.908	10141
657.964	7827
658.019	9415
658.075	8892
658.130	9233
658.186	8300
658.241	10245
658.297	8509
658.352	8826
658.407	8922
658.463	8448
658.518	9506
658.573	9059
658.629	8514
658.684	9506
658.739	9176
658.795	8741
658.850	9111
658.905	8818
658.960	9068
659.016	7693
659.071	8395
659.126	9464
659.181	8387
659.236	9471
659.291	9599
659.346	9138
659.401	8851
659.457	10127
659.512	8536
659.567	9942
659.622	8363
659.677	8097
659.732	7694
659.787	9437
659.842	8088
659.897	8148
659.952	8271
660.007	8227
660.061	7999
660.116	8050
660.171	7361
660.226	8548
660.281	8747
660.336	7910
660.391	8564
660.445	7364
660.500	8509
660.555	8061
660.610	7408
660.664	8530
660.719	8208
660.774	7857
660.828	8306
660.883	8555
660.938	7440
660.992	6972
661.047	7131
661.101	8406
661.156	7856
661.211	7491
661.265	7347
661.320	7993
661.374	7590
661.429	7801
661.483	7825
661.538	6297
661.592	7772
661.647	7611
661.701	9647
661.755	8523
661.810	7724
661.864	7221
661.919	6707
661.973	7939
662.027	7312
662.081	7225
662.136	7095
662.190	7886
662.244	8276
662.299	6994
662.353	7718
662.407	7656
662.461	7211
662.515	7735
662.569	7137
662.624	8276
662.678	7098
662.732	6797
662.786	7131
662.840	7824
662.894	7094
662.948	7625
663.002	6773
663.056	7316
663.110	6270
663.164	7179
663.218	7543
663.272	7220
663.326	8058
663.380	7654
663.434	7033
663.488	6313
663.542	7492
663.595	7150
663.649	7337
663.703	7049
663.757	7397
663.811	6731
663.864	7143
663.918	8016
663.972	7363
664.026	8298
664.079	6163
664.133	7806
664.187	7219
664.240	7310
664.294	6921
664.348	8206
664.401	7249
664.455	7074
664.508	6401
664.562	7913
664.615	7127
664.669	6369
664.722	6382
664.776	6653
664.829	6736
664.883	6825
664.936	6507
664.990	7476
665.043	7124
665.097	7441
665.150	7584
665.203	7995
665.257	7137
665.310	7875
665.363	7713
665.417	8035
665.470	6913
665.523	8107
665.576	7273
665.630	8775
665.683	7259
665.736	8118
665.789	7135
665.842	6814
665.895	7183
665.949	7900
666.002	7179
666.055	7581
666.108	8126
666.161	7328
666.214	7813
666.267	6792
666.320	7744
666.373	8185
666.426	7770
666.479	8745
666.532	7822
666.585	8934
666.638	8832
666.691	8596
666.744	8150
666.796	7894
666.849	7342
666.902	8363
666.955	7492
667.008	8589
667.060	7881
667.113	7361
667.166	8045
667.219	8500
667.271	8802
667.324	8693
667.377	8698
667.430	8130
667.482	7632
667.535	8142
667.587	7366
667.640	7861
667.693	7515
667.745	8356
667.798	8193
667.850	7358
667.903	8084
667.955	8892
668.008	7898
668.060	8483
668.113	7722
668.165	8619
668.218	7374
668.270	7983
668.322	6946
668.375	7711
668.427	8229
668.479	7442
668.532	8126
668.584	6804
668.636	7901
668.689	7148
668.741	6748
668.793	7947
668.845	7327
668.898	7380
668.950	7532
669.002	7439
669.054	6414
669.106	7339
669.158	7558
669.211	7191
669.263	6696
669.315	7561
669.367	7121
669.419	7525
669.471	7967
669.523	7641
669.575	7734
669.627	6856
669.679	6889
669.731	7671
669.783	7461
669.835	8290
669.886	6416
669.938	8174
669.990	7645
670.042	6902
670.094	6879
670.146	7610
670.197	7528
670.249	8989
670.301	8809
670.353	11297
670.404	13773
670.456	16635
670.508	23398
670.560	34721
670.611	54266
670.663	90808
670.715	202611
670.766	308283
670.818	105380
670.869	24255
670.921	15953
670.972	13433
671.024	11731
671.075	9269
671.127	9339
671.178	9836
671.230	10221
671.281	10211
671.333	10958
671.384	12966
671.436	16379
671.487	22553
671.538	29612
671.590	45096
671.641	70063
671.692	120470
671.744	217145
671.795	171994
671.846	71612
671.897	34907
671.949	22512
672.000	16924
672.051	12480
672.102	12089
672.153	9952
672.204	8278
672.256	8506
672.307	7861
672.358	8060
672.409	7378
672.460	5846
672.511	6213
672.562	5926
672.613	5617
672.664	5812
672.715	6507
672.766	5432
672.817	5654
672.868	5987
672.919	5443
672.970	5192
673.021	6040
673.071	4472
673.122	5356
673.173	4795
673.224	5161
673.275	5010
673.326	5250
673.376	4933
673.427	5117
673.478	5262
673.528	6202
673.579	5111
673.630	4975
673.680	6030
673.731	5083
673.782	4745
673.832	5271
673.883	4933
673.934	4090
673.984	4208
674.035	6155
674.085	5160
674.136	5295
674.186	4827
674.237	5150
674.287	5375
674.338	4923
674.388	5506
674.438	5657
674.489	5866
674.539	6509
674.589	6150
674.640	6503
674.690	5286
674.740	5369
674.791	5372
674.841	6112
674.891	4874
674.942	5513
674.992	4362
675.042	4859
675.092	4239
675.142	4156
675.193	3642
675.243	4807
675.293	4706
675.343	4432
675.393	4742
675.443	4938
675.493	4760
675.543	4752
675.593	4301
675.643	5049
675.693	4711
675.743	4601
675.793	3863
675.843	3585
675.893	4093
675.943	4452
675.993	4481
676.043	3867
676.093	3404
676.142	4137
676.192	4034
676.242	4016
676.292	2901
676.341	3544
676.391	4410
676.441	3882
676.491	3681
676.540	3462
676.590	3424
676.640	2872
676.689	3911
676.739	3281
676.789	2867
676.838	3758
676.888	3942
676.937	3454
676.987	2844
677.037	3657
677.086	2448
677.136	3516
677.185	3334
677.235	3646
677.284	3179
677.333	3536
677.383	3166
677.432	2646
677.482	2144
677.531	3377
677.580	3313
677.630	2982
677.679	3510
677.728	3285
677.778	3241
677.827	3193
677.876	3681
677.925	3025
677.975	3635
678.024	4275
678.073	4254
678.122	3553
678.171	3464
678.220	4506
678.269	4951
678.319	5182
678.368	5153
678.417	4582
678.466	4344
678.515	4381
678.564	2796
678.613	2813
678.662	3043
678.711	3592
678.760	3215
678.809	2778
678.857	2605
678.906	4227
678.955	2998
679.004	3282
679.053	2510
679.102	3012
679.151	4113
679.199	2978
679.248	3711
679.297	3150
679.346	1820
679.394	2924
679.443	2883
679.492	3441
679.540	3042
679.589	3336
679.638	3158
679.686	3059
679.735	2798
679.784	4656
679.832	4750
679.881	3767
679.929	3533
679.978	3058
680.026	3330
680.075	2955
680.123	2119
680.172	2742
680.220	2913
680.268	3070
680.317	3463
680.365	3355
680.414	1970
680.462	2825
680.510	2699
680.559	2671
680.607	2170
680.655	3615
680.703	2947
680.752	2995
680.800	3474
680.848	2384
680.896	2723
680.945	2793
680.993	1207
681.041	2676
681.089	2051
681.137	3290
681.185	2271
681.233	2892
681.258	2806
681.281	2696
681.329	2343
681.377	1788
681.380	1848
681.425	2391
681.473	3171
681.502	2899
681.521	2653
681.569	3351
681.617	3240
681.624	3287
681.665	3359
681.713	3196
681.745	2990
681.761	2844
681.809	3570
681.857	3898
681.867	3815
681.904	3382
681.952	3170
681.989	3537
682.000	3614
682.048	2815
682.096	3452
682.111	3474
682.143	3427
682.191	3802
682.233	4334
682.239	4386
682.286	3666
682.334	3803
682.354	3928
682.382	3998
682.430	3533
682.476	4827
682.477	4830
682.525	3890
682.572	3951
682.598	3757
682.620	3539
682.667	5151
682.715	4489
682.720	4550
682.763	4858
682.810	4212
682.841	4433
682.857	4498
682.905	3822
682.952	4957
682.963	4872
683.000	4458
683.047	5430
683.085	5709
683.095	5776
683.142	4915
683.190	4424
683.206	4580
683.237	4700
683.284	5439
683.328	5288
683.332	5256
683.379	5021
683.426	4636
683.449	5007
683.473	5411
683.521	5657
683.568	5299
683.571	5400
683.615	6270
683.662	5484
683.693	5339
683.709	5228
683.757	4550
683.804	5819
683.814	5783
683.851	5605
683.898	5833
683.936	5438
683.945	5318
683.992	5991
684.039	5664
684.057	5741
684.086	5799
684.133	5503
684.179	5540
684.180	5523
684.227	5683
684.274	6505
684.300	6305
684.321	6128
684.368	5731
684.415	5920
684.422	5986
684.462	6353
684.509	6204
684.543	6205
684.556	6176
684.603	6578
684.649	6946
684.665	6910
684.696	6745
684.743	6652
684.786	7426
684.790	7461
684.837	7013
684.883	6577
684.908	6528
684.930	6615
684.977	6646
685.023	7506
685.029	7488
685.070	7027
685.117	6949
685.150	7269
685.164	7403
685.210	7150
685.257	6885
685.272	7078
685.303	7435
685.350	8163
685.393	7751
685.396	7690
685.443	7374
685.490	8116
685.514	7628
685.536	7318
685.583	7718
685.629	7701
685.636	7633
685.675	7092
685.722	7247
685.757	7379
685.768	7380
685.815	7175
685.861	7750
685.878	7605
685.908	7546
685.954	7717
686.000	8145
686.000	8140
686.047	8572
686.093	8623
686.121	8442
686.139	8358
686.185	8054
686.232	8647
686.242	8671
686.278	8583
686.324	8312
686.363	8722
686.370	8795
686.416	8126
686.463	8593
686.484	8668
686.509	8772
686.555	8549
686.601	8930
686.606	8908
686.647	8610
686.693	8704
686.727	8192
686.739	7991
686.785	8874
686.831	8562
686.848	8507
686.877	8652
686.923	8354
686.969	9863
686.969	9868
687.015	9091
687.061	9891
687.090	10219
687.107	10361
687.153	10469
687.199	10040
687.211	9902
687.245	9579
687.291	9123
687.332	9928
687.336	10018
687.382	9946
687.428	9879
687.453	9924
687.474	9788
687.520	10251
687.565	9888
687.574	9706
687.611	9600
687.657	10483
687.695	11028
687.702	11101
687.748	11643
687.794	12625
687.816	12212
687.839	11454
687.885	12076
687.931	11413
687.937	11307
687.976	10966
688.022	11081
688.058	11277
688.067	11342
688.113	10534
688.158	10810
688.179	10724
688.204	10631
688.249	11070
688.295	10352
688.300	10413
688.340	10915
688.386	11020
688.421	10648
688.431	10594
688.477	10293
688.522	11335
688.542	11424
688.567	11651
688.613	12444
688.658	12454
688.663	12506
688.703	12443
688.749	11207
688.784	11848
688.794	12121
688.839	11871
688.884	12080
688.905	12026
688.930	11885
688.975	11927
689.020	11526
689.026	11531
689.065	11733
689.110	10823
689.146	11586
689.155	11785
689.201	12142
689.246	12017
689.267	11868
689.291	11704
689.336	12003
689.381	11677
689.388	11719
689.426	12240
689.471	12192
689.509	12113
689.516	12080
689.561	12602
689.606	12543
689.630	12438
689.651	12260
689.696	12026
689.741	12157
689.750	12142
689.785	12527
689.830	12381
689.871	12395
689.875	12373
689.920	12367
689.965	12494
689.992	12083
690.010	11944
690.054	12706
690.099	12343
690.112	12505
690.144	12839
690.189	12288
690.233	11968
690.233	11983
690.278	12148
690.323	12344
690.354	12296
690.367	12337
690.412	12640
690.457	12471
690.474	12414
690.501	12368
690.546	12669
690.590	13003
690.595	12946
690.635	12610
690.680	13371
690.716	12898
690.724	12852
690.769	13249
690.813	13991
690.836	14343
690.857	15438
690.902	16676
690.946	19142
690.957	19649
690.991	23104
691.035	27798
691.077	32370
691.080	32364
691.124	30182
691.168	27279
691.198	25821
691.213	24587
691.257	21221
691.301	17865
691.318	16336
691.346	15795
691.390	15232
691.434	14574
691.439	14472
691.478	14200
691.522	14266
691.559	14292
691.567	14382
691.611	14314
691.655	14534
691.680	14673
691.699	14757
691.743	14951
691.787	14862
691.800	14877
691.831	14843
691.875	14344
691.919	14376
691.921	14334
691.964	13931
692.008	14039
692.041	13750
692.052	13687
692.096	13929
692.139	13635
692.162	13598
692.183	13637
692.227	13494
692.271	13627
692.282	13491
692.315	13318
692.359	13740
692.402	14022
692.403	14049
692.447	13948
692.490	13883
692.523	13968
692.534	13975
692.578	13921
692.622	13474
692.643	13458
692.666	13569
692.709	13540
692.753	13490
692.763	13440
692.797	13440
692.840	13586
692.884	13969
692.884	13998
692.928	13949
692.971	13742
693.004	13555
693.015	13537
693.059	14064
693.102	13861
693.124	13856
693.146	13984
693.189	13941
693.233	14541
693.245	14502
693.276	14420
693.320	15051
693.363	14518
693.365	14497
693.407	15391
693.450	16280
693.485	16934
693.493	17183
693.537	18159
693.580	19132
693.605	19641
693.624	20924
693.667	24114
693.710	27330
693.725	28446
693.753	35094
693.797	45645
693.840	56355
693.845	57393
693.883	53127
693.926	48054
693.966	43720
693.970	43000
694.013	34831
694.056	26746
694.086	21022
694.099	20552
694.142	18812
694.185	17423
694.206	16633
694.229	16540
694.272	16440
694.315	16190
694.326	16109
694.358	16028
694.401	16100
694.444	15881
694.446	15834
694.487	15590
694.530	15268
694.566	15122
694.573	15145
694.616	15031
694.659	14931
694.686	14655
694.702	14665
694.745	15017
694.787	15299
694.806	15321
694.830	15430
694.873	15360
694.916	15161
694.926	15266
694.959	15659
695.002	15733
695.044	15728
695.046	15698
695.087	16281
695.130	16599
695.166	16969
695.172	17033
695.215	17259
695.258	17130
695.286	17181
695.301	17286
695.343	17439
695.386	17714
695.406	17667
695.428	18007
695.471	18915
695.514	19755
695.526	19965
695.556	21497
695.599	23626
695.641	25473
695.646	25613
695.684	24267
695.726	22887
695.766	21463
695.769	21483
695.811	21216
695.854	20673
695.886	20410
695.896	20545
695.938	20671
695.981	21012
696.005	21103
696.023	21728
696.065	23272
696.108	24595
696.125	25146
696.150	25471
696.192	25852
696.235	26218
696.245	26243
696.277	26317
696.319	26504
696.361	26363
696.365	26314
696.404	26134
696.446	25695
696.485	25360
696.488	25435
696.530	25397
696.572	25594
696.604	25533
696.614	25466
696.656	25094
696.698	24577
696.724	24244
696.740	24473
696.783	24873
696.825	25455
696.844	25554
696.867	25596
696.909	25680
696.951	25580
696.964	25596
696.992	26102
697.034	26430
697.076	27012
697.083	27012
697.118	27632
697.160	28408
697.202	29090
697.203	29039
697.244	28801
697.286	28476
697.323	28023
697.327	28064
697.369	27815
697.411	27700
697.442	27482
697.453	27640
697.494	28060
697.536	28385
697.562	28590
697.578	28759
697.620	28888
697.661	29052
697.682	29099
697.703	29561
697.744	30300
697.786	31091
697.801	31258
697.828	31070
697.869	30660
697.911	30276
697.921	30121
697.952	30086
697.994	29892
698.035	29660
698.040	29562
698.077	29688
698.118	29761
698.160	29843
698.160	29769
698.201	30898
698.243	32090
698.279	33027
698.284	33190
698.325	33949
698.367	34702
698.399	35194
698.408	35422
698.449	36056
698.491	36696
698.518	37036
698.532	36885
698.573	36136
698.614	35388
698.638	34853
698.656	34965
698.697	35029
698.738	35121
698.757	35065
698.779	35176
698.820	35230
698.862	35270
698.877	35202
698.903	35262
698.944	35203
698.985	35147
698.996	35044
699.026	35172
699.067	35230
699.116	35210
699.235	34766
699.354	34981
699.474	32924
699.593	32580
699.713	33002
699.832	33749
699.951	34857
700.070	33771
700.190	31525
700.309	30015
700.428	29540
700.547	30132
700.667	28826
700.786	30427
700.905	28708
701.024	28975
701.143	28685
701.262	30475
701.381	30581
701.500	30992
701.619	29467
701.738	29994
701.857	29284
701.976	28445
702.095	29803
702.214	30624
702.333	28448
702.452	29793
702.571	30160
702.690	29527
702.809	28785
702.928	27518
703.047	26794
703.165	26727
703.284	27362
703.403	25503
703.522	26625
703.640	24921
703.759	25265
703.878	24529
703.997	25319
704.115	25097
704.234	25681
704.353	26821
704.471	23847
704.590	23100
704.708	23862
704.827	22952
704.946	22802
705.064	23068
705.183	23411
705.301	23465
705.420	23071
705.538	23584
705.656	21852
705.775	21476
705.893	24059
706.012	23899
706.130	22087
706.249	22715
706.367	20831
706.485	21088
706.604	21309
706.722	21166
706.840	23421
706.958	26010
707.077	21557
707.195	20511
707.313	20136
707.431	18711
707.549	19459
707.668	18718
707.786	20522
707.904	18465
708.022	20010
708.140	18567
708.258	18162
708.376	20225
708.494	18098
708.612	20175
708.730	20858
708.848	18692
708.966	19991
709.084	18725
709.202	20555
709.320	17563
709.438	18232
709.556	18623
709.674	16984
709.791	17116
709.909	17479
710.027	17014
710.145	17187
710.263	16700
710.380	16686
710.498	16624
710.616	15973
710.733	16077
710.851	15794
710.969	16205
711.086	15538
711.204	15961
711.322	16318
711.439	15562
711.557	15303
711.674	15423
711.792	15734
711.909	15102
712.027	14654
712.144	14996
712.262	15790
712.379	15258
712.497	15833
712.614	15758
712.732	15942
712.849	14267
712.966	15769
713.084	16419
713.201	13934
713.318	15113
713.436	16901
713.553	14842
713.670	16060
713.787	17051
713.905	15586
714.022	16200
714.139	16761
714.256	20867
714.373	28947
714.490	52543
714.608	136804
714.725	514080
714.842	454179
714.959	54024
715.076	25052
715.193	20140
715.310	18493
715.427	14466
715.544	15162
715.661	14449
715.778	14640
715.895	14442
716.011	14497
716.128	13418
716.245	14426
716.362	13020
716.479	11671
716.596	13108
716.713	12337
716.829	12177
716.946	12542
717.063	11602
717.180	12052
717.296	12101
717.413	11669
717.530	11634
717.646	11383
717.763	11955
717.880	10878
717.996	9658
718.113	11451
718.229	10856
718.346	10641
718.462	10636
718.579	11743
718.695	11000
718.812	11275
718.928	11479
719.045	10156
719.161	10292
719.277	11084
719.394	10732
719.510	11105
719.626	12391
719.743	15240
719.859	23993
719.975	50612
720.092	197728
720.208	373727
720.324	49446
720.440	15855
720.557	12767
720.673	12117
720.789	12228
720.905	13692
721.021	11391
721.137	10036
721.253	9125
721.369	9582
721.486	10498
721.602	9621
721.718	8969
721.834	9396
721.950	9496
722.066	8644
722.181	8789
722.297	9057
722.413	8376
722.529	9376
722.645	8948
722.761	9077
722.877	8896
722.993	10248
723.108	12094
723.224	10916
723.340	9695
723.456	9148
723.571	7678
723.687	8553
723.803	8549
723.918	8754
724.034	8038
724.150	9233
724.265	7807
724.381	7979
724.497	8487
724.612	8230
724.728	7593
724.843	7484
724.959	8096
725.074	9118
725.190	8851
725.305	8672
725.421	7612
725.536	8239
725.651	9093
725.767	7833
725.882	7387
725.997	7899
726.113	7904
726.228	7969
726.343	7737
726.459	8127
726.574	7467
726.689	7941
726.804	7331
726.920	7180
727.035	7496
727.150	7658
727.265	7276
727.380	8106
727.495	9120
727.610	7458
727.725	7543
727.841	7945
727.956	8186
728.071	7899
728.186	6561
728.301	6346
728.416	8118
728.531	8311
728.645	7229
728.760	7317
728.875	7232
728.990	7034
729.105	6834
729.220	7013
729.335	7694
729.449	7506
729.564	7397
729.679	7128
729.794	6810
729.908	7495
730.023	7304
730.138	8141
730.253	7511
730.367	7682
730.482	7772
730.596	7575
730.711	8758
730.826	12377
730.940	11527
731.055	10875
731.169	9469
731.284	10964
731.398	9613
731.513	11380
731.627	12107
731.742	15470
731.856	18760
731.970	18295
732.085	21922
732.199	32131
732.313	57314
732.428	140645
732.542	375764
732.656	199424
732.771	45634
732.885	27293
732.999	24519
733.113	26565
733.227	24446
733.342	24590
733.456	22900
733.570	22682
733.684	21674
733.798	20252
733.912	20580
734.026	22210
734.140	20319
734.254	20100
734.368	19820
734.482	21583
734.596	19340
734.710	17940
734.824	18789
734.938	18258
735.052	19725
735.166	19667
735.280	18879
735.393	18552
735.507	18191
735.621	17736
735.735	16997
735.849	18516
735.962	16787
736.076	17917
736.190	15934
736.303	17117
736.417	18534
736.531	16159
736.644	16927
736.758	16437
736.872	16860
736.985	16217
737.099	16068
737.212	15941
737.326	15706
737.439	16739
737.553	15391
737.666	15797
737.780	14879
737.893	15966
738.007	15004
738.120	15946
738.233	13751
738.347	15542
738.460	13803
738.573	16257
738.687	14328
738.800	15281
738.913	15471
739.026	14682
739.140	13062
739.253	14266
739.366	14311
739.479	14077
739.592	14015
739.705	12886
739.818	14981
739.932	12576
740.045	13862
740.158	13236
740.271	14020
740.384	14142
740.497	12033
740.610	14920
740.723	12477
740.836	13571
740.949	13005
741.062	14291
741.174	12094
741.287	12587
741.400	12900
741.513	11481
741.626	13059
741.739	11908
741.851	11861
741.964	12600
742.077	12411
742.189	10970
742.302	12646
742.415	13000
742.527	11862
742.640	13464
742.753	10488
742.865	12211
742.978	10481
743.090	11519
743.203	12295
743.316	10711
743.428	11021
743.541	11115
743.653	9779
743.766	11305
743.878	11147
743.990	10314
744.103	11116
744.215	11187
744.327	9536
744.440	12126
744.552	10815
744.664	9156
744.777	11618
744.889	9356
745.001	10850
745.113	10767
745.226	10066
745.338	9916
745.450	10805
745.562	9614
745.674	8410
745.786	11621
745.898	10004
746.010	8673
746.122	10636
746.234	10269
746.347	9334
746.459	9674
746.570	7819
746.682	10623
746.794	11454
746.906	9227
747.018	9462
747.130	10745
747.242	7842
747.354	8970
747.466	9662
747.577	8142
747.689	9556
747.801	9815
747.913	8304
748.024	8541
748.136	8820
748.248	8943
748.359	8660
748.471	9314
748.583	7085
748.694	7930
748.806	8535
748.918	8577
749.029	7138
749.141	9022
749.252	10032
749.364	7059
749.475	7975
749.587	7844
749.698	8517
749.809	7999
749.921	7855
750.032	7951
750.144	7148
750.255	8172
750.366	7808
750.478	7252
750.589	7793
750.700	6922
750.811	8701
750.923	7239
751.034	6630
751.145	9199
751.256	7295
751.367	7023
751.479	8370
751.590	7148
751.701	7339
751.812	6722
751.923	6909
752.034	8845
752.145	8714
752.256	7683
752.367	7455
752.478	7307
752.589	7303
752.700	7060
752.811	7299
752.922	7671
753.032	8371
753.143	7751
753.254	6465
753.365	8511
753.476	7884
753.586	8425
753.697	7272
753.808	7254
753.919	6833
754.029	7304
754.140	7098
754.251	6865
754.361	7197
754.472	7465
754.582	6044
754.693	7313
754.804	8092
754.914	7122
755.025	5680
755.135	7064
755.246	7312
755.356	6685
755.466	7285
755.577	6341
755.687	7508
755.798	7305
755.908	6963
756.018	6615
756.129	6491
756.239	8021
756.349	7756
756.460	7189
756.570	7278
756.680	6707
756.790	6473
756.900	7538
757.011	6113
757.121	7001
757.231	6409
757.341	7047
757.451	6107
757.561	7191
757.671	7034
757.781	6642
757.891	7069
758.001	6188
758.111	7315
758.221	8021
758.331	7114
758.441	7082
758.551	6628
758.661	7681
758.771	7647
758.880	7763
758.990	7545
759.100	7734
759.210	7760
759.320	7505
759.429	7752
759.539	8695
759.649	9051
759.758	9323
759.868	8806
759.978	8467
760.087	10847
760.197	10598
760.307	10146
760.416	9531
760.526	8765
760.635	10217
760.745	9928
760.854	11226
760.964	11783
761.073	12128
761.182	11699
761.292	11218
761.401	9364
761.511	9104
761.620	8367
761.729	8691
761.839	8520
761.948	8770
762.057	8314
762.166	8488
762.276	8257
762.385	9503
762.494	8774
762.603	8601
762.712	9455
762.822	9415
762.931	9315
763.040	6972
763.149	9169
763.258	10140
763.367	10148
763.476	10711
763.585	10057
763.694	11046
763.803	11860
763.912	12250
764.021	12647
764.130	12410
764.238	13910
764.347	14804
764.456	14845
764.565	16553
764.674	15903
764.783	17016
764.891	19004
765.000	21789
765.109	24192
765.217	26162
765.326	30336
765.435	36034
765.543	42744
765.652	51270
765.761	66134
765.869	86983
765.978	120237
766.086	178899
766.195	277693
766.303	447590
766.412	546857
766.520	482403
766.629	389032
766.737	236658
766.846	157275
766.954	110240
767.062	81953
767.171	63640
767.279	51049
767.387	41789
767.496	35608
767.604	31341
767.712	27649
767.820	26205
767.928	23498
768.037	21765
768.145	20542
768.253	21458
768.361	19367
768.469	19324
768.577	19084
768.685	20262
768.793	21934
768.901	23197
769.009	26914
769.117	31376
769.225	39254
769.333	54111
769.441	80971
769.549	129012
769.657	230743
769.765	419273
769.873	465030
769.981	359275
770.088	194088
770.196	112522
770.304	76631
770.412	57107
770.519	44735
770.627	36517
770.735	29362
770.842	26877
770.950	23928
771.058	21504
771.165	21658
771.273	20470
771.380	19924
771.488	22505
771.595	23851
771.703	21022
771.810	19381
771.918	19143
772.025	20674
772.133	23275
772.240	20690
772.348	24349
772.455	22939
772.562	20893
772.670	19022
772.777	19954
772.884	20155
772.991	18291
773.099	20695
773.206	18129
773.313	19189
773.420	18047
773.528	18465
773.635	17123
773.742	17206
773.849	16864
773.956	16787
774.063	16387
774.170	16142
774.277	17665
774.384	15164
774.491	16161
774.598	15659
774.705	15012
774.812	15232
774.919	15220
775.026	14389
775.133	15316
775.239	14446
775.346	14660
775.453	13961
775.560	13957
775.667	14980
775.773	13455
775.880	13622
775.987	14097
776.093	13277
776.200	15978
776.307	11902
776.413	12028
776.520	14600
776.627	13315
776.733	12055
776.840	10770
776.946	16126
777.053	13203
777.159	12737
777.266	11572
777.372	12645
777.478	13391
777.585	12684
777.691	11226
777.798	12273
777.904	11732
778.010	11264
778.117	13129
778.223	11679
778.329	11400
778.435	10330
778.542	12385
778.648	10653
778.754	10990
778.860	11644
778.966	11076
779.072	10035
779.178	10665
779.284	8595
779.391	10445
779.497	11463
779.603	13153
779.708	12300
779.815	16759
779.920	42356
780.026	69178
780.132	16554
780.238	10675
780.344	9602
780.450	12039
780.556	8971
780.661	9525
780.767	11701
780.873	7383
780.979	8765
781.085	10503
781.190	8799
781.296	8718
781.402	9085
781.507	8998
781.613	7221
781.719	8715
781.824	9566
781.930	8639
782.035	8645
782.141	10257
782.246	6783
782.352	7503
782.457	8757
782.563	8658
782.668	8554
782.773	7246
782.879	7598
782.984	8916
783.090	8412
783.195	9237
783.300	8858
783.405	7827
783.511	6294
783.616	8442
783.721	8056
783.826	7250
783.932	7025
784.037	7797
784.142	8332
784.247	7183
784.352	7916
784.457	6912
784.562	8064
784.667	6753
784.772	6584
784.877	5862
784.982	7781
785.087	7492
785.192	6356
785.297	6047
785.402	7628
785.507	7260
785.611	7346
785.716	4878
785.821	6949
785.926	7257
786.031	6369
786.135	6519
786.240	6165
786.345	5826
786.450	5568
786.554	6627
786.659	5551
786.763	5383
786.868	7001
786.973	7252
787.077	5438
787.182	4903
787.286	5602
787.391	8257
787.495	5156
787.600	5009
787.704	5358
787.809	6741
787.913	5605
788.017	6147
788.122	6633
788.226	6088
788.330	4215
788.435	5737
788.539	6848
788.643	5278
788.747	4605
788.852	5013
788.956	5213
789.060	6768
789.164	5926
789.268	5834
789.372	5851
789.476	5173
789.580	3880
789.684	5198
789.788	6463
789.892	5548
789.996	3931
790.100	4000
790.204	5574
790.308	7084
790.412	3760
790.516	4512
790.620	4240
790.724	6261
790.828	4460
790.931	2944
791.035	5092
791.139	4136
791.242	4271
791.346	5916
791.450	4701
791.554	4786
791.657	2817
791.761	5160
791.864	4588
791.968	5360
792.072	4712
792.175	3831
792.279	3527
792.382	4660
792.486	3824
792.589	3954
792.693	4410
792.796	3623
792.899	4550
793.003	5792
793.106	2892
793.209	4195
793.313	4511
793.416	2393
793.519	4373
793.623	6203
793.726	4883
793.829	3776
793.932	3085
794.035	3140
794.138	6062
794.242	5794
794.345	3808
794.448	4760
794.551	6807
794.654	21539
794.757	37003
794.860	8816
794.963	4864
795.066	3114
795.169	4522
795.272	4215
795.375	4519
795.477	3474
795.580	4003
795.683	3088
795.786	4516
795.889	3415
795.991	4110
796.094	4508
796.197	2474
796.300	5744
796.402	4206
796.505	2862
796.608	3256
796.710	3097
796.813	4479
796.915	3862
797.018	4125
797.120	3612
797.223	2361
797.326	5422
797.428	2722
797.530	3268
797.633	2993
797.735	4145
797.838	2970
797.940	5066
798.042	2824
798.145	2553
798.247	3602
798.349	2267
798.452	3873
798.554	2851
798.656	3284
798.758	4847
798.860	3828
798.962	3124
799.065	2553
799.167	2233
799.269	4214
799.371	4968
799.473	4739
799.575	3750
799.677	3016
799.779	4518
799.881	1605
799.983	4666
800.085	2932
800.187	3888
800.289	1721
800.390	2256
800.492	4172
800.594	4112
800.696	2388
800.798	2858
800.899	2787
801.001	2621
801.103	3391
801.205	2337
801.306	3134
801.408	3142
801.509	3392
801.611	2164
801.713	3168
801.814	2327
801.916	2490
802.017	2474
802.119	873
802.220	2751
802.322	1998
802.423	4016
802.525	823
802.626	2901
802.727	3838
802.829	3588
802.930	824
803.031	3127
803.133	2429
803.234	2234
803.335	2529
803.436	1703
803.538	2505
803.639	1318
803.740	2575
803.841	2071
803.942	2794
804.043	2958
804.144	1876
804.245	2263
804.346	1902
804.447	1924
804.548	2100
804.649	3314
804.750	1590
804.851	1962
804.952	2386
805.053	2956
805.154	1617
805.255	2840
805.355	1925
805.456	2635
805.557	2100
805.658	2133
805.758	2645
805.859	2580
805.960	2512
806.061	1815
806.161	1844
806.262	2740
806.362	1221
806.463	1900
806.564	2924
806.664	2197
806.765	2131
806.865	2187
806.966	1822
807.066	2203
807.166	2636
807.267	2585
807.367	1589
807.468	2143
807.568	1307
807.668	2387
807.769	2654
807.869	1931
807.969	2484
808.069	1611
808.170	1831
808.270	2149
808.370	1992
808.470	2957
808.570	908
808.670	1147
808.770	2278
808.870	1691
808.970	2227
809.070	2874
809.170	1503
809.271	2869
809.370	1623
809.470	2254
809.570	1260
809.670	1066
809.770	1740
809.870	2249
809.970	2193
810.070	2677
810.169	2239
810.269	1334
810.369	2584
810.469	1876
810.568	2515
810.668	1567
810.768	807
810.867	2278
810.967	1123
811.066	1200
811.166	1352
811.265	2549
811.365	1132
811.464	1251
811.564	2189
811.663	2956
811.763	721
811.862	3078
811.962	2876
812.061	1554
812.160	1971
812.260	1920
812.359	2262
812.458	1988
812.557	3345
812.657	3756
812.756	2869
812.855	2438
812.954	1069
813.053	2488
813.153	2218
813.252	1560
813.351	2072
813.450	2681
813.549	1304
813.648	2552
813.747	1680
813.846	2415
813.945	1792
814.044	1996
814.143	2322
814.242	3308
814.341	1681
814.439	2837
814.538	3462
814.637	3312
814.736	3039
814.835	4747
814.933	1305
815.032	5138
815.131	5347
815.229	10950
815.328	14968
815.427	10592
815.525	9170
815.624	9214
815.722	9022
815.821	9737
815.919	9373
816.018	8762
816.116	9232
816.215	8835
816.313	9909
816.412	12877
816.510	12445
816.609	14004
816.707	13148
816.805	11468
816.904	11014
817.002	12106
817.100	11853
817.198	14186
817.296	11828
817.395	11478
817.493	12128
817.591	11434
817.689	11686
817.787	11163
817.885	10452
817.983	9894
818.081	11269
818.179	10933
818.277	13673
818.375	11813
818.473	10483
818.571	10066
818.669	10820
818.767	12942
818.865	9605
818.963	8440
819.061	11018
819.158	9983
819.256	11809
819.354	10763
819.452	13620
819.549	10678
819.647	10828
819.745	8649
819.842	9174
819.940	10148
820.038	8076
820.135	8295
820.233	10822
820.330	9402
820.428	7965
820.525	10033
820.623	8708
820.720	7500
820.818	9513
820.915	9296
821.012	8193
821.110	7167
821.207	8430
821.304	7689
821.402	8303
821.499	9266
821.596	7465
821.693	7962
821.791	9183
821.888	8730
821.985	9418
822.082	7247
822.179	8161
822.276	8492
822.373	7618
822.470	8055
822.567	8580
822.664	6716
822.761	7674
822.858	7864
822.955	7080
823.052	7347
823.149	7937
823.246	7725
823.343	5048
823.440	6477
823.536	8190
823.633	7269
823.730	5980
823.827	7654
823.923	7013
824.020	7574
824.117	7088
824.213	7279
824.310	6183
824.407	4911
824.503	7695
824.600	6259
824.696	6078
824.793	7713
824.889	8067
824.986	6441
825.082	3638
825.179	5948
825.275	7565
825.371	8206
825.468	5943
825.564	3829
825.660	6715
825.757	8442
825.853	6297
825.949	4623
826.045	4454
826.142	5799
826.238	6906
826.334	7189
826.430	5251
826.526	3628
826.622	3564
826.718	7651
826.814	7341
826.910	6449
827.006	3922
827.102	4264
827.198	5569
827.294	6910
827.390	5910
827.486	5673
827.582	3961
827.678	4419
827.774	7371
827.869	4158
827.965	6164
828.061	4099
828.157	6246
828.252	7501
828.348	4411
828.444	4572
828.539	4772
828.635	5063
828.731	6293
828.826	4211
828.922	4445
829.017	6462
829.113	6115
829.208	4184
829.304	4224
829.399	7709
829.495	5008
829.590	5019
829.685	4599
829.781	5124
829.876	5868
829.971	2740
830.066	2947
830.162	4789
830.257	6596
830.352	5006
830.447	3912
830.543	3197
830.638	4827
830.733	6193
830.828	3811
830.923	5518
831.018	4760
831.113	6450
831.208	3346
831.303	3104
831.398	3086
831.493	4659
831.588	7684
831.683	3712
831.778	2648
831.873	3609
831.967	4651
832.062	5158
832.157	3649
832.252	4398
832.346	3162
832.441	5058
832.536	4523
832.631	5364
832.725	4517
832.820	3946
832.914	3848
833.009	2782
833.104	3411
833.198	3926
833.293	3890
833.387	5525
833.482	3498
833.576	4344
833.670	3806
833.765	4441
833.859	5039
833.954	5576
834.048	4207
834.142	3199
834.237	2654
834.331	3748
834.425	4366
834.519	3276
834.613	2635
834.708	2895
834.802	3571
834.896	3368
834.990	4482
835.084	3390
835.178	1877
835.272	3583
835.366	4266
835.460	5867
835.554	3290
835.648	2373
835.742	2073
835.836	2864
835.930	2715
836.024	3497
836.117	3648
836.211	3523
836.305	2920
836.399	3132
836.493	2219
836.586	4281
836.680	3073
836.774	2708
836.867	3103
836.961	1968
837.055	2339
837.148	3228
837.242	3383
837.335	3488
837.429	2458
837.522	1765
837.616	2191
837.709	3266
837.803	2402
837.896	4007
837.989	3846
838.083	3235
838.176	2098
838.269	1677
838.363	2907
838.456	2623
838.549	4442
838.642	2504
838.735	2927
838.829	3998
838.922	2270
839.015	2572
839.108	2207
839.201	2786
839.294	3297
839.387	2510
839.480	1652
839.573	2367
839.666	1603
839.759	2175
839.852	2153
839.945	3769
840.038	1964
840.131	1530
840.223	2137
840.316	2816
840.409	2680
840.502	3296
840.594	3547
840.687	920
840.780	914
840.873	1249
840.965	1548
841.058	3408
841.150	3447
841.243	1185
841.336	2331
841.428	1568
841.521	1374
841.613	1907
841.706	1837
841.798	2308
841.890	2494
841.983	1657
842.075	1359
842.167	1044
842.260	2362
842.352	4081
842.444	2808
842.537	1938
842.629	1371
842.721	1791
842.813	2062
842.905	1719
842.997	2104
843.090	2449
843.182	1836
843.274	1524
843.366	3027
843.458	3442
843.550	3683
843.642	2197
843.734	2315
843.826	1721
843.918	1571
844.009	2657
844.101	1933
844.193	2093
844.285	2245
844.377	1913
844.469	2444
844.560	1275
844.652	1584
844.744	2172
844.835	1116
844.927	2643
845.019	2187
845.110	2154
845.202	2075
845.293	1537
845.385	892
845.476	2115
845.568	2857
845.659	1761
845.751	1663
845.842	1517
845.934	1578
846.025	1475
846.116	2058
846.208	1527
846.299	1596
846.390	2073
846.482	1713
846.573	1937
846.664	2297
846.755	1463
846.846	2241
846.937	740
847.029	1383
847.120	1511
847.211	1066
847.302	2667
847.393	1442
847.484	2173
847.575	1484
847.666	1276
847.757	1332
847.847	1883
847.938	2907
848.029	3007
848.120	2321
848.211	1108
848.302	1159
848.392	1102
848.483	1190
848.574	1458
848.664	2590
848.755	2203
848.846	906
848.936	1140
849.027	2110
849.118	2281
849.208	1562
849.299	2545
849.389	4473
849.480	9946
849.570	17085
849.661	31545
849.751	46103
849.841	16142
849.932	2445
850.022	1268
850.112	2380
850.203	1520
850.293	712
850.383	976
850.474	1042
850.564	1428
850.654	1262
850.744	1512
850.834	820
850.924	1439
851.014	2493
851.104	1906
851.194	1102
851.284	1732
851.374	872
851.464	1033
851.554	2208
851.644	1981
851.734	2005
851.824	1820
851.914	1544
852.004	3208
852.094	2332
852.183	894
852.273	1612
852.363	2037
852.452	1790
852.542	1727
852.632	1664
852.721	1555
852.811	1364
852.901	2704
852.990	2009
853.080	1979
853.169	2451
853.259	1728
853.348	2602
853.438	3116
853.527	3426
853.617	6016
853.706	10560
853.795	18615
853.885	37161
853.974	65740
854.063	114926
854.152	148907
854.242	59552
854.331	16080
854.420	6580
854.509	5256
854.598	4313
854.687	2986
854.777	2439
854.866	2283
854.955	1946
855.044	1894
855.133	2177
855.222	1740
855.311	1421
855.400	1914
855.488	1184
855.577	697
855.666	1046
855.755	2594
855.844	1379
855.933	2011
856.021	1965
856.110	903
856.199	1362
856.288	221
856.376	995
856.465	1065
856.554	1695
856.642	2283
856.731	2045
856.819	1519
856.908	1176
856.996	1566
857.085	774
857.173	727
857.262	125
857.350	994
857.438	1320
857.527	687
857.615	1298
857.703	2165
857.792	1512
857.880	402
857.968	503
858.056	1049
858.145	989
858.233	1035
858.321	1154
858.409	2388
858.497	1204
858.585	359
858.673	904
858.761	1313
858.849	343
858.937	566
859.025	999
859.113	1412
859.201	1395
859.289	2303
859.377	1497
859.465	1821
859.552	728
859.640	1436
859.728	993
859.816	1615
859.903	966
859.991	402
860.079	1555
860.166	1117
860.254	787
860.342	2424
860.429	907
860.517	484
860.604	2088
860.692	222
860.779	966
860.867	1471
860.954	694
861.042	1950
861.129	2301
861.216	2379
861.304	1593
861.391	1647
861.478	1555
861.565	1444
861.653	2198
861.740	454
861.827	1476
861.914	1214
862.001	730
862.089	1840
862.176	1205
862.263	902
862.350	1306
862.437	630
862.524	1022
862.611	1014
862.698	1690
862.785	2436
862.871	1834
862.958	1693
863.045	1664
863.132	2094
863.219	1269
863.306	473
863.392	818
863.479	1918
863.566	295
863.652	1546
863.739	1708
863.826	1543
863.912	1926
863.999	1575
864.086	1503
864.172	2415
864.259	2636
864.345	2800
864.432	2590
864.518	2227
864.604	1626
864.691	3097
864.777	3140
864.863	4298
864.950	6234
865.036	8179
865.122	14106
865.209	14740
865.295	13014
865.381	12288
865.467	11590
865.553	12847
865.639	13018
865.726	18251
865.812	28388
865.898	43552
865.984	59780
866.070	102438
866.156	95311
866.242	34524
866.328	16171
866.414	12304
866.499	11966
866.585	11008
866.671	9963
866.757	10235
866.843	10269
866.928	9414
867.014	9950
867.100	10359
867.186	10029
867.271	10453
867.357	10252
867.442	8910
867.528	9300
867.614	8934
867.699	8567
867.785	9879
867.870	8735
867.956	9517
868.041	9843
868.127	8969
868.212	8381
868.297	8814
868.383	9418
868.468	8706
868.553	9439
868.639	9246
868.724	8467
868.809	8930
868.894	7279
868.979	8875
869.065	8319
869.150	7296
869.235	8325
869.320	8526
869.405	7237
869.490	8267
869.575	7903
869.660	6684
869.745	8255
869.830	9745
869.915	7794
870.000	7577
870.085	7048
870.169	8728
870.254	8769
870.339	6028
870.424	6277
870.509	7981
870.593	8513
870.678	9572
870.763	6819
870.847	6043
870.932	7291
871.016	8348
871.101	5402
871.186	7958
871.270	9313
871.355	6185
871.439	6365
871.523	8564
871.608	6048
871.692	5993
871.777	8026
871.861	8383
871.945	6567
872.030	7479
872.114	6840
872.198	5563
872.282	6749
872.367	6233
872.451	6589
872.535	6264
872.619	6462
872.703	6435
872.787	7171
872.871	7016
872.955	5915
873.039	5348
873.123	6523
873.207	6736
873.291	3561
873.375	5164
873.459	7497
873.543	5847
873.627	5360
873.711	5132
873.794	6560
873.878	5528
873.962	5049
874.045	5773
874.129	5428
874.137	5467
874.213	5854
874.245	5665
874.296	5370
874.352	5017
874.380	4841
874.460	5044
874.464	5052
874.547	4851
874.568	5006
874.631	5491
874.676	5299
874.714	5120
874.784	6236
874.798	6464
874.881	5080
874.892	4964
874.965	4192
874.999	5062
875.048	6236
875.107	6071
875.131	5979
875.215	4668
875.215	4667
875.298	3765
875.323	4331
875.381	5667
875.430	6603
875.465	7225
875.538	5647
875.548	5428
875.631	4200
875.646	4095
875.714	3620
875.753	3825
875.798	4151
875.861	4989
875.881	5194
875.964	4913
875.968	4849
876.047	3783
876.076	4197
876.130	5044
876.183	4875
876.213	4761
876.291	6210
876.296	6299
876.379	5071
876.398	4872
876.462	4235
876.506	3980
876.545	3806
876.613	4251
876.628	4374
876.711	5219
876.721	5269
876.794	5633
876.828	5788
876.877	5675
876.935	4268
876.960	3819
877.043	3859
877.043	3860
877.125	4463
877.150	5060
877.208	6150
877.258	4793
877.291	3884
877.365	4386
877.374	4468
877.456	4403
877.472	4355
877.539	4227
877.579	4613
877.622	4974
877.687	5122
877.704	5122
877.787	4509
877.794	4566
877.869	5466
877.901	5340
877.952	4743
878.008	3511
878.034	3107
878.115	3496
878.117	3504
878.199	3933
878.222	3877
878.282	4064
878.329	5133
878.364	5732
878.437	5543
878.447	5468
878.529	4011
878.544	3930
878.611	3798
878.651	3712
878.694	4018
878.758	5075
878.776	5191
878.858	5479
878.865	5393
878.941	4215
878.972	3689
879.023	3210
879.078	3876
879.105	4281
879.185	5021
879.187	5030
879.269	5017
879.292	5237
879.351	5554
879.399	4499
879.433	3883
879.506	4213
879.516	4284
879.598	4729
879.613	4636
879.680	3965
879.720	4067
879.762	4458
879.827	5011
879.844	4964
879.926	3596
879.933	3602
880.007	4465
880.040	4217
880.089	3575
880.147	4159
880.171	4640
880.253	5302
880.254	5299
880.335	4361
880.360	4563
880.417	5900
880.467	6597
880.499	6608
880.574	6292
880.580	6319
880.662	6656
880.680	6292
880.744	3871
880.787	3635
880.825	4058
880.893	4128
880.907	4051
880.989	3683
881.000	3686
881.070	4935
881.106	5200
881.152	4490
881.213	3442
881.233	3442
881.315	4414
881.319	4455
881.396	4995
881.426	4933
881.478	4653
881.532	4957
881.559	5169
881.639	5075
881.641	5066
881.722	4214
881.745	4174
881.803	4681
881.852	4873
881.885	4692
881.958	3978
881.966	3943
882.047	4497
882.064	4461
882.129	4115
882.171	3785
882.210	3539
882.277	3705
882.291	3897
882.372	4827
882.383	4988
882.454	5836
882.489	5607
882.535	5064
882.596	5333
882.616	5343
882.697	4756
882.702	4708
882.778	4113
882.808	3909
882.859	3681
882.914	3649
882.940	3825
883.020	4075
883.021	4085
883.102	4960
883.127	5234
883.183	6333
883.233	6635
883.264	5757
883.339	3752
883.345	3676
883.426	2681
883.445	2665
883.507	3686
883.551	4103
883.587	4512
883.657	5647
883.668	5739
883.749	5633
883.763	5519
883.830	3965
883.869	3410
883.910	3437
883.975	3670
883.991	3837
884.072	4558
884.081	4622
884.152	5250
884.187	5514
884.233	5929
884.292	6178
884.314	5601
884.394	3230
884.398	3115
884.475	2729
884.504	2816
884.555	3293
884.610	3426
884.636	3755
884.716	5232
884.716	5250
884.797	6343
884.821	6684
884.877	5677
884.927	4395
884.958	3975
885.033	3532
885.038	3521
885.118	3030
885.139	2875
885.199	2770
885.244	2975
885.279	3723
885.350	5173
885.359	5334
885.439	6376
885.456	6490
885.520	5259
885.561	4648
885.600	4106
885.667	3579
885.680	3853
885.760	5051
885.773	5175
885.840	3811
885.878	3253
885.920	3568
885.984	4022
886.000	4217
886.080	5035
886.089	5151
886.160	5819
886.195	5771
886.240	5309
886.300	5151
886.320	5041
886.400	4373
886.406	4321
886.480	4142
886.511	4042
886.560	4062
886.616	4201
886.640	4233
886.720	3998
886.722	3991
886.800	4422
886.827	4496
886.879	4524
886.932	4649
886.959	5243
887.038	6793
887.039	6793
887.119	5552
887.143	5187
887.198	5426
887.248	5564
887.278	5167
887.354	4089
887.358	4104
887.437	4281
887.459	4345
887.517	4996
887.564	5435
887.596	4686
887.669	2842
887.676	2803
887.755	2532
887.774	2420
887.835	3106
887.880	3749
887.914	4172
887.985	4722
887.994	4860
888.073	6388
888.090	6617
888.153	6904
888.195	7074
888.232	6225
888.300	4621
888.311	4514
888.391	3840
888.405	3699
888.470	3586
888.510	3466
888.549	3866
888.615	4623
888.628	4885
888.708	6355
888.720	6562
888.787	6143
888.825	5891
888.866	4917
888.930	3379
888.945	3580
889.024	4653
889.035	4780
889.103	5522
889.140	5890
889.182	4884
889.245	3419
889.261	3753
889.340	5314
889.349	5480
889.419	4791
889.454	4435
889.498	4149
889.559	3768
889.577	3938
889.656	4642
889.664	4706
889.735	5379
889.768	5681
889.814	5221
889.873	4576
889.978	4802
890.083	4278
890.187	5384
890.292	5285
890.397	4125
890.501	4183
890.606	3880
890.710	3920
890.815	6594
890.919	4372
891.024	4270
891.128	3292
891.233	2590
891.337	5691
891.442	6272
891.546	4876
891.650	3381
891.755	3258
891.859	6033
891.963	5899
892.068	5119
892.172	4083
892.276	2780
892.380	3809
892.484	5602
892.589	5282
892.693	5115
892.797	2742
892.901	3233
893.005	3718
893.109	6955
893.213	5805
893.317	4508
893.421	2985
893.525	2096
893.629	3476
893.733	5210
893.837	4335
893.941	3952
894.045	3427
894.148	3955
894.252	4635
894.356	6039
894.460	6831
894.564	3757
894.667	3889
894.771	2465
894.875	2333
894.978	4116
895.082	5301
895.186	5421
895.289	4284
895.393	3807
895.496	4695
895.600	3916
895.703	3131
895.807	4227
895.910	4599
896.014	4559
896.117	3200
896.221	5116
896.324	5300
896.427	3142
896.531	3048
896.634	3664
896.737	3011
896.840	4190
896.944	5341
897.047	5526
897.150	4401
897.253	2361
897.356	3203
897.460	1872
897.563	2321
897.666	5080
897.769	4049
897.872	2792
897.975	3497
898.078	3418
898.181	2396
898.284	4188
898.387	4902
898.490	5009
898.593	2728
898.695	2734
898.798	2747
898.901	2712
899.004	3526
899.107	4042
899.209	2684
899.312	5477
899.415	3620
899.518	2042
899.620	1936
899.723	2435
899.826	3093
899.928	3973
900.031	3362
900.133	4907
900.236	3286
900.338	2467
900.441	2793
900.543	3535
900.646	3803
900.748	4023
900.851	4323
900.953	3138
901.055	2599
901.158	2918
901.260	1875
901.362	2153
901.465	2481
901.567	3681
901.669	3615
901.771	2582
901.873	2782
901.976	3213
902.078	3606
902.180	2431
902.282	1916
902.384	3932
902.486	4982
902.588	3505
902.690	1671
902.792	1763
902.894	3209
902.996	4322
903.098	4263
903.200	2563
903.302	2583
903.404	2725
903.505	1754
903.607	3580
903.709	4312
903.811	4918
903.913	2561
904.014	2195
904.116	2186
904.218	2318
904.319	2889
904.421	5553
904.523	3714
904.624	3090
904.726	1924
904.827	2069
904.929	2204
905.030	2897
905.132	4499
905.233	3625
905.335	2447
905.436	1782
905.537	2272
905.639	2472
905.740	3190
905.841	4191
905.943	1954
906.044	3026
906.145	1740
906.247	2143
906.348	2321
906.449	3245
906.550	3595
906.651	3163
906.752	2275
906.854	2383
906.955	2668
907.056	2551
907.157	4469
907.258	4083
907.359	1313
907.460	1941
907.561	1865
907.662	2625
907.762	2396
907.863	3433
907.964	3547
908.065	2723
908.166	2041
908.267	3178
908.367	2354
908.468	1841
908.569	2766
908.670	3471
908.770	3411
908.871	3650
908.971	3391
909.072	2830
909.173	2286
909.273	2692
909.374	3561
909.474	4089
909.575	2535
909.675	2118
909.776	2663
909.876	2588
909.977	2416
910.077	3686
910.177	3903
910.278	3249
910.378	2293
910.478	3575
910.579	3008
910.679	3892
910.779	3805
910.879	3237
910.980	2553
911.080	3666
911.180	1825
911.280	2277
911.380	1925
911.480	2121
911.580	2078
911.680	2787
911.780	3018
911.880	3365
911.980	1899
912.080	2101
912.180	2673
912.280	2263
912.380	2958
912.480	2171
912.580	2038
912.679	2692
912.779	3634
912.879	3785
912.979	1611
913.078	2409
913.178	1240
913.278	1635
913.377	1315
913.477	2272
913.577	1982
913.676	3822
913.776	3928
913.875	2786
913.975	2308
914.074	2795
914.174	2489
914.273	1503
914.373	2523
914.472	2096
914.572	1220
914.671	2150
914.770	2536
914.870	1972
914.969	2528
915.068	3863
915.167	3840
915.267	2485
915.366	2740
915.465	2314
915.564	2033
915.663	3722
915.763	3398
915.862	4309
915.961	3819
916.060	2798
916.159	2813
916.258	1961
916.357	1924
916.456	3111
916.555	3465
916.654	3205
916.752	3784
916.851	2869
916.950	2293
917.049	1878
917.148	1685
917.247	2943
917.345	2549
917.444	2579
917.543	2472
917.642	2730
917.740	2703
917.839	4762
917.937	5163
918.036	4536
918.135	2978
918.233	2326
918.332	2853
918.430	2836
918.529	2557
918.627	3204
918.726	3729
918.824	3393
918.923	3186
919.021	2930
919.119	2045
919.218	2758
919.316	2641
919.414	3786
919.512	3436
919.611	4024
919.709	3024
919.807	4651
919.905	5103
920.003	4618
920.102	5494
920.200	4789
920.298	4777
920.396	4959
920.494	3520
920.592	4564
920.690	5158
920.788	3817
920.886	3954
920.984	5350
921.082	4777
921.180	6233
921.277	5015
921.375	6994
921.473	9000
921.571	9047
921.669	7727
921.766	7515
921.864	7619
921.962	7597
922.060	7204
922.157	7374
922.255	7660
922.352	7742
922.450	8856
922.548	9597
922.645	10502
922.743	13241
922.840	21052
922.938	23259
923.035	20213
923.133	20388
923.230	22923
923.327	26653
923.425	24414
923.522	25127
923.619	22308
923.717	20254
923.814	20314
923.911	20623
924.008	22497
924.106	19574
924.203	19326
924.300	20915
924.397	19448
924.494	19556
924.591	19163
924.688	18911
924.786	19411
924.883	20395
924.979	19776
925.077	19743
925.173	18751
925.270	18742
925.367	18381
925.464	20570
925.561	20883
925.658	21464
925.755	17108
925.852	21102
925.948	19668
926.045	18523
926.142	20172
926.239	20686
926.335	15426
926.432	17748
926.529	19455
926.625	20066
926.722	16525
926.818	16791
926.915	18968
927.011	17870
927.108	17064
927.204	18450
927.301	15897
927.397	19250
927.494	19463
927.590	12689
927.687	15248
927.783	20305
927.879	19261
927.976	16655
928.072	14887
928.168	17621
928.264	16823
928.361	16666
928.457	18134
928.553	15050
928.649	15822
928.745	16528
928.841	15306
928.937	16100
929.033	15975
929.129	15483
929.225	18470
929.321	15238
929.417	12878
929.513	17020
929.609	13056
929.705	14236
929.801	16891
929.897	14114
929.993	13735
930.089	15567
930.184	13743
930.280	15298
930.376	17469
930.471	12887
930.567	11896
930.663	14801
930.758	13173
930.854	14032
930.950	14141
931.045	12872
931.141	13170
931.236	17059
931.332	13673
931.427	12463
931.523	16104
931.618	14692
931.714	10271
931.809	12838
931.905	15736
932.000	10966
932.095	9854
932.191	16618
932.286	16958
932.381	13631
932.476	10925
932.572	14104
932.667	11209
932.762	11442
932.857	13157
932.952	16382
933.047	13059
933.142	10355
933.237	12247
933.332	14300
933.427	14174
933.522	11701
933.617	11058
933.712	11627
933.807	14837
933.902	17008
933.997	15331
934.092	10915
934.187	11711
934.282	12912
934.376	12843
934.471	14669
934.566	10590
934.661	11360
934.755	14333
934.850	13795
934.945	11822
935.039	10067
935.134	9426
935.228	10894
935.323	16212
935.417	10117
935.512	8122
935.606	9036
935.701	12533
935.795	13497
935.890	12087
935.984	10326
936.079	8133
936.173	10326
936.267	9480
936.362	9153
936.456	11449
936.550	15200
936.644	11295
936.738	8727
936.833	8459
936.927	8387
937.021	9665
937.115	11864
937.209	11774
937.303	10112
937.397	8080
937.491	10915
937.585	11851
937.679	10816
937.773	8679
937.867	7299
937.961	7398
938.055	13073
938.149	11219
938.243	7373
938.337	6939
938.430	9020
938.524	11746
938.618	8904
938.712	7595
938.805	9182
938.899	11470
938.993	12794
939.086	7885
939.180	5415
939.274	7132
939.367	11229
939.461	10627
939.554	9365
939.648	6912
939.741	8652
939.835	10239
939.928	13550
940.022	10987
940.115	8800
940.208	10735
940.302	13437
940.395	13083
940.488	8569
940.582	8824
940.675	7279
940.768	7450
940.861	11502
940.954	11139
941.048	6749
941.141	6008
941.234	7747
941.327	9111
941.420	9662
941.513	9191
941.606	7893
941.699	8048
941.792	10315
941.885	9659
941.978	9826
942.071	8680
942.164	6897
942.257	6010
942.349	8520
942.442	8692
942.535	6572
942.628	6664
942.721	8280
942.813	7588
942.906	9064
942.999	7563
943.091	6949
943.184	6811
943.277	7298
943.369	5495
943.462	5390
943.554	7239
943.647	7822
943.739	9929
943.832	10086
943.924	4425
944.017	5274
944.109	5920
944.201	7012
944.294	6877
944.386	7510
944.478	6244
944.571	6250
944.663	6289
944.755	7608
944.847	8237
944.940	6884
945.032	5106
945.124	4655
945.216	6850
945.308	7369
945.400	7073
945.492	6885
945.584	9870
945.676	8553
945.768	7932
945.860	8555
945.952	8482
946.044	7343
946.136	5845
946.228	6569
946.320	5846
946.412	7040
946.503	9017
946.595	9091
946.687	5586
946.779	5340
946.870	5068
946.962	5697
947.054	5805
947.145	8060
947.237	6283
947.329	6533
947.420	6863
947.512	6419
947.603	3596
947.695	5460
947.786	4842
947.878	5779
947.969	6610
948.061	7491
948.152	6149
948.243	4151
948.335	4090
948.426	5155
948.517	6287
948.609	6861
948.700	6621
948.791	6235
948.882	4012
948.973	4487
949.065	5436
949.156	6690
949.247	4659
949.338	5064
949.429	3620
949.520	4306
949.611	6234
949.702	6881
949.793	5160
949.884	5663
949.975	5153
950.066	3343
950.157	4285
950.247	5295
950.338	3774
950.429	4014
950.520	5141
950.611	4413
950.701	5511
950.792	7362
950.883	6168
950.973	4928
951.064	6254
951.155	6050
951.245	6893
951.336	6546
951.427	6393
951.517	7671
951.608	5677
951.698	4281
951.788	3849
951.879	3855
951.969	3803
952.060	4635
952.150	5623
952.240	7116
952.331	5072
952.421	6353
952.511	3853
952.602	2975
952.692	2594
952.782	3481
952.872	3608
952.962	5135
953.052	4595
953.143	4838
953.233	4726
953.323	5656
953.413	5518
953.503	6422
953.593	4912
953.683	5348
953.773	3667
953.863	4250
953.953	3037
954.042	4480
954.132	4979
954.222	5651
954.312	3648
954.402	4324
954.492	4010
954.581	5451
954.671	5610
954.761	4662
954.850	5098
954.940	2469
955.030	2553
955.119	3678
955.209	2894
955.298	5199
955.388	4961
955.477	6246
955.567	3217
955.656	4280
955.746	3196
955.835	3416
955.925	4168
956.014	5005
956.103	5974
956.193	6760
956.282	5561
956.371	4871
956.461	4232
956.550	4555
956.639	3627
956.728	3974
956.817	4056
956.906	4381
956.995	5408
957.085	4918
957.174	4494
957.263	3612
957.352	4274
957.441	3982
957.530	3373
957.619	4275
957.708	4177
957.796	3925
957.885	4419
957.974	4395
958.063	4565
958.152	2802
958.241	3579
958.329	3005
958.418	4357
958.507	4616
958.596	5233
958.684	4596
958.773	4244
958.861	3202
958.950	2959
959.039	3364
959.127	4408
959.216	3954
959.304	2801
959.393	4270
959.481	4296
959.570	3641
959.658	2582
959.746	2980
959.835	3805
959.923	3826
960.011	3107
960.100	4323
960.188	5201
960.276	3200
960.365	2966
960.453	2435
960.541	2335
960.629	3619
960.717	2433
960.805	2045
960.893	2914
960.981	3342
961.069	5115
961.158	7017
961.245	7094
961.333	5478
961.421	3039
961.509	3948
961.597	3633
961.685	3128
961.773	3905
961.861	3946
961.949	4240
962.036	3252
962.124	2996
962.212	3085
962.299	2634
962.387	2844
962.475	2908
962.562	3433
962.650	3767
962.738	3212
962.825	1766
962.913	3195
963.000	2691
963.088	4531
963.175	3387
963.263	2993
963.350	2993
963.438	3490
963.525	2572
963.612	3291
963.700	3682
963.787	4939
963.874	3859
963.962	3317
964.049	2039
964.136	2109
964.223	2355
964.310	2156
964.398	2966
964.485	2583
964.572	2622
964.659	4300
964.746	2120
964.833	1916
964.920	2224
965.007	3153
965.094	2359
965.181	2996
965.268	3365
965.355	3113
965.441	3404
965.528	1748
965.615	3497
965.702	2987
965.789	2547
965.875	4343
965.962	3051
966.049	3552
966.136	4453
966.222	4769
966.309	4112
966.395	4546
966.482	4537
966.569	4000
966.655	3722
966.742	3202
966.828	3215
966.915	2223
967.001	2044
967.087	2050
967.174	2049
967.260	3046
967.347	2891
967.433	2801
967.519	4319
967.605	3473
967.692	2382
967.778	3540
967.864	2543
967.950	3777
968.036	2203
968.123	3768
968.209	2085
968.295	1729
968.381	3159
968.467	2530
968.553	1375
968.639	4049
968.725	3304
968.811	4041
968.897	3725
968.983	3187
969.069	1381
969.154	1690
969.240	2138
969.326	1922
969.412	1314
969.497	2342
969.583	1988
969.669	3209
969.755	3415
969.840	3297
969.926	5584
970.012	7169
970.097	9443
970.183	7060
970.268	3190
970.354	3881
970.439	2533
970.525	4282
970.610	1669
970.696	3560
970.781	2617
970.866	1851
970.952	2929
971.037	1663
971.122	2816
971.208	3485
971.293	2719
971.378	2454
971.463	2117
971.549	2417
971.634	2224
971.719	2577
971.804	2252
971.889	3064
971.974	2233
972.059	2724
972.144	2308
972.229	2786
972.314	1288
972.399	2708
972.484	1349
972.569	2167
972.654	1292
972.739	3054
972.824	2174
972.908	2022
972.993	1814
973.078	2958
973.163	2361
973.247	2224
973.332	887
973.417	3500
973.501	2711
973.586	3134
973.671	2342
973.755	1988
973.840	2355
973.924	3584
974.009	3951
974.093	3975
974.178	4865
974.262	3432
974.346	2760
974.431	2945
974.515	2273
974.600	2611
974.684	3112
974.768	2750
974.852	2373
974.937	2110
975.021	2766
975.105	2914
975.189	1906
975.273	2749
975.358	1420
975.442	2263
975.526	2437
975.610	2261
975.694	2354
975.778	3802
975.862	2368
975.946	208
976.030	3270
976.114	2407
976.198	2122
976.281	1604
976.365	3286
976.449	2741
976.533	2282
976.617	2039
976.700	1347
976.784	1808
976.868	791
976.951	1985
977.035	2621
977.119	2317
977.202	2619
977.286	3141
977.369	4229
977.453	6513
977.536	5368
977.620	3487
977.703	3528
977.787	2496
977.870	3789
977.953	3823
978.037	1491
978.120	2690
978.203	2852
978.287	3651
978.370	3055
978.453	2299
978.536	2275
978.620	3078
978.703	2953
978.786	2462
978.869	2168
978.952	2446
979.035	3529
979.118	2710
979.201	2375
979.284	3550
979.367	1812
979.450	3054
979.533	2488
979.616	2552
979.699	1353
979.782	2437
979.865	2560
979.948	2321
980.030	1980
980.113	1588
980.196	1752
980.279	2571
980.361	3439
980.444	2517
980.526	3539
980.609	5825
980.692	5903
980.774	5563
980.857	2718
980.939	4974
981.022	3618
981.104	3269
981.187	3101
981.269	3297
981.352	3131
981.434	2308
981.516	2606
981.599	4283
981.681	2625
981.763	2538
981.846	2748
981.928	3436
982.010	2730
982.092	1797
982.174	4562
982.256	2853
982.339	2643
982.421	2762
982.503	3273
982.585	2848
982.667	2838
982.749	2973
982.831	3232
982.913	2837
982.995	3536
983.077	2369
983.158	4973
983.240	2079
983.322	4038
983.404	7932
983.486	5208
983.568	6394
983.649	4912
983.731	4759
983.813	3589
983.894	4223
983.976	3757
984.058	4001
984.139	4365
984.221	3544
984.302	3765
984.384	3757
984.465	3671
984.547	4356
984.628	3293
984.710	4205
984.791	3458
984.872	4017
984.954	3143
985.035	4335
985.116	3110
985.198	2975
985.279	3774
985.360	4352
985.441	3195
985.522	4577
985.604	3668
985.685	2611
985.766	5273
985.847	5498
985.928	4355
986.009	3399
986.090	3949
986.171	3618
986.252	3726
986.333	4517
986.414	4241
986.495	4096
986.576	4703
986.656	4496
986.737	4901
986.818	5111
986.899	4620
986.980	4314
987.060	5072
987.141	4938
987.222	6181
987.302	5961
987.383	6769
987.464	6106
987.544	6921
987.625	5176
987.705	6587
987.786	7004
987.866	6022
987.947	6049
988.027	5352
988.108	5196
988.188	5286
988.268	5060
988.349	6025
988.429	4937
988.509	5376
988.589	5102
988.670	4191
988.750	5955
988.830	3922
988.910	5808
988.990	4558
989.070	4883
989.151	4466
989.231	4551
989.311	4545
989.391	4949
989.471	3918
989.551	4377
989.631	3747
989.711	5756
989.791	4581
989.870	3862
989.950	4886
990.030	4006
990.110	4106
990.190	3461
990.269	3265
990.349	4719
990.429	4011
990.509	4767
990.588	2557
990.668	4415
990.747	3888
990.827	3629
990.907	4219
990.986	4775
991.066	4063
991.145	2999
991.225	4444
991.304	3846
991.383	3543
991.463	3254
991.542	4499
991.622	3331
991.701	2311
991.780	3143
991.859	2377
991.939	3017
992.018	3502
992.097	4001
992.176	3271
992.256	2994
992.335	3605
992.414	4390
992.493	1618
992.572	2756
992.651	3703
992.730	3513
992.809	2417
992.888	2442
992.967	3138
993.046	4061
993.125	1763
993.203	3232
993.282	2702
993.361	3030
993.440	2818
993.519	2026
993.597	2941
993.676	2676
993.755	3320
993.834	2796
993.912	2165
993.991	4032
994.069	1621
994.148	2307
994.226	2439
994.305	3325
994.384	2478
994.462	3993
994.540	1566
994.619	1301
994.697	2570
994.776	2800
994.854	4060
994.932	2270
995.011	1982
995.089	2159
995.167	1605
995.245	1958
995.324	790
995.402	2666
995.480	2033
995.558	1825
995.636	950
995.714	1922
995.792	3382
995.870	1624
995.948	1768
996.026	2282
996.104	390
996.182	2358
996.260	1662
996.338	1807
996.416	1026
996.494	1742
996.572	2176
996.649	1470
996.727	831
996.805	2223
996.883	1722
996.960	2030
997.038	2362
997.116	2051
997.193	1356
997.271	1959
997.348	457
997.426	1751
997.504	1896
997.581	3144
997.658	1105
997.736	-176
997.813	-189
997.891	2814
997.968	909
998.046	1981
998.123	141
998.200	2228
998.277	1032
998.355	2392
998.432	-48
998.509	121
998.586	2199
998.663	1029
998.741	486
998.818	1233
998.895	1077
998.972	2223
999.049	801
999.126	125
999.203	854
999.280	1009
999.357	-11
999.434	1190
999.511	752
999.587	1313
999.664	396
999.741	1368
999.818	1344
999.895	1501
999.971	284
1000.048	653
1000.125	1569
1000.202	669
1000.278	516
1000.355	795
1000.431	484
1000.508	586
1000.584	1167
1000.661	699
1000.738	127
1000.814	960
1000.890	880
1000.967	128
1001.043	869
1001.120	-352
1001.196	1114
1001.272	204
1001.349	499
1001.425	760
1001.501	60
1001.577	1665
1001.654	899
1001.730	59
1001.806	713
1001.882	-173
1001.958	1756
1002.034	1604
1002.110	-180
1002.186	-66
1002.262	29
1002.338	-305
1002.414	1586
1002.490	537
1002.566	-150
1002.642	729
1002.718	496
1002.794	136
1002.870	793
1002.945	293
1003.021	-132
1003.097	-460
1003.173	631
1003.248	-428
1003.324	-16
1003.400	197
1003.475	-123
1003.551	-518
1003.626	-372
1003.702	-703
1003.777	628
1003.853	304
1003.928	-936
1004.004	451
1004.079	263
1004.155	794
1004.230	-286
1004.305	687
1004.381	186
1004.456	554
1004.531	-421
1004.607	-279
1004.682	-67
1004.757	-111
1004.832	121
1004.907	122
1004.982	-453
1005.057	-318
1005.133	220
1005.208	580
1005.283	-976
1005.358	-56
1005.433	-5
1005.508	-356
1005.583	-366
1005.657	145
1005.732	-350
1005.807	-256
1005.882	-290
1005.957	-318
1006.032	-111
1006.106	6
1006.181	11
1006.256	-23
1006.331	-1216
1006.405	-1202
1006.480	-245
1006.554	-365
1006.629	-615
1006.704	-465
1006.778	-499
1006.853	67
1006.927	-903
1007.002	-1426
1007.076	-658
1007.150	-4
1007.225	-863
1007.299	-94
1007.373	-1251
1007.448	-678
1007.522	-696
1007.596	-90
1007.671	-616
1007.745	-24
1007.819	-1300
1007.893	-578
1007.967	-199
1008.041	-865
1008.115	171
1008.190	-1071
1008.264	36
1008.338	-1110
1008.412	-213
1008.486	-180
1008.560	-501
1008.633	-511
1008.707	-962
1008.781	-91
1008.855	-1602
1008.929	-1112
1009.003	-1252
1009.076	-307
1009.150	-959
1009.224	-171
1009.298	-691
1009.371	-308
1009.445	-893
1009.519	-954
1009.592	-1464
1009.666	-561
1009.739	-614
1009.813	-594
1009.886	44
1009.960	-1887
1010.033	-453
1010.107	-476
1010.180	-1582
1010.253	-694
1010.327	-1457
1010.400	-1834
1010.473	-1628
1010.547	-226
1010.620	-2266
1010.693	-1079
1010.766	-1904
1010.840	-433
1010.913	-1133
1010.986	-1309
1011.059	-873
1011.132	-845
1011.205	-717
1011.278	-734
1011.351	-1155
1011.424	-790
1011.497	-1542
1011.570	-1289
1011.643	-568
1011.716	-1538
1011.789	-1744
1011.862	-1007
1011.934	-868
1012.007	-1750
1012.080	-1023
1012.153	-1763
1012.225	-1131
1012.298	-1621
1012.371	-1617
1012.443	-1359
1012.516	-2027
1012.588	-777
1012.661	-1159
1012.733	-920
1012.806	-343
1012.879	-563
1012.951	-1203
1013.023	-639
1013.096	-1295
1013.168	-1750
1013.241	-1371
1013.313	-760
1013.385	-1774
1013.458	-315
1013.530	-583
1013.602	-1986
1013.674	-1023
1013.746	-1541
1013.819	-1180
1013.891	-866
1013.963	-1997
1014.035	-636
1014.107	-1113
1014.179	-846
1014.251	-2091
1014.323	-1517
1014.395	-2095
1014.467	-186
1014.539	-1620
1014.611	-1472
1014.683	-1665
1014.754	-961
1014.826	-2787
1014.898	-1357
1014.970	-1709
1015.042	-96
1015.113	-662
1015.185	-1550
1015.257	-2499
1015.328	-1170
1015.400	-1707
1015.471	-1365
1015.543	-1387
1015.615	-1018
1015.686	-1686
1015.757	-1093
1015.829	-1186
1015.901	-2448
1015.972	-1618
1016.043	-961
1016.115	-546
1016.186	-1239
1016.257	-2150
1016.328	-109
1016.400	-1202
1016.471	-2026
1016.542	-1579
1016.613	-1139
1016.685	-1630
1016.756	-1277
1016.827	-1708
1016.898	-2116
1016.969	-822
1017.040	-1432
1017.111	-1814
1017.182	-1195
1017.253	-1216
1017.324	-1936
1017.395	-1571
1017.466	-1178
1017.537	-1178
1017.608	-835
1017.678	-1069
1017.749	-1341
1017.820	-1648
1017.891	-2279
1017.961	-1608
1018.032	-1588
1018.103	-1473
1018.173	-1507
1018.244	-2505
1018.315	-994
1018.385	-1360
1018.456	-1974
1018.526	-1514
1018.597	-1372
1018.667	-1407
1018.738	-1317
1018.808	-1033
1018.878	-1640
1018.949	-1591
1019.019	-1096
1019.089	-1775
1019.160	-1260
1019.230	-1966
1019.300	-601
1019.371	-2132
1019.441	-960
1019.511	-1804
1019.581	-1324
1019.651	-2075
1019.721	-973
1019.791	-1612
1019.861	-1315
1019.931	-1996
1020.001	-1715
1020.071	-1747
1020.141	-1382
1020.211	-2522
1020.281	-1751
1020.351	-2474
1020.421	-809
1020.491	-1173
1020.560	-1655
1020.630	-2238
1020.700	-1763
1020.770	-2245
1020.839	-1586
1020.909	-1739
1020.979	-2016
1021.048	-1938
1021.118	-1302
1021.187	-1150
1021.257	-1893
1021.326	-1301
1021.396	-1760
1021.465	-1848
1021.535	-1383
1021.604	-2005
1021.674	-1322
1021.743	-1630
1021.812	-1046
1021.882	-1981
1021.951	-1753
1022.020	-1021
1022.089	-1983
1022.159	-2268
1022.228	-518
1022.297	-2025
1022.366	-1726
1022.435	-2177
1022.504	-1861
1022.573	-2279
1022.642	-1855
1022.711	-2859
1022.781	-1303
1022.849	-1376
1022.918	-1896
1022.987	-2450
1023.056	-1708
1023.125	-2002
1023.194	-2058
1023.263	-1706
1023.331	-1331
1023.400	-1776
1023.469	-1843
1023.538	-1060
1023.606	-2374
1023.675	-1472
1023.744	-2059
1023.812	-2229
1023.881	-1364
1023.949	-2086
1024.018	-1458
1024.086	-1896
1024.155	-2172
1024.223	-1603
1024.292	-904
1024.360	-1466
1024.429	-1077
1024.497	-2002
1024.565	-1278
1024.634	-1717
1024.702	-1674
1024.770	-2441
1024.838	-2129
1024.907	-1717
1024.975	-1905
1025.043	-2376
1025.111	-1504
1025.179	-1842
1025.247	-2099
1025.315	-2656
1025.383	-2510
1025.451	-2100
1025.519	-1719
1025.587	-2607
1025.655	-1838
1025.723	-1814
1025.791	-2330
1025.859	-1973
1025.927	-1306
1025.995	-2325
1026.062	-1528
1026.130	-1343
1026.198	-1638
1026.266	-2066
1026.333	-824
1026.401	-1946
1026.469	-1136
1026.536	-2400
1026.604	-1767
1026.671	-2292
1026.739	-845
1026.806	-1293
1026.874	-1744
1026.941	-2400
1027.009	-1879
1027.076	-2854
1027.144	-806
1027.211	-2272
1027.278	-2285
1027.345	-2054
1027.413	-2990
1027.480	-1906
1027.547	-895
1027.614	-1634
1027.682	-1843
1027.749	-2269
1027.816	-1595
1027.883	-2269
1027.950	-1468
1028.017	-2257
1028.084	-1341
1028.151	-1951
1028.218	-1559
1028.285	-1747
1028.352	-2432
1028.419	-2272
1028.486	-2056
1028.553	-1791
1028.619	-1568
1028.686	-2158
1028.753	-1629
1028.820	-2599
1028.886	-2084
1028.953	-2288
1029.020	-1443
1029.086	-2269
1029.153	-2685
1029.220	-1737
1029.286	-1345
1029.353	-737
1029.419	-2421
1029.486	-2755
1029.552	-1968
1029.619	-2730
1029.685	-2216
1029.751	-1523
1029.818	-1245
1029.884	-2062
1029.951	-897
1030.017	-2004
1030.083	-2036
1030.149	-1395
1030.216	-2816
1030.282	-2338
1030.348	-2738
1030.414	-2310
1030.480	-1554
1030.546	-1514
1030.612	-1631
1030.678	-2021
1030.744	-1798
1030.810	-1627
1030.876	-1986
1030.942	-2313
1031.008	-2007
1031.074	-2116
1031.140	-1113
1031.206	-2144
1031.272	-1885
1031.337	-2389
1031.403	-1900
1031.469	-1968
1031.534	-2842
1031.600	-2015
1031.666	-1810
1031.731	-1583
1031.797	-1751
1031.863	-1747
1031.928	-2816
1031.994	-1837
1032.059	-1903
1032.125	-2380
1032.190	-2380
1032.256	-2127
1032.321	-1963
1032.386	-2768
1032.452	-1906
1032.517	-2855
1032.582	-1688
1032.647	-2096
1032.713	-2145
1032.778	-2031
1032.843	-1976
1032.908	-2366
1032.974	-2245
1033.039	-1656
1033.104	-1380
1033.169	-2358
1033.234	-2138
1033.299	-2202
1033.364	-1797
1033.429	-2225
1033.494	-2010
1033.559	-2357
1033.624	-1753
1033.688	-1597
1033.753	-1281
1033.818	-1503
1033.883	-869
1033.948	-1693
1034.013	-504
1034.077	361
1034.142	768
1034.207	1364
1034.271	4240
1034.336	4484
1034.400	2146
1034.465	-33
1034.530	-164
1034.594	-774
1034.658	-1550
1034.723	-2677
1034.787	-1737
1034.852	-1686
1034.916	-1882
1034.981	-2443
1035.045	-1824
1035.109	-2428
1035.173	-1160
1035.238	-2929
1035.302	-1586
1035.366	-3055
1035.430	-1793
1035.495	-2061
1035.559	-1393
1035.623	-2705
1035.687	-2303
1035.751	-1763
1035.815	-2670
1035.879	-1594
1035.943	-1674
1036.007	-2697
1036.071	-1277
1036.135	-2762
1036.198	-1327
1036.262	-1923
1036.326	-2363
1036.390	-2873
1036.454	-1956
1036.517	-2269
1036.581	-2223
1036.645	-2220
1036.709	-1776
1036.772	-2840
1036.836	-1756
1036.900	-1370
1036.963	-2604
1037.026	-2293
1037.090	-1792
1037.154	-2109
1037.217	-2339
1037.280	-1734
1037.344	-2359
1037.407	-2814
1037.471	-1945
1037.534	-3085
1037.597	-2276
1037.661	-2089
1037.724	-1693
1037.787	-2349
1037.850	-3043
1037.913	-2317
1037.977	-2460
1038.040	-3151
1038.103	-1825
1038.166	-2402
1038.229	-1698
1038.292	-2129
1038.355	-1772
1038.418	-1870
1038.481	-2342
1038.544	-1976
1038.607	-2644
1038.670	-2481
1038.732	-2226
1038.795	-2580
1038.858	-2107
1038.921	-1999
1038.984	-1494
1039.046	-2353
1039.109	-1700
1039.172	-1678
1039.234	-2510
1039.297	-2971
1039.360	-2423
1039.422	-1503
1039.485	-1696
1039.547	-2303
1039.610	-1381
1039.672	-2103
1039.734	-2302
1039.797	-2535
1039.859	-1929
1039.922	-2029
1039.984	-2606
1040.046	-2302
1040.109	-2222
1040.171	-2667
1040.233	-2014
1040.295	-2376
1040.358	-1882
1040.420	-1977
1040.482	-2045
1040.544	-1985
1040.606	-2125
1040.668	-2148
1040.730	-2297
1040.792	-2170
1040.854	-2143
1040.916	-1763
1040.978	-2538
1041.040	-1286
1041.102	-2281
1041.164	-2973
1041.225	-1642
1041.287	-3138
1041.349	-2033
1041.411	-2026
1041.472	-2463
1041.534	-2456
1041.596	-3042
1041.657	-2535
1041.719	-1297
1041.781	-2282
1041.842	-1813
1041.904	-2420
1041.965	-2290
1042.027	-2226
1042.088	-1616
1042.150	-2352
1042.211	-2159
1042.272	-2777
1042.334	-1766
1042.395	-2380
1042.456	-1974
1042.518	-2334
1042.579	-1580
1042.640	-3066
1042.701	-2728
1042.763	-2465
1042.824	-2145
1042.885	-2586
1042.946	-2774
1043.007	-1937
1043.068	-2003
1043.129	-2403
1043.190	-2684
1043.251	-1662
1043.312	-2436
1043.373	-2142
1043.434	-1752
1043.495	-1625
1043.556	-2749
1043.616	-2044
1043.677	-2660
1043.738	-2188
1043.799	-1645
1043.859	-2221
1043.920	-2664
1043.981	-2263
1044.041	-2066
1044.102	-2070
1044.162	-2087
1044.223	-3175
1044.284	-1417
1044.344	-2403
1044.405	-1943
1044.465	-2306
1044.525	-1839
1044.586	-2486
1044.646	-1715
1044.707	-1107
1044.767	-1988
1044.827	-1912
1044.887	-1911
1044.948	-1707
1045.008	-1879
1045.068	-2250
1045.128	-1661
1045.188	-2204
1045.249	-1968
1045.309	-2105
1045.369	-1965
1045.429	-1731
1045.489	-1942
1045.549	-2772
1045.609	-2585
1045.669	-2787
1045.729	-2474
1045.789	-2000
1045.848	-1326
1045.908	-1946
1045.968	-1877
1046.028	-1607
1046.088	-2444
1046.147	-1690
1046.207	-1736
1046.267	-2114
1046.326	-1161
1046.386	-1664
1046.446	-1644
1046.505	-1290
1046.565	-934
1046.624	-833
1046.684	-991
1046.743	-82
1046.803	-683
1046.862	-570
1046.922	0
