'Start Wavelength	183.907
'End Wavelength	1046.922
'Gate Delay	5.000
'Gate Width (ms)	1.050
'Laser Output Level	0.000
'X Position	0.000
'Y Position	0.000
'Z Position	0.000
'Grid Point Number	1.000
'Shot Number	100.000
183.907	760.000
183.977	103.000
184.047	282
184.116	804
184.186	436
184.256	350
184.325	-241
184.395	-556
184.465	-43
184.534	537
184.604	14
184.674	190
184.743	-629
184.813	875
184.883	-183
184.952	493
185.022	-122
185.092	-119
185.161	106
185.231	-492
185.301	517
185.370	556
185.440	115
185.509	224
185.579	-109
185.649	-918
185.718	487
185.788	688
185.857	257
185.927	-710
185.996	579
186.066	-132
186.136	-116
186.205	-345
186.275	772
186.344	-245
186.414	145
186.483	-444
186.553	539
186.622	738
186.692	381
186.761	128
186.831	158
186.900	-368
186.970	-167
187.039	-561
187.109	109
187.178	577
187.248	419
187.317	-189
187.387	-301
187.456	23
187.526	307
187.595	-129
187.664	-12
187.734	-22
187.803	-606
187.873	211
187.942	-476
188.012	-30
188.081	-698
188.150	395
188.220	699
188.289	1097
188.358	-122
188.428	889
188.497	77
188.567	753
188.636	289
188.705	-858
188.775	606
188.844	-992
188.913	1038
188.983	-64
189.052	262
189.121	-570
189.191	389
189.260	435
189.329	-377
189.399	249
189.468	-96
189.537	-310
189.606	461
189.676	269
189.745	-203
189.814	235
189.883	-91
189.953	18
190.022	-324
190.091	-85
190.161	770
190.230	411
190.299	-241
190.368	-143
190.437	-340
190.507	-692
190.576	286
190.645	-222
190.714	29
190.783	-641
190.853	557
190.922	184
190.991	-181
191.060	-121
191.129	-292
191.198	709
191.268	167
191.337	-588
191.406	594
191.475	133
191.544	169
191.613	414
191.682	-232
191.752	-425
191.821	-516
191.890	-473
191.959	-657
192.028	401
192.097	127
192.166	400
192.235	-733
192.304	297
192.373	-499
192.442	-17
192.511	-142
192.580	-50
192.650	-24
192.719	-360
192.788	916
192.857	678
192.926	375
192.995	56
193.064	257
193.133	-356
193.202	13
193.271	314
193.340	-106
193.409	3
193.478	264
193.547	263
193.615	276
193.684	721
193.753	-510
193.822	182
193.891	-61
193.960	20
194.029	-529
194.098	-61
194.167	197
194.236	302
194.305	-196
194.374	-834
194.443	-61
194.512	304
194.580	611
194.649	161
194.718	-465
194.787	-211
194.856	-50
194.925	-140
194.994	658
195.062	219
195.131	-137
195.200	-503
195.269	-921
195.338	694
195.407	790
195.475	-210
195.544	833
195.613	-118
195.682	673
195.751	31
195.819	-259
195.888	-17
195.957	379
196.026	-192
196.094	427
196.163	-280
196.232	-93
196.301	-338
196.369	-149
196.438	47
196.507	-751
196.576	-473
196.644	463
196.713	-397
196.782	-150
196.850	-107
196.919	145
196.988	-115
197.056	-343
197.125	172
197.194	25
197.262	-764
197.331	301
197.400	366
197.468	-316
197.537	-459
197.606	-612
197.674	131
197.743	383
197.812	-41
197.880	211
197.949	376
198.017	501
198.086	8
198.155	92
198.223	-168
198.292	215
198.360	102
198.429	-196
198.497	-319
198.566	696
198.635	259
198.703	220
198.772	735
198.840	-465
198.909	-321
198.977	-142
199.046	-324
199.114	14
199.183	267
199.251	196
199.320	-531
199.388	58
199.457	-1
199.525	-238
199.594	-939
199.662	100
199.731	-611
199.799	-605
199.867	648
199.936	-152
200.004	-526
200.073	696
200.141	-231
200.210	-993
200.278	-411
200.346	-422
200.415	1019
200.483	257
200.552	-623
200.620	-267
200.688	109
200.757	-166
200.825	-385
200.893	-575
200.962	-429
201.030	-659
201.098	-417
201.167	-217
201.235	-333
201.303	-910
201.372	-90
201.440	685
201.508	-11
201.577	-300
201.645	-209
201.713	-71
201.781	177
201.850	-265
201.918	-878
201.986	-712
202.055	717
202.123	-112
202.191	244
202.259	-25
202.327	-584
202.396	-642
202.464	-373
202.532	-160
202.600	522
202.669	-58
202.737	-328
202.805	-715
202.873	-241
202.941	196
203.009	335
203.078	-802
203.146	-48
203.214	262
203.282	-849
203.350	-6
203.418	-107
203.487	-273
203.555	112
203.623	310
203.691	-28
203.759	354
203.827	-760
203.895	-528
203.963	84
204.031	72
204.099	-180
204.168	-851
204.236	-142
204.304	219
204.372	137
204.440	220
204.508	-660
204.576	-207
204.644	-92
204.712	-875
204.780	227
204.848	-854
204.916	-585
204.984	-318
205.052	-308
205.120	-641
205.188	55
205.256	-30
205.324	-32
205.392	-80
205.460	314
205.528	-492
205.596	-2
205.664	-297
205.732	-868
205.799	-189
205.867	674
205.935	-596
206.003	593
206.071	-504
206.139	214
206.207	-425
206.275	-526
206.343	-712
206.411	172
206.478	-155
206.546	-10
206.614	298
206.682	-447
206.750	-208
206.818	95
206.885	-47
206.953	-1022
207.021	602
207.089	236
207.157	-783
207.225	180
207.292	-951
207.360	-889
207.428	-300
207.496	-644
207.563	268
207.631	-460
207.699	-460
207.767	-136
207.834	-800
207.902	-325
207.970	-473
208.038	-212
208.105	110
208.173	-330
208.241	-50
208.309	-639
208.376	234
208.444	-50
208.512	-653
208.579	-261
208.647	25
208.715	1244
208.782	-183
208.850	438
208.918	-328
208.985	-283
209.053	-185
209.120	-536
209.188	-170
209.256	-1210
209.323	-1196
209.391	-305
209.459	1011
209.526	-546
209.594	-245
209.661	449
209.729	-398
209.796	-291
209.864	-492
209.932	-1052
209.999	744
210.067	139
210.134	-481
210.202	-195
210.269	322
210.337	-31
210.404	336
210.472	-334
210.539	595
210.607	-444
210.674	-719
210.742	-339
210.809	-1054
210.877	-571
210.944	785
211.012	-1284
211.079	994
211.146	-392
211.214	-124
211.281	302
211.349	799
211.416	16
211.484	-301
211.551	-1093
211.618	177
211.686	-531
211.753	-827
211.821	-198
211.888	73
211.955	-252
212.023	154
212.090	-434
212.157	303
212.225	-28
212.292	1170
212.359	258
212.427	1732
212.494	814
212.561	225
212.629	-723
212.696	-552
212.763	-876
212.831	-317
212.898	448
212.965	-503
213.032	-132
213.100	103
213.167	-428
213.234	474
213.301	67
213.369	-544
213.436	-393
213.503	-322
213.570	-31
213.638	47
213.705	-860
213.772	-1266
213.839	-241
213.906	630
213.973	134
214.041	-195
214.108	-1017
214.175	-870
214.242	-157
214.309	-466
214.376	98
214.444	-977
214.511	-1137
214.578	-73
214.645	355
214.712	-874
214.779	156
214.846	-1252
214.913	-163
214.980	753
215.048	779
215.115	414
215.182	298
215.249	-103
215.316	-138
215.383	-204
215.450	-88
215.517	-268
215.584	-561
215.651	426
215.718	-54
215.785	323
215.852	-248
215.919	308
215.986	-315
216.053	-45
216.120	-1146
216.187	-449
216.254	-95
216.321	-687
216.388	767
216.455	-709
216.522	107
216.589	-731
216.656	37
216.722	-354
216.789	-426
216.856	-458
216.923	-1003
216.990	464
217.057	-159
217.124	84
217.191	-958
217.258	38
217.324	-170
217.391	-478
217.458	-688
217.525	-453
217.592	-336
217.659	-1594
217.725	480
217.792	-555
217.859	896
217.926	-1084
217.993	-1098
218.059	46
218.126	-82
218.193	-339
218.260	-441
218.327	-405
218.393	-587
218.460	-196
218.527	-789
218.594	-683
218.660	-706
218.727	865
218.794	-640
218.860	912
218.927	-1102
218.994	-181
219.061	-244
219.127	-402
219.194	9
219.261	-383
219.327	-766
219.394	136
219.461	-603
219.527	-322
219.594	-678
219.661	-75
219.727	-667
219.794	-295
219.860	-660
219.927	63
219.994	700
220.060	2712
220.127	2452
220.193	1476
220.260	49
220.326	334
220.393	-31
220.460	61
220.526	-318
220.593	-762
220.659	722
220.726	237
220.792	530
220.859	851
220.925	612
220.992	1098
221.058	1150
221.125	876
221.191	833
221.258	-409
221.324	83
221.391	-252
221.457	-85
221.524	-396
221.590	-733
221.657	1358
221.723	-723
221.789	734
221.856	569
221.922	-762
221.989	24
222.055	497
222.121	-1083
222.188	1363
222.254	68
222.321	133
222.387	-439
222.453	-462
222.520	-317
222.586	-300
222.652	-257
222.719	-1073
222.785	-335
222.851	-643
222.918	-94
222.984	-817
223.050	-751
223.116	-1975
223.183	527
223.249	-803
223.315	-871
223.382	-707
223.448	-272
223.514	-1544
223.580	-557
223.647	-867
223.713	-739
223.779	178
223.845	-580
223.911	-38
223.978	-830
224.044	109
224.110	-157
224.176	-4
224.242	-829
224.309	-950
224.375	-305
224.441	-548
224.507	-370
224.573	-1111
224.639	138
224.705	-740
224.772	-416
224.838	-474
224.904	-395
224.970	-603
225.036	-718
225.102	-699
225.168	-163
225.234	-247
225.300	339
225.366	-51
225.432	242
225.499	-243
225.565	-1059
225.631	-764
225.697	-762
225.763	-207
225.829	-811
225.895	-413
225.961	28
226.027	-230
226.093	-772
226.159	508
226.225	967
226.291	2090
226.357	2447
226.423	619
226.489	-126
226.554	276
226.620	-184
226.686	57
226.752	-176
226.818	1238
226.884	4607
226.950	3962
227.016	982
227.082	866
227.148	551
227.214	-426
227.279	251
227.345	789
227.411	1055
227.477	1505
227.543	4423
227.609	4360
227.674	2783
227.740	764
227.806	553
227.872	300
227.938	120
228.003	325
228.069	217
228.135	-155
228.201	-272
228.267	-820
228.332	-194
228.398	-1848
228.464	458
228.530	-443
228.595	-867
228.661	-1042
228.727	-515
228.792	1128
228.858	-993
228.924	-2286
228.990	724
229.055	-2025
229.121	32
229.187	-31
229.252	-927
229.318	-455
229.384	-148
229.449	-416
229.515	-2019
229.581	-1469
229.646	609
229.712	-137
229.777	73
229.843	-920
229.909	146
229.974	-59
230.040	-699
230.105	-456
230.171	-550
230.236	-197
230.302	-285
230.368	-775
230.433	-1272
230.499	-418
230.564	530
230.630	-1239
230.695	-724
230.761	353
230.826	-1763
230.892	-69
230.957	-1048
231.023	267
231.088	-805
231.154	-1130
231.219	-372
231.284	-931
231.350	113
231.415	-1108
231.481	-7
231.546	-946
231.612	-673
231.677	-1304
231.742	-1391
231.808	425
231.873	-1057
231.939	-2141
232.004	293
232.069	381
232.135	-260
232.200	-831
232.265	144
232.331	-1027
232.396	-1305
232.461	-772
232.527	256
232.592	-1732
232.657	-141
232.723	-104
232.788	-529
232.853	-230
232.918	738
232.984	-443
233.049	-963
233.114	-1031
233.179	-91
233.245	-406
233.310	143
233.375	-1654
233.440	248
233.506	-794
233.571	-1063
233.636	-592
233.701	-231
233.766	-801
233.832	-142
233.897	-1132
233.962	-1091
234.027	361
234.092	199
234.157	-630
234.222	-675
234.288	-43
234.353	182
234.418	178
234.483	181
234.548	-603
234.613	-712
234.678	153
234.743	-748
234.808	1221
234.873	-1930
234.938	307
235.004	-217
235.069	-102
235.134	-1361
235.199	550
235.264	-952
235.329	-1717
235.394	504
235.459	63
235.524	-1407
235.589	-1147
235.654	-358
235.719	-900
235.784	262
235.849	-625
235.913	-500
235.978	-321
236.043	-82
236.108	-562
236.173	-1477
236.238	-651
236.303	-593
236.368	-857
236.433	494
236.498	-812
236.563	32
236.627	611
236.692	6546
236.757	4552
236.822	1300
236.887	-151
236.952	434
237.017	-1807
237.081	1105
237.146	-853
237.211	2729
237.276	6087
237.341	11992
237.405	3211
237.470	121
237.535	-128
237.600	118
237.664	-417
237.729	-961
237.794	-1076
237.859	1149
237.923	-593
237.988	-301
238.053	255
238.118	-552
238.182	-96
238.247	1543
238.312	-1315
238.376	174
238.441	-1757
238.506	1174
238.570	-1493
238.635	124
238.700	-588
238.764	-381
238.829	286
238.893	-1316
238.958	350
239.023	-655
239.087	-174
239.152	495
239.216	-738
239.281	-414
239.346	-402
239.410	-113
239.475	48
239.539	449
239.604	-1399
239.668	396
239.733	593
239.797	3364
239.862	7712
239.926	6345
239.991	2479
240.055	715
240.120	148
240.184	278
240.249	-692
240.313	-88
240.378	-89
240.442	-541
240.507	584
240.571	-561
240.635	-1389
240.700	-580
240.764	-325
240.829	-615
240.893	-1532
240.957	367
241.022	92
241.086	448
241.151	-1084
241.215	-733
241.279	192
241.344	-678
241.408	-845
241.472	-1311
241.537	715
241.601	-167
241.665	-1547
241.730	-564
241.794	717
241.858	-709
241.922	-898
241.987	-374
242.051	-224
242.115	-1564
242.179	292
242.244	-1518
242.308	-420
242.372	-494
242.436	-785
242.501	-226
242.565	-1223
242.629	-1257
242.693	-200
242.757	-1208
242.822	58
242.886	3
242.950	727
243.014	-1586
243.078	604
243.142	-485
243.206	-794
243.271	8
243.335	106
243.399	669
243.463	1777
243.527	6484
243.591	1098
243.655	380
243.719	-1594
243.783	842
243.847	225
243.911	-410
243.975	-847
244.040	-1840
244.104	838
244.168	-147
244.232	-1459
244.296	-343
244.360	-853
244.424	-1328
244.488	-201
244.552	-196
244.615	-1734
244.679	-474
244.743	-1095
244.807	-827
244.871	485
244.935	198
244.999	-1463
245.063	-1001
245.127	66
245.191	-596
245.255	-1203
245.319	-342
245.383	-1981
245.446	1007
245.510	-1204
245.574	-916
245.638	35
245.702	-1433
245.766	538
245.829	-51
245.893	-1168
245.957	-881
246.021	282
246.085	-1251
246.149	-431
246.212	1361
246.276	1157
246.340	-747
246.404	-150
246.467	450
246.531	-1962
246.595	743
246.659	532
246.722	-1472
246.786	-529
246.850	-16
246.913	-1076
246.977	-861
247.041	-188
247.104	-605
247.168	-104
247.232	-840
247.295	2499
247.359	501
247.423	111
247.486	359
247.550	156
247.614	-737
247.677	292
247.741	-620
247.804	85
247.868	443
247.932	-969
247.995	3191
248.059	-170
248.122	-1558
248.186	474
248.249	-22
248.313	4056
248.376	4520
248.440	1522
248.503	-1435
248.567	1279
248.630	24
248.694	274
248.757	1199
248.821	5063
248.884	2936
248.948	1759
249.011	2736
249.075	5155
249.138	5062
249.202	296
249.265	-783
249.328	721
249.392	-1030
249.455	381
249.519	289
249.582	-361
249.645	656
249.709	112
249.772	356
249.835	130
249.899	-543
249.962	429
250.025	-570
250.089	273
250.152	2102
250.215	-1041
250.279	-530
250.342	158
250.405	-55
250.468	-687
250.532	369
250.595	1244
250.658	4932
250.721	12009
250.785	1486
250.848	1552
250.911	-58
250.974	887
251.038	-103
251.101	2657
251.164	-771
251.227	1024
251.290	395
251.354	913
251.417	9598
251.480	9408
251.543	4373
251.606	18929
251.669	12549
251.732	3248
251.795	3126
251.859	4099
251.922	10883
251.985	6007
252.048	1689
252.111	1088
252.174	2
252.237	2044
252.300	5981
252.363	4835
252.426	16629
252.489	4087
252.552	1694
252.615	-21
252.678	1198
252.741	3770
252.804	4732
252.867	15647
252.930	7712
252.993	2307
253.056	1693
253.119	583
253.182	-163
253.245	818
253.308	963
253.371	-833
253.434	-66
253.497	667
253.559	2103
253.622	1009
253.685	459
253.748	397
253.811	-551
253.874	280
253.937	-603
254.000	620
254.062	725
254.125	2004
254.188	1817
254.251	773
254.314	-580
254.376	-69
254.439	298
254.502	-291
254.565	418
254.628	2629
254.690	692
254.753	-558
254.816	-866
254.878	-592
254.941	1538
255.004	881
255.067	94
255.129	-668
255.192	126
255.255	-1457
255.317	-338
255.380	-577
255.443	-515
255.505	-765
255.568	-877
255.631	-468
255.693	62
255.756	-552
255.819	1325
255.881	-825
255.944	-9
256.006	-843
256.069	-475
256.132	-856
256.194	-133
256.257	-454
256.319	420
256.382	-711
256.444	822
256.507	-390
256.569	-969
256.632	-533
256.694	-360
256.757	2569
256.819	11000
256.882	2191
256.944	976
257.007	295
257.069	-341
257.132	-387
257.194	505
257.257	-1139
257.319	-761
257.381	-1076
257.444	1982
257.506	11999
257.569	11454
257.631	3129
257.693	1090
257.756	62
257.818	-460
257.880	-758
257.943	196
258.005	-901
258.067	-548
258.130	34
258.192	-755
258.254	-671
258.317	99
258.379	-653
258.441	-666
258.503	1271
258.566	-160
258.628	682
258.690	-1208
258.753	275
258.815	17
258.877	-664
258.939	-684
259.001	-305
259.064	-699
259.126	-918
259.188	-473
259.250	-356
259.312	-114
259.375	-711
259.437	-280
259.499	-864
259.561	-8
259.623	-105
259.685	-727
259.747	-610
259.809	189
259.872	1336
259.934	2265
259.996	3700
260.058	451
260.120	-1017
260.182	-37
260.244	176
260.306	-893
260.368	-576
260.430	-1055
260.492	892
260.554	1646
260.616	-213
260.678	784
260.740	1288
260.802	-358
260.864	-380
260.926	-1013
260.988	-63
261.050	-985
261.112	924
261.174	4692
261.236	707
261.298	-531
261.359	247
261.421	863
261.483	-814
261.545	631
261.607	-1663
261.669	340
261.731	-699
261.793	747
261.854	-1715
261.916	128
261.978	28
262.040	822
262.102	362
262.164	-849
262.225	-360
262.287	351
262.349	-575
262.411	-171
262.472	599
262.534	-537
262.596	-176
262.658	-91
262.719	-1067
262.781	350
262.843	-1027
262.904	-332
262.966	-106
263.028	-430
263.090	2382
263.151	6638
263.213	2341
263.275	1001
263.336	-339
263.398	677
263.459	-766
263.521	-827
263.583	250
263.644	453
263.706	-538
263.767	-235
263.829	-8
263.891	-968
263.952	-855
264.014	876
264.075	200
264.137	2300
264.198	150
264.260	-153
264.321	-62
264.383	-183
264.444	3820
264.506	676
264.567	79
264.629	1357
264.690	2949
264.752	994
264.813	507
264.875	-402
264.936	749
264.998	-369
265.059	75
265.120	223
265.182	91
265.243	3984
265.305	3778
265.366	754
265.427	172
265.489	53
265.550	-1302
265.611	-537
265.673	412
265.734	423
265.795	-367
265.857	-626
265.918	-984
265.979	447
266.040	7579
266.102	5731
266.163	1440
266.224	895
266.286	85
266.347	-732
266.408	-775
266.469	-192
266.530	-630
266.592	-793
266.653	157
266.714	-493
266.775	-758
266.836	613
266.898	-810
266.959	3
267.020	-1163
267.081	695
267.142	-1114
267.203	-990
267.264	-1315
267.326	334
267.387	-777
267.448	-845
267.509	-597
267.570	-320
267.631	-58
267.692	-1272
267.753	-512
267.814	-583
267.875	170
267.936	-326
267.997	725
268.058	89
268.119	-275
268.180	-1016
268.241	-749
268.302	-585
268.363	-744
268.424	-1019
268.485	-171
268.546	-933
268.607	-688
268.668	-274
268.729	-1217
268.790	-1234
268.851	-393
268.912	-149
268.972	203
269.033	-1439
269.094	-1180
269.155	-1027
269.216	-874
269.277	-434
269.338	-806
269.398	-887
269.459	-655
269.520	-375
269.581	-956
269.642	-1150
269.702	-554
269.763	-6
269.824	-538
269.885	381
269.945	-323
270.006	231
270.067	-884
270.128	-640
270.188	-897
270.249	-1328
270.310	-577
270.370	-246
270.431	-745
270.492	-1218
270.553	-447
270.613	-166
270.674	799
270.734	-793
270.795	-213
270.856	-181
270.916	-535
270.977	-661
271.038	-469
271.098	-800
271.159	-812
271.219	-829
271.280	393
271.340	-335
271.401	-741
271.462	-469
271.522	-484
271.583	-514
271.643	-383
271.704	61
271.764	-219
271.825	-163
271.885	3697
271.946	6203
272.006	2021
272.066	1392
272.127	5737
272.187	3938
272.248	1808
272.308	-374
272.369	3636
272.429	691
272.489	305
272.550	-506
272.610	75
272.671	-721
272.731	-70
272.791	324
272.852	-453
272.912	239
272.972	-274
273.033	-241
273.093	-613
273.153	154
273.214	326
273.274	-446
273.334	1662
273.394	3735
273.455	42
273.515	765
273.575	1838
273.635	857
273.696	1344
273.756	4565
273.816	1345
273.876	524
273.936	-44
273.997	2396
274.057	-84
274.117	-623
274.177	-332
274.237	4939
274.297	5214
274.358	1300
274.418	2852
274.478	1820
274.538	65
274.598	-153
274.658	480
274.718	1479
274.778	402
274.838	-181
274.898	241
274.958	1561
275.018	3895
275.078	2393
275.138	192
275.198	278
275.258	-481
275.318	-871
275.378	-624
275.438	-363
275.498	-524
275.558	327
275.618	2377
275.678	1282
275.738	833
275.798	1044
275.858	141
275.918	-443
275.978	10
276.038	150
276.098	-645
276.157	-869
276.217	1268
276.277	639
276.337	-194
276.397	-282
276.457	-449
276.517	825
276.576	-102
276.636	-279
276.696	-258
276.756	196
276.815	-17
276.875	-909
276.935	-434
276.995	-174
277.055	-86
277.114	605
277.174	343
277.234	1026
277.293	-878
277.353	-597
277.413	706
277.472	-3
277.532	-932
277.592	-8
277.651	2603
277.711	5980
277.771	1346
277.830	6455
277.890	5106
277.950	3970
278.009	15059
278.069	4656
278.128	4586
278.188	6197
278.248	1694
278.307	7813
278.367	4255
278.426	931
278.486	-145
278.545	-192
278.605	201
278.664	-30
278.724	-504
278.783	1357
278.843	4715
278.902	1066
278.962	74
279.021	304
279.081	82
279.140	782
279.199	386
279.259	86
279.318	92
279.378	1594
279.437	1678
279.496	7832
279.556	35440
279.615	28517
279.675	6170
279.734	3383
279.793	2852
279.853	4505
279.912	1144
279.971	739
280.031	692
280.090	2390
280.149	2697
280.208	3552
280.268	25055
280.327	26623
280.386	4000
280.445	2756
280.505	1174
280.564	286
280.623	1142
280.682	1444
280.742	1194
280.801	378
280.860	540
280.919	639
280.978	102
281.037	-545
281.097	-823
281.156	375
281.215	353
281.274	225
281.333	2267
281.392	1580
281.451	640
281.510	96
281.569	-461
281.628	-668
281.688	12
281.747	423
281.806	-449
281.865	-216
281.924	-108
281.983	-898
282.042	-680
282.101	-500
282.160	-114
282.219	-653
282.278	-68
282.337	885
282.396	678
282.454	301
282.513	-288
282.572	1302
282.631	744
282.690	99
282.749	-985
282.808	93
282.867	-149
282.926	-594
282.985	-188
283.043	-750
283.102	-257
283.161	-354
283.220	1043
283.279	2397
283.338	-234
283.396	-1098
283.455	98
283.514	63
283.573	340
283.631	-255
283.690	-331
283.749	-11
283.808	-173
283.866	1288
283.925	43
283.984	707
284.043	61
284.101	-13
284.160	114
284.219	411
284.277	263
284.336	135
284.395	2661
284.453	2538
284.512	983
284.570	778
284.629	500
284.688	1159
284.746	799
284.805	1135
284.863	1908
284.922	3039
284.981	3692
285.039	5917
285.098	10358
285.156	26219
285.215	60888
285.273	61690
285.332	30787
285.390	14958
285.449	7843
285.507	5790
285.566	3456
285.624	2263
285.683	2514
285.741	1767
285.799	580
285.858	951
285.916	704
285.975	740
286.033	-413
286.091	385
286.150	-153
286.208	380
286.267	117
286.325	379
286.383	331
286.442	261
286.500	-545
286.558	-882
286.616	-16
286.675	314
286.733	-611
286.791	-237
286.850	-388
286.908	-118
286.966	572
287.024	-43
287.083	103
287.141	-721
287.199	727
287.257	622
287.315	-174
287.374	-1045
287.432	81
287.490	427
287.548	-496
287.606	-142
287.664	-319
287.723	314
287.781	508
287.839	-83
287.897	375
287.955	369
288.013	1671
288.071	1779
288.129	12264
288.187	45179
288.245	17291
288.303	4747
288.361	2539
288.419	769
288.477	806
288.535	405
288.593	135
288.651	344
288.709	-787
288.767	111
288.825	-539
288.883	-223
288.941	-180
288.999	-132
289.057	-66
289.115	94
289.173	357
289.231	595
289.289	332
289.346	-642
289.404	-243
289.462	-564
289.520	144
289.578	-837
289.636	-342
289.694	-352
289.751	-273
289.809	-490
289.867	-846
289.925	596
289.983	996
290.040	-90
290.098	653
290.156	-312
290.214	-869
290.271	-5
290.329	337
290.387	134
290.444	-475
290.502	-181
290.560	-430
290.617	-119
290.675	122
290.733	-768
290.790	174
290.848	-724
290.906	248
290.963	-208
291.021	-60
291.078	-26
291.136	-830
291.194	879
291.251	2854
291.309	668
291.366	85
291.424	-758
291.481	255
291.539	-448
291.596	277
291.654	-379
291.711	222
291.769	464
291.826	610
291.884	222
291.941	287
291.999	122
292.056	-145
292.114	-640
292.171	-186
292.228	10
292.286	1298
292.343	-292
292.401	234
292.458	587
292.515	306
292.573	318
292.630	448
292.687	64
292.745	157
292.802	-147
292.859	2239
292.917	2126
292.974	1606
293.031	749
293.089	469
293.146	-154
293.203	-33
293.260	-80
293.318	-199
293.375	311
293.432	72
293.489	-89
293.546	504
293.604	-290
293.661	1428
293.718	6279
293.775	3020
293.832	458
293.889	1089
293.947	328
294.004	215
294.061	185
294.118	557
294.175	3619
294.232	7559
294.289	1980
294.346	949
294.403	594
294.460	1092
294.517	721
294.574	305
294.631	518
294.688	554
294.745	594
294.802	8169
294.859	11132
294.916	3087
294.973	839
295.030	504
295.087	1294
295.144	638
295.201	-162
295.258	173
295.315	890
295.372	1595
295.429	4808
295.486	1398
295.542	-159
295.599	4884
295.656	9157
295.713	3566
295.770	3708
295.827	1453
295.883	594
295.940	27
295.997	531
296.054	233
296.111	650
296.167	271
296.224	-612
296.281	188
296.338	171
296.394	-175
296.451	-370
296.508	753
296.564	2980
296.621	2679
296.678	5215
296.734	9206
296.791	4016
296.848	1298
296.904	759
296.961	1415
297.018	4166
297.074	3050
297.131	1402
297.187	391
297.244	1722
297.301	5429
297.357	11751
297.414	3278
297.470	1711
297.527	522
297.583	754
297.640	269
297.696	258
297.753	440
297.809	-65
297.866	-777
297.922	366
297.979	88
298.035	-93
298.092	63
298.148	2455
298.204	2521
298.261	374
298.317	3009
298.374	7867
298.430	4157
298.486	2460
298.543	459
298.599	542
298.656	30
298.712	854
298.768	2365
298.824	2502
298.881	-196
298.937	878
298.993	836
299.050	1126
299.106	-63
299.162	-364
299.218	549
299.275	90
299.331	811
299.387	1317
299.443	7736
299.500	16689
299.556	10092
299.612	3996
299.668	3635
299.724	10587
299.780	14240
299.837	4297
299.893	3428
299.949	9751
300.005	14501
300.061	11504
300.117	19724
300.173	8619
300.229	3234
300.285	1956
300.341	2223
300.397	1354
300.453	873
300.510	1127
300.566	1773
300.622	4046
300.678	17808
300.734	22312
300.790	10433
300.845	9386
300.901	10490
300.957	15831
301.013	7198
301.069	2178
301.125	1663
301.181	1741
301.237	1420
301.293	496
301.349	509
301.405	728
301.461	604
301.516	1066
301.572	88
301.628	386
301.684	705
301.740	476
301.796	1837
301.851	1347
301.907	1895
301.963	2873
302.019	5079
302.074	19142
302.130	18848
302.186	8006
302.242	2964
302.297	1362
302.353	960
302.409	2461
302.464	1826
302.520	1747
302.576	3792
302.631	5628
302.687	2028
302.743	493
302.798	494
302.854	-412
302.910	-137
302.965	-6
303.021	677
303.076	588
303.132	641
303.187	1260
303.243	66
303.299	683
303.354	-163
303.410	107
303.465	638
303.521	-530
303.576	176
303.632	305
303.687	1384
303.743	5899
303.798	4609
303.853	1458
303.909	-233
303.964	39
304.020	668
304.075	394
304.130	204
304.186	1370
304.241	1383
304.297	1561
304.352	-73
304.358	-58
304.407	63
304.449	38
304.463	31
304.518	72
304.539	7
304.573	-117
304.629	44
304.630	59
304.684	763
304.720	2850
304.739	3902
304.794	6607
304.811	5589
304.850	3203
304.902	910
304.905	758
304.960	119
304.992	182
305.015	240
305.071	1301
305.083	864
305.126	-727
305.173	312
305.181	497
305.236	318
305.264	313
305.292	263
305.347	362
305.354	282
305.402	-131
305.445	407
305.457	502
305.512	282
305.535	221
305.567	299
305.622	-271
305.626	-185
305.678	1275
305.716	3030
305.733	3662
305.788	3967
305.807	3533
305.843	3004
305.897	4771
305.898	4790
305.953	5122
305.988	3275
306.008	2276
306.063	1070
306.078	917
306.118	550
306.168	99
306.173	55
306.228	88
306.259	423
306.283	720
306.338	240
306.349	324
306.393	471
306.440	690
306.448	791
306.503	1017
306.530	811
306.558	564
306.613	1814
306.620	1962
306.668	2846
306.711	3473
306.723	3569
306.778	2296
306.801	1863
306.833	1443
306.888	894
306.892	868
306.943	402
306.982	423
306.997	540
307.052	55
307.072	399
307.107	870
307.162	973
307.163	972
307.217	1060
307.253	1642
307.272	1909
307.327	1876
307.343	1689
307.381	1341
307.434	889
307.436	888
307.491	2315
307.524	3284
307.546	3629
307.600	3301
307.614	2883
307.655	1600
307.704	559
307.710	531
307.765	1615
307.795	1835
307.819	1777
307.874	3579
307.885	3451
307.929	2797
307.975	2747
307.984	2863
308.038	3464
308.065	3928
308.093	6707
308.148	16256
308.156	18939
308.202	31382
308.246	37584
308.257	37286
308.312	18528
308.336	12344
308.366	8204
308.421	4588
308.426	4349
308.475	2803
308.517	2007
308.530	1764
308.585	1505
308.607	1462
308.639	1677
308.694	1915
308.697	1961
308.748	2834
308.787	4177
308.803	4484
308.857	3823
308.877	3381
308.912	2827
308.967	2383
308.967	2395
309.021	4193
309.058	5066
309.076	5860
309.130	9319
309.148	10854
309.185	21670
309.238	43749
309.239	43835
309.293	50057
309.328	41567
309.348	35367
309.402	15500
309.418	11376
309.457	7288
309.508	4850
309.511	4767
309.566	4324
309.598	4335
309.620	4438
309.674	5642
309.688	5962
309.729	5928
309.778	4872
309.783	4782
309.837	3647
309.868	3198
309.892	3107
309.946	3119
309.959	3259
310.001	3682
310.049	3885
310.055	3808
310.109	2960
310.139	2198
310.163	1681
310.218	1279
310.229	1151
310.272	1328
310.319	1510
310.326	1430
310.381	942
310.409	702
310.435	966
310.489	1601
310.499	1699
310.543	1605
310.589	1574
310.598	1669
310.652	1956
310.679	2169
310.706	1905
310.760	1339
310.769	1237
310.814	1602
310.859	2053
310.868	2034
310.923	1769
310.948	1696
310.977	1842
311.031	1973
311.038	2017
311.085	1570
311.128	790
311.139	894
311.193	1664
311.218	2054
311.247	1914
311.301	1422
311.308	1368
311.356	1672
311.398	1941
311.410	1859
311.464	1391
311.488	1173
311.518	1379
311.572	1743
311.578	1780
311.626	2094
311.668	2336
311.680	2304
311.734	2151
311.758	2036
311.788	1885
311.842	1628
311.847	1600
311.896	2580
311.937	3409
311.950	3139
312.004	1925
312.027	1382
312.058	1278
312.112	1117
312.117	1103
312.165	1390
312.207	1640
312.297	1760
312.386	1952
312.476	2667
312.566	1371
312.656	1890
312.745	1531
312.835	2306
312.925	1764
313.015	1955
313.104	1640
313.194	2747
313.284	1441
313.374	3080
313.463	2890
313.553	3679
313.643	2994
313.732	2971
313.822	2160
313.912	3610
314.001	3662
314.091	3642
314.180	3193
314.270	4059
314.360	2707
314.449	3244
314.539	2764
314.628	3665
314.718	3507
314.808	4496
314.897	3819
314.987	4197
315.076	4295
315.166	4398
315.255	4245
315.345	3991
315.434	3498
315.524	3801
315.613	3035
315.703	5104
315.792	10482
315.881	32259
315.971	8524
316.060	4749
316.150	4228
316.239	4186
316.328	3330
316.418	3090
316.507	3414
316.597	4907
316.686	4678
316.775	4619
316.865	4031
316.954	3871
317.043	2922
317.133	2910
317.222	1663
317.311	2805
317.400	1237
317.490	3573
317.579	2895
317.668	3595
317.757	4828
317.847	18851
317.936	47675
318.025	14156
318.114	12180
318.203	6617
318.293	4202
318.382	6813
318.471	6929
318.560	8042
318.649	10195
318.738	3662
318.828	2561
318.917	2596
319.006	3116
319.095	5076
319.184	10991
319.273	4892
319.362	2922
319.451	1847
319.540	1977
319.629	2445
319.718	3036
319.807	3561
319.896	4919
319.985	13367
320.074	4826
320.163	2553
320.252	2625
320.341	3732
320.430	3127
320.519	3451
320.608	3445
320.697	5268
320.786	5114
320.875	5424
320.964	6005
321.053	6936
321.142	6670
321.230	7153
321.319	7509
321.408	9887
321.497	9216
321.586	8010
321.675	7226
321.764	6303
321.852	6857
321.941	6960
322.030	6894
322.119	7209
322.207	10369
322.296	9819
322.385	11093
322.474	11829
322.562	11682
322.651	9484
322.740	7288
322.829	7490
322.917	6716
323.006	5281
323.095	4513
323.183	4871
323.272	5174
323.361	5678
323.449	8760
323.538	4810
323.626	7582
323.715	4832
323.804	3864
323.892	5949
323.981	3692
324.069	3273
324.158	5112
324.246	4796
324.335	3351
324.424	3601
324.512	2882
324.601	2546
324.689	3248
324.778	3947
324.866	2889
324.954	2998
325.043	2206
325.131	2456
325.220	4646
325.308	3518
325.397	3032
325.485	2883
325.574	2619
325.662	1707
325.750	2547
325.839	2782
325.927	2293
326.015	3504
326.104	1736
326.192	3343
326.280	2485
326.369	2626
326.457	2219
326.545	2904
326.634	2546
326.722	1974
326.810	2614
326.898	3731
326.987	2756
327.075	2884
327.163	3677
327.251	2301
327.340	2851
327.428	4510
327.516	4828
327.604	4084
327.692	2997
327.781	2752
327.869	2215
327.957	2564
328.045	1805
328.133	2611
328.221	1678
328.309	2673
328.397	2367
328.485	2438
328.574	4575
328.662	7104
328.750	4307
328.838	2488
328.926	3321
329.014	2135
329.102	2529
329.190	3994
329.278	2208
329.366	2518
329.454	1664
329.542	2030
329.630	1228
329.718	3411
329.806	2050
329.893	2386
329.981	1900
330.069	2445
330.157	2341
330.245	3687
330.333	2185
330.421	2007
330.509	1971
330.597	2898
330.684	2734
330.772	3362
330.860	3272
330.948	3919
331.036	1988
331.123	2452
331.211	2290
331.299	2546
331.387	3099
331.475	3793
331.562	2269
331.650	1922
331.738	2171
331.825	2659
331.913	2534
332.001	2676
332.089	2192
332.176	3152
332.264	3429
332.352	2423
332.439	1799
332.527	2556
332.614	2062
332.702	2054
332.790	2093
332.877	3002
332.965	4141
333.052	2807
333.140	3140
333.228	4047
333.315	2718
333.403	3248
333.490	3546
333.578	3676
333.665	5149
333.753	3963
333.840	3265
333.928	4362
334.015	5568
334.103	9413
334.190	17248
334.278	11350
334.365	13442
334.452	13736
334.540	8868
334.627	10756
334.715	12784
334.802	17641
334.889	31160
334.977	35235
335.064	21065
335.151	11851
335.239	8970
335.326	7439
335.413	13610
335.501	14307
335.588	7826
335.675	10032
335.762	12204
335.850	15180
335.937	21424
336.024	32457
336.111	48845
336.199	38515
336.286	19628
336.373	11493
336.460	7989
336.547	8533
336.635	5781
336.722	5456
336.809	4809
336.896	4730
336.983	7327
337.070	12076
337.157	14764
337.245	9127
337.332	5738
337.419	4522
337.506	4460
337.593	3395
337.680	6198
337.767	10575
337.854	3685
337.941	4456
338.028	3696
338.115	2264
338.202	4258
338.289	4809
338.376	6573
338.463	4494
338.550	7691
338.637	6890
338.724	3559
338.811	4158
338.898	2578
338.984	1994
339.071	2813
339.158	2971
339.245	3327
339.332	3361
339.419	3686
339.506	3020
339.593	2467
339.679	3240
339.766	1837
339.853	2839
339.940	2694
340.027	2986
340.113	2223
340.200	3020
340.287	2276
340.374	2133
340.460	3465
340.547	1098
340.634	2506
340.720	3132
340.807	2279
340.894	2510
340.980	2126
341.067	2028
341.154	2382
341.240	2777
341.327	2748
341.414	3032
341.500	2041
341.587	3485
341.674	2450
341.760	3283
341.847	2829
341.933	2638
342.020	1993
342.106	2893
342.193	2697
342.279	2703
342.366	1696
342.452	2763
342.539	2058
342.625	2820
342.712	2860
342.798	2585
342.885	1967
342.971	2840
343.058	1961
343.144	2610
343.230	2227
343.317	2087
343.403	2037
343.490	2510
343.576	1979
343.662	1861
343.749	2263
343.835	2661
343.921	3967
344.008	9249
344.094	13714
344.180	3881
344.267	2904
344.353	4527
344.439	3700
344.525	2779
344.612	3016
344.698	3022
344.784	1976
344.870	2577
344.957	1943
345.043	3106
345.129	1782
345.215	2507
345.301	2136
345.387	2414
345.474	2311
345.560	2457
345.646	1938
345.732	2465
345.818	1947
345.904	2805
345.990	2656
346.076	2957
346.162	1922
346.249	3560
346.335	1862
346.421	2898
346.507	3464
346.593	5209
346.679	1854
346.765	3872
346.851	4682
346.937	3985
347.023	3536
347.108	3043
347.194	2373
347.280	3949
347.366	3413
347.452	11238
347.538	13457
347.624	8463
347.710	5085
347.796	4376
347.882	2694
347.967	2783
348.053	2582
348.139	2507
348.225	2440
348.311	3191
348.397	2787
348.482	4060
348.568	3069
348.654	4897
348.740	14104
348.825	13662
348.911	6927
348.997	5766
349.083	6777
349.168	3536
349.254	2649
349.340	2692
349.425	1871
349.511	3857
349.597	3048
349.682	3088
349.768	5086
349.854	3815
349.939	3379
350.025	2980
350.110	2106
350.196	2344
350.282	2079
350.367	3167
350.453	2573
350.538	2945
350.624	2631
350.709	3798
350.795	2577
350.880	1559
350.966	3404
351.051	2714
351.137	2456
351.222	2526
351.308	3420
351.393	4115
351.479	2023
351.564	2632
351.649	3134
351.735	2816
351.820	2534
351.906	2929
351.991	3164
352.076	3206
352.162	3024
352.247	2828
352.332	2504
352.418	3021
352.503	2817
352.588	4642
352.673	3441
352.759	3305
352.844	1293
352.929	3034
353.014	1870
353.100	3257
353.185	3567
353.270	2042
353.355	2724
353.441	2945
353.526	1756
353.611	2520
353.696	2537
353.781	3394
353.866	1373
353.952	3427
354.037	1790
354.122	3717
354.207	2223
354.292	2834
354.377	2850
354.462	2435
354.547	2401
354.632	2377
354.717	2638
354.802	2536
354.887	2996
354.972	2595
355.057	2662
355.142	2589
355.227	3304
355.312	2719
355.397	2155
355.482	3609
355.567	2653
355.652	3801
355.737	2170
355.822	4029
355.907	3359
355.991	3087
356.076	2371
356.161	3643
356.246	2112
356.331	2983
356.416	3390
356.501	9666
356.585	7266
356.670	2858
356.755	4796
356.840	3488
356.924	7213
357.009	14324
357.094	6392
357.179	3536
357.263	3387
357.348	4034
357.433	3283
357.517	2877
357.602	2208
357.687	2819
357.771	4717
357.856	7384
357.941	4591
358.025	7807
358.110	19176
358.195	8967
358.279	3702
358.364	3727
358.448	4700
358.533	6059
358.617	5279
358.702	5163
358.787	3412
358.871	3969
358.956	3287
359.040	3324
359.125	3606
359.209	4111
359.294	6150
359.378	8937
359.462	4921
359.547	4079
359.631	2965
359.716	2639
359.800	3035
359.885	4363
359.969	2675
360.053	3775
360.138	2914
360.222	2998
360.306	2704
360.391	3988
360.475	4147
360.559	5948
360.644	4518
360.728	3357
360.812	7673
360.896	11371
360.981	5912
361.065	4209
361.149	4809
361.233	3466
361.318	2667
361.402	3810
361.486	5085
361.570	4291
361.654	4339
361.739	5189
361.823	9779
361.907	13371
361.991	6140
362.075	7962
362.159	9766
362.243	18487
362.327	37874
362.411	50673
362.495	21425
362.580	12055
362.664	11570
362.748	13726
362.832	20554
362.916	39831
363.000	90565
363.084	112185
363.168	49683
363.252	19382
363.336	11998
363.420	10643
363.503	15680
363.587	15785
363.671	7429
363.755	8259
363.839	9244
363.923	9114
364.007	12474
364.091	16950
364.175	27873
364.258	62896
364.342	107003
364.426	155820
364.510	85004
364.594	32980
364.677	18252
364.761	16220
364.845	11298
364.929	7696
365.013	6287
365.096	6516
365.180	5004
365.264	8983
365.347	18481
365.431	9260
365.515	3781
365.598	3790
365.682	4646
365.766	4908
365.849	5480
365.933	4395
366.017	5494
366.100	3761
366.184	3498
366.267	5014
366.351	3487
366.435	4130
366.518	3385
366.602	4807
366.685	3811
366.769	4521
366.852	4906
366.936	4931
367.019	3983
367.103	4859
367.186	5816
367.270	4485
367.353	3399
367.436	5578
367.520	4019
367.603	5804
367.687	2933
367.770	3888
367.853	5083
367.937	6652
368.020	6314
368.104	3081
368.187	5041
368.270	3771
368.353	3278
368.437	4855
368.520	5872
368.603	4479
368.687	4122
368.770	6045
368.853	3161
368.936	4726
369.020	3782
369.103	4033
369.186	3021
369.269	3237
369.352	3131
369.436	3412
369.519	2506
369.602	2424
369.685	5502
369.768	2620
369.851	3865
369.934	3253
370.018	2172
370.101	1780
370.184	5304
370.267	4121
370.350	3352
370.433	4796
370.516	9868
370.599	19130
370.682	7701
370.765	6325
370.848	6374
370.931	6367
371.014	5028
371.097	2890
371.180	4259
371.263	3846
371.346	2804
371.429	3842
371.511	2355
371.594	2915
371.677	4602
371.760	4928
371.843	2873
371.926	10226
372.009	15750
372.091	8778
372.174	4827
372.257	8479
372.340	4366
372.423	5121
372.505	6522
372.588	3366
372.671	5799
372.754	5789
372.836	4914
372.919	7993
373.002	9629
373.085	4345
373.167	4249
373.250	5280
373.332	7052
373.415	13446
373.498	19013
373.580	13460
373.663	31089
373.746	28813
373.828	6731
373.911	5876
373.993	4222
374.076	11542
374.159	8599
374.241	5195
374.324	6438
374.406	6471
374.489	10367
374.571	16894
374.654	7649
374.736	7239
374.819	12535
374.901	17646
374.983	14713
375.066	6788
375.148	6088
375.231	11496
375.313	15350
375.395	7305
375.478	5456
375.560	6317
375.643	5490
375.725	8000
375.807	13102
375.890	12514
375.972	5426
376.054	6136
376.136	6235
376.219	4893
376.301	7003
376.383	9197
376.465	5939
376.548	4241
376.630	4962
376.712	8984
376.794	4629
376.877	4518
376.959	2387
377.041	3094
377.123	4099
377.205	5232
377.287	2519
377.369	4106
377.452	3370
377.534	4295
377.616	3878
377.698	3731
377.780	2353
377.862	3677
377.944	4864
378.026	3610
378.108	3964
378.190	3149
378.272	4189
378.354	3689
378.436	3100
378.518	3646
378.600	4833
378.682	5455
378.764	4298
378.846	5104
378.928	3200
379.010	3556
379.091	4466
379.173	4062
379.255	2663
379.337	2947
379.419	3435
379.501	6206
379.583	4439
379.664	3598
379.746	2510
379.828	6760
379.910	4848
379.991	5296
380.073	2926
380.155	3848
380.237	3154
380.318	3326
380.400	3225
380.482	4088
380.564	3411
380.645	3338
380.727	2786
380.809	4355
380.890	2699
380.972	2707
381.053	3198
381.135	4036
381.217	3476
381.298	5560
381.380	4113
381.461	4224
381.543	7957
381.624	8950
381.706	4683
381.787	4587
381.869	4559
381.951	7603
382.032	14031
382.113	12099
382.195	3206
382.276	5207
382.358	4726
382.439	8372
382.521	10989
382.602	14601
382.684	8500
382.765	11412
382.846	12864
382.928	20828
383.009	12276
383.090	12925
383.172	33370
383.253	40137
383.334	15218
383.416	13558
383.497	8834
383.578	7837
383.659	11888
383.741	33571
383.822	65267
383.903	31109
383.984	10958
384.066	13377
384.147	8900
384.228	6679
384.309	6121
384.390	6242
384.471	6019
384.553	5420
384.634	4724
384.715	5427
384.796	4445
384.877	4530
384.958	6713
385.039	5444
385.120	4972
385.201	5795
385.282	5490
385.363	6644
385.444	6145
385.525	7074
385.606	9877
385.687	8548
385.768	7048
385.849	6477
385.930	13686
386.011	16810
386.092	7535
386.173	6769
386.254	5827
386.335	6772
386.416	5485
386.496	6667
386.577	7994
386.658	6873
386.739	6119
386.820	7708
386.901	6281
386.981	7851
387.062	8201
387.143	8845
387.224	9873
387.304	11483
387.385	9636
387.466	9296
387.547	11049
387.627	10413
387.708	12417
387.789	14137
387.869	13241
387.950	10036
388.031	7054
388.111	6658
388.192	9149
388.273	9943
388.353	7947
388.434	7375
388.514	7281
388.595	11715
388.676	10715
388.756	7335
388.837	6564
388.917	5333
388.998	3917
389.078	6147
389.159	5220
389.239	4370
389.320	6369
389.400	3982
389.480	6732
389.561	7175
389.641	6809
389.722	5810
389.802	4150
389.883	6280
389.963	9164
390.043	6660
390.124	5080
390.204	6471
390.284	5811
390.365	6351
390.445	8771
390.525	10229
390.605	7702
390.686	4949
390.766	6807
390.846	6402
390.927	5194
391.007	5958
391.087	5599
391.167	5767
391.247	4319
391.328	7395
391.408	6950
391.488	7087
391.568	4702
391.648	5952
391.728	6887
391.808	8775
391.888	6193
391.969	8504
392.049	8768
392.129	9542
392.209	8879
392.289	12987
392.369	10592
392.449	12005
392.529	11171
392.609	14291
392.689	15040
392.769	19670
392.849	22210
392.929	28896
393.009	37630
393.089	52611
393.169	90372
393.248	183365
393.328	307562
393.408	291351
393.488	165587
393.568	82480
393.648	45636
393.728	30186
393.807	21578
393.887	18142
393.967	15478
394.047	12984
394.127	11351
394.206	11947
394.286	21959
394.366	61616
394.446	59432
394.525	16804
394.605	8888
394.685	9765
394.764	13181
394.844	21336
394.924	22867
395.003	10632
395.083	7244
395.163	6930
395.242	6001
395.322	7299
395.402	5202
395.481	8724
395.561	10703
395.640	30335
395.720	47085
395.799	32449
395.879	16050
395.958	11668
396.038	27002
396.117	80106
396.197	77612
396.276	27302
396.356	16955
396.435	18998
396.515	24234
396.594	35687
396.673	71541
396.753	167636
396.832	275257
396.912	208710
396.991	88664
397.070	42662
397.150	24845
397.229	24082
397.308	39673
397.388	64976
397.467	35452
397.546	15053
397.625	7758
397.705	9546
397.784	8038
397.863	6825
397.942	7323
398.022	6977
398.101	8500
398.180	14009
398.259	8215
398.338	6591
398.417	4708
398.497	5899
398.576	5967
398.655	4058
398.734	4707
398.813	5170
398.892	8542
398.971	13381
399.050	7372
399.129	4332
399.208	4423
399.287	5523
399.366	3349
399.445	3647
399.524	3778
399.603	2358
399.682	4388
399.761	6962
399.840	13834
399.919	10749
399.998	3571
400.077	3264
400.156	2544
400.235	6543
400.313	3519
400.392	2493
400.471	4625
400.550	5846
400.629	3265
400.708	4629
400.786	3215
400.865	4325
400.944	3613
401.023	6126
401.102	3012
401.180	3715
401.259	3870
401.338	2964
401.416	3406
401.495	3373
401.574	4153
401.652	2848
401.731	3764
401.810	2853
401.888	2962
401.967	2735
402.046	2848
402.124	3692
402.203	1875
402.281	3332
402.360	3197
402.438	5633
402.517	3238
402.596	3759
402.674	2793
402.753	3466
402.831	3368
402.910	3857
402.988	3003
403.066	4397
403.145	4166
403.223	4614
403.302	3862
403.380	5143
403.459	4588
403.537	4319
403.615	3525
403.694	2736
403.772	5140
403.850	3865
403.929	3315
404.007	3121
404.085	4640
404.164	2189
404.242	2759
404.320	6351
404.398	9785
404.477	8759
404.555	11258
404.633	9275
404.711	7638
404.789	6196
404.868	2890
404.946	2436
405.024	2924
405.102	3082
405.180	2835
405.258	1762
405.336	2947
405.415	2401
405.493	3188
405.571	4525
405.649	1734
405.727	1624
405.805	4392
405.883	3795
405.961	4067
406.039	3894
406.117	2145
406.195	2949
406.273	3076
406.351	7777
406.429	5494
406.507	3389
406.585	2276
406.663	2725
406.740	3535
406.818	2761
406.896	2294
406.974	3589
407.052	1868
407.130	5495
407.208	5721
407.285	3823
407.363	2518
407.441	4149
407.519	1752
407.596	3662
407.674	7320
407.752	21017
407.830	15207
407.907	4537
407.985	2209
408.063	3275
408.141	2496
408.218	3600
408.296	2200
408.373	2928
408.451	4029
408.529	3308
408.606	3074
408.684	4305
408.762	4450
408.839	3682
408.917	4299
408.994	5142
409.072	4802
409.149	6217
409.227	9496
409.304	13019
409.382	14084
409.459	15802
409.537	19732
409.614	18862
409.692	14677
409.769	16127
409.846	20120
409.924	24832
410.001	17506
410.079	14847
410.156	11490
410.233	8437
410.311	6445
410.388	7107
410.465	6699
410.543	5765
410.620	5775
410.697	6129
410.775	5927
410.852	4455
410.929	5825
411.006	5994
411.083	5062
411.161	5747
411.238	5496
411.315	4901
411.392	4498
411.469	5012
411.547	3995
411.624	2910
411.701	3716
411.778	4724
411.855	3929
411.932	3416
412.009	2829
412.086	4240
412.163	3371
412.240	3551
412.317	3945
412.394	2727
412.471	3305
412.548	3029
412.625	2701
412.702	3264
412.779	3398
412.856	3367
412.933	2481
413.010	3084
413.087	2316
413.164	2915
413.241	3481
413.318	3031
413.395	2849
413.471	3248
413.548	2986
413.625	2729
413.702	1734
413.779	3250
413.855	2042
413.932	2969
414.009	1618
414.086	2697
414.162	2483
414.239	3391
414.316	3669
414.393	4708
414.469	2214
414.546	2959
414.623	1514
414.699	2307
414.776	2024
414.853	3027
414.929	3386
415.006	2152
415.082	2583
415.159	2782
415.236	2782
415.312	2915
415.389	2179
415.465	2637
415.542	1938
415.618	1680
415.695	2733
415.771	2132
415.848	2487
415.924	2942
416.000	2955
416.077	3082
416.153	1364
416.230	2081
416.306	2425
416.383	2340
416.459	2342
416.535	2114
416.612	2056
416.688	2821
416.764	2191
416.841	2185
416.917	1975
416.993	2303
417.069	2762
417.146	3250
417.222	2406
417.298	2854
417.374	1441
417.451	2609
417.527	1784
417.603	1768
417.679	2276
417.755	2574
417.831	1605
417.908	2599
417.984	2682
418.060	1903
418.136	3130
418.212	2976
418.288	2507
418.364	4050
418.440	1572
418.516	3538
418.592	2823
418.668	3327
418.744	3070
418.820	2924
418.896	2386
418.972	2763
419.048	1914
419.124	3792
419.200	1463
419.276	2606
419.352	2594
419.428	3963
419.504	3158
419.579	3280
419.655	2427
419.731	3951
419.807	3928
419.883	4055
419.959	3863
420.034	3581
420.110	4141
420.186	4978
420.262	5328
420.337	4616
420.413	4383
420.489	5074
420.565	5804
420.640	5546
420.716	6033
420.792	5161
420.867	8109
420.943	6645
421.019	7327
421.094	7823
421.170	8545
421.245	8167
421.321	9805
421.397	10444
421.472	15501
421.548	22193
421.623	18675
421.699	15794
421.774	17565
421.850	19902
421.925	23552
422.001	28214
422.076	33538
422.152	41213
422.227	53181
422.302	69432
422.378	94008
422.453	127958
422.529	157516
422.604	149273
422.679	117025
422.755	140553
422.830	153289
422.905	130243
422.981	97205
423.056	74960
423.131	57237
423.207	44947
423.282	35518
423.357	29484
423.432	24477
423.508	23896
423.583	18797
423.658	16814
423.733	15119
423.808	14014
423.883	13626
423.959	13885
424.034	13958
424.109	14362
424.184	10083
424.259	9104
424.334	8988
424.409	7762
424.484	7685
424.559	6751
424.634	5707
424.709	5892
424.784	5453
424.859	5477
424.934	4989
425.009	6174
425.084	5835
425.159	5681
425.234	4940
425.309	4256
425.384	5758
425.459	5580
425.534	4881
425.609	3439
425.683	3303
425.758	3667
425.833	3463
425.908	3537
425.983	3427
426.058	4888
426.132	3858
426.207	3812
426.282	5126
426.357	3598
426.431	2931
426.506	4177
426.581	3064
426.655	3380
426.730	2647
426.805	3161
426.879	3361
426.954	3256
427.029	2522
427.103	5065
427.178	5998
427.253	4744
427.327	3054
427.402	3893
427.476	4753
427.551	3769
427.625	2079
427.700	2928
427.774	2010
427.849	3500
427.923	2131
427.998	2537
428.072	3732
428.147	8746
428.221	29753
428.296	73752
428.370	42123
428.444	9184
428.519	4524
428.593	4548
428.667	5460
428.742	7381
428.816	14593
428.890	49747
428.965	67154
429.039	20426
429.113	6412
429.188	4604
429.262	3361
429.336	3348
429.410	3628
429.485	4628
429.559	4412
429.633	4504
429.707	4691
429.781	14240
429.855	47421
429.930	61787
430.004	22710
430.078	20264
430.152	40447
430.226	99568
430.300	90363
430.374	26888
430.448	9490
430.522	9362
430.596	13970
430.670	22342
430.744	58818
430.818	59697
430.892	14142
430.966	4217
431.040	3299
431.114	2580
431.188	2357
431.262	2035
431.336	1136
431.410	2951
431.484	2528
431.557	3733
431.631	3545
431.705	6436
431.779	25187
431.853	71845
431.927	47552
432.000	9886
432.074	3691
432.148	2782
432.222	1791
432.295	1451
432.369	1953
432.443	1786
432.516	2929
432.590	6114
432.664	2507
432.737	1683
432.811	1019
432.885	1135
432.958	1231
433.032	1795
433.106	1258
433.179	1208
433.253	1829
433.326	1507
433.400	995
433.473	1495
433.547	1193
433.620	1256
433.694	679
433.767	1603
433.841	622
433.914	2079
433.988	1030
434.061	1608
434.134	1547
434.208	1438
434.281	1006
434.355	1197
434.428	1408
434.501	1821
434.575	729
434.648	1213
434.721	1248
434.795	1182
434.868	1151
434.941	1368
435.014	1056
435.088	1473
435.161	1951
435.234	2614
435.307	2779
435.381	3591
435.454	5197
435.527	9857
435.600	9418
435.673	8769
435.746	6845
435.819	5357
435.892	3705
435.966	3329
436.039	2455
436.112	3818
436.185	1831
436.258	2146
436.331	994
436.404	1384
436.477	1687
436.550	1887
436.623	1683
436.696	1607
436.769	1476
436.842	1173
436.915	1021
436.987	1693
437.060	1358
437.133	751
437.206	978
437.279	1969
437.352	1365
437.425	1132
437.498	685
437.570	2157
437.643	1251
437.716	938
437.789	1379
437.861	1430
437.934	1105
438.007	1414
438.080	378
438.152	1904
438.225	2088
438.298	3951
438.370	8276
438.443	4881
438.516	1469
438.588	1824
438.661	624
438.734	927
438.806	1030
438.879	974
438.951	617
439.024	1071
439.096	1269
439.169	1479
439.241	930
439.314	1408
439.386	945
439.459	1460
439.531	874
439.604	1414
439.676	1671
439.749	1204
439.821	837
439.893	1616
439.966	983
440.038	882
440.110	931
440.183	1033
440.255	646
440.327	1269
440.400	2403
440.472	4657
440.544	3611
440.617	1002
440.689	1876
440.761	2115
440.833	1268
440.905	1708
440.978	935
441.050	1285
441.122	2189
441.194	1314
441.266	278
441.338	801
441.411	1188
441.483	2472
441.555	2108
441.627	1844
441.699	1572
441.771	1397
441.843	1855
441.915	1163
441.987	1465
442.059	1576
442.131	2579
442.203	3368
442.275	3930
442.347	7773
442.419	17877
442.491	64135
442.563	109925
442.635	50486
442.706	13642
442.778	7742
442.850	4940
442.922	4813
442.994	4337
443.066	5043
443.137	5900
443.209	7637
443.281	12229
443.353	26566
443.425	74748
443.496	159464
443.568	163043
443.640	77558
443.711	21959
443.783	10512
443.855	6375
443.926	4867
443.998	3898
444.070	4138
444.141	2813
444.213	2734
444.285	3130
444.356	2364
444.428	1889
444.499	2466
444.571	1732
444.642	3710
444.714	2006
444.785	2951
444.857	3673
444.928	5261
445.000	5214
445.071	6394
445.143	8744
445.214	12419
445.285	21502
445.357	50598
445.428	122196
445.500	182909
445.571	160533
445.642	109904
445.714	44589
445.785	17571
445.856	8429
445.928	5574
445.999	3538
446.070	3951
446.141	2569
446.213	3288
446.284	1383
446.355	1342
446.426	908
446.497	694
446.569	1644
446.640	1454
446.711	1388
446.782	992
446.853	1027
446.924	1263
446.995	1088
447.066	910
447.138	822
447.209	1977
447.280	677
447.351	593
447.422	780
447.493	1312
447.564	364
447.635	991
447.706	302
447.777	711
447.847	105
447.918	8
447.989	1091
448.060	712
448.131	1287
448.202	1095
448.273	561
448.344	623
448.414	752
448.485	806
448.556	-165
448.627	898
448.698	344
448.768	920
448.839	-582
448.910	216
448.981	560
449.051	256
449.122	294
449.193	922
449.263	279
449.334	416
449.405	639
449.475	1357
449.546	833
449.616	1392
449.687	1440
449.758	513
449.828	-174
449.899	65
449.969	182
450.040	514
450.110	431
450.181	831
450.251	833
450.322	20
450.392	617
450.463	905
450.533	63
450.604	893
450.674	381
450.744	497
450.815	1066
450.885	1787
450.955	1130
451.026	653
451.096	594
451.166	1142
451.237	1248
451.307	3477
451.377	1355
451.447	694
451.518	528
451.588	1159
451.658	1013
451.728	892
451.799	1854
451.869	2778
451.939	177
452.009	505
452.079	-488
452.149	1413
452.219	947
452.289	2883
452.360	2104
452.430	1097
452.500	1498
452.570	3542
452.640	8636
452.710	19925
452.780	21938
452.850	11978
452.920	5364
452.990	3415
453.060	1874
453.129	2073
453.199	830
453.269	4503
453.339	7426
453.409	10376
453.479	9620
453.549	13550
453.619	12467
453.688	5555
453.758	619
453.828	606
453.898	-540
453.968	793
454.037	716
454.087	700
454.107	686
454.168	82
454.177	-20
454.247	116
454.249	106
454.316	-489
454.330	-353
454.386	16
454.411	453
454.456	1000
454.492	1348
454.525	1682
454.574	1477
454.595	1413
454.655	375
454.665	202
454.734	1602
454.736	1630
454.804	1129
454.817	1548
454.873	2688
454.898	2655
454.943	2534
454.979	1267
455.013	271
455.060	800
455.082	1072
455.141	1223
455.152	1207
455.221	3525
455.222	3597
455.291	3953
455.303	3878
455.360	3684
455.384	4530
455.430	5409
455.465	4370
455.499	3363
455.546	2479
455.569	1918
455.627	1893
455.638	1960
455.707	181
455.708	193
455.777	271
455.789	224
455.846	51
455.869	496
455.916	1300
455.950	1136
455.985	936
456.031	1053
456.054	1058
456.112	455
456.124	358
456.193	1285
456.193	1277
456.262	624
456.274	885
456.332	1993
456.355	1816
456.401	1282
456.436	1115
456.470	1068
456.516	804
456.540	664
456.597	658
456.609	622
456.678	1011
456.678	1000
456.747	988
456.759	942
456.817	1064
456.840	1074
456.886	817
456.920	962
456.955	1220
457.001	1444
457.024	1518
457.082	1434
457.093	1432
457.162	2376
457.163	2392
457.232	1690
457.243	1710
457.301	1758
457.324	1741
457.370	1919
457.405	1889
457.439	1925
457.485	2451
457.508	2714
457.566	3186
457.577	3548
457.646	6147
457.647	6209
457.715	14846
457.727	16691
457.784	26916
457.808	34907
457.853	42206
457.889	46925
457.922	48104
457.969	35182
457.991	35193
458.050	42150
458.060	43595
458.129	72023
458.130	72861
458.198	64445
458.211	56491
458.267	33087
458.292	24031
458.336	17791
458.372	18421
458.405	25745
458.453	38533
458.474	45683
458.533	75044
458.543	76202
458.611	103730
458.614	103983
458.680	62759
458.694	48834
458.749	22803
458.775	16747
458.818	10050
458.855	7638
458.887	6079
458.936	4812
458.955	4339
459.016	4077
459.024	4068
459.093	3706
459.097	3669
459.162	3186
459.177	3285
459.230	3621
459.257	3714
459.299	3553
459.338	3135
459.368	2781
459.418	2788
459.437	2822
459.499	2032
459.505	1961
459.574	2085
459.579	2132
459.643	2663
459.659	2686
459.711	2928
459.740	2988
459.780	2977
459.820	2952
459.849	2876
459.900	3291
459.917	3357
459.981	2738
459.986	2681
460.054	2832
460.061	2822
460.123	2804
460.141	2773
460.191	3029
460.222	3106
460.260	2876
460.302	3016
460.328	3312
460.382	3515
460.397	3523
460.462	3751
460.465	3951
460.534	8319
460.543	8956
460.602	19205
460.623	23258
460.671	34826
460.703	46034
460.739	38718
460.783	24317
460.808	21020
460.864	6545
460.876	5018
460.944	3017
460.945	2985
461.013	2605
461.024	2407
461.081	2249
461.104	2443
461.150	2575
461.184	2655
461.218	2810
461.264	2891
461.286	2960
461.345	2665
461.355	2551
461.423	2470
461.425	2461
461.491	3217
461.505	3517
461.559	5792
461.585	6526
461.628	8622
461.665	10935
461.696	10941
461.745	11259
461.764	9668
461.825	3409
461.832	3423
461.901	2998
461.905	3091
461.969	3138
461.985	2791
462.037	2982
462.065	3405
462.105	3769
462.145	3932
462.173	4974
462.225	7088
462.241	7388
462.305	9013
462.310	8745
462.378	4053
462.385	3482
462.446	3271
462.465	3524
462.514	3362
462.545	2738
462.582	2782
462.625	3302
462.650	3218
462.705	2474
462.718	2515
462.785	3291
462.786	3309
462.854	4078
462.865	4211
462.922	5180
462.945	5648
462.990	4391
463.025	3249
463.058	2994
463.104	2676
463.126	2701
463.184	2549
463.194	2539
463.262	2726
463.264	2725
463.330	2978
463.344	3037
463.398	3637
463.424	3922
463.466	3441
463.504	3023
463.533	2940
463.583	2971
463.601	3276
463.663	3909
463.669	3955
463.737	4843
463.743	4884
463.805	7650
463.823	8586
463.873	12149
463.903	14163
463.940	13296
463.982	12438
464.008	9844
464.062	4207
464.076	4046
464.142	2922
464.144	2921
464.211	3086
464.221	3083
464.279	3036
464.301	3057
464.347	3649
464.381	4136
464.414	4292
464.461	4334
464.482	4499
464.540	5136
464.550	5038
464.617	4122
464.620	4079
464.685	4008
464.699	4056
464.753	4122
464.779	4121
464.820	4650
464.859	5004
464.888	4672
464.938	4324
464.956	4676
465.018	5612
465.023	5517
465.091	4336
465.098	4198
465.158	4243
465.177	4302
465.226	4334
465.257	4237
465.293	4047
465.336	3902
465.361	4197
465.416	4775
465.428	5421
465.495	9010
465.496	9057
465.563	13943
465.575	14774
465.631	15370
465.654	15632
465.698	9669
465.734	4597
465.765	4304
465.813	3821
465.833	3946
465.893	4414
465.900	4341
465.968	3616
465.972	3565
466.035	3776
466.052	3788
466.102	4031
466.131	4179
466.170	4140
466.210	4130
466.237	4367
466.290	4740
466.304	4690
466.369	4403
466.372	4401
466.439	4117
466.449	4070
466.506	4817
466.528	5078
466.573	8264
466.607	10600
466.641	14321
466.687	19539
466.708	20125
466.766	21594
466.775	19776
466.842	5763
466.845	5087
466.909	4825
466.925	4769
466.977	4122
467.004	3778
467.044	4256
467.083	4722
467.111	5191
467.163	6038
467.178	6080
467.242	6213
467.245	6221
467.312	6161
467.321	6144
467.379	5870
467.400	5751
467.446	6979
467.480	7849
467.559	6782
467.638	5591
467.717	5992
467.796	6767
467.875	6967
467.955	7172
468.034	13737
468.113	24793
468.192	33031
468.271	13076
468.350	15883
468.429	23357
468.508	22224
468.588	14190
468.667	9832
468.746	9051
468.825	7449
468.904	6939
468.983	7503
469.062	10541
469.141	10214
469.220	5088
469.299	5360
469.378	5226
469.456	6916
469.535	5504
469.614	6353
469.693	5809
469.772	7783
469.851	10583
469.930	6366
470.009	5750
470.088	5923
470.166	6751
470.245	7995
470.324	8026
470.403	6658
470.482	5638
470.560	5606
470.639	5180
470.718	6371
470.797	4577
470.875	6328
470.954	7954
471.033	7722
471.111	4801
471.190	4411
471.269	4503
471.347	4776
471.426	4654
471.505	6910
471.583	3969
471.662	6178
471.740	5696
471.819	5297
471.898	4388
471.976	5062
472.055	4970
472.133	6052
472.212	8676
472.290	7831
472.369	4487
472.447	4404
472.526	4862
472.604	5111
472.683	5072
472.761	4838
472.839	5224
472.918	5186
472.996	5552
473.075	7008
473.153	6156
473.231	6160
473.310	6500
473.388	5171
473.466	4773
473.545	5997
473.623	5707
473.701	5349
473.780	6302
473.858	4291
473.936	6367
474.014	5712
474.093	6380
474.171	9743
474.249	11810
474.327	6449
474.405	4079
474.484	5247
474.562	4540
474.640	4463
474.718	5523
474.796	4595
474.874	5205
474.952	4331
475.030	4483
475.108	5144
475.187	4438
475.265	5392
475.343	4989
475.421	5347
475.499	5038
475.577	4977
475.655	7739
475.733	13091
475.811	20820
475.889	17837
475.966	9517
476.044	5566
476.122	5741
476.200	4418
476.278	4402
476.356	5023
476.434	5303
476.512	4822
476.590	5439
476.667	6053
476.745	4487
476.823	5126
476.901	5530
476.979	5490
477.056	5300
477.134	5284
477.212	4631
477.290	5007
477.367	5373
477.445	4696
477.523	4456
477.601	5055
477.678	5301
477.756	5879
477.834	5387
477.911	4298
477.989	4799
478.066	5019
478.144	5592
478.222	3695
478.299	5221
478.377	5501
478.454	5668
478.532	4344
478.609	4954
478.687	5156
478.764	4481
478.842	5265
478.919	4584
478.997	4932
479.074	4912
479.152	5912
479.229	7160
479.307	4137
479.384	4868
479.461	4824
479.539	4545
479.616	5260
479.694	4745
479.771	6029
479.848	5605
479.926	6407
480.003	7507
480.080	4924
480.157	4828
480.235	4282
480.312	4920
480.389	5651
480.467	8400
480.544	9170
480.621	5979
480.698	6892
480.775	6732
480.853	6695
480.930	4551
481.007	5978
481.084	7921
481.161	9639
481.238	7169
481.315	5065
481.392	5048
481.470	5659
481.547	5650
481.624	5163
481.701	5695
481.778	5566
481.855	6804
481.932	10326
482.009	13509
482.086	8702
482.163	7785
482.240	8595
482.317	8195
482.393	7569
482.470	7037
482.547	6853
482.624	5752
482.701	6303
482.778	5615
482.855	6079
482.932	6494
483.009	6395
483.085	7716
483.162	9803
483.239	9776
483.316	9346
483.393	9247
483.469	7581
483.546	8298
483.623	6898
483.699	6588
483.776	5747
483.853	5720
483.930	10271
484.006	20036
484.083	28965
484.160	10051
484.236	12263
484.313	9908
484.389	9203
484.466	10643
484.543	12266
484.619	13868
484.696	16087
484.772	11404
484.849	11306
484.925	7564
485.002	8973
485.078	7837
485.155	7726
485.231	7323
485.308	7436
485.384	7760
485.461	11162
485.537	16477
485.614	16856
485.690	7850
485.766	6950
485.843	6739
485.919	7826
485.995	7614
486.072	6227
486.148	6737
486.224	6155
486.301	7202
486.377	8435
486.453	7025
486.530	7905
486.606	9602
486.682	10850
486.758	14232
486.835	15503
486.911	13605
486.987	21216
487.063	14393
487.139	14060
487.215	13938
487.292	14273
487.368	13697
487.444	17396
487.520	22994
487.596	37037
487.672	106529
487.748	278421
487.824	354982
487.900	96930
487.976	30580
488.052	19181
488.128	15221
488.204	10654
488.280	10946
488.356	12146
488.432	22248
488.508	27472
488.584	7842
488.660	7137
488.736	6777
488.812	6260
488.888	8539
488.964	8969
489.039	10776
489.115	13955
489.191	9238
489.267	7571
489.343	6904
489.418	5788
489.494	5732
489.570	5088
489.646	7816
489.722	6770
489.797	6968
489.873	13505
489.949	22508
490.024	13186
490.100	5919
490.176	5843
490.251	6065
490.327	7208
490.403	5472
490.478	6023
490.554	5239
490.629	5609
490.705	5611
490.781	6185
490.856	5770
490.932	5942
491.007	5646
491.083	5709
491.158	6140
491.234	9901
491.309	18021
491.385	13359
491.460	4821
491.536	6124
491.611	4417
491.686	5915
491.762	5323
491.837	9314
491.913	12358
491.988	17412
492.063	14858
492.139	10827
492.214	6740
492.289	4636
492.365	5107
492.440	5747
492.515	5798
492.590	4436
492.666	5146
492.741	7478
492.816	9579
492.891	4588
492.967	4487
493.042	4810
493.117	3945
493.192	5542
493.267	9135
493.342	21377
493.418	22180
493.493	5190
493.568	3940
493.643	4508
493.718	5395
493.793	7106
493.868	5973
493.943	4591
494.018	4535
494.093	4702
494.168	4397
494.243	3352
494.318	4036
494.393	4507
494.468	3094
494.543	3841
494.618	3574
494.693	4196
494.768	4370
494.842	4106
494.917	3856
494.992	4111
495.067	3751
495.142	4178
495.217	3434
495.292	5121
495.366	4544
495.441	4043
495.516	5846
495.591	6967
495.665	14958
495.740	23250
495.815	8799
495.890	5032
495.964	3349
496.039	6567
496.114	5863
496.188	7434
496.263	6238
496.338	4917
496.412	5004
496.487	5825
496.561	4219
496.636	4766
496.710	5032
496.785	6391
496.860	6128
496.934	4851
497.009	4899
497.083	4134
497.158	5200
497.232	6468
497.307	7256
497.381	5823
497.455	6905
497.530	8571
497.604	6040
497.679	7565
497.753	10850
497.827	10710
497.902	8108
497.976	15229
498.050	55159
498.125	169346
498.199	100267
498.273	9481
498.348	6562
498.422	6607
498.496	6697
498.570	6462
498.645	6211
498.719	5987
498.793	9472
498.867	15664
498.941	24751
499.016	81604
499.090	157830
499.164	27768
499.238	6626
499.312	7091
499.386	6844
499.460	6441
499.534	7816
499.609	9744
499.683	11460
499.757	13815
499.831	40779
499.905	122539
499.979	65851
500.053	13265
500.127	10583
500.201	6369
500.275	6361
500.349	6829
500.422	7479
500.496	9902
500.570	20731
500.644	69019
500.718	96479
500.792	13716
500.866	7575
500.940	9814
501.013	7455
501.087	7286
501.161	10398
501.235	15153
501.309	46294
501.382	105334
501.456	55704
501.530	20120
501.603	28983
501.677	8915
501.751	5265
501.825	9203
501.898	18625
501.972	40843
502.046	15203
502.119	7896
502.193	21179
502.266	39965
502.340	14056
502.413	22888
502.487	33579
502.561	15398
502.634	6510
502.708	6130
502.781	4635
502.855	5975
502.928	4593
503.002	4621
503.075	5046
503.149	5429
503.222	5956
503.295	6448
503.369	8320
503.442	13271
503.516	39111
503.589	70525
503.662	35681
503.736	20930
503.809	42067
503.882	33347
503.956	60905
504.029	75364
504.102	159527
504.175	190067
504.249	64411
504.322	26548
504.395	13902
504.468	11196
504.542	8706
504.615	6213
504.688	6516
504.761	3869
504.834	6922
504.907	5055
504.980	5908
505.053	4336
505.127	3318
505.200	7732
505.273	6891
505.346	4184
505.419	2919
505.492	4729
505.565	3026
505.638	3784
505.711	3353
505.784	2923
505.857	3014
505.930	5588
506.003	2330
506.076	5534
506.149	4383
506.221	4796
506.294	7605
506.367	20644
506.440	51304
506.513	14644
506.586	6298
506.659	3343
506.731	3864
506.804	4393
506.877	2834
506.950	3543
507.022	3800
507.095	4065
507.168	4973
507.241	4114
507.313	2255
507.386	2748
507.459	4611
507.531	2588
507.604	2664
507.677	2675
507.749	1838
507.822	4429
507.894	4276
507.967	5268
508.040	2453
508.112	3742
508.185	4163
508.257	1818
508.330	5033
508.402	2804
508.475	3272
508.547	3836
508.620	4522
508.692	6416
508.765	3407
508.837	3445
508.909	3221
508.982	2898
509.054	3738
509.127	2440
509.199	2457
509.271	2545
509.344	2491
509.416	3398
509.488	2666
509.560	4459
509.633	1921
509.705	3099
509.777	3072
509.849	3996
509.922	2274
509.994	3130
510.066	3755
510.138	1686
510.210	6283
510.283	4707
510.355	3624
510.427	3496
510.499	4222
510.571	2476
510.643	2878
510.715	4868
510.787	1028
510.859	4780
510.931	2808
511.003	4516
511.076	4356
511.148	2761
511.219	3646
511.291	7342
511.363	5786
511.435	3604
511.507	2764
511.579	4367
511.651	3270
511.723	2791
511.795	3602
511.867	2787
511.939	4319
512.010	8698
512.082	4644
512.154	2527
512.226	3391
512.298	4641
512.369	4993
512.441	3901
512.513	3779
512.585	1653
512.656	4483
512.728	3776
512.800	2837
512.871	3837
512.943	4014
513.015	1943
513.086	3465
513.158	4754
513.230	2959
513.301	3122
513.373	4460
513.444	3632
513.516	3237
513.588	2975
513.659	3484
513.731	3309
513.802	2560
513.874	6156
513.945	4823
514.016	3023
514.088	3671
514.159	2321
514.231	4075
514.302	3486
514.374	4657
514.445	3639
514.516	12403
514.588	5055
514.659	5393
514.730	7365
514.802	5073
514.873	1818
514.944	5099
515.016	3620
515.087	4548
515.158	6360
515.229	8641
515.301	2621
515.372	3736
515.443	2243
515.514	3777
515.585	2288
515.656	4834
515.728	3447
515.799	2753
515.870	4140
515.941	3919
516.012	3575
516.083	4696
516.154	3227
516.225	5949
516.296	6043
516.367	4937
516.438	4044
516.509	6495
516.580	10940
516.651	35677
516.722	76270
516.793	20106
516.864	8934
516.935	8969
517.006	10055
517.077	12957
517.148	35755
517.219	136148
517.289	132335
517.360	52186
517.431	13119
517.502	6067
517.573	6961
517.643	5745
517.714	7605
517.785	7619
517.856	6068
517.926	9413
517.997	11208
518.068	11205
518.138	17148
518.209	29440
518.280	115680
518.350	263565
518.421	59260
518.492	21128
518.562	22330
518.633	30270
518.703	47593
518.774	126598
518.845	284415
518.915	201442
518.986	56574
519.056	26477
519.127	21044
519.197	27523
519.268	56819
519.338	25029
519.408	9094
519.479	8713
519.549	6570
519.620	7178
519.690	6404
519.760	5507
519.831	4842
519.901	4228
519.971	5355
520.042	5469
520.112	4614
520.182	5969
520.253	5836
520.323	4959
520.393	6142
520.463	9620
520.534	5709
520.604	13673
520.674	6705
520.744	7938
520.814	13935
520.885	12144
520.955	26884
521.025	63727
521.095	12244
521.165	6539
521.235	4862
521.305	4240
521.375	4735
521.445	4937
521.515	3791
521.585	5556
521.655	2645
521.725	5311
521.795	5630
521.865	2636
521.935	8562
522.005	4783
522.075	3403
522.145	5492
522.215	4472
522.285	7928
522.355	10405
522.424	16688
522.494	10367
522.564	5893
522.634	8325
522.704	13220
522.774	4016
522.843	3985
522.913	4379
522.983	4576
523.053	3448
523.122	5140
523.192	4735
523.262	8029
523.331	5701
523.401	4806
523.471	4026
523.540	4886
523.610	3258
523.680	5277
523.749	5892
523.819	6418
523.888	5404
523.958	5197
524.027	5578
524.097	4419
524.166	4134
524.236	3956
524.305	6710
524.375	3925
524.444	3310
524.514	6975
524.583	4742
524.653	6058
524.722	6110
524.791	3016
524.861	5922
524.930	4612
524.999	4922
525.069	6810
525.138	6503
525.207	6898
525.277	6325
525.346	6711
525.415	8766
525.484	8976
525.554	10689
525.623	13276
525.692	14444
525.761	16979
525.830	20542
525.900	26756
525.969	47277
526.038	89958
526.107	229340
526.176	516029
526.245	307364
526.314	113923
526.383	289721
526.452	321087
526.522	532115
526.591	321491
526.660	55686
526.729	36369
526.797	43928
526.867	80059
526.935	279775
527.004	741666
527.073	305271
527.142	45707
527.211	21197
527.280	15759
527.349	11585
527.418	7339
527.487	9339
527.555	7343
527.624	6581
527.693	4967
527.762	7605
527.831	5178
527.899	6465
527.968	5916
528.037	4509
528.106	5711
528.174	6062
528.243	6509
528.312	8254
528.380	6412
528.449	4181
528.518	6555
528.586	3737
528.655	5625
528.723	4596
528.792	3993
528.861	3701
528.929	3035
528.998	4961
529.066	6291
529.135	6975
529.203	6403
529.272	7175
529.340	9368
529.409	9677
529.477	7096
529.545	7740
529.614	10939
529.682	10277
529.751	10681
529.819	14740
529.887	11159
529.956	10241
530.024	10894
530.092	8468
530.161	9449
530.229	10184
530.297	9687
530.365	11753
530.434	11572
530.502	9583
530.570	9879
530.638	7889
530.707	8921
530.775	10247
530.843	8756
530.911	9925
530.979	10366
531.047	10539
531.115	10293
531.183	10128
531.252	9266
531.320	9054
531.388	8957
531.456	10387
531.524	9703
531.592	12740
531.660	14277
531.728	10127
531.796	10062
531.864	10777
531.932	10101
532.000	10365
532.067	12245
532.135	12018
532.203	13317
532.271	12543
532.339	14810
532.407	15831
532.475	12816
532.542	13024
532.610	13075
532.678	12545
532.746	25136
532.814	28138
532.881	15294
532.949	12766
533.017	11698
533.084	11298
533.152	11289
533.220	11093
533.287	10839
533.355	12741
533.423	12555
533.490	12160
533.558	12189
533.625	11666
533.693	11697
533.761	11727
533.828	11617
533.896	10323
533.963	14008
534.031	14825
534.098	16177
534.166	15078
534.233	14071
534.300	15766
534.368	14946
534.435	14071
534.503	15915
534.570	16923
534.637	18226
534.705	20674
534.772	28186
534.840	66509
534.907	269461
534.974	203606
535.041	28195
535.109	16830
535.176	12860
535.243	14731
535.310	13020
535.378	12039
535.445	11962
535.512	12315
535.579	12163
535.646	10197
535.714	11567
535.781	13258
535.848	13037
535.915	12191
535.982	11076
536.049	11710
536.116	12464
536.183	10584
536.250	11066
536.317	10494
536.384	11108
536.451	12129
536.518	11989
536.585	10942
536.652	13585
536.719	12593
536.786	10033
536.853	11290
536.920	13900
536.987	13188
537.053	11729
537.120	21454
537.187	15527
537.254	11466
537.321	12177
537.388	12653
537.454	10509
537.521	10684
537.588	10814
537.654	12541
537.721	12481
537.788	11637
537.855	11221
537.921	10452
537.988	10702
538.055	12325
538.121	9099
538.188	10335
538.254	9758
538.321	11938
538.388	12546
538.454	12258
538.521	12548
538.587	12273
538.654	11904
538.720	11280
538.787	11550
538.853	12105
538.920	11476
538.986	10318
539.053	9578
539.119	10521
539.185	10116
539.252	11768
539.318	11649
539.385	14058
539.451	10336
539.517	11795
539.583	12786
539.650	13606
539.716	15590
539.782	10436
539.849	9578
539.915	11181
539.981	10145
540.047	10452
540.114	10437
540.180	12973
540.246	9406
540.312	11966
540.378	12955
540.444	13343
540.510	14868
540.576	17816
540.643	10915
540.709	9857
540.775	10935
540.841	9851
540.907	12299
540.973	12787
541.039	11241
541.105	12033
541.171	10412
541.237	11293
541.303	12569
541.369	13300
541.435	11442
541.500	12177
541.566	10139
541.632	10245
541.698	10229
541.764	12656
541.830	10471
541.896	9820
541.961	11187
542.027	10146
542.093	11833
542.159	10826
542.224	9980
542.290	13151
542.356	11639
542.421	11229
542.487	11753
542.553	9395
542.618	11344
542.684	11099
542.750	10839
542.815	12445
542.881	13066
542.947	17289
543.012	13042
543.078	10226
543.143	9437
543.209	10926
543.274	8965
543.340	11274
543.405	12712
543.471	11776
543.536	10102
543.602	11110
543.667	10149
543.732	12999
543.798	9690
543.863	11326
543.928	10453
543.994	10731
544.059	11208
544.124	11603
544.190	11013
544.255	11956
544.320	11872
544.386	10165
544.451	12830
544.516	11979
544.581	12633
544.646	16917
544.712	15664
544.777	12932
544.842	13267
544.907	12724
544.972	12407
545.037	13313
545.102	14968
545.168	13226
545.233	13877
545.298	14936
545.363	14389
545.428	16530
545.493	17265
545.558	17239
545.623	14743
545.688	14373
545.753	16456
545.818	16473
545.883	17809
545.947	16984
546.012	18013
546.077	18250
546.142	19184
546.207	18748
546.272	20757
546.337	20805
546.401	21664
546.466	23431
546.531	22641
546.596	25608
546.661	24279
546.725	27817
546.790	29578
546.855	30944
546.919	33500
546.984	37915
547.049	41376
547.113	46823
547.178	51548
547.243	59309
547.307	67615
547.372	74747
547.436	73655
547.501	78942
547.565	81957
547.630	74366
547.695	73860
547.759	74874
547.823	73855
547.888	75229
547.952	77749
548.017	82125
548.081	83287
548.146	81753
548.210	85119
548.274	91644
548.339	86210
548.403	79466
548.468	73801
548.532	74744
548.596	76304
548.660	76806
548.725	86569
548.789	92184
548.853	86297
548.917	85626
548.982	82167
549.046	72930
549.110	64513
549.174	70566
549.238	82870
549.303	88596
549.367	91304
549.431	83299
549.495	80439
549.559	82257
549.623	96035
549.687	100566
549.751	101938
549.815	120102
549.879	120280
549.943	115009
550.007	122999
550.071	116820
550.135	105224
550.199	102009
550.263	98696
550.327	96094
550.391	99214
550.455	110220
550.519	113966
550.582	123202
550.646	137237
550.710	137814
550.774	136309
550.838	139958
550.901	143682
550.965	150832
551.029	159377
551.093	173694
551.156	193692
551.220	229300
551.284	231247
551.347	172874
551.411	162474
551.475	149673
551.538	146610
551.602	133475
551.666	126687
551.729	118417
551.793	118430
551.856	113155
551.920	112345
551.983	113437
552.047	110370
552.110	112205
552.174	114574
552.237	115826
552.301	105351
552.364	102136
552.428	99308
552.491	102629
552.554	103587
552.618	104184
552.681	106958
552.745	101739
552.808	109149
552.871	113165
552.934	107687
552.998	104324
553.061	102635
553.124	97370
553.187	98200
553.251	100817
553.314	100155
553.377	101606
553.440	111750
553.503	123311
553.567	120264
553.630	108019
553.693	107243
553.756	108521
553.819	103449
553.882	100691
553.945	101846
554.008	100751
554.071	101760
554.134	102191
554.197	94430
554.260	92282
554.323	95805
554.386	98134
554.449	102409
554.512	98814
554.575	96601
554.638	97173
554.701	95154
554.764	93985
554.827	90656
554.889	85853
554.952	80609
555.015	80804
555.078	82929
555.141	83704
555.203	80211
555.266	81811
555.329	81154
555.391	77073
555.454	75366
555.517	73402
555.580	70970
555.642	69815
555.705	68055
555.768	66817
555.830	66380
555.893	62144
555.955	61478
556.018	58821
556.080	61463
556.143	62793
556.206	60658
556.268	59364
556.330	57249
556.393	58131
556.455	56187
556.518	57216
556.580	53154
556.643	51323
556.705	49871
556.767	48829
556.830	49670
556.892	47749
556.955	48604
557.017	47502
557.079	47072
557.142	45894
557.204	45270
557.266	46820
557.328	42720
557.391	38746
557.453	38482
557.515	39196
557.577	39802
557.639	39986
557.701	40435
557.764	39466
557.826	42036
557.888	42902
557.950	44574
558.012	51155
558.074	75184
558.136	195092
558.198	308318
558.260	85323
558.322	47104
558.384	45825
558.446	48648
558.508	52031
558.570	59273
558.632	68403
558.694	94019
558.756	185205
558.818	550229
558.880	767119
558.942	310193
559.003	344255
559.065	121022
559.127	61377
559.189	58641
559.251	68672
559.312	114975
559.374	315916
559.436	647235
559.498	221853
559.559	67954
559.621	58764
559.683	74247
559.744	145818
559.806	442650
559.868	397768
559.929	85631
559.991	72916
560.052	149829
560.114	334471
560.176	161361
560.237	233561
560.299	241799
560.360	46555
560.422	26150
560.483	23107
560.545	22115
560.606	21571
560.667	19473
560.729	18570
560.790	18026
560.852	17993
560.913	16519
560.974	17238
561.036	16157
561.097	16423
561.158	16547
561.220	16764
561.281	15484
561.342	15799
561.403	15402
561.465	15225
561.526	17102
561.587	16439
561.648	13331
561.709	14921
561.771	13730
561.832	13401
561.893	13097
561.954	13282
562.015	12543
562.076	12644
562.137	12968
562.198	12549
562.259	12626
562.320	13507
562.381	12873
562.442	13521
562.503	13484
562.564	12724
562.625	12178
562.686	12945
562.747	12023
562.808	13282
562.869	12128
562.930	12404
562.991	11553
563.051	11718
563.112	11568
563.173	11545
563.234	11223
563.294	11889
563.355	11039
563.416	10380
563.477	11121
563.537	11247
563.598	11557
563.659	11370
563.720	10419
563.780	11226
563.841	10706
563.901	11136
563.962	11476
564.023	10276
564.083	10302
564.144	9667
564.204	9888
564.265	10658
564.325	12248
564.386	15425
564.446	12251
564.507	10153
564.567	9736
564.628	10218
564.688	9747
564.749	9638
564.809	11571
564.869	11575
564.930	9922
564.990	9910
565.050	8887
565.111	8824
565.171	9673
565.231	9480
565.292	10169
565.352	9269
565.412	10197
565.472	9686
565.532	9521
565.593	9667
565.653	9154
565.713	9276
565.773	9990
565.833	10136
565.893	9862
565.953	8648
566.013	9003
566.074	9771
566.134	11504
566.194	13319
566.254	11935
566.314	9416
566.374	8261
566.434	9401
566.494	8686
566.554	8558
566.614	9432
566.673	9817
566.733	9682
566.793	10042
566.853	9261
566.913	9637
566.973	9941
567.033	10098
567.092	9264
567.152	9965
567.212	10221
567.272	10737
567.331	10502
567.391	9484
567.451	11791
567.511	12633
567.570	11077
567.630	10041
567.690	9103
567.749	9465
567.809	9399
567.868	10734
567.928	9146
567.988	9886
568.047	9879
568.107	9697
568.166	10299
568.226	9278
568.285	10684
568.345	10406
568.404	10592
568.464	9171
568.523	9156
568.582	11030
568.642	9902
568.701	9882
568.761	9371
568.820	9328
568.879	10700
568.939	11323
568.998	10335
569.057	9413
569.116	9381
569.176	9690
569.235	10042
569.294	9268
569.353	9124
569.413	9260
569.472	8944
569.531	9014
569.590	9106
569.649	9082
569.708	8789
569.767	9378
569.827	9487
569.886	8407
569.945	9800
570.004	9075
570.063	9346
570.122	9543
570.181	9381
570.240	10201
570.299	10268
570.358	9956
570.417	9079
570.475	10272
570.534	9770
570.593	9908
570.652	10069
570.711	9925
570.770	10331
570.829	9329
570.887	8911
570.946	9803
571.005	9928
571.064	9757
571.122	10144
571.181	9973
571.240	9345
571.299	9129
571.357	9808
571.416	9730
571.475	10449
571.533	10980
571.592	10696
571.650	11038
571.709	11469
571.768	11733
571.826	12437
571.885	11414
571.943	9966
572.002	8808
572.060	8720
572.119	9179
572.177	10347
572.236	9395
572.294	9706
572.352	9781
572.411	9938
572.469	8822
572.528	8701
572.586	9078
572.644	10022
572.703	9128
572.761	9327
572.819	7943
572.877	8259
572.936	8390
572.994	8526
573.052	8872
573.110	8042
573.169	9764
573.227	8528
573.285	9124
573.343	8933
573.401	8640
573.459	9278
573.517	9272
573.576	9380
573.634	9771
573.692	8944
573.750	9895
573.808	9821
573.866	9207
573.924	9735
573.982	9704
574.040	9184
574.098	9250
574.155	8496
574.213	9184
574.271	8568
574.329	9754
574.387	8093
574.445	8445
574.503	7483
574.560	7225
574.618	8226
574.676	8111
574.734	8485
574.792	8172
574.849	7391
574.907	7078
574.965	6341
575.022	6766
575.080	7207
575.138	6732
575.195	6253
575.253	5792
575.311	6460
575.368	7046
575.426	6291
575.483	6977
575.541	7413
575.598	6113
575.656	7588
575.713	7784
575.771	7860
575.828	7083
575.886	6910
575.943	7875
576.001	6863
576.058	6645
576.115	6099
576.173	6956
576.230	8002
576.287	6962
576.345	7190
576.402	6764
576.459	7562
576.517	6584
576.574	7145
576.631	6876
576.688	6050
576.746	6642
576.803	6616
576.860	6749
576.917	6732
576.974	6812
577.031	7438
577.089	6494
577.146	6115
577.203	5722
577.260	6909
577.317	6994
577.374	6059
577.431	7284
577.488	6128
577.545	6710
577.602	6217
577.659	6789
577.716	5601
577.773	6463
577.830	6234
577.886	6173
577.943	5399
578.000	6950
578.057	6371
578.114	6638
578.171	6257
578.227	6715
578.284	6604
578.341	7011
578.398	6376
578.454	7433
578.511	7028
578.568	7508
578.625	6580
578.681	6688
578.738	6189
578.794	6198
578.851	6662
578.908	7478
578.964	6290
579.021	6425
579.077	6464
579.134	5941
579.190	5903
579.247	6785
579.303	6465
579.360	5242
579.416	6722
579.473	7013
579.529	5927
579.586	6743
579.642	5970
579.698	6850
579.755	6730
579.811	6493
579.867	7260
579.924	6675
579.980	6906
580.036	7443
580.093	8123
580.149	9430
580.205	8443
580.261	7066
580.317	7981
580.374	7682
580.430	8681
580.486	8060
580.542	6983
580.598	7332
580.619	7683
580.654	8294
580.692	8352
580.710	8379
580.765	7761
580.767	7740
580.823	8162
580.838	8110
580.879	7959
580.911	8064
580.935	8144
580.984	7157
580.991	7022
581.047	8607
581.057	8696
581.103	9021
581.130	9073
581.159	9124
581.203	8686
581.215	8586
581.270	9284
581.276	9144
581.326	7615
581.349	8097
581.382	8897
581.422	8410
581.438	8183
581.494	8716
581.494	8716
581.550	8247
581.567	8271
581.606	8309
581.640	8354
581.661	8377
581.713	9287
581.717	9351
581.773	9253
581.786	9153
581.829	8897
581.859	9251
581.885	9540
581.932	9787
581.940	9815
581.996	9858
582.004	9834
582.052	9613
582.077	9757
582.107	9933
582.150	9891
582.163	9894
582.219	9872
582.223	9898
582.274	10055
582.296	10180
582.330	10484
582.368	10857
582.386	10985
582.441	10773
582.441	10768
582.497	10725
582.514	10862
582.552	11237
582.587	10998
582.608	10790
582.659	11294
582.663	11334
582.719	11994
582.732	11914
582.774	11822
582.805	12087
582.830	12256
582.877	12589
582.885	12663
582.941	13014
582.950	13342
582.996	14948
583.023	15700
583.052	16612
583.095	16254
583.107	16020
583.162	15057
583.168	15064
583.218	14876
583.240	14473
583.273	14034
583.313	13940
583.328	13978
583.384	13061
583.385	13064
583.439	12983
583.458	13067
583.494	13166
583.531	13066
583.549	13142
583.603	13282
583.605	13279
583.660	13313
583.676	13238
583.715	13177
583.748	13547
583.770	13838
583.820	13969
583.825	14001
583.881	14015
583.893	13974
583.936	13574
583.965	13939
583.991	14374
584.038	14675
584.046	14703
584.101	14093
584.110	14186
584.156	14755
584.183	14824
584.211	14929
584.255	15353
584.266	15559
584.321	16248
584.328	16324
584.376	16595
584.400	16164
584.431	15725
584.472	16573
584.486	16905
584.541	18111
584.545	18076
584.596	17491
584.617	17684
584.651	18268
584.689	19148
584.706	19575
584.761	19875
584.762	19866
584.816	20860
584.834	20967
584.871	20974
584.906	21231
584.926	21619
584.978	22712
584.980	22763
585.035	23840
585.051	24075
585.090	25137
585.123	25682
585.145	26040
585.195	27399
585.200	27632
585.254	30806
585.267	31698
585.309	34396
585.340	35820
585.364	37674
585.412	43024
585.419	43934
585.473	52769
585.484	55694
585.528	72383
585.556	89780
585.583	117824
585.628	187456
585.637	209144
585.692	407697
585.700	426971
585.747	481452
585.772	408985
585.801	260223
585.845	125270
585.856	106802
585.910	61608
585.917	56838
585.965	45825
585.989	41595
586.019	39357
586.061	36322
586.074	35696
586.128	34119
586.133	33859
586.183	32130
586.205	31873
586.237	32078
586.277	31298
586.292	31061
586.346	30704
586.349	30643
586.401	30470
586.421	30133
586.455	30031
586.493	30235
586.509	30423
586.564	31153
586.565	31146
586.618	34466
586.637	34556
586.672	35631
586.709	37933
586.727	38851
586.781	40118
586.781	40183
586.835	35252
586.853	34159
586.889	32558
586.925	31133
586.944	31117
586.996	31337
586.998	31405
587.052	31173
587.068	30970
587.106	31479
587.140	31985
587.161	32204
587.212	31849
587.215	31915
587.269	32261
587.284	32273
587.323	33099
587.356	33737
587.377	34319
587.427	35281
587.431	35408
587.485	35682
587.499	35781
587.539	36951
587.571	37942
587.593	38865
587.643	39807
587.648	39953
587.702	40561
587.715	40603
587.755	40899
587.786	40835
587.810	41109
587.858	41589
587.864	41752
587.917	42646
587.930	42570
587.971	42755
588.001	42762
588.025	42744
588.073	42607
588.079	42774
588.133	42928
588.145	42875
588.187	43366
588.217	43595
588.241	44512
588.288	45824
588.295	46068
588.348	47298
588.360	47418
588.402	48102
588.431	48188
588.456	48863
588.503	50435
588.510	50990
588.564	54012
588.575	54643
588.617	57590
588.646	59124
588.671	61013
588.718	65218
588.725	66636
588.778	78468
588.789	81511
588.832	113494
588.861	138195
588.886	187673
588.932	297469
588.939	307669
588.993	351343
589.004	349745
589.047	206077
589.075	126944
589.100	105142
589.147	70632
589.154	69858
589.207	62942
589.218	61478
589.261	62314
589.290	62999
589.314	64781
589.361	68786
589.368	70891
589.421	88451
589.433	92836
589.475	143970
589.504	185060
589.528	234452
589.576	323581
589.582	314126
589.635	182186
589.647	157595
589.689	102315
589.718	66818
589.742	63760
589.790	56852
589.795	56884
589.849	56039
589.861	55726
589.902	56065
589.932	55582
589.955	55131
590.004	53836
590.009	54079
590.062	54802
590.075	54769
590.115	54416
590.146	53924
590.168	53857
590.218	53064
590.222	53351
590.275	54511
590.289	54773
590.328	56469
590.360	56989
590.381	57152
590.431	57318
590.435	57604
590.488	58707
590.503	58879
590.541	60411
590.574	61268
590.594	62116
590.645	63578
590.647	63875
590.700	65378
590.716	65628
590.753	67559
590.787	68981
590.806	69862
590.859	71174
590.859	71453
590.912	72142
590.930	72156
590.965	73161
591.001	73488
591.018	73602
591.071	72968
591.072	72684
591.124	72093
591.143	71540
591.177	72746
591.214	73463
591.230	74149
591.283	75429
591.285	75187
591.336	75555
591.356	75375
591.389	75445
591.427	74814
591.442	74885
591.495	74061
591.498	73717
591.547	75324
591.569	75656
591.600	77243
591.640	78568
591.653	78767
591.706	78397
591.711	78047
591.759	80717
591.782	81666
591.811	84220
591.853	87065
591.864	87461
591.917	87702
591.924	87385
591.969	87209
591.995	86610
592.022	87627
592.066	88340
592.075	89159
592.127	92095
592.137	92277
592.180	93718
592.208	93996
592.233	95726
592.279	97959
592.285	98690
592.338	101534
592.350	101753
592.390	101257
592.421	100204
592.443	101461
592.491	102896
592.495	103473
592.548	105611
592.562	105770
592.600	106178
592.633	105730
592.653	106021
592.704	105065
592.705	105733
592.775	108758
592.846	113147
592.916	112685
592.987	113066
593.058	114989
593.128	116942
593.199	117214
593.270	117801
593.341	121869
593.411	125964
593.482	129002
593.553	133823
593.623	132882
593.694	138825
593.764	140120
593.835	139033
593.906	139861
593.976	141402
594.047	147263
594.117	152992
594.188	156680
594.258	155512
594.329	156991
594.399	161408
594.470	165062
594.540	171677
594.611	174069
594.681	172970
594.751	172591
594.822	179961
594.892	187552
594.963	190597
595.033	197330
595.103	201675
595.174	205039
595.244	208094
595.314	215576
595.384	219420
595.455	225479
595.525	235305
595.595	239515
595.665	241254
595.736	235211
595.806	241172
595.876	244580
595.946	244477
596.016	256227
596.087	264627
596.157	263290
596.227	265981
596.297	281411
596.367	296173
596.437	313339
596.507	313203
596.577	309448
596.647	321972
596.717	338235
596.787	341241
596.857	342542
596.927	343164
596.997	344382
597.067	347140
597.137	351576
597.207	356252
597.277	356587
597.347	345444
597.417	337045
597.487	336547
597.557	343946
597.626	354008
597.696	359304
597.766	354487
597.836	337993
597.906	323110
597.975	316907
598.045	325067
598.115	334212
598.185	358882
598.254	395955
598.324	428730
598.394	437017
598.464	424302
598.533	417170
598.603	393791
598.672	379557
598.742	388705
598.812	389262
598.881	403291
598.951	400440
599.020	407751
599.090	421817
599.159	428136
599.229	412634
599.299	407246
599.368	416758
599.437	411939
599.507	385595
599.576	372271
599.646	372021
599.715	365600
599.785	365539
599.854	359023
599.924	352170
599.993	351950
600.062	359461
600.132	368241
600.201	388416
600.270	440180
600.340	464616
600.409	455457
600.478	454424
600.547	466022
600.617	427375
600.686	356645
600.755	331952
600.824	318732
600.894	315873
600.963	319094
601.032	316204
601.101	311168
601.170	301617
601.239	294866
601.308	297119
601.378	297797
601.447	303001
601.516	306546
601.585	309263
601.654	315392
601.723	318961
601.792	329098
601.861	339362
601.930	349952
601.999	357767
602.068	354757
602.137	357813
602.206	363660
602.275	370075
602.343	372170
602.412	374523
602.481	377031
602.550	381467
602.619	391544
602.688	392862
602.756	399645
602.825	398434
602.894	409891
602.963	411066
603.032	419462
603.100	420941
603.169	415918
603.238	427322
603.307	418554
603.375	424471
603.444	437064
603.513	426814
603.581	437112
603.650	449760
603.719	418022
603.787	416867
603.856	429812
603.924	436460
603.993	450145
604.061	467482
604.130	482292
604.198	490380
604.267	497391
604.335	508071
604.404	511914
604.472	523528
604.541	522213
604.609	533081
604.678	536305
604.746	541333
604.815	558856
604.883	557766
604.951	550731
605.020	564263
605.088	560398
605.156	562667
605.225	567655
605.293	564048
605.361	569291
605.429	569343
605.498	583813
605.566	589379
605.634	612541
605.702	629446
605.771	643064
605.839	651424
605.907	631401
605.975	622018
606.043	606279
606.111	602524
606.180	614450
606.248	597633
606.316	592278
606.384	603976
606.452	579781
606.520	574820
606.588	591481
606.656	593589
606.724	584337
606.792	556821
606.860	508909
606.928	469529
606.996	451686
607.064	442299
607.132	454863
607.200	478504
607.267	492646
607.335	504804
607.403	513972
607.471	499289
607.539	486242
607.607	487074
607.674	433969
607.742	431767
607.810	427695
607.878	425287
607.946	437395
608.013	456505
608.081	461690
608.149	464245
608.216	482930
608.284	495233
608.352	497459
608.419	491291
608.487	481196
608.555	470101
608.622	486223
608.690	515619
608.757	557714
608.825	567348
608.893	555489
608.960	523906
609.028	505453
609.095	504831
609.163	506089
609.230	454042
609.298	419302
609.365	444205
609.432	474537
609.500	509877
609.567	576406
609.635	644215
609.702	671964
609.769	640458
609.837	509319
609.904	446992
609.971	448966
610.039	461909
610.106	505889
610.173	660998
610.241	969974
610.308	776256
610.375	535333
610.442	482203
610.509	462364
610.577	469025
610.644	470434
610.711	485000
610.778	496314
610.845	518891
610.912	545260
610.980	564500
611.047	563412
611.114	554569
611.181	541692
611.248	537709
611.315	569083
611.382	579665
611.449	595521
611.516	602985
611.583	597400
611.650	599753
611.717	603112
611.784	606796
611.851	620024
611.918	629392
611.984	670795
612.051	749669
612.118	934022
612.185	1251716
612.252	1097530
612.319	796622
612.386	733579
612.452	689921
612.519	664790
612.586	655666
612.653	667703
612.719	692026
612.786	671065
612.853	628120
612.919	621329
612.986	628393
613.053	597604
613.120	567847
613.186	548372
613.253	550775
613.319	553868
613.386	555569
613.453	565724
613.519	564196
613.586	553021
613.652	561897
613.719	553402
613.785	565065
613.852	570601
613.918	570128
613.985	571933
614.051	591370
614.118	584101
614.184	565741
614.250	565878
614.317	581630
614.383	571852
614.449	582459
614.516	578559
614.582	581683
614.648	572760
614.715	568404
614.781	557782
614.847	558612
614.914	551128
614.980	541779
615.046	544311
615.112	558922
615.179	561127
615.245	567747
615.311	557723
615.377	564581
615.443	570915
615.509	572590
615.575	584308
615.642	581027
615.708	591519
615.774	604374
615.840	618780
615.906	624332
615.972	659496
616.038	762852
616.104	1014235
616.170	1305535
616.236	1220150
616.302	893889
616.368	790937
616.434	678076
616.500	636516
616.565	659745
616.631	729015
616.697	684851
616.763	673116
616.829	784809
616.895	1039101
616.961	1011540
617.026	713464
617.092	606773
617.158	589668
617.224	579291
617.289	542804
617.355	524228
617.421	521147
617.487	514857
617.552	495621
617.618	493539
617.684	495345
617.749	495666
617.815	479810
617.880	470923
617.946	469914
618.012	481939
618.077	490454
618.143	466022
618.208	472172
618.274	502823
618.339	507581
618.405	429871
618.470	430060
618.536	428065
618.601	421515
618.667	397134
618.732	377744
618.798	374405
618.863	374129
618.928	370532
618.994	370780
619.059	367587
619.124	372075
619.190	366972
619.255	367612
619.320	366555
619.386	371223
619.451	366906
619.516	356692
619.581	363887
619.647	374738
619.712	374194
619.777	360916
619.842	361484
619.907	369854
619.972	374181
620.038	373465
620.103	363417
620.168	364578
620.233	372667
620.298	372606
620.363	377545
620.428	387040
620.493	396093
620.558	397776
620.623	401593
620.688	402458
620.753	398065
620.818	403260
620.883	408503
620.948	406542
621.013	403117
621.078	396549
621.143	401109
621.207	403738
621.272	396185
621.337	390647
621.402	384154
621.467	379966
621.532	378648
621.596	383122
621.661	374973
621.726	370876
621.791	375692
621.855	374772
621.920	368882
621.985	376876
622.049	383326
622.114	382386
622.179	389632
622.243	395194
622.308	408378
622.373	421070
622.437	413314
622.502	393261
622.566	389302
622.631	391642
622.695	396849
622.760	395861
622.824	394385
622.889	393910
622.953	395682
623.018	415887
623.082	418324
623.147	416279
623.211	410569
623.276	407170
623.340	392379
623.404	386989
623.469	385841
623.533	390063
623.597	382875
623.662	381173
623.726	355621
623.790	337381
623.854	329955
623.919	335044
623.983	339713
624.047	343689
624.111	346815
624.176	352544
624.240	352762
624.304	364804
624.368	349702
624.432	351781
624.496	358693
624.560	374856
624.625	378965
624.689	375671
624.753	392085
624.817	375759
624.881	367776
624.945	336625
625.009	326167
625.073	331399
625.137	342581
625.201	354425
625.265	354685
625.329	342768
625.393	343079
625.456	346379
625.520	357336
625.584	362596
625.648	369766
625.712	380002
625.776	373909
625.839	355282
625.903	308586
625.967	286705
626.031	305123
626.095	355255
626.158	332484
626.222	269591
626.286	252164
626.349	243793
626.413	228961
626.477	228318
626.540	231645
626.604	229995
626.668	225309
626.731	222810
626.795	223445
626.858	221929
626.922	217847
626.986	215920
627.049	218662
627.113	224533
627.176	218790
627.240	212355
627.303	211127
627.366	212099
627.430	214746
627.493	211096
627.557	208194
627.620	211361
627.684	219300
627.747	218304
627.810	199977
627.874	182911
627.937	177131
628.000	183359
628.064	178758
628.127	160412
628.190	158595
628.253	153653
628.317	150136
628.380	142966
628.443	137868
628.506	139183
628.569	133915
628.632	126314
628.696	126579
628.759	126206
628.822	120836
628.885	117798
628.948	117852
629.011	115328
629.074	113083
629.137	108705
629.200	107531
629.263	104438
629.326	103388
629.389	105017
629.452	102382
629.515	101456
629.578	101465
629.641	102034
629.704	102707
629.767	100818
629.830	97738
629.892	96558
629.955	94180
630.018	98833
630.081	96725
630.144	95926
630.207	93263
630.269	93770
630.332	90711
630.395	90873
630.458	88326
630.520	85010
630.583	87148
630.646	89078
630.708	88278
630.771	89813
630.834	95243
630.896	91719
630.959	91281
631.021	87503
631.084	88146
631.146	89472
631.209	89575
631.272	87560
631.334	90445
631.397	88890
631.459	88326
631.522	90947
631.584	91745
631.646	92338
631.709	92704
631.771	91881
631.834	90553
631.896	89498
631.958	87170
632.021	86143
632.083	83681
632.145	85370
632.208	84494
632.270	84756
632.332	84713
632.395	83441
632.457	84956
632.519	81662
632.581	83659
632.643	82235
632.706	84782
632.768	80016
632.830	82711
632.892	84409
632.954	83792
633.016	86865
633.078	84688
633.141	82895
633.203	83448
633.265	82565
633.327	81826
633.389	82605
633.451	84184
633.513	83721
633.575	84154
633.637	82632
633.698	83902
633.760	88078
633.822	90653
633.884	90942
633.946	90949
634.008	89552
634.070	90457
634.132	90942
634.193	92905
634.255	97380
634.317	97343
634.379	97563
634.441	92634
634.502	89142
634.564	85392
634.626	81118
634.687	78736
634.749	76712
634.811	78664
634.873	76494
634.934	78320
634.996	78125
635.057	77132
635.119	78289
635.181	79142
635.242	79757
635.304	76308
635.365	81658
635.427	78744
635.488	78518
635.550	76868
635.611	77386
635.673	75996
635.734	79613
635.796	79107
635.857	84078
635.918	85236
635.980	89117
636.041	90101
636.102	92125
636.164	92019
636.225	91469
636.286	83041
636.348	79708
636.409	77383
636.470	75078
636.531	75106
636.593	76108
636.654	73566
636.715	72295
636.776	73296
636.838	71867
636.899	71631
636.960	70621
637.021	70587
637.082	69230
637.143	68262
637.204	65941
637.265	66086
637.326	68715
637.387	69188
637.448	67652
637.509	68739
637.570	69045
637.631	67519
637.692	66154
637.753	65513
637.814	64820
637.875	65973
637.936	65108
637.997	64727
638.058	62678
638.119	65261
638.179	65402
638.240	64195
638.301	65700
638.362	64079
638.423	61528
638.483	62388
638.544	59729
638.605	62123
638.666	60970
638.726	61042
638.787	60319
638.848	61819
638.908	60696
638.969	58686
639.030	57710
639.090	57563
639.151	59390
639.211	58578
639.272	58812
639.332	58674
639.393	59158
639.453	58698
639.514	60580
639.574	57596
639.635	55398
639.695	57278
639.756	53214
639.816	52893
639.877	53367
639.937	55000
639.997	54479
640.058	52600
640.118	52623
640.178	54476
640.239	52957
640.299	53714
640.359	53842
640.420	55752
640.480	57129
640.540	60071
640.600	60782
640.661	58379
640.721	55261
640.781	59027
640.841	56861
640.901	55395
640.961	53959
641.021	53531
641.082	55169
641.142	54802
641.202	54614
641.262	51823
641.322	53157
641.382	51352
641.442	52080
641.502	51960
641.562	51982
641.622	52112
641.682	55301
641.742	55100
641.802	54380
641.861	52122
641.921	49057
641.981	48903
642.041	46599
642.101	47852
642.161	46253
642.221	47579
642.280	47363
642.340	47617
642.400	47481
642.460	49152
642.519	49446
642.579	48911
642.639	49714
642.698	48391
642.758	51868
642.818	48716
642.877	48791
642.937	49631
642.997	48962
643.056	49385
643.116	47951
643.175	50726
643.235	49882
643.294	50064
643.354	51722
643.414	53560
643.473	55403
643.532	61613
643.592	68540
643.651	88169
643.711	123277
643.770	198822
643.830	385336
643.889	592435
643.948	256701
644.008	98582
644.067	68706
644.126	57803
644.186	52635
644.245	49772
644.304	46215
644.363	49715
644.423	44243
644.482	46403
644.541	47496
644.600	46742
644.659	53285
644.719	57779
644.778	72208
644.837	99562
644.896	170959
644.955	318525
645.014	139217
645.073	60757
645.132	51010
645.191	50473
645.250	48792
645.309	51011
645.368	52840
645.427	60791
645.486	85924
645.545	127815
645.604	58103
645.663	47493
645.722	43900
645.781	47565
645.840	48224
645.898	53076
645.957	60975
646.016	78336
646.075	114733
646.134	185116
646.192	385233
646.251	477794
646.310	155930
646.369	75643
646.427	64962
646.486	54379
646.545	47734
646.603	44572
646.662	41620
646.721	42120
646.779	40424
646.838	40764
646.896	44593
646.955	53048
647.014	68684
647.072	110387
647.131	239054
647.189	131747
647.248	45487
647.306	40243
647.365	37434
647.423	34980
647.481	36362
647.540	35348
647.598	36401
647.657	36497
647.715	35737
647.773	34280
647.832	34592
647.890	30771
647.948	31612
648.007	31205
648.065	29651
648.123	30291
648.181	31514
648.240	30029
648.298	28939
648.356	29045
648.414	31307
648.472	29146
648.531	28557
648.589	27572
648.647	28094
648.705	29004
648.763	27870
648.821	27891
648.879	27162
648.937	29844
648.995	32288
649.053	35034
649.111	42310
649.169	58369
649.227	89513
649.285	162976
649.343	360023
649.401	201360
649.459	54120
649.516	38107
649.574	31561
649.632	33222
649.690	34303
649.748	38070
649.806	49443
649.863	77312
649.921	182081
649.979	126908
650.037	33483
650.094	25262
650.152	25461
650.210	24711
650.268	23892
650.325	24239
650.383	23811
650.440	22018
650.498	21302
650.556	21773
650.613	20841
650.671	22730
650.728	21411
650.786	21745
650.843	26178
650.901	22857
650.958	20559
651.016	19630
651.073	20626
651.131	19006
651.188	18624
651.246	19024
651.303	17270
651.360	18844
651.418	18898
651.475	18493
651.532	17415
651.590	18669
651.647	16999
651.704	18765
651.762	18186
651.819	17675
651.876	16214
651.933	17179
651.990	17935
652.048	16425
652.105	16029
652.162	16133
652.219	16205
652.276	16707
652.333	16482
652.390	15582
652.448	15433
652.505	16073
652.562	15509
652.619	15903
652.676	16281
652.733	17942
652.790	15310
652.847	14450
652.904	14971
652.961	14147
653.017	15188
653.074	15819
653.131	15592
653.188	14254
653.245	16139
653.302	15994
653.359	14837
653.415	15611
653.472	13779
653.529	15795
653.586	13950
653.642	14966
653.699	15285
653.756	13966
653.813	13804
653.869	15709
653.926	14271
653.983	14690
654.039	15022
654.096	13940
654.152	15492
654.209	13176
654.266	14441
654.322	13401
654.379	14238
654.435	15483
654.492	12303
654.548	13479
654.605	12994
654.661	15093
654.717	13658
654.774	13507
654.830	13288
654.887	13132
654.943	14065
655.000	13741
655.056	14013
655.112	13627
655.168	13326
655.225	13973
655.281	13562
655.337	13580
655.394	13729
655.450	13735
655.506	13656
655.562	13488
655.618	14019
655.675	12135
655.731	13329
655.787	12518
655.843	13448
655.899	13227
655.955	12956
656.011	13728
656.067	12142
656.123	13563
656.179	13399
656.235	13458
656.291	11910
656.347	14065
656.403	12400
656.459	13695
656.515	13286
656.571	12809
656.627	12945
656.683	13002
656.739	12971
656.795	13006
656.850	12591
656.906	13202
656.962	13260
657.018	14154
657.074	15856
657.129	20353
657.185	28237
657.241	57113
657.297	34368
657.352	14562
657.408	12366
657.464	13129
657.519	12174
657.575	11331
657.630	12525
657.686	11864
657.742	11914
657.797	12410
657.853	11513
657.908	12803
657.964	10847
658.019	11026
658.075	11578
658.130	12118
658.186	11145
658.241	11640
658.297	11483
658.352	11898
658.407	12398
658.463	11342
658.518	10912
658.573	11420
658.629	10846
658.684	10988
658.739	11731
658.795	10848
658.850	10143
658.905	11579
658.960	11718
659.016	10732
659.071	10606
659.126	11300
659.181	9892
659.236	11850
659.291	11412
659.346	10504
659.401	11520
659.457	10923
659.512	10478
659.567	11154
659.622	10343
659.677	10132
659.732	9609
659.787	9833
659.842	10031
659.897	10117
659.952	11228
660.007	10309
660.061	10468
660.116	10019
660.171	9533
660.226	10792
660.281	11824
660.336	9567
660.391	10197
660.445	9935
660.500	10851
660.555	10121
660.610	8523
660.664	10124
660.719	9583
660.774	9885
660.828	10379
660.883	9745
660.938	10946
660.992	10507
661.047	11084
661.101	9239
661.156	8894
661.211	9603
661.265	9358
661.320	10318
661.374	9505
661.429	9845
661.483	9706
661.538	8819
661.592	9326
661.647	10182
661.701	10811
661.755	9639
661.810	9907
661.864	8872
661.919	8693
661.973	9303
662.027	9210
662.081	9215
662.136	9190
662.190	9661
662.244	9956
662.299	9292
662.353	9676
662.407	8830
662.461	8928
662.515	9823
662.569	9107
662.624	9862
662.678	8209
662.732	8627
662.786	8180
662.840	9265
662.894	8583
662.948	9442
663.002	8860
663.056	8486
663.110	8593
663.164	8937
663.218	8669
663.272	8999
663.326	9420
663.380	8654
663.434	8778
663.488	8371
663.542	8638
663.595	9201
663.649	8793
663.703	9246
663.757	9152
663.811	9199
663.864	8157
663.918	9443
663.972	8969
664.026	9295
664.079	8729
664.133	9583
664.187	9018
664.240	8826
664.294	9398
664.348	9042
664.401	9436
664.455	9165
664.508	8376
664.562	8722
664.615	8774
664.669	8188
664.722	8669
664.776	8874
664.829	8191
664.883	8117
664.936	8494
664.990	8299
665.043	8518
665.097	8996
665.150	9313
665.203	9339
665.257	9093
665.310	9603
665.363	9862
665.417	9946
665.470	8570
665.523	8817
665.576	8731
665.630	8986
665.683	7939
665.736	9499
665.789	8970
665.842	8571
665.895	8060
665.949	9349
666.002	8922
666.055	9179
666.108	9853
666.161	9115
666.214	10462
666.267	9139
666.320	8651
666.373	9762
666.426	8660
666.479	8821
666.532	9228
666.585	9098
666.638	10198
666.691	9490
666.744	9370
666.796	9281
666.849	9491
666.902	11101
666.955	9523
667.008	9547
667.060	9032
667.113	10934
667.166	10246
667.219	11306
667.271	10817
667.324	11512
667.377	10382
667.430	10003
667.482	9747
667.535	9953
667.587	9462
667.640	10029
667.693	8401
667.745	8989
667.798	10146
667.850	10093
667.903	10031
667.955	10180
668.008	9840
668.060	10288
668.113	9943
668.165	9821
668.218	9376
668.270	9066
668.322	9422
668.375	10053
668.427	9816
668.479	9359
668.532	10557
668.584	9873
668.636	9272
668.689	9788
668.741	8780
668.793	9241
668.845	8953
668.898	8974
668.950	10190
669.002	9621
669.054	8563
669.106	8903
669.158	9392
669.211	9256
669.263	8612
669.315	9854
669.367	8997
669.419	8962
669.471	9674
669.523	8434
669.575	9719
669.627	8840
669.679	8929
669.731	9590
669.783	9038
669.835	9376
669.886	8150
669.938	9548
669.990	9210
670.042	9391
670.094	9072
670.146	9201
670.197	9132
670.249	8744
670.301	9956
670.353	11182
670.404	13590
670.456	15013
670.508	18904
670.560	28529
670.611	44385
670.663	73924
670.715	164876
670.766	243501
670.818	76976
670.869	20976
670.921	15607
670.972	12444
671.024	10823
671.075	9645
671.127	10383
671.178	10288
671.230	10031
671.281	9834
671.333	11042
671.384	11337
671.436	13974
671.487	17919
671.538	21937
671.590	32208
671.641	48881
671.692	82262
671.744	143901
671.795	104401
671.846	44792
671.897	24771
671.949	18263
672.000	14433
672.051	12337
672.102	10149
672.153	9354
672.204	9543
672.256	8972
672.307	8802
672.358	8761
672.409	7328
672.460	8371
672.511	7049
672.562	7149
672.613	7172
672.664	6973
672.715	8169
672.766	6625
672.817	6784
672.868	6500
672.919	6949
672.970	6363
673.021	6329
673.071	5869
673.122	6704
673.173	5855
673.224	6619
673.275	5832
673.326	5633
673.376	5698
673.427	6229
673.478	6135
673.528	7035
673.579	6922
673.630	6035
673.680	7218
673.731	6324
673.782	5557
673.832	6109
673.883	6446
673.934	5578
673.984	6058
674.035	6919
674.085	6854
674.136	5666
674.186	5879
674.237	5870
674.287	6699
674.338	6515
674.388	5823
674.438	6305
674.489	6828
674.539	6952
674.589	6541
674.640	7146
674.690	6538
674.740	6583
674.791	6136
674.841	5639
674.891	5345
674.942	4938
674.992	4709
675.042	5126
675.092	4534
675.142	5538
675.193	4921
675.243	4997
675.293	5271
675.343	6039
675.393	6270
675.443	5715
675.493	5456
675.543	4525
675.593	5680
675.643	5624
675.693	5667
675.743	5633
675.793	4797
675.843	5403
675.893	4595
675.943	5972
675.993	4761
676.043	5223
676.093	4861
676.142	5600
676.192	5479
676.242	4988
676.292	5894
676.341	4988
676.391	5556
676.441	4435
676.491	4760
676.540	4117
676.590	5674
676.640	4696
676.689	4760
676.739	4525
676.789	4679
676.838	4402
676.888	4038
676.937	4371
676.987	5003
677.037	3608
677.086	3657
677.136	4541
677.185	4482
677.235	3966
677.284	4793
677.333	4278
677.383	3281
677.432	4208
677.482	4843
677.531	4194
677.580	3975
677.630	4806
677.679	4628
677.728	3895
677.778	4738
677.827	3704
677.876	4094
677.925	5333
677.975	5134
678.024	4395
678.073	4588
678.122	5325
678.171	5249
678.220	5719
678.269	4325
678.319	5798
678.368	4745
678.417	4759
678.466	4282
678.515	4558
678.564	3544
678.613	3618
678.662	4222
678.711	3566
678.760	4551
678.809	4277
678.857	3835
678.906	3809
678.955	4362
679.004	4470
679.053	2967
679.102	3680
679.151	3706
679.199	4360
679.248	3705
679.297	3950
679.346	3767
679.394	3084
679.443	4089
679.492	4653
679.540	3509
679.589	4198
679.638	3334
679.686	4289
679.735	3819
679.784	4821
679.832	5366
679.881	3684
679.929	4620
679.978	3735
680.026	3552
680.075	4500
680.123	3477
680.172	2665
680.220	4239
680.268	4028
680.317	2992
680.365	3475
680.414	2796
680.462	3212
680.510	3654
680.559	3281
680.607	3042
680.655	3484
680.703	4004
680.752	3691
680.800	3368
680.848	2982
680.896	4012
680.945	3618
680.993	3450
681.041	3048
681.089	3861
681.137	3577
681.185	2861
681.233	2560
681.258	3074
681.281	3537
681.329	3087
681.377	3132
681.380	3156
681.425	3173
681.473	3893
681.502	3873
681.521	3822
681.569	4266
681.617	4615
681.624	4611
681.665	4413
681.713	4108
681.745	4447
681.761	4575
681.809	4296
681.857	4081
681.867	3991
681.904	3601
681.952	3952
681.989	3919
682.000	3875
682.048	3908
682.096	3868
682.111	4032
682.143	4311
682.191	3909
682.233	4132
682.239	4148
682.286	4312
682.334	3502
682.354	3565
682.382	3596
682.430	4582
682.476	4423
682.477	4399
682.525	4466
682.572	4157
682.598	3841
682.620	3557
682.667	4716
682.715	4552
682.720	4553
682.763	4330
682.810	4308
682.841	4389
682.857	4397
682.905	4982
682.952	5165
682.963	4974
683.000	4222
683.047	4540
683.085	4652
683.095	4680
683.142	4851
683.190	5193
683.206	4975
683.237	4456
683.284	5091
683.328	5244
683.332	5240
683.379	4445
683.426	5301
683.449	5287
683.473	5280
683.521	5239
683.568	5023
683.571	5086
683.615	5558
683.662	5334
683.693	5382
683.709	5371
683.757	4481
683.804	5755
683.814	5485
683.851	4550
683.898	5289
683.936	4753
683.945	4622
683.992	4923
684.039	5444
684.057	5507
684.086	5505
684.133	5339
684.179	4985
684.180	4958
684.227	5290
684.274	5000
684.300	5269
684.321	5499
684.368	5244
684.415	5344
684.422	5373
684.462	5459
684.509	5496
684.543	5400
684.556	5361
684.603	5314
684.649	6664
684.665	6472
684.696	5994
684.743	6044
684.786	5741
684.790	5699
684.837	5795
684.883	5783
684.908	5913
684.930	6113
684.977	6724
685.023	6563
685.029	6613
685.070	6655
685.117	5792
685.150	5963
685.164	6071
685.210	6116
685.257	6307
685.272	6539
685.303	6981
685.350	6975
685.393	6354
685.396	6286
685.443	6158
685.490	6497
685.514	6174
685.536	5922
685.583	6338
685.629	5647
685.636	5716
685.675	6096
685.722	6561
685.757	6363
685.768	6281
685.815	6593
685.861	6711
685.878	6939
685.908	7333
685.954	6956
686.000	6919
686.000	6916
686.047	6793
686.093	6820
686.121	7301
686.139	7494
686.185	7544
686.232	7237
686.242	7182
686.278	7031
686.324	7222
686.363	6791
686.370	6731
686.416	6999
686.463	7085
686.484	7565
686.509	8047
686.555	7138
686.601	7393
686.606	7418
686.647	7573
686.693	7234
686.727	6899
686.739	6788
686.785	7508
686.831	7186
686.848	7309
686.877	7545
686.923	7749
686.969	7267
686.969	7264
687.015	7795
687.061	7890
687.090	8323
687.107	8488
687.153	8246
687.199	7940
687.211	7910
687.245	7914
687.291	7585
687.332	7847
687.336	7875
687.382	8156
687.428	8253
687.453	8316
687.474	8345
687.520	8580
687.565	8600
687.574	8546
687.611	8495
687.657	9242
687.695	9312
687.702	9354
687.748	9696
687.794	10500
687.816	10180
687.839	9456
687.885	9642
687.931	8774
687.937	8681
687.976	8568
688.022	8939
688.058	8984
688.067	8963
688.113	8481
688.158	8338
688.179	8306
688.204	8420
688.249	8723
688.295	8925
688.300	8932
688.340	8947
688.386	8803
688.421	9118
688.431	9169
688.477	8632
688.522	9180
688.542	9113
688.567	9417
688.613	9275
688.658	10272
688.663	10321
688.703	9990
688.749	9575
688.784	9390
688.794	9466
688.839	9486
688.884	9750
688.905	9615
688.930	9267
688.975	9420
689.020	9292
689.026	9293
689.065	9564
689.110	9741
689.146	9784
689.155	9779
689.201	9295
689.246	9451
689.267	9271
689.291	9163
689.336	10098
689.381	9720
689.388	9700
689.426	9696
689.471	9869
689.509	10029
689.516	9997
689.561	9663
689.606	9293
689.630	9189
689.651	9418
689.696	9663
689.741	9905
689.750	9949
689.785	9743
689.830	9724
689.871	9470
689.875	9479
689.920	8792
689.965	9878
689.992	9697
690.010	9587
690.054	9452
690.099	9508
690.112	9563
690.144	9749
690.189	9572
690.233	9259
690.233	9268
690.278	9374
690.323	9656
690.354	9331
690.367	9299
690.412	10108
690.457	9632
690.474	9820
690.501	9969
690.546	10337
690.590	9624
690.595	9614
690.635	9820
690.680	9788
690.716	9936
690.724	10012
690.769	10110
690.813	10846
690.836	11029
690.857	11622
690.902	12376
690.946	13631
690.957	13984
690.991	16339
691.035	19150
691.077	21700
691.080	21684
691.124	20339
691.168	18432
691.198	18022
691.213	17468
691.257	14845
691.301	12627
691.318	11694
691.346	11470
691.390	11273
691.434	10844
691.439	10820
691.478	10951
691.522	10739
691.559	11133
691.567	11291
691.611	11239
691.655	11462
691.680	11603
691.699	11560
691.743	11128
691.787	11206
691.800	11127
691.831	11126
691.875	11113
691.919	11296
691.921	11266
691.964	10881
692.008	11247
692.041	11045
692.052	11054
692.096	11266
692.139	11638
692.162	11699
692.183	11608
692.227	11352
692.271	11174
692.282	11080
692.315	10932
692.359	10909
692.402	10514
692.403	10532
692.447	10525
692.490	10793
692.523	10577
692.534	10592
692.578	11063
692.622	11307
692.643	11413
692.666	11269
692.709	10911
692.753	10856
692.763	10709
692.797	10666
692.840	10677
692.884	10864
692.884	10886
692.928	10996
692.971	11270
693.004	11159
693.015	11158
693.059	11374
693.102	11653
693.124	11585
693.146	11481
693.189	11590
693.233	11635
693.245	11543
693.276	11391
693.320	11577
693.363	11270
693.365	11258
693.407	12074
693.450	12386
693.485	12857
693.493	13000
693.537	13577
693.580	13578
693.605	13897
693.624	14839
693.667	17072
693.710	19354
693.725	20148
693.753	24777
693.797	31957
693.840	39263
693.845	39929
693.883	36476
693.926	32846
693.966	29893
693.970	29465
694.013	24036
694.056	19079
694.086	15547
694.099	15299
694.142	14382
694.185	13275
694.206	12776
694.229	12787
694.272	12759
694.315	12837
694.326	12789
694.358	12617
694.401	12575
694.444	12290
694.446	12256
694.487	12301
694.530	12276
694.566	12258
694.573	12263
694.616	12087
694.659	11808
694.686	11641
694.702	11689
694.745	11961
694.787	11954
694.806	12006
694.830	12147
694.873	12194
694.916	12329
694.926	12378
694.959	12628
695.002	12526
695.044	12647
695.046	12623
695.087	13020
695.130	13374
695.166	13624
695.172	13651
695.215	13722
695.258	13702
695.286	13802
695.301	13917
695.343	13833
695.386	13833
695.406	13814
695.428	14040
695.471	14513
695.514	14993
695.526	15122
695.556	16175
695.599	17586
695.641	18688
695.646	18784
695.684	18127
695.726	17445
695.766	16733
695.769	16738
695.811	16148
695.854	15607
695.886	15260
695.896	15359
695.938	15585
695.981	15824
696.005	15882
696.023	16365
696.065	17546
696.108	18895
696.125	19266
696.150	19267
696.192	19405
696.235	19366
696.245	19342
696.277	19367
696.319	19384
696.361	19243
696.365	19191
696.404	19144
696.446	19125
696.485	19037
696.488	19080
696.530	19023
696.572	19033
696.604	18991
696.614	18951
696.656	18461
696.698	18193
696.724	17913
696.740	18064
696.783	18313
696.825	18708
696.844	18752
696.867	18894
696.909	19235
696.951	19359
696.964	19459
696.992	19668
697.034	19506
697.076	19589
697.083	19569
697.118	20372
697.160	21202
697.202	21951
697.203	21923
697.244	21447
697.286	20870
697.323	20183
697.327	20224
697.369	20197
697.411	20252
697.442	20223
697.453	20356
697.494	20738
697.536	21067
697.562	21257
697.578	21207
697.620	20869
697.661	20581
697.682	20384
697.703	20805
697.744	21520
697.786	22352
697.801	22560
697.828	22578
697.869	22488
697.911	22400
697.921	22348
697.952	22307
697.994	22075
698.035	21881
698.040	21807
698.077	21766
698.118	21614
698.160	21520
698.160	21467
698.201	22219
698.243	22995
698.279	23581
698.284	23702
698.325	24332
698.367	24945
698.399	25377
698.408	25337
698.449	24848
698.491	24380
698.518	24023
698.532	24206
698.573	24554
698.614	24931
698.638	25077
698.656	25183
698.697	25321
698.738	25425
698.757	25413
698.779	25545
698.820	25684
698.862	25833
698.877	25817
698.903	25799
698.944	25695
698.985	25574
698.996	25482
699.026	25434
699.067	25281
699.116	25039
699.235	24896
699.354	24591
699.474	23326
699.593	23271
699.713	23590
699.832	24070
699.951	24362
700.070	23118
700.190	22561
700.309	21897
700.428	21614
700.547	21962
700.667	20982
700.786	22080
700.905	21259
701.024	21079
701.143	19981
701.262	21666
701.381	21948
701.500	21411
701.619	20087
701.738	21974
701.857	20999
701.976	19655
702.095	20641
702.214	20863
702.333	20217
702.452	22044
702.571	22345
702.690	21860
702.809	22135
702.928	19935
703.047	19338
703.165	19241
703.284	18807
703.403	19108
703.522	19459
703.640	18537
703.759	18497
703.878	17951
703.997	18693
704.115	18980
704.234	17591
704.353	18304
704.471	17226
704.590	16724
704.708	17079
704.827	16962
704.946	16890
705.064	17611
705.183	17002
705.301	18621
705.420	17747
705.538	17418
705.656	16394
705.775	16508
705.893	18160
706.012	18616
706.130	16292
706.249	16878
706.367	16341
706.485	16354
706.604	16290
706.722	15241
706.840	17144
706.958	18343
707.077	15440
707.195	15219
707.313	15381
707.431	14322
707.549	14080
707.668	14142
707.786	15314
707.904	14825
708.022	15596
708.140	15414
708.258	14283
708.376	14821
708.494	13324
708.612	15166
708.730	15614
708.848	15494
708.966	14689
709.084	15024
709.202	15458
709.320	14012
709.438	13864
709.556	14597
709.674	13727
709.791	13891
709.909	13368
710.027	13834
710.145	13143
710.263	13593
710.380	13730
710.498	13633
710.616	13206
710.733	12546
710.851	12290
710.969	12303
711.086	12706
711.204	13337
711.322	13127
711.439	13160
711.557	12049
711.674	12976
711.792	11138
711.909	12053
712.027	11506
712.144	12141
712.262	12509
712.379	12347
712.497	13579
712.614	13125
712.732	13326
712.849	12941
712.966	11812
713.084	12824
713.201	11465
713.318	12474
713.436	12919
713.553	12057
713.670	12952
713.787	13293
713.905	12268
714.022	13896
714.139	12186
714.256	14221
714.373	18340
714.490	27980
714.608	62478
714.725	227935
714.842	229102
714.959	30659
715.076	15924
715.193	13680
715.310	12915
715.427	10998
715.544	11727
715.661	11960
715.778	11208
715.895	11532
716.011	11013
716.128	10432
716.245	11188
716.362	10554
716.479	9555
716.596	10600
716.713	10093
716.829	10875
716.946	9626
717.063	9402
717.180	8653
717.296	9765
717.413	9766
717.530	9511
717.646	9051
717.763	9424
717.880	9440
717.996	8770
718.113	8979
718.229	9123
718.346	8406
718.462	7803
718.579	8765
718.695	8824
718.812	9198
718.928	8635
719.045	9099
719.161	8700
719.277	8543
719.394	9482
719.510	8442
719.626	8681
719.743	10310
719.859	14039
719.975	24988
720.092	86596
720.208	182566
720.324	27810
720.440	10533
720.557	9627
720.673	8361
720.789	9313
720.905	10190
721.021	10116
721.137	8080
721.253	7248
721.369	7087
721.486	8124
721.602	7755
721.718	6892
721.834	7770
721.950	8507
722.066	6720
722.181	7314
722.297	7566
722.413	7773
722.529	8135
722.645	7348
722.761	6993
722.877	5958
722.993	7437
723.108	8279
723.224	7219
723.340	7348
723.456	6931
723.571	7451
723.687	5707
723.803	7664
723.918	6585
724.034	6636
724.150	6253
724.265	8099
724.381	6788
724.497	7602
724.612	5934
724.728	6158
724.843	5781
724.959	6913
725.074	7689
725.190	7308
725.305	5918
725.421	6605
725.536	5751
725.651	6472
725.767	6627
725.882	6377
725.997	5938
726.113	6236
726.228	6439
726.343	6523
726.459	5334
726.574	6809
726.689	5445
726.804	6096
726.920	6358
727.035	5533
727.150	6895
727.265	5556
727.380	5393
727.495	6093
727.610	5923
727.725	5675
727.841	5845
727.956	6622
728.071	6195
728.186	6258
728.301	6688
728.416	6092
728.531	5920
728.645	5075
728.760	6086
728.875	6231
728.990	5770
729.105	5188
729.220	4906
729.335	6440
729.449	5787
729.564	5922
729.679	5461
729.794	5776
729.908	5610
730.023	5688
730.138	5629
730.253	6148
730.367	5488
730.482	6191
730.596	5298
730.711	6097
730.826	8230
730.940	7675
731.055	7464
731.169	7143
731.284	6822
731.398	7279
731.513	7743
731.627	7748
731.742	8939
731.856	12336
731.970	11175
732.085	13136
732.199	16435
732.313	24637
732.428	57364
732.542	156871
732.656	96205
732.771	23272
732.885	14918
732.999	14796
733.113	15780
733.227	15935
733.342	14907
733.456	15347
733.570	14695
733.684	13277
733.798	12979
733.912	12941
734.026	13678
734.140	14170
734.254	12974
734.368	13839
734.482	13207
734.596	12043
734.710	12665
734.824	11908
734.938	11676
735.052	12438
735.166	12372
735.280	12414
735.393	12201
735.507	12131
735.621	11912
735.735	11943
735.849	11369
735.962	12017
736.076	11740
736.190	11920
736.303	11352
736.417	12088
736.531	10175
736.644	11297
736.758	10503
736.872	10827
736.985	10607
737.099	10201
737.212	9584
737.326	10635
737.439	10395
737.553	9915
737.666	11702
737.780	9924
737.893	10445
738.007	10423
738.120	9868
738.233	9108
738.347	10456
738.460	9983
738.573	10769
738.687	9659
738.800	8833
738.913	10526
739.026	9071
739.140	8367
739.253	9393
739.366	9916
739.479	8138
739.592	9004
739.705	8091
739.818	10212
739.932	8082
740.045	9755
740.158	9429
740.271	10063
740.384	8572
740.497	8183
740.610	9614
740.723	7671
740.836	8453
740.949	8275
741.062	9071
741.174	7737
741.287	8366
741.400	8483
741.513	7346
741.626	9618
741.739	6943
741.851	7577
741.964	8423
742.077	8973
742.189	7147
742.302	7444
742.415	7292
742.527	6506
742.640	7037
742.753	5931
742.865	8325
742.978	7490
743.090	6333
743.203	8099
743.316	6594
743.428	7621
743.541	6430
743.653	6350
743.766	6247
743.878	6768
743.990	6619
744.103	7772
744.215	7058
744.327	6941
744.440	8109
744.552	7150
744.664	6644
744.777	7565
744.889	6687
745.001	7177
745.113	6791
745.226	6521
745.338	5379
745.450	7753
745.562	6546
745.674	6276
745.786	7196
745.898	6314
746.010	6245
746.122	6214
746.234	7074
746.347	6494
746.459	6443
746.570	5531
746.682	7146
746.794	7720
746.906	5735
747.018	5670
747.130	6259
747.242	6506
747.354	5781
747.466	7037
747.577	5284
747.689	5906
747.801	6876
747.913	5772
748.024	5543
748.136	5801
748.248	5567
748.359	5514
748.471	5685
748.583	4850
748.694	4820
748.806	5927
748.918	5301
749.029	5461
749.141	5620
749.252	6567
749.364	4732
749.475	5684
749.587	5075
749.698	4439
749.809	5089
749.921	5570
750.032	4866
750.144	4951
750.255	5095
750.366	5022
750.478	4713
750.589	5623
750.700	4901
750.811	4801
750.923	5058
751.034	4075
751.145	6036
751.256	5818
751.367	4653
751.479	4449
751.590	3937
751.701	5112
751.812	3829
751.923	4730
752.034	5544
752.145	5045
752.256	4923
752.367	4031
752.478	4903
752.589	5810
752.700	5623
752.811	4994
752.922	4542
753.032	4792
753.143	5093
753.254	3472
753.365	4787
753.476	5890
753.586	4591
753.697	5404
753.808	4364
753.919	4929
754.029	4799
754.140	4635
754.251	4216
754.361	4579
754.472	4610
754.582	3860
754.693	4183
754.804	4387
754.914	4186
755.025	3409
755.135	4416
755.246	5387
755.356	4368
755.466	4395
755.577	3707
755.687	4550
755.798	4359
755.908	4481
756.018	4241
756.129	4071
756.239	4126
756.349	4854
756.460	3901
756.570	4855
756.680	3597
756.790	4486
756.900	4015
757.011	3748
757.121	3954
757.231	4797
757.341	4030
757.451	3792
757.561	4493
757.671	4155
757.781	3411
757.891	4673
758.001	3622
758.111	4404
758.221	4074
758.331	5410
758.441	4253
758.551	4098
758.661	4761
758.771	5115
758.880	4304
758.990	4165
759.100	4233
759.210	3381
759.320	4046
759.429	4911
759.539	4016
759.649	4350
759.758	4820
759.868	5296
759.978	4920
760.087	6181
760.197	4639
760.307	5570
760.416	5025
760.526	4909
760.635	4889
760.745	5322
760.854	4999
760.964	6372
761.073	5135
761.182	5488
761.292	5166
761.401	5206
761.511	4232
761.620	5279
761.729	4935
761.839	5018
761.948	5081
762.057	4734
762.166	5293
762.276	4100
762.385	5454
762.494	4877
762.603	4251
762.712	5588
762.822	4664
762.931	5328
763.040	4517
763.149	5235
763.258	5412
763.367	5735
763.476	5979
763.585	5531
763.694	6010
763.803	6667
763.912	6870
764.021	6983
764.130	6791
764.238	7540
764.347	6976
764.456	8081
764.565	8415
764.674	8425
764.783	9046
764.891	10364
765.000	11447
765.109	12012
765.217	13105
765.326	17043
765.435	17925
765.543	22665
765.652	27352
765.761	34132
765.869	48626
765.978	69983
766.086	107077
766.195	176838
766.303	296063
766.412	332187
766.520	279678
766.629	257906
766.737	157071
766.846	95718
766.954	64199
767.062	47583
767.171	35555
767.279	29071
767.387	22672
767.496	18602
767.604	16927
767.712	14702
767.820	13341
767.928	13776
768.037	11841
768.145	12145
768.253	11463
768.361	10519
768.469	10091
768.577	9902
768.685	11328
768.793	11642
768.901	11482
769.009	14331
769.117	16512
769.225	20928
769.333	28899
769.441	43482
769.549	74525
769.657	142806
769.765	270815
769.873	275497
769.981	227764
770.088	125516
770.196	68241
770.304	43427
770.412	30991
770.519	23916
770.627	19239
770.735	16806
770.842	13934
770.950	13709
771.058	11321
771.165	12375
771.273	11772
771.380	10841
771.488	12870
771.595	13380
771.703	11662
771.810	11374
771.918	11103
772.025	12027
772.133	13853
772.240	12226
772.348	14508
772.455	13077
772.562	11444
772.670	11089
772.777	12025
772.884	11925
772.991	11054
773.099	11779
773.206	9728
773.313	11440
773.420	11189
773.528	10023
773.635	10349
773.742	10870
773.849	10263
773.956	11088
774.063	9391
774.170	9908
774.277	10117
774.384	9555
774.491	10251
774.598	10233
774.705	9307
774.812	9230
774.919	8686
775.026	9409
775.133	9530
775.239	8853
775.346	8857
775.453	8584
775.560	8161
775.667	9208
775.773	7870
775.880	8407
775.987	7949
776.093	9379
776.200	8996
776.307	7377
776.413	7693
776.520	8967
776.627	8257
776.733	6628
776.840	5329
776.946	9860
777.053	7740
777.159	7499
777.266	6203
777.372	6856
777.478	7534
777.585	7955
777.691	6906
777.798	8700
777.904	7242
778.010	7445
778.117	8722
778.223	6074
778.329	7213
778.435	6217
778.542	7785
778.648	6182
778.754	6152
778.860	7159
778.966	6884
779.072	6657
779.178	5748
779.284	6073
779.391	5754
779.497	6478
779.603	7975
779.708	6820
779.815	9913
779.920	24994
780.026	46060
780.132	11456
780.238	5567
780.344	4679
780.450	8316
780.556	5152
780.661	5376
780.767	7377
780.873	3861
780.979	5781
781.085	5733
781.190	5550
781.296	4954
781.402	6255
781.507	5271
781.613	4445
781.719	5293
781.824	6404
781.930	5922
782.035	5118
782.141	5919
782.246	4499
782.352	4314
782.457	5573
782.563	4497
782.668	4767
782.773	4142
782.879	4059
782.984	5679
783.090	5317
783.195	4953
783.300	5311
783.405	3596
783.511	4025
783.616	4547
783.721	5136
783.826	4311
783.932	4033
784.037	4276
784.142	5323
784.247	3849
784.352	5303
784.457	3749
784.562	4963
784.667	4842
784.772	4060
784.877	2102
784.982	5059
785.087	4295
785.192	4138
785.297	3566
785.402	4255
785.507	3942
785.611	3636
785.716	3355
785.821	4426
785.926	4620
786.031	3174
786.135	4018
786.240	4444
786.345	2660
786.450	3544
786.554	3750
786.659	2815
786.763	2566
786.868	3832
786.973	4611
787.077	3177
787.182	2089
787.286	3405
787.391	4121
787.495	2320
787.600	2539
787.704	3004
787.809	3852
787.913	4326
788.017	3438
788.122	4258
788.226	2896
788.330	1905
788.435	3440
788.539	4134
788.643	3080
788.747	2176
788.852	3002
788.956	2973
789.060	3434
789.164	3110
789.268	2384
789.372	3559
789.476	3449
789.580	2634
789.684	2190
789.788	4355
789.892	2308
789.996	2821
790.100	2578
790.204	2871
790.308	3046
790.412	2704
790.516	1876
790.620	2269
790.724	3428
790.828	3298
790.931	2079
791.035	3368
791.139	2810
791.242	2365
791.346	2798
791.450	2416
791.554	2505
791.657	2031
791.761	3069
791.864	3828
791.968	3539
792.072	3080
792.175	1624
792.279	1775
792.382	3295
792.486	2875
792.589	1843
792.693	3412
792.796	875
792.899	3055
793.003	2994
793.106	1720
793.209	2538
793.313	3378
793.416	372
793.519	2634
793.623	2886
793.726	3134
793.829	1892
793.932	3007
794.035	1267
794.138	2753
794.242	3620
794.345	1413
794.448	1986
794.551	3526
794.654	12647
794.757	26169
794.860	4722
794.963	2427
795.066	1514
795.169	3452
795.272	1496
795.375	2349
795.477	1303
795.580	1282
795.683	594
795.786	2042
795.889	1076
795.991	2940
796.094	2338
796.197	1497
796.300	2915
796.402	2259
796.505	1495
796.608	2020
796.710	2033
796.813	2666
796.915	1556
797.018	2101
797.120	2300
797.223	760
797.326	2691
797.428	1198
797.530	753
797.633	1527
797.735	2657
797.838	2052
797.940	2455
798.042	2041
798.145	1682
798.247	2252
798.349	28
798.452	2657
798.554	1585
798.656	1441
798.758	2538
798.860	2217
798.962	1786
799.065	1425
799.167	560
799.269	2512
799.371	2028
799.473	3124
799.575	1380
799.677	1616
799.779	2791
799.881	1012
799.983	2695
800.085	1587
800.187	1422
800.289	1206
800.390	1286
800.492	2005
800.594	1779
800.696	1255
800.798	1759
800.899	1535
801.001	1771
801.103	820
801.205	683
801.306	883
801.408	887
801.509	1360
801.611	1873
801.713	2048
801.814	878
801.916	1304
802.017	903
802.119	302
802.220	1357
802.322	226
802.423	2264
802.525	35
802.626	769
802.727	1391
802.829	1489
802.930	-791
803.031	2014
803.133	1462
803.234	1556
803.335	1549
803.436	598
803.538	1386
803.639	-83
803.740	2177
803.841	488
803.942	2155
804.043	1156
804.144	143
804.245	889
804.346	280
804.447	367
804.548	851
804.649	2308
804.750	-118
804.851	479
804.952	663
805.053	1210
805.154	448
805.255	1377
805.355	1547
805.456	-113
805.557	865
805.658	438
805.758	1204
805.859	940
805.960	605
806.061	714
806.161	150
806.262	1041
806.362	567
806.463	140
806.564	1918
806.664	1544
806.765	698
806.865	868
806.966	421
807.066	-54
807.166	2069
807.267	1248
807.367	-65
807.468	1264
807.568	-189
807.668	1447
807.769	1720
807.869	651
807.969	1245
808.069	1517
808.170	1283
808.270	1364
808.370	1484
808.470	672
808.570	-47
808.670	1242
808.770	469
808.870	-333
808.970	1454
809.070	410
809.170	117
809.271	2036
809.370	1131
809.470	1315
809.570	267
809.670	15
809.770	687
809.870	1668
809.970	980
810.070	1408
810.169	1524
810.269	-1615
810.369	2444
810.469	1461
810.568	371
810.668	469
810.768	29
810.867	1078
810.967	545
811.066	46
811.166	1422
811.265	963
811.365	242
811.464	620
811.564	1491
811.663	1232
811.763	105
811.862	1158
811.962	1754
812.061	295
812.160	923
812.260	1053
812.359	1288
812.458	163
812.557	1804
812.657	1739
812.756	1940
812.855	1041
812.954	434
813.053	1473
813.153	1366
813.252	-727
813.351	1056
813.450	1132
813.549	348
813.648	872
813.747	628
813.846	1132
813.945	81
814.044	339
814.143	1504
814.242	1554
814.341	817
814.439	1643
814.538	1487
814.637	1306
814.736	1173
814.835	1927
814.933	1153
815.032	1855
815.131	3475
815.229	5925
815.328	7593
815.427	5247
815.525	5045
815.624	5084
815.722	4097
815.821	4876
815.919	5876
816.018	4420
816.116	5803
816.215	5417
816.313	6456
816.412	6865
816.510	7168
816.609	7597
816.707	7759
816.805	5789
816.904	5196
817.002	6546
817.100	7431
817.198	7266
817.296	5854
817.395	6086
817.493	6718
817.591	4506
817.689	6270
817.787	5493
817.885	6646
817.983	5771
818.081	7340
818.179	6209
818.277	10965
818.375	8445
818.473	5738
818.571	5296
818.669	5779
818.767	6933
818.865	5606
818.963	4649
819.061	5265
819.158	5697
819.256	8698
819.354	8190
819.452	13714
819.549	8987
819.647	7446
819.745	4404
819.842	5284
819.940	5267
820.038	5038
820.135	4541
820.233	6235
820.330	5075
820.428	3440
820.525	5733
820.623	4971
820.720	3477
820.818	5582
820.915	5231
821.012	3972
821.110	3694
821.207	5284
821.304	3419
821.402	4571
821.499	5611
821.596	3177
821.693	4671
821.791	4200
821.888	3012
821.985	4959
822.082	2879
822.179	5446
822.276	4429
822.373	4138
822.470	3909
822.567	5023
822.664	3520
822.761	4020
822.858	4089
822.955	4641
823.052	3212
823.149	4021
823.246	4610
823.343	2989
823.440	3829
823.536	3797
823.633	3753
823.730	3290
823.827	4398
823.923	2989
824.020	4123
824.117	3960
824.213	3731
824.310	3582
824.407	1668
824.503	3613
824.600	3885
824.696	3022
824.793	4552
824.889	3547
824.986	2736
825.082	2201
825.179	3394
825.275	3862
825.371	4077
825.468	2939
825.564	664
825.660	3907
825.757	4188
825.853	3489
825.949	2075
826.045	2940
826.142	2409
826.238	3410
826.334	3146
826.430	2999
826.526	2242
826.622	1370
826.718	3905
826.814	3274
826.910	4255
827.006	1848
827.102	1636
827.198	3445
827.294	2605
827.390	3316
827.486	2580
827.582	1669
827.678	1758
827.774	4346
827.869	1655
827.965	2399
828.061	1434
828.157	3134
828.252	3242
828.348	2061
828.444	3076
828.539	1750
828.635	2730
828.731	3258
828.826	984
828.922	2814
829.017	2313
829.113	3147
829.208	1674
829.304	1484
829.399	3787
829.495	2560
829.590	2711
829.685	1996
829.781	2494
829.876	2802
829.971	600
830.066	615
830.162	2272
830.257	3161
830.352	2085
830.447	1819
830.543	1106
830.638	1090
830.733	2973
830.828	1560
830.923	2270
831.018	2090
831.113	3643
831.208	1197
831.303	644
831.398	1285
831.493	1384
831.588	2912
831.683	1321
831.778	1367
831.873	604
831.967	2625
832.062	2040
832.157	661
832.252	2290
832.346	617
832.441	2712
832.536	1901
832.631	1865
832.725	805
832.820	2010
832.914	2212
833.009	1980
833.104	1243
833.198	573
833.293	923
833.387	2780
833.482	3148
833.576	1281
833.670	1682
833.765	1076
833.859	1661
833.954	1828
834.048	1236
834.142	1661
834.237	987
834.331	1207
834.425	2585
834.519	707
834.613	1381
834.708	782
834.802	1083
834.896	561
834.990	2347
835.084	1583
835.178	473
835.272	893
835.366	1543
835.460	1837
835.554	1605
835.648	646
835.742	814
835.836	1740
835.930	288
836.024	1592
836.117	1174
836.211	516
836.305	781
836.399	541
836.493	32
836.586	1592
836.680	916
836.774	635
836.867	1540
836.961	140
837.055	95
837.148	620
837.242	1392
837.335	356
837.429	1560
837.522	578
837.616	252
837.709	1745
837.803	451
837.896	1471
837.989	1200
838.083	720
838.176	694
838.269	194
838.363	657
838.456	-3
838.549	920
838.642	335
838.735	1145
838.829	917
838.922	870
839.015	1150
839.108	-502
839.201	1518
839.294	1046
839.387	643
839.480	356
839.573	1032
839.666	-286
839.759	1063
839.852	741
839.945	1435
840.038	889
840.131	525
840.223	231
840.316	1224
840.409	825
840.502	403
840.594	1396
840.687	-524
840.780	-562
840.873	35
840.965	657
841.058	981
841.150	1743
841.243	92
841.336	418
841.428	1027
841.521	626
841.613	-74
841.706	-203
841.798	413
841.890	1367
841.983	-195
842.075	574
842.167	-36
842.260	666
842.352	1379
842.444	984
842.537	556
842.629	806
842.721	127
842.813	601
842.905	541
842.997	1341
843.090	995
843.182	0
843.274	-601
843.366	1003
843.458	1788
843.550	1662
843.642	412
843.734	802
843.826	-409
843.918	989
844.009	532
844.101	-63
844.193	545
844.285	-33
844.377	807
844.469	274
844.560	-1072
844.652	35
844.744	-13
844.835	881
844.927	275
845.019	376
845.110	-566
845.202	1533
845.293	-16
845.385	260
845.476	136
845.568	1475
845.659	-581
845.751	-134
845.842	-61
845.934	357
846.025	268
846.116	-34
846.208	-62
846.299	-33
846.390	-98
846.482	53
846.573	1013
846.664	1026
846.755	7
846.846	1013
846.937	-146
847.029	221
847.120	-513
847.211	192
847.302	1410
847.393	-570
847.484	707
847.575	-147
847.666	-591
847.757	194
847.847	-684
847.938	1262
848.029	288
848.120	413
848.211	-75
848.302	-349
848.392	32
848.483	411
848.574	-818
848.664	358
848.755	-282
848.846	-220
848.936	342
849.027	508
849.118	-126
849.208	-646
849.299	601
849.389	1467
849.480	2829
849.570	4265
849.661	9369
849.751	14091
849.841	4987
849.932	801
850.022	652
850.112	65
850.203	201
850.293	-459
850.383	-437
850.474	-644
850.564	-1103
850.654	486
850.744	185
850.834	590
850.924	560
851.014	652
851.104	-116
851.194	-932
851.284	-449
851.374	115
851.464	-271
851.554	272
851.644	-160
851.734	656
851.824	-268
851.914	44
852.004	903
852.094	972
852.183	-44
852.273	369
852.363	-226
852.452	465
852.542	360
852.632	-317
852.721	-429
852.811	485
852.901	160
852.990	-227
853.080	430
853.169	742
853.259	-489
853.348	387
853.438	-481
853.527	1961
853.617	1127
853.706	2597
853.795	4026
853.885	11814
853.974	20809
854.063	38216
854.152	52006
854.242	21302
854.331	3632
854.420	1939
854.509	1417
854.598	879
854.687	332
854.777	497
854.866	-491
854.955	200
855.044	-67
855.133	246
855.222	-166
855.311	-159
855.400	65
855.488	120
855.577	-752
855.666	-224
855.755	699
855.844	-153
855.933	-796
856.021	474
856.110	134
856.199	-1029
856.288	-868
856.376	-277
856.465	-775
856.554	-223
856.642	-117
856.731	886
856.819	106
856.908	-296
856.996	150
857.085	-627
857.173	-512
857.262	-252
857.350	81
857.438	-130
857.527	189
857.615	-687
857.703	263
857.792	-197
857.880	-490
857.968	-107
858.056	-357
858.145	-73
858.233	-330
858.321	-295
858.409	638
858.497	-257
858.585	-722
858.673	-189
858.761	-469
858.849	-101
858.937	-654
859.025	-79
859.113	-588
859.201	-1166
859.289	356
859.377	70
859.465	-907
859.552	-432
859.640	-1279
859.728	572
859.816	-599
859.903	688
859.991	-962
860.079	187
860.166	-541
860.254	-504
860.342	417
860.429	39
860.517	-47
860.604	189
860.692	-148
860.779	-691
860.867	-31
860.954	228
861.042	379
861.129	538
861.216	-655
861.304	-550
861.391	-239
861.478	112
861.565	81
861.653	85
861.740	-287
861.827	3
861.914	72
862.001	-818
862.089	-601
862.176	28
862.263	-92
862.350	156
862.437	-167
862.524	-300
862.611	123
862.698	292
862.785	430
862.871	660
862.958	642
863.045	259
863.132	205
863.219	-61
863.306	-1035
863.392	575
863.479	-227
863.566	-144
863.652	119
863.739	288
863.826	81
863.912	333
863.999	-858
864.086	240
864.172	788
864.259	-45
864.345	201
864.432	1168
864.518	43
864.604	897
864.691	596
864.777	1395
864.863	1352
864.950	2799
865.036	2113
865.122	6877
865.209	7622
865.295	6464
865.381	4828
865.467	5057
865.553	5538
865.639	5891
865.726	7367
865.812	10568
865.898	16542
865.984	20163
866.070	34041
866.156	36345
866.242	13169
866.328	7420
866.414	5720
866.499	6166
866.585	4928
866.671	3586
866.757	5313
866.843	4367
866.928	4364
867.014	4157
867.100	5155
867.186	4031
867.271	4229
867.357	4349
867.442	4068
867.528	3925
867.614	4108
867.699	4560
867.785	3947
867.870	4288
867.956	4059
868.041	3981
868.127	3752
868.212	3887
868.297	3705
868.383	4661
868.468	3590
868.553	4428
868.639	3845
868.724	4177
868.809	3644
868.894	3626
868.979	4620
869.065	4219
869.150	1810
869.235	3798
869.320	4117
869.405	2956
869.490	3977
869.575	3122
869.660	2640
869.745	4216
869.830	3517
869.915	2646
870.000	3036
870.085	2964
870.169	3524
870.254	4335
870.339	1699
870.424	2745
870.509	3988
870.593	4345
870.678	2916
870.763	2563
870.847	3293
870.932	2997
871.016	3636
871.101	2214
871.186	2958
871.270	4340
871.355	1349
871.439	2669
871.523	3314
871.608	1395
871.692	2599
871.777	3630
871.861	3616
871.945	2921
872.030	3200
872.114	3677
872.198	1471
872.282	2693
872.367	2587
872.451	2458
872.535	2305
872.619	2571
872.703	2722
872.787	3049
872.871	2721
872.955	2105
873.039	1295
873.123	3314
873.207	2971
873.291	1929
873.375	1970
873.459	2450
873.543	1244
873.627	2482
873.711	2305
873.794	2902
873.878	2546
873.962	1821
874.045	1618
874.129	2603
874.137	2573
874.213	2273
874.245	2055
874.296	1699
874.352	1426
874.380	1296
874.460	1693
874.464	1709
874.547	1856
874.568	2053
874.631	2647
874.676	2706
874.714	2742
874.784	2807
874.798	2825
874.881	2415
874.892	2267
874.965	1246
874.999	1604
875.048	2097
875.107	2604
875.131	2798
875.215	1693
875.215	1692
875.298	830
875.323	1120
875.381	1798
875.430	2740
875.465	3410
875.538	1748
875.548	1514
875.631	1090
875.646	1086
875.714	1090
875.753	1311
875.798	1593
875.861	2316
875.881	2512
875.964	1063
875.968	1048
876.047	1006
876.076	1344
876.130	1897
876.183	1546
876.213	1347
876.291	3077
876.296	3191
876.379	1742
876.398	1574
876.462	991
876.506	1084
876.545	1210
876.613	1146
876.628	1125
876.711	1335
876.721	1436
876.794	2423
876.828	2066
876.877	1293
876.935	701
876.960	562
877.043	1153
877.043	1155
877.125	1354
877.150	1477
877.208	1972
877.258	1418
877.291	1003
877.365	896
877.374	877
877.456	1026
877.472	843
877.539	147
877.579	767
877.622	1405
877.687	1183
877.704	1106
877.787	1252
877.794	1259
877.869	1388
877.901	1394
877.952	1472
878.008	1210
878.034	1010
878.115	860
878.117	861
878.199	443
878.222	655
878.282	1337
878.329	1532
878.364	1525
878.437	1111
878.447	1060
878.529	477
878.544	455
878.611	297
878.651	431
878.694	801
878.758	1712
878.776	1835
878.858	715
878.865	697
878.941	847
878.972	695
879.023	258
879.078	474
879.105	803
879.185	1884
879.187	1893
879.269	1030
879.292	977
879.351	902
879.399	795
879.433	796
879.506	1211
879.516	1241
879.598	552
879.613	483
879.680	385
879.720	782
879.762	1118
879.827	707
879.844	597
879.926	1069
879.933	1058
880.007	776
880.040	626
880.089	663
880.147	861
880.171	934
880.253	928
880.254	928
880.335	907
880.360	1016
880.417	1540
880.467	1417
880.499	1307
880.574	1944
880.580	1949
880.662	1359
880.680	1022
880.744	130
880.787	398
880.825	683
880.893	912
880.907	964
880.989	846
881.000	910
881.070	1488
881.106	1419
881.152	972
881.213	505
881.233	460
881.315	535
881.319	571
881.396	1234
881.426	1030
881.478	723
881.532	1106
881.559	1170
881.639	907
881.641	905
881.722	622
881.745	583
881.803	533
881.852	892
881.885	1128
881.958	296
881.966	182
882.047	266
882.064	170
882.129	130
882.171	359
882.210	481
882.277	342
882.291	351
882.372	935
882.383	991
882.454	1527
882.489	1581
882.535	1247
882.596	799
882.616	762
882.697	1216
882.702	1188
882.778	365
882.808	285
882.859	253
882.914	300
882.940	444
883.020	767
883.021	770
883.102	969
883.127	1100
883.183	1065
883.233	726
883.264	639
883.339	785
883.345	752
883.426	5
883.445	-23
883.507	378
883.551	376
883.587	478
883.657	1405
883.668	1491
883.749	762
883.763	782
883.830	591
883.869	152
883.910	-113
883.975	201
883.991	330
884.072	515
884.081	559
884.152	920
884.187	954
884.233	1123
884.292	1469
884.314	1346
884.394	279
884.398	254
884.475	535
884.504	626
884.555	522
884.610	330
884.636	305
884.716	309
884.716	313
884.797	1078
884.821	1099
884.877	1316
884.927	1597
884.958	1160
885.033	-40
885.038	-29
885.118	503
885.139	570
885.199	453
885.244	693
885.279	1279
885.350	1959
885.359	1902
885.439	1430
885.456	1304
885.520	974
885.561	810
885.600	379
885.667	-284
885.680	-178
885.760	538
885.773	607
885.840	547
885.878	585
885.920	792
885.984	1200
886.000	1181
886.080	862
886.089	827
886.160	746
886.195	795
886.240	807
886.300	888
886.320	959
886.400	965
886.406	951
886.480	99
886.511	-127
886.560	189
886.616	465
886.640	456
886.720	504
886.722	504
886.800	837
886.827	974
886.879	547
886.932	21
886.959	233
887.038	847
887.039	843
887.119	343
887.143	219
887.198	656
887.248	941
887.278	692
887.354	128
887.358	149
887.437	603
887.459	734
887.517	1033
887.564	1137
887.596	944
887.669	577
887.676	604
887.755	1014
887.774	1074
887.835	651
887.880	425
887.914	412
887.985	315
887.994	319
888.073	397
888.090	395
888.153	368
888.195	338
888.232	311
888.300	305
888.311	266
888.391	-14
888.405	-63
888.470	590
888.510	1003
888.549	545
888.615	-173
888.628	-13
888.708	839
888.720	978
888.787	690
888.825	503
888.866	407
888.930	350
888.945	418
889.024	736
889.035	777
889.103	849
889.140	856
889.182	710
889.245	584
889.261	605
889.340	648
889.349	655
889.419	820
889.454	902
889.498	666
889.559	346
889.577	448
889.656	907
889.664	954
889.735	333
889.768	43
889.814	97
889.873	173
889.978	905
890.083	662
890.187	702
890.292	551
890.397	1271
890.501	454
890.606	506
890.710	800
890.815	1337
890.919	1229
891.024	1224
891.128	901
891.233	1071
891.337	1085
891.442	830
891.546	1214
891.650	550
891.755	508
891.859	1252
891.963	908
892.068	138
892.172	212
892.276	263
892.380	683
892.484	847
892.589	708
892.693	109
892.797	692
892.901	93
893.005	523
893.109	909
893.213	967
893.317	1122
893.421	828
893.525	-138
893.629	373
893.733	1045
893.837	581
893.941	899
894.045	760
894.148	-146
894.252	26
894.356	1286
894.460	1288
894.564	587
894.667	45
894.771	-27
894.875	-459
894.978	742
895.082	197
895.186	803
895.289	662
895.393	495
895.496	470
895.600	133
895.703	-425
895.807	287
895.910	-205
896.014	123
896.117	221
896.221	808
896.324	361
896.427	323
896.531	445
896.634	1182
896.737	-54
896.840	53
896.944	881
897.047	551
897.150	886
897.253	605
897.356	284
897.460	-142
897.563	776
897.666	354
897.769	571
897.872	-87
897.975	60
898.078	533
898.181	390
898.284	32
898.387	386
898.490	1003
898.593	554
898.695	300
898.798	9
898.901	-55
899.004	1157
899.107	110
899.209	-9
899.312	387
899.415	-119
899.518	12
899.620	-449
899.723	504
899.826	291
899.928	244
900.031	845
900.133	83
900.236	22
900.338	-10
900.441	-145
900.543	618
900.646	143
900.748	417
900.851	-28
900.953	-140
901.055	18
901.158	5
901.260	231
901.362	1167
901.465	-778
901.567	1228
901.669	129
901.771	1271
901.873	-130
901.976	-329
902.078	413
902.180	429
902.282	-417
902.384	-40
902.486	338
902.588	115
902.690	-214
902.792	870
902.894	57
902.996	776
903.098	104
903.200	241
903.302	-275
903.404	231
903.505	-473
903.607	137
903.709	1031
903.811	1171
903.913	574
904.014	-417
904.116	-108
904.218	376
904.319	170
904.421	2303
904.523	148
904.624	285
904.726	427
904.827	404
904.929	-300
905.030	736
905.132	116
905.233	100
905.335	460
905.436	-136
905.537	97
905.639	211
905.740	240
905.841	328
905.943	-430
906.044	-282
906.145	445
906.247	758
906.348	-9
906.449	438
906.550	313
906.651	653
906.752	-48
906.854	-225
906.955	-422
907.056	-506
907.157	309
907.258	443
907.359	-232
907.460	190
907.561	22
907.662	-450
907.762	471
907.863	-361
907.964	342
908.065	989
908.166	-137
908.267	112
908.367	-613
908.468	238
908.569	237
908.670	937
908.770	-353
908.871	-74
908.971	494
909.072	798
909.173	-253
909.273	626
909.374	372
909.474	547
909.575	-288
909.675	439
909.776	853
909.876	44
909.977	-379
910.077	701
910.177	352
910.278	68
910.378	-156
910.478	-32
910.579	-130
910.679	-21
910.779	-95
910.879	-80
910.980	87
911.080	557
911.180	-417
911.280	661
911.380	-599
911.480	248
911.580	538
911.680	26
911.780	600
911.880	575
911.980	-354
912.080	260
912.180	452
912.280	584
912.380	-88
912.480	-43
912.580	-113
912.679	-340
912.779	48
912.879	213
912.979	481
913.078	-218
913.178	-84
913.278	126
913.377	-599
913.477	304
913.577	-238
913.676	313
913.776	245
913.875	-95
913.975	-128
914.074	-165
914.174	40
914.273	-648
914.373	-233
914.472	116
914.572	-58
914.671	197
914.770	-117
914.870	-484
914.969	-423
915.068	-178
915.167	373
915.267	-132
915.366	-933
915.465	323
915.564	247
915.663	564
915.763	22
915.862	2
915.961	-593
916.060	-469
916.159	247
916.258	206
916.357	-345
916.456	316
916.555	646
916.654	380
916.752	108
916.851	-764
916.950	-233
917.049	618
917.148	-578
917.247	-477
917.345	227
917.444	-571
917.543	267
917.642	-168
917.740	443
917.839	859
917.937	259
918.036	-145
918.135	-145
918.233	215
918.332	53
918.430	209
918.529	-506
918.627	-243
918.726	-148
918.824	891
918.923	-464
919.021	50
919.119	701
919.218	-250
919.316	-740
919.414	-26
919.512	-339
919.611	971
919.709	-238
919.807	257
919.905	338
920.003	558
920.102	337
920.200	-116
920.298	1190
920.396	460
920.494	-280
920.592	-218
920.690	107
920.788	48
920.886	375
920.984	1039
921.082	541
921.180	1032
921.277	-232
921.375	972
921.473	1146
921.571	1095
921.669	1337
921.766	619
921.864	204
921.962	1048
922.060	1175
922.157	442
922.255	1064
922.352	1392
922.450	1318
922.548	1607
922.645	716
922.743	2712
922.840	3951
922.938	3972
923.035	3611
923.133	2796
923.230	4169
923.327	5025
923.425	3035
923.522	4091
923.619	3862
923.717	3357
923.814	4409
923.911	3657
924.008	3855
924.106	3501
924.203	3030
924.300	3380
924.397	3086
924.494	3721
924.591	3064
924.688	3429
924.786	3030
924.883	3254
924.979	2950
925.077	3202
925.173	2011
925.270	3269
925.367	2559
925.464	3238
925.561	2857
925.658	4018
925.755	2017
925.852	3714
925.948	3368
926.045	2729
926.142	2662
926.239	3664
926.335	2203
926.432	3509
926.529	3229
926.625	3813
926.722	2598
926.818	2531
926.915	3367
927.011	2528
927.108	2471
927.204	2952
927.301	2495
927.397	2829
927.494	3231
927.590	1867
927.687	1880
927.783	3095
927.879	1995
927.976	2903
928.072	1906
928.168	2992
928.264	2508
928.361	2558
928.457	3418
928.553	2343
928.649	2609
928.745	2496
928.841	2021
928.937	2626
929.033	1872
929.129	2858
929.225	2996
929.321	2519
929.417	2201
929.513	2618
929.609	2557
929.705	2300
929.801	2253
929.897	1698
929.993	2034
930.089	2447
930.184	1485
930.280	2573
930.376	2615
930.471	2138
930.567	1374
930.663	1727
930.758	1895
930.854	1724
930.950	2482
931.045	1981
931.141	2212
931.236	2825
931.332	2076
931.427	2225
931.523	2541
931.618	2286
931.714	1632
931.809	2359
931.905	1971
932.000	733
932.095	1740
932.191	2146
932.286	2797
932.381	2093
932.476	1094
932.572	2219
932.667	1445
932.762	2218
932.857	1735
932.952	2130
933.047	1785
933.142	1474
933.237	1224
933.332	1787
933.427	2037
933.522	1993
933.617	1176
933.712	2088
933.807	2391
933.902	2156
933.997	2311
934.092	1173
934.187	1361
934.282	2347
934.376	1274
934.471	1921
934.566	1540
934.661	1188
934.755	2088
934.850	2374
934.945	970
935.039	1645
935.134	1343
935.228	1069
935.323	2530
935.417	1770
935.512	337
935.606	1577
935.701	1561
935.795	1631
935.890	820
935.984	1868
936.079	1141
936.173	1660
936.267	1265
936.362	854
936.456	1507
936.550	2222
936.644	2367
936.738	1288
936.833	-147
936.927	1054
937.021	1316
937.115	1895
937.209	1389
937.303	2359
937.397	885
937.491	1099
937.585	1362
937.679	1227
937.773	1203
937.867	450
937.961	1695
938.055	1431
938.149	1790
938.243	952
938.337	309
938.430	601
938.524	1965
938.618	849
938.712	1089
938.805	1895
938.899	1195
938.993	1841
939.086	972
939.180	252
939.274	1027
939.367	1469
939.461	1578
939.554	812
939.648	561
939.741	408
939.835	1364
939.928	1962
940.022	1266
940.115	1082
940.208	742
940.302	2359
940.395	676
940.488	633
940.582	1275
940.675	776
940.768	868
940.861	1122
940.954	1466
941.048	248
941.141	1177
941.234	707
941.327	340
941.420	1565
941.513	1792
941.606	727
941.699	678
941.792	1730
941.885	1286
941.978	1483
942.071	1656
942.164	86
942.257	416
942.349	1561
942.442	714
942.535	197
942.628	592
942.721	942
942.813	-269
942.906	1701
942.999	992
943.091	826
943.184	-375
943.277	-19
943.369	670
943.462	460
943.554	703
943.647	883
943.739	1499
943.832	1004
943.924	-371
944.017	383
944.109	-416
944.201	550
944.294	707
944.386	421
944.478	54
944.571	239
944.663	415
944.755	1376
944.847	1298
944.940	759
945.032	18
945.124	-525
945.216	942
945.308	499
945.400	384
945.492	745
945.584	1026
945.676	509
945.768	1229
945.860	1287
945.952	432
946.044	-152
946.136	704
946.228	849
946.320	186
946.412	933
946.503	756
946.595	1546
946.687	304
946.779	-62
946.870	3
946.962	80
947.054	630
947.145	733
947.237	509
947.329	591
947.420	631
947.512	731
947.603	159
947.695	-125
947.786	-34
947.878	39
947.969	529
948.061	7
948.152	191
948.243	53
948.335	-270
948.426	255
948.517	-329
948.609	232
948.700	635
948.791	258
948.882	17
948.973	310
949.065	-884
949.156	4
949.247	95
949.338	621
949.429	932
949.520	160
949.611	-702
949.702	696
949.793	-605
949.884	688
949.975	512
950.066	29
950.157	-778
950.247	232
950.338	-217
950.429	-196
950.520	406
950.611	294
950.701	-48
950.792	1407
950.883	701
950.973	81
951.064	764
951.155	305
951.245	703
951.336	839
951.427	394
951.517	387
951.608	235
951.698	48
951.788	-459
951.879	456
951.969	-478
952.060	88
952.150	204
952.240	1124
952.331	-698
952.421	814
952.511	-480
952.602	-17
952.692	-1306
952.782	-361
952.872	-505
952.962	-87
953.052	-493
953.143	-1014
953.233	352
953.323	-369
953.413	523
953.503	-124
953.593	688
953.683	-84
953.773	-350
953.863	155
953.953	-324
954.042	33
954.132	-838
954.222	742
954.312	-260
954.402	430
954.492	-10
954.581	361
954.671	-12
954.761	-261
954.850	672
954.940	-131
955.030	-58
955.119	-865
955.209	85
955.298	144
955.388	313
955.477	544
955.567	-285
955.656	419
955.746	314
955.835	265
955.925	-348
956.014	3
956.103	-125
956.193	822
956.282	63
956.371	-136
956.461	-640
956.550	-1097
956.639	-194
956.728	-545
956.817	-743
956.906	-273
956.995	379
957.085	-575
957.174	472
957.263	434
957.352	136
957.441	483
957.530	-251
957.619	244
957.708	-426
957.796	-504
957.885	-463
957.974	-1025
958.063	-298
958.152	-570
958.241	-432
958.329	-495
958.418	-316
958.507	-456
958.596	820
958.684	-359
958.773	-122
958.861	-83
958.950	-284
959.039	14
959.127	-629
959.216	-185
959.304	-379
959.393	303
959.481	347
959.570	702
959.658	-627
959.746	-607
959.835	143
959.923	-357
960.011	236
960.100	135
960.188	-773
960.276	-339
960.365	-656
960.453	28
960.541	-1509
960.629	-407
960.717	-536
960.805	-641
960.893	-1035
960.981	-742
961.069	934
961.158	745
961.245	371
961.333	664
961.421	-120
961.509	-61
961.597	-150
961.685	-718
961.773	-181
961.861	-682
961.949	157
962.036	-718
962.124	-66
962.212	-893
962.299	-1219
962.387	-575
962.475	-252
962.562	-571
962.650	-644
962.738	-130
962.825	-854
962.913	-224
963.000	-313
963.088	64
963.175	-375
963.263	-894
963.350	-595
963.438	-646
963.525	-1266
963.612	228
963.700	178
963.787	3130
963.874	-165
963.962	-37
964.049	-294
964.136	-654
964.223	-1223
964.310	-551
964.398	-875
964.485	-486
964.572	-675
964.659	-106
964.746	-349
964.833	-1356
964.920	-837
965.007	94
965.094	-1309
965.181	-341
965.268	-381
965.355	-1087
965.441	-1138
965.528	-1047
965.615	236
965.702	-792
965.789	-257
965.875	59
965.962	-168
966.049	-727
966.136	-514
966.222	-1207
966.309	345
966.395	-981
966.482	196
966.569	-1495
966.655	-775
966.742	-795
966.828	327
966.915	-813
967.001	-523
967.087	-1618
967.174	-217
967.260	-38
967.347	-1151
967.433	86
967.519	1501
967.605	392
967.692	-430
967.778	-677
967.864	-574
967.950	-356
968.036	-227
968.123	-313
968.209	-858
968.295	-1501
968.381	617
968.467	-848
968.553	-1694
968.639	777
968.725	-536
968.811	-250
968.897	826
968.983	-147
969.069	-1102
969.154	247
969.240	197
969.326	-1257
969.412	-1093
969.497	-499
969.583	-636
969.669	584
969.755	-1320
969.840	-896
969.926	178
970.012	783
970.097	1382
970.183	56
970.268	-848
970.354	-78
970.439	-1147
970.525	1276
970.610	-1454
970.696	-352
970.781	-411
970.866	-1643
970.952	-750
971.037	-1053
971.122	-476
971.208	-489
971.293	-906
971.378	-1246
971.463	-149
971.549	-219
971.634	-1203
971.719	-568
971.804	-1138
971.889	109
971.974	-1258
972.059	-260
972.144	-933
972.229	-998
972.314	-1011
972.399	14
972.484	-486
972.569	-633
972.654	-617
972.739	15
972.824	78
972.908	-1688
972.993	-857
973.078	-591
973.163	-711
973.247	-792
973.332	-2318
973.417	887
973.501	-649
973.586	-697
973.671	-679
973.755	-622
973.840	-454
973.924	466
974.009	-770
974.093	-1324
974.178	341
974.262	-67
974.346	-916
974.431	-740
974.515	-815
974.600	-693
974.684	-281
974.768	-407
974.852	-218
974.937	-559
975.021	-301
975.105	-599
975.189	-907
975.273	-348
975.358	-827
975.442	-1675
975.526	258
975.610	-751
975.694	-1681
975.778	-139
975.862	-264
975.946	-2324
976.030	-247
976.114	-95
976.198	-790
976.281	209
976.365	718
976.449	-215
976.533	-507
976.617	-516
976.700	-1207
976.784	-1252
976.868	-1114
976.951	-47
977.035	-1252
977.119	-287
977.202	-250
977.286	-140
977.369	-180
977.453	190
977.536	-196
977.620	-647
977.703	353
977.787	-885
977.870	134
977.953	541
978.037	-1386
978.120	70
978.203	-951
978.287	-505
978.370	-746
978.453	-130
978.536	-1262
978.620	861
978.703	-642
978.786	-832
978.869	-888
978.952	-1657
979.035	-261
979.118	-628
979.201	-1193
979.284	-174
979.367	-110
979.450	-997
979.533	-1989
979.616	-367
979.699	-1375
979.782	704
979.865	-817
979.948	-412
980.030	-1200
980.113	-289
980.196	-1350
980.279	-195
980.361	-341
980.444	-701
980.526	-92
980.609	-502
980.692	-457
980.774	197
980.857	-863
980.939	384
981.022	-254
981.104	-977
981.187	-1222
981.269	-556
981.352	-69
981.434	-1209
981.516	-1584
981.599	-93
981.681	-584
981.763	51
981.846	-564
981.928	-434
982.010	-604
982.092	-533
982.174	-118
982.256	-545
982.339	-675
982.421	-1139
982.503	-522
982.585	-1725
982.667	-305
982.749	-161
982.831	-439
982.913	-636
982.995	448
983.077	-1080
983.158	374
983.240	-987
983.322	-118
983.404	302
983.486	-755
983.568	115
983.649	-945
983.731	-14
983.813	-779
983.894	-605
983.976	-860
984.058	-5
984.139	-152
984.221	-1237
984.302	-685
984.384	-572
984.465	-1078
984.547	137
984.628	-1122
984.710	187
984.791	-1441
984.872	-773
984.954	-932
985.035	97
985.116	-906
985.198	-1020
985.279	226
985.360	-1203
985.441	311
985.522	507
985.604	-332
985.685	-1038
985.766	536
985.847	664
985.928	-677
986.009	-267
986.090	-378
986.171	-270
986.252	-601
986.333	52
986.414	-514
986.495	-427
986.576	-440
986.656	-159
986.737	-1021
986.818	-540
986.899	-451
986.980	-1188
987.060	145
987.141	-507
987.222	-1251
987.302	-903
987.383	615
987.464	-763
987.544	-191
987.625	-900
987.705	145
987.786	-349
987.866	-838
987.947	303
988.027	-376
988.108	-422
988.188	470
988.268	-188
988.349	76
988.429	-445
988.509	-230
988.589	-248
988.670	-1636
988.750	889
988.830	-595
988.910	1216
988.990	-511
989.070	-358
989.151	-1004
989.231	-706
989.311	-94
989.391	-699
989.471	-346
989.551	-422
989.631	-1516
989.711	174
989.791	-1225
989.870	-892
989.950	671
990.030	-700
990.110	-416
990.190	-441
990.269	-948
990.349	-638
990.429	-985
990.509	-107
990.588	-1237
990.668	76
990.747	-486
990.827	-953
990.907	-420
990.986	-385
991.066	-876
991.145	-1923
991.225	454
991.304	-1266
991.383	33
991.463	-1080
991.542	-565
991.622	-348
991.701	-1205
991.780	-1105
991.859	-1646
991.939	-1252
992.018	-724
992.097	-542
992.176	-494
992.256	-945
992.335	-1677
992.414	121
992.493	-2139
992.572	-524
992.651	124
992.730	-511
992.809	-459
992.888	-639
992.967	-1297
993.046	308
993.125	-1540
993.203	-118
993.282	-893
993.361	-549
993.440	-309
993.519	-860
993.597	-222
993.676	-1393
993.755	-89
993.834	-1260
993.912	-666
993.991	-353
994.069	-1379
994.148	-707
994.226	-1878
994.305	-1015
994.384	-1019
994.462	112
994.540	-1665
994.619	-1419
994.697	-494
994.776	-791
994.854	-423
994.932	-807
995.011	-781
995.089	119
995.167	-879
995.245	-513
995.324	-1615
995.402	-422
995.480	-663
995.558	-790
995.636	-1701
995.714	-1036
995.792	-213
995.870	-1387
995.948	-907
996.026	-818
996.104	-2116
996.182	110
996.260	-1122
996.338	-1106
996.416	-1882
996.494	-2064
996.572	-650
996.649	-1081
996.727	-2122
996.805	-1024
996.883	-1786
996.960	-1610
997.038	-258
997.116	-367
997.193	-1618
997.271	-1207
997.348	-1901
997.426	-625
997.504	-1479
997.581	-1180
997.658	-665
997.736	-1915
997.813	-1693
997.891	-289
997.968	-1550
998.046	-1806
998.123	-424
998.200	-1014
998.277	-1608
998.355	-1317
998.432	-2146
998.509	-754
998.586	-1309
998.663	-1626
998.741	-1328
998.818	-1287
998.895	-1946
998.972	-515
999.049	-1880
999.126	-1603
999.203	-1052
999.280	-1789
999.357	-1506
999.434	-1194
999.511	-1137
999.587	-542
999.664	-1335
999.741	-1025
999.818	-773
999.895	-1234
999.971	-1672
1000.048	-1769
1000.125	-1270
1000.202	-1944
1000.278	-1244
1000.355	-854
1000.431	-1674
1000.508	-2358
1000.584	-1728
1000.661	-943
1000.738	-1751
1000.814	-1055
1000.890	-597
1000.967	-1357
1001.043	-1541
1001.120	-1122
1001.196	-1640
1001.272	-2050
1001.349	-2053
1001.425	-650
1001.501	-1235
1001.577	-1847
1001.654	-1145
1001.730	-1574
1001.806	-1782
1001.882	-2164
1001.958	-487
1002.034	-1046
1002.110	-1182
1002.186	-1796
1002.262	-1892
1002.338	-1665
1002.414	-889
1002.490	-1531
1002.566	-1782
1002.642	-1066
1002.718	-1540
1002.794	-1333
1002.870	-1627
1002.945	-845
1003.021	-1201
1003.097	-1360
1003.173	-1331
1003.248	-706
1003.324	-1151
1003.400	-1553
1003.475	-2167
1003.551	-665
1003.626	-923
1003.702	-1616
1003.777	-1358
1003.853	-1607
1003.928	-1524
1004.004	-1577
1004.079	-777
1004.155	-1513
1004.230	-2977
1004.305	-661
1004.381	-2161
1004.456	-2181
1004.531	-1821
1004.607	-1523
1004.682	-1756
1004.757	-1173
1004.832	-724
1004.907	-1715
1004.982	-1165
1005.057	-930
1005.133	-1173
1005.208	-1904
1005.283	-1794
1005.358	-1387
1005.433	-2283
1005.508	-728
1005.583	-2024
1005.657	-1555
1005.732	-1232
1005.807	-1841
1005.882	-1476
1005.957	-856
1006.032	-642
1006.106	-1760
1006.181	-1646
1006.256	-1416
1006.331	-2181
1006.405	-2142
1006.480	-1425
1006.554	-1079
1006.629	-968
1006.704	-1150
1006.778	-1394
1006.853	-573
1006.927	-1724
1007.002	-902
1007.076	-1275
1007.150	-894
1007.225	-2071
1007.299	-1438
1007.373	-1880
1007.448	-1107
1007.522	-837
1007.596	-1272
1007.671	-1565
1007.745	-1186
1007.819	-1816
1007.893	-1270
1007.967	-1537
1008.041	-2368
1008.115	-1237
1008.190	-1252
1008.264	-1216
1008.338	-2273
1008.412	-1661
1008.486	-1665
1008.560	-1982
1008.633	-2222
1008.707	-1870
1008.781	-534
1008.855	-2103
1008.929	-1647
1009.003	-1880
1009.076	-1424
1009.150	-2439
1009.224	-2014
1009.298	-1800
1009.371	-2457
1009.445	-848
1009.519	-2183
1009.592	-2225
1009.666	-1088
1009.739	-1653
1009.813	-1755
1009.886	-700
1009.960	-2546
1010.033	-1747
1010.107	-895
1010.180	-2535
1010.253	-1865
1010.327	-1893
1010.400	-1338
1010.473	-1649
1010.547	-33
1010.620	-1990
1010.693	-1305
1010.766	-2212
1010.840	-1388
1010.913	-974
1010.986	-1108
1011.059	-2094
1011.132	-1745
1011.205	-1342
1011.278	-2410
1011.351	-1752
1011.424	-1476
1011.497	-2066
1011.570	-2143
1011.643	-2080
1011.716	-2263
1011.789	-2283
1011.862	-1100
1011.934	-1858
1012.007	-2031
1012.080	-1626
1012.153	-1954
1012.225	-922
1012.298	-1868
1012.371	-1825
1012.443	-1094
1012.516	-2205
1012.588	-1276
1012.661	-1668
1012.733	-2119
1012.806	-1818
1012.879	-1650
1012.951	-1865
1013.023	-1454
1013.096	-1732
1013.168	-2213
1013.241	-1186
1013.313	-1787
1013.385	-2240
1013.458	-1298
1013.530	-1575
1013.602	-2104
1013.674	-1120
1013.746	-1972
1013.819	-2841
1013.891	-346
1013.963	-1183
1014.035	-1530
1014.107	-1357
1014.179	-2145
1014.251	-1754
1014.323	-1444
1014.395	-1980
1014.467	-1904
1014.539	-1606
1014.611	-1708
1014.683	-1636
1014.754	-2218
1014.826	-2680
1014.898	-1209
1014.970	-2489
1015.042	-562
1015.113	-1112
1015.185	-2328
1015.257	-1440
1015.328	-1095
1015.400	-1871
1015.471	-1330
1015.543	-2241
1015.615	-1733
1015.686	-1595
1015.757	-1398
1015.829	-1572
1015.901	-1355
1015.972	-1627
1016.043	-1926
1016.115	-1506
1016.186	-1670
1016.257	-2264
1016.328	-1310
1016.400	-1254
1016.471	-2299
1016.542	-1987
1016.613	-2280
1016.685	-2361
1016.756	-1509
1016.827	-2314
1016.898	-2005
1016.969	-1333
1017.040	-1620
1017.111	-1524
1017.182	-1874
1017.253	-1375
1017.324	-1317
1017.395	-1565
1017.466	-834
1017.537	-1481
1017.608	-1600
1017.678	-2175
1017.749	-2211
1017.820	-1940
1017.891	-2150
1017.961	-3004
1018.032	-1737
1018.103	-1825
1018.173	-1844
1018.244	-1864
1018.315	-1774
1018.385	-1706
1018.456	-1318
1018.526	-2644
1018.597	-2000
1018.667	-1963
1018.738	-2099
1018.808	-1739
1018.878	-2111
1018.949	-1285
1019.019	-1787
1019.089	-1304
1019.160	-1979
1019.230	-2879
1019.300	-1206
1019.371	-2760
1019.441	-867
1019.511	-803
1019.581	-1931
1019.651	-1565
1019.721	-1416
1019.791	-1871
1019.861	-1725
1019.931	-1974
1020.001	-1968
1020.071	-1648
1020.141	-2300
1020.211	-2165
1020.281	-1881
1020.351	-2127
1020.421	-1342
1020.491	-718
1020.560	-2422
1020.630	-2219
1020.700	-1820
1020.770	-3078
1020.839	-1910
1020.909	-1923
1020.979	-2466
1021.048	-2351
1021.118	-2261
1021.187	-2312
1021.257	-1809
1021.326	-1750
1021.396	-1478
1021.465	-1890
1021.535	-2245
1021.604	-2163
1021.674	-1656
1021.743	-1491
1021.812	-1405
1021.882	-1963
1021.951	-2131
1022.020	-1929
1022.089	-1441
1022.159	-2529
1022.228	-1430
1022.297	-1882
1022.366	-1869
1022.435	-1949
1022.504	-1900
1022.573	-2147
1022.642	-2134
1022.711	-2330
1022.781	-1644
1022.849	-2063
1022.918	-2388
1022.987	-2855
1023.056	-2869
1023.125	-1991
1023.194	-2020
1023.263	-1916
1023.331	-1704
1023.400	-2711
1023.469	-2604
1023.538	-2250
1023.606	-2208
1023.675	-2328
1023.744	-1425
1023.812	-1841
1023.881	-2172
1023.949	-1815
1024.018	-2470
1024.086	-2764
1024.155	-1835
1024.223	-2414
1024.292	-1589
1024.360	-1961
1024.429	-1462
1024.497	-3433
1024.565	-1772
1024.634	-2249
1024.702	-1931
1024.770	-2047
1024.838	-2119
1024.907	-1613
1024.975	-2696
1025.043	-1636
1025.111	-2299
1025.179	-2022
1025.247	-2239
1025.315	-2581
1025.383	-2524
1025.451	-2666
1025.519	-2065
1025.587	-1808
1025.655	-2096
1025.723	-2350
1025.791	-1893
1025.859	-1594
1025.927	-1380
1025.995	-2100
1026.062	-2247
1026.130	-1835
1026.198	-2552
1026.266	-1783
1026.333	-1980
1026.401	-1440
1026.469	-2233
1026.536	-1887
1026.604	-1316
1026.671	-2468
1026.739	-2417
1026.806	-2334
1026.874	-2338
1026.941	-2141
1027.009	-2376
1027.076	-2176
1027.144	-2020
1027.211	-2879
1027.278	-1615
1027.345	-2348
1027.413	-1400
1027.480	-2871
1027.547	-2123
1027.614	-2283
1027.682	-1948
1027.749	-1666
1027.816	-2435
1027.883	-1828
1027.950	-1632
1028.017	-2795
1028.084	-2108
1028.151	-2643
1028.218	-2072
1028.285	-1826
1028.352	-1562
1028.419	-2588
1028.486	-1926
1028.553	-2804
1028.619	-2007
1028.686	-2035
1028.753	-1499
1028.820	-2820
1028.886	-2627
1028.953	-2142
1029.020	-2417
1029.086	-2323
1029.153	-2355
1029.220	-2361
1029.286	-2808
1029.353	-1944
1029.419	-2676
1029.486	-2246
1029.552	-1622
1029.619	-2829
1029.685	-2623
1029.751	-2268
1029.818	-1491
1029.884	-2824
1029.951	-1676
1030.017	-2210
1030.083	-2447
1030.149	-2821
1030.216	-2295
1030.282	-2217
1030.348	-1910
1030.414	-2609
1030.480	-1923
1030.546	-2816
1030.612	-1691
1030.678	-2818
1030.744	-2293
1030.810	-2187
1030.876	-2739
1030.942	-2072
1031.008	-1760
1031.074	-2617
1031.140	-2137
1031.206	-2092
1031.272	-2976
1031.337	-2557
1031.403	-2100
1031.469	-2687
1031.534	-2309
1031.600	-1889
1031.666	-2213
1031.731	-2416
1031.797	-1757
1031.863	-2300
1031.928	-2578
1031.994	-2482
1032.059	-2158
1032.125	-1899
1032.190	-1957
1032.256	-2352
1032.321	-2513
1032.386	-2511
1032.452	-1417
1032.517	-2376
1032.582	-2023
1032.647	-1594
1032.713	-1983
1032.778	-2084
1032.843	-2552
1032.908	-2243
1032.974	-2176
1033.039	-3021
1033.104	-2440
1033.169	-2511
1033.234	-3184
1033.299	-2377
1033.364	-2222
1033.429	-2119
1033.494	-2874
1033.559	-2531
1033.624	-1715
1033.688	-1844
1033.753	-2782
1033.818	-2134
1033.883	-2087
1033.948	-1991
1034.013	-2164
1034.077	-1669
1034.142	-1171
1034.207	-595
1034.271	128
1034.336	166
1034.400	-618
1034.465	-1799
1034.530	-1603
1034.594	-2173
1034.658	-2167
1034.723	-2867
1034.787	-2157
1034.852	-2487
1034.916	-2539
1034.981	-3081
1035.045	-2336
1035.109	-1854
1035.173	-1675
1035.238	-2291
1035.302	-2621
1035.366	-2697
1035.430	-2756
1035.495	-2320
1035.559	-2124
1035.623	-2151
1035.687	-1907
1035.751	-2597
1035.815	-2695
1035.879	-2729
1035.943	-1715
1036.007	-2089
1036.071	-2302
1036.135	-2528
1036.198	-2376
1036.262	-2784
1036.326	-2518
1036.390	-1538
1036.454	-1703
1036.517	-1685
1036.581	-2854
1036.645	-2195
1036.709	-1975
1036.772	-2314
1036.836	-1401
1036.900	-2259
1036.963	-2129
1037.026	-3293
1037.090	-2321
1037.154	-2635
1037.217	-2884
1037.280	-2366
1037.344	-2468
1037.407	-2564
1037.471	-2897
1037.534	-3025
1037.597	-1921
1037.661	-2488
1037.724	-2674
1037.787	-2378
1037.850	-2241
1037.913	-2721
1037.977	-1498
1038.040	-2054
1038.103	-2312
1038.166	-2144
1038.229	-1878
1038.292	-3254
1038.355	-1679
1038.418	-2484
1038.481	-1810
1038.544	-2528
1038.607	-2295
1038.670	-2495
1038.732	-2113
1038.795	-2674
1038.858	-2919
1038.921	-2783
1038.984	-2365
1039.046	-2275
1039.109	-2441
1039.172	-2557
1039.234	-2531
1039.297	-3317
1039.360	-2268
1039.422	-2065
1039.485	-2435
1039.547	-2550
1039.610	-2192
1039.672	-2738
1039.734	-2591
1039.797	-2396
1039.859	-2098
1039.922	-2515
1039.984	-2625
1040.046	-2767
1040.109	-1933
1040.171	-2771
1040.233	-3030
1040.295	-2688
1040.358	-2905
1040.420	-2392
1040.482	-1954
1040.544	-2852
1040.606	-1632
1040.668	-2186
1040.730	-2915
1040.792	-2390
1040.854	-2024
1040.916	-1988
1040.978	-2243
1041.040	-1555
1041.102	-1911
1041.164	-2906
1041.225	-2380
1041.287	-3252
1041.349	-2619
1041.411	-2535
1041.472	-2082
1041.534	-2096
1041.596	-2753
1041.657	-2401
1041.719	-2310
1041.781	-2408
1041.842	-2350
1041.904	-2701
1041.965	-2038
1042.027	-3276
1042.088	-2517
1042.150	-2638
1042.211	-2074
1042.272	-1561
1042.334	-2073
1042.395	-2815
1042.456	-3055
1042.518	-1879
1042.579	-2449
1042.640	-3091
1042.701	-1267
1042.763	-2275
1042.824	-2474
1042.885	-3329
1042.946	-2970
1043.007	-2007
1043.068	-1912
1043.129	-2145
1043.190	-2935
1043.251	-2235
1043.312	-3218
1043.373	-2598
1043.434	-2452
1043.495	-2188
1043.556	-2732
1043.616	-2542
1043.677	-2411
1043.738	-2173
1043.799	-2620
1043.859	-1738
1043.920	-2664
1043.981	-2652
1044.041	-2366
1044.102	-2556
1044.162	-2271
1044.223	-2084
1044.284	-1887
1044.344	-1863
1044.405	-2671
1044.465	-2653
1044.525	-1926
1044.586	-1189
1044.646	-2469
1044.707	-1919
1044.767	-1369
1044.827	-2794
1044.887	-1904
1044.948	-1738
1045.008	-2143
1045.068	-2511
1045.128	-2384
1045.188	-2141
1045.249	-2021
1045.309	-2560
1045.369	-1938
1045.429	-3034
1045.489	-2491
1045.549	-2222
1045.609	-2255
1045.669	-2328
1045.729	-2673
1045.789	-2512
1045.848	-2307
1045.908	-2000
1045.968	-1554
1046.028	-2801
1046.088	-1818
1046.147	-2085
1046.207	-2217
1046.267	-1405
1046.326	-1993
1046.386	-1745
1046.446	-1252
1046.505	-1858
1046.565	-1434
1046.624	-1136
1046.684	-1067
1046.743	-2033
1046.803	-415
1046.862	-1470
1046.922	0
