'Start Wavelength	183.907
'End Wavelength	1046.922
'Gate Delay	5.000
'Gate Width (ms)	1.050
'Laser Output Level	0.000
'X Position	0.000
'Y Position	0.000
'Z Position	0.000
'Grid Point Number	1.000
'Shot Number	100.000
183.907	445.000
183.977	-61.000
184.047	-782
184.116	147
184.186	-217
184.256	233
184.325	-30
184.395	-431
184.465	743
184.534	206
184.604	-643
184.674	221
184.743	-269
184.813	-61
184.883	304
184.952	453
185.022	14
185.092	644
185.161	-275
185.231	37
185.301	289
185.370	1065
185.440	-280
185.509	-65
185.579	481
185.649	390
185.718	112
185.788	1079
185.857	-407
185.927	-20
185.996	180
186.066	1274
186.136	-276
186.205	-330
186.275	399
186.344	652
186.414	-717
186.483	426
186.553	1025
186.622	1526
186.692	296
186.761	69
186.831	-395
186.900	218
186.970	119
187.039	974
187.109	762
187.178	876
187.248	459
187.317	72
187.387	505
187.456	496
187.526	873
187.595	1041
187.664	-368
187.734	406
187.803	841
187.873	-8
187.942	521
188.012	435
188.081	157
188.150	505
188.220	356
188.289	1224
188.358	391
188.428	840
188.497	-620
188.567	751
188.636	256
188.705	489
188.775	-731
188.844	-156
188.913	247
188.983	621
189.052	559
189.121	792
189.191	-642
189.260	817
189.329	378
189.399	190
189.468	485
189.537	-30
189.606	299
189.676	610
189.745	307
189.814	115
189.883	28
189.953	872
190.022	172
190.091	1566
190.161	2022
190.230	1669
190.299	184
190.368	-176
190.437	36
190.507	208
190.576	269
190.645	1195
190.714	167
190.783	150
190.853	490
190.922	302
190.991	-76
191.060	894
191.129	409
191.198	-113
191.268	-465
191.337	-512
191.406	986
191.475	-283
191.544	-171
191.613	310
191.682	156
191.752	195
191.821	28
191.890	552
191.959	651
192.028	-62
192.097	401
192.166	957
192.235	125
192.304	943
192.373	257
192.442	-421
192.511	506
192.580	-310
192.650	-157
192.719	345
192.788	711
192.857	409
192.926	189
192.995	962
193.064	453
193.133	840
193.202	955
193.271	1712
193.340	1246
193.409	702
193.478	476
193.547	948
193.615	1671
193.684	2358
193.753	779
193.822	660
193.891	194
193.960	926
194.029	783
194.098	279
194.167	156
194.236	1331
194.305	575
194.374	728
194.443	558
194.512	371
194.580	240
194.649	637
194.718	581
194.787	261
194.856	54
194.925	761
194.994	662
195.062	680
195.131	-577
195.200	690
195.269	301
195.338	51
195.407	-180
195.475	609
195.544	857
195.613	685
195.682	430
195.751	-10
195.819	566
195.888	546
195.957	855
196.026	788
196.094	170
196.163	133
196.232	1002
196.301	1017
196.369	309
196.438	630
196.507	545
196.576	734
196.644	422
196.713	202
196.782	363
196.850	928
196.919	194
196.988	532
197.056	-40
197.125	1095
197.194	189
197.262	237
197.331	499
197.400	294
197.468	257
197.537	956
197.606	524
197.674	1206
197.743	2450
197.812	1733
197.880	2500
197.949	1994
198.017	2258
198.086	1811
198.155	418
198.223	1283
198.292	2657
198.360	1668
198.429	1072
198.497	1587
198.566	1694
198.635	3227
198.703	1633
198.772	1673
198.840	2698
198.909	2551
198.977	1076
199.046	2233
199.114	1330
199.183	915
199.251	520
199.320	655
199.388	630
199.457	-310
199.525	429
199.594	603
199.662	-50
199.731	1277
199.799	176
199.867	1140
199.936	-367
200.004	990
200.073	690
200.141	333
200.210	46
200.278	441
200.346	325
200.415	1080
200.483	1669
200.552	877
200.620	903
200.688	691
200.757	709
200.825	1
200.893	495
200.962	1060
201.030	292
201.098	943
201.167	474
201.235	994
201.303	445
201.372	1332
201.440	670
201.508	984
201.577	628
201.645	654
201.713	528
201.781	177
201.850	1018
201.918	810
201.986	798
202.055	750
202.123	545
202.191	632
202.259	350
202.327	1014
202.396	814
202.464	801
202.532	1023
202.600	1872
202.669	1082
202.737	410
202.805	154
202.873	934
202.941	548
203.009	1359
203.078	378
203.146	1680
203.214	18
203.282	81
203.350	626
203.418	560
203.487	1471
203.555	628
203.623	865
203.691	1210
203.759	296
203.827	1061
203.895	854
203.963	315
204.031	493
204.099	400
204.168	553
204.236	643
204.304	1268
204.372	552
204.440	1026
204.508	841
204.576	124
204.644	1312
204.712	1251
204.780	819
204.848	416
204.916	376
204.984	976
205.052	830
205.120	323
205.188	777
205.256	608
205.324	742
205.392	1018
205.460	1407
205.528	1186
205.596	1080
205.664	382
205.732	1100
205.799	3002
205.867	4827
205.935	1175
206.003	1893
206.071	1150
206.139	1132
206.207	648
206.275	1107
206.343	1232
206.411	1131
206.478	1545
206.546	510
206.614	777
206.682	1315
206.750	776
206.818	1853
206.885	1801
206.953	451
207.021	1774
207.089	1408
207.157	243
207.225	866
207.292	1052
207.360	781
207.428	1023
207.496	787
207.563	823
207.631	1029
207.699	629
207.767	1185
207.834	638
207.902	1087
207.970	1696
208.038	874
208.105	114
208.173	924
208.241	1234
208.309	2030
208.376	876
208.444	2101
208.512	2371
208.579	565
208.647	1118
208.715	1888
208.782	894
208.850	1354
208.918	207
208.985	871
209.053	1036
209.120	1238
209.188	668
209.256	1496
209.323	443
209.391	1508
209.459	1881
209.526	1790
209.594	443
209.661	1750
209.729	1034
209.796	1798
209.864	1120
209.932	811
209.999	1935
210.067	1423
210.134	1013
210.202	1045
210.269	2195
210.337	2006
210.404	1379
210.472	1003
210.539	1442
210.607	1015
210.674	681
210.742	1912
210.809	615
210.877	1370
210.944	1705
211.012	631
211.079	2347
211.146	1027
211.214	1334
211.281	2781
211.349	2204
211.416	1657
211.484	1571
211.551	1661
211.618	1098
211.686	1424
211.753	950
211.821	1923
211.888	1194
211.955	1812
212.023	970
212.090	1384
212.157	1850
212.225	2530
212.292	4174
212.359	7591
212.427	14569
212.494	7608
212.561	3501
212.629	2962
212.696	1871
212.763	2336
212.831	947
212.898	2187
212.965	1890
213.032	2027
213.100	1259
213.167	1857
213.234	2441
213.301	1591
213.369	1374
213.436	1798
213.503	1401
213.570	2172
213.638	1244
213.705	1348
213.772	1142
213.839	1567
213.906	2507
213.973	1960
214.041	1106
214.108	1657
214.175	2063
214.242	1739
214.309	1159
214.376	1592
214.444	1404
214.511	1986
214.578	1306
214.645	1695
214.712	1904
214.779	1882
214.846	1221
214.913	2077
214.980	2036
215.048	2414
215.115	2044
215.182	1611
215.249	1554
215.316	1431
215.383	2205
215.450	2534
215.517	1177
215.584	818
215.651	1323
215.718	951
215.785	1998
215.852	1107
215.919	1475
215.986	1687
216.053	1378
216.120	1191
216.187	1658
216.254	1670
216.321	1764
216.388	1647
216.455	2082
216.522	2483
216.589	2663
216.656	2837
216.722	2120
216.789	2031
216.856	2380
216.923	2224
216.990	2306
217.057	1757
217.124	2561
217.191	2290
217.258	3422
217.324	2250
217.391	3202
217.458	2605
217.525	2841
217.592	1790
217.659	1201
217.725	2218
217.792	2953
217.859	3221
217.926	1900
217.993	1921
218.059	2164
218.126	1781
218.193	1649
218.260	2002
218.327	1817
218.393	1026
218.460	1143
218.527	905
218.594	1733
218.660	2160
218.727	2983
218.794	1013
218.860	2186
218.927	1507
218.994	1375
219.061	2114
219.127	1812
219.194	2457
219.261	1737
219.327	1034
219.394	1298
219.461	528
219.527	1857
219.594	2507
219.661	1092
219.727	-108
219.794	1866
219.860	1535
219.927	2263
219.994	2426
220.060	4207
220.127	4519
220.193	3194
220.260	2498
220.326	3894
220.393	4502
220.460	5464
220.526	3610
220.593	3157
220.659	4730
220.726	4001
220.792	8698
220.859	7281
220.925	7255
220.992	8609
221.058	9625
221.125	11248
221.191	8287
221.258	3603
221.324	2979
221.391	2129
221.457	2436
221.524	2250
221.590	4344
221.657	10518
221.723	6991
221.789	5749
221.856	6446
221.922	3308
221.989	2926
222.055	2509
222.121	1418
222.188	3477
222.254	1971
222.321	1937
222.387	1024
222.453	1881
222.520	2084
222.586	1327
222.652	2074
222.719	1502
222.785	1785
222.851	1066
222.918	1583
222.984	1213
223.050	1351
223.116	108
223.183	1441
223.249	827
223.315	818
223.382	1457
223.448	1503
223.514	957
223.580	1550
223.647	1137
223.713	774
223.779	1185
223.845	1757
223.911	1106
223.978	691
224.044	1695
224.110	861
224.176	1580
224.242	1152
224.309	692
224.375	1421
224.441	1558
224.507	599
224.573	745
224.639	2464
224.705	860
224.772	1618
224.838	732
224.904	1584
224.970	1349
225.036	749
225.102	848
225.168	2065
225.234	1875
225.300	872
225.366	1136
225.432	1546
225.499	1540
225.565	1465
225.631	1215
225.697	2089
225.763	2233
225.829	2115
225.895	2296
225.961	3471
226.027	4414
226.093	2568
226.159	4311
226.225	6251
226.291	11188
226.357	15314
226.423	8749
226.489	5609
226.554	4350
226.620	4712
226.686	4428
226.752	7092
226.818	10267
226.884	20245
226.950	18242
227.016	8469
227.082	4441
227.148	3437
227.214	3268
227.279	3384
227.345	2259
227.411	3606
227.477	3719
227.543	6984
227.609	6846
227.674	4533
227.740	2306
227.806	2841
227.872	2348
227.938	2327
228.003	2052
228.069	2853
228.135	895
228.201	1900
228.267	1257
228.332	1459
228.398	1286
228.464	2406
228.530	614
228.595	1147
228.661	887
228.727	1965
228.792	2578
228.858	1514
228.924	-149
228.990	3863
229.055	324
229.121	3196
229.187	1822
229.252	1349
229.318	1311
229.384	1809
229.449	1643
229.515	-77
229.581	1166
229.646	2882
229.712	1722
229.777	2226
229.843	2852
229.909	3039
229.974	3375
230.040	2559
230.105	2963
230.171	2179
230.236	4033
230.302	4563
230.368	2920
230.433	2975
230.499	2864
230.564	2441
230.630	1217
230.695	2121
230.761	2445
230.826	809
230.892	2614
230.957	1734
231.023	1287
231.088	2131
231.154	1781
231.219	2108
231.284	916
231.350	2717
231.415	583
231.481	1325
231.546	1152
231.612	2150
231.677	576
231.742	626
231.808	2281
231.873	446
231.939	235
232.004	3271
232.069	2342
232.135	1761
232.200	1682
232.265	1676
232.331	497
232.396	1221
232.461	600
232.527	1177
232.592	465
232.657	1823
232.723	1007
232.788	1632
232.853	2011
232.918	1597
232.984	867
233.049	1041
233.114	1237
233.179	2048
233.245	2377
233.310	2550
233.375	465
233.440	2178
233.506	796
233.571	1606
233.636	755
233.701	960
233.766	2358
233.832	1947
233.897	980
233.962	1160
234.027	2690
234.092	1091
234.157	1618
234.222	1773
234.288	1984
234.353	5268
234.418	4971
234.483	3902
234.548	2966
234.613	2605
234.678	2460
234.743	2271
234.808	5189
234.873	3249
234.938	3498
235.004	2845
235.069	2433
235.134	1718
235.199	2372
235.264	3024
235.329	796
235.394	2790
235.459	2337
235.524	1629
235.589	2928
235.654	2107
235.719	729
235.784	2574
235.849	1908
235.913	3130
235.978	3162
236.043	3316
236.108	2328
236.173	1725
236.238	2484
236.303	1477
236.368	2321
236.433	3420
236.498	4808
236.563	5294
236.627	9009
236.692	27993
236.757	23862
236.822	10780
236.887	5733
236.952	5821
237.017	3276
237.081	6568
237.146	6490
237.211	14008
237.276	26385
237.341	39593
237.405	20604
237.470	9542
237.535	6576
237.600	5075
237.664	4158
237.729	3743
237.794	3236
237.859	8582
237.923	5125
237.988	3153
238.053	3679
238.118	3349
238.182	7638
238.247	8413
238.312	2360
238.376	4297
238.441	1050
238.506	2989
238.570	1229
238.635	3206
238.700	2001
238.764	2339
238.829	3708
238.893	3291
238.958	3699
239.023	3003
239.087	2280
239.152	2179
239.216	1189
239.281	2190
239.346	2914
239.410	1677
239.475	1131
239.539	7684
239.604	5945
239.668	3592
239.733	3197
239.797	5657
239.862	12521
239.926	12065
239.991	5298
240.055	3154
240.120	2708
240.184	3148
240.249	1058
240.313	2462
240.378	1826
240.442	3669
240.507	7299
240.571	2922
240.635	2660
240.700	4158
240.764	1713
240.829	2120
240.893	993
240.957	2056
241.022	4030
241.086	6697
241.151	2005
241.215	1146
241.279	2779
241.344	2468
241.408	3499
241.472	2359
241.537	4001
241.601	2976
241.665	2126
241.730	2672
241.794	3594
241.858	2617
241.922	2505
241.987	2148
242.051	1747
242.115	1003
242.179	3089
242.244	1430
242.308	3107
242.372	2093
242.436	2042
242.501	2560
242.565	1805
242.629	2712
242.693	2942
242.757	1579
242.822	1591
242.886	3160
242.950	2525
243.014	1553
243.078	2785
243.142	2845
243.206	1714
243.271	3315
243.335	3825
243.399	6818
243.463	20256
243.527	49446
243.591	17403
243.655	7111
243.719	3664
243.783	4556
243.847	6368
243.911	9603
243.975	5562
244.040	3362
244.104	3780
244.168	2908
244.232	2517
244.296	3498
244.360	8020
244.424	2848
244.488	2079
244.552	3258
244.615	627
244.679	1530
244.743	1776
244.807	1242
244.871	1895
244.935	1775
244.999	587
245.063	1647
245.127	2912
245.191	5081
245.255	4981
245.319	2867
245.383	1130
245.446	2958
245.510	887
245.574	1524
245.638	1709
245.702	378
245.766	4534
245.829	3643
245.893	1427
245.957	2442
246.021	2323
246.085	2369
246.149	2196
246.212	6475
246.276	8969
246.340	3345
246.404	2543
246.467	2954
246.531	2703
246.595	3892
246.659	3412
246.722	1533
246.786	3313
246.850	3073
246.913	3502
246.977	1154
247.041	1515
247.104	2081
247.168	2832
247.232	4602
247.295	12341
247.359	6198
247.423	3236
247.486	4136
247.550	3370
247.614	2272
247.677	2766
247.741	2265
247.804	2902
247.868	3167
247.932	3712
247.995	11301
248.059	4144
248.122	2784
248.186	3887
248.249	5539
248.313	18237
248.376	18943
248.440	11358
248.503	2833
248.567	4920
248.630	4095
248.694	6206
248.757	10024
248.821	22298
248.884	12667
248.948	10770
249.011	14982
249.075	24780
249.138	21235
249.202	7686
249.265	5885
249.328	6527
249.392	5105
249.455	4887
249.519	3620
249.582	3994
249.645	7067
249.709	6301
249.772	4944
249.835	4197
249.899	4142
249.962	5169
250.025	4691
250.089	8085
250.152	11206
250.215	5471
250.279	4639
250.342	5522
250.405	6118
250.468	5649
250.532	7497
250.595	13026
250.658	44359
250.721	72324
250.785	27791
250.848	14978
250.911	8311
250.974	8523
251.038	9268
251.101	15831
251.164	9678
251.227	9830
251.290	11351
251.354	18571
251.417	63150
251.480	66043
251.543	50529
251.606	103464
251.669	83900
251.732	38148
251.795	30375
251.859	31180
251.922	70105
251.985	45146
252.048	18696
252.111	12923
252.174	10043
252.237	15667
252.300	30491
252.363	39298
252.426	83192
252.489	38364
252.552	17303
252.615	11216
252.678	12924
252.741	23687
252.804	40730
252.867	87004
252.930	48982
252.993	22204
253.056	14089
253.119	9047
253.182	7581
253.245	16848
253.308	12761
253.371	6661
253.434	6656
253.497	6734
253.559	11935
253.622	6989
253.685	6954
253.748	6017
253.811	3689
253.874	5029
253.937	4683
254.000	4576
254.062	7186
254.125	11306
254.188	9336
254.251	6394
254.314	3735
254.376	5134
254.439	6571
254.502	5123
254.565	6711
254.628	12661
254.690	4952
254.753	2924
254.816	3394
254.878	3885
254.941	7996
255.004	7899
255.067	3512
255.129	2068
255.192	2204
255.255	955
255.317	3130
255.380	1951
255.443	1199
255.505	1279
255.568	1590
255.631	1490
255.693	2631
255.756	756
255.819	3129
255.881	1246
255.944	2411
256.006	1324
256.069	1043
256.132	1237
256.194	2277
256.257	4669
256.319	3048
256.382	3529
256.444	4449
256.507	3070
256.569	3375
256.632	3147
256.694	4754
256.757	15387
256.819	46418
256.882	22307
256.944	7945
257.007	6373
257.069	4492
257.132	3762
257.194	4757
257.257	3575
257.319	3957
257.381	4721
257.444	13053
257.506	49458
257.569	54843
257.631	16992
257.693	9789
257.756	6110
257.818	3808
257.880	2894
257.943	3276
258.005	2504
258.067	2660
258.130	2114
258.192	2729
258.254	3909
258.317	2948
258.379	3431
258.441	5961
258.503	6933
258.566	6958
258.628	9277
258.690	2447
258.753	3084
258.815	4840
258.877	2687
258.939	2566
259.001	3179
259.064	2471
259.126	2593
259.188	3198
259.250	3011
259.312	2272
259.375	3096
259.437	2210
259.499	2764
259.561	2363
259.623	2281
259.685	2606
259.747	2578
259.809	6678
259.872	11837
259.934	19693
259.996	16992
260.058	5412
260.120	2272
260.182	2211
260.244	2050
260.306	1312
260.368	2739
260.430	1870
260.492	3619
260.554	4785
260.616	2254
260.678	8839
260.740	10772
260.802	3323
260.864	2418
260.926	1335
260.988	3567
261.050	2230
261.112	3491
261.174	12201
261.236	9887
261.298	3161
261.359	4888
261.421	6823
261.483	2319
261.545	3529
261.607	760
261.669	2430
261.731	3364
261.793	7030
261.854	3009
261.916	2154
261.978	1388
262.040	1934
262.102	2025
262.164	2501
262.225	2031
262.287	1897
262.349	4700
262.411	3594
262.472	2518
262.534	3018
262.596	5639
262.658	2822
262.719	835
262.781	3216
262.843	5924
262.904	3697
262.966	3595
263.028	5529
263.090	23669
263.151	64354
263.213	20931
263.275	7386
263.336	3892
263.398	3101
263.459	801
263.521	2273
263.583	3711
263.644	3458
263.706	1429
263.767	1279
263.829	1331
263.891	1128
263.952	1013
264.014	1130
264.075	1869
264.137	4207
264.198	2240
264.260	848
264.321	1043
264.383	2653
264.444	6044
264.506	3087
264.567	2212
264.629	3681
264.690	3694
264.752	2596
264.813	1435
264.875	1695
264.936	2074
264.998	1173
265.059	1902
265.120	2478
265.182	3387
265.243	21711
265.305	25208
265.366	6871
265.427	3543
265.489	2656
265.550	1262
265.611	1143
265.673	1600
265.734	2035
265.795	1898
265.857	1666
265.918	2541
265.979	6435
266.040	36007
266.102	35166
266.163	9994
266.224	5685
266.286	3440
266.347	1896
266.408	1875
266.469	2338
266.530	1380
266.592	1461
266.653	2410
266.714	4588
266.775	1368
266.836	1346
266.898	567
266.959	1650
267.020	1558
267.081	2539
267.142	1585
267.203	842
267.264	1710
267.326	2427
267.387	1231
267.448	547
267.509	921
267.570	1508
267.631	1194
267.692	376
267.753	1484
267.814	686
267.875	2278
267.936	5330
267.997	2354
268.058	2302
268.119	997
268.180	642
268.241	1415
268.302	1250
268.363	314
268.424	1160
268.485	955
268.546	1412
268.607	1601
268.668	680
268.729	1247
268.790	1311
268.851	1040
268.912	2715
268.972	3653
269.033	815
269.094	636
269.155	2072
269.216	476
269.277	1490
269.338	1276
269.398	1068
269.459	841
269.520	2096
269.581	1461
269.642	2071
269.702	1866
269.763	2391
269.824	1167
269.885	2134
269.945	2175
270.006	1705
270.067	471
270.128	1606
270.188	936
270.249	674
270.310	1624
270.370	1765
270.431	1121
270.492	1763
270.553	1563
270.613	1416
270.674	5204
270.734	2654
270.795	955
270.856	2158
270.916	1929
270.977	1880
271.038	1784
271.098	1376
271.159	2140
271.219	2410
271.280	1448
271.340	1646
271.401	751
271.462	3251
271.522	2519
271.583	1689
271.643	936
271.704	1317
271.764	1695
271.825	3685
271.885	16626
271.946	23785
272.006	6439
272.066	9381
272.127	18897
272.187	7558
272.248	3861
272.308	3181
272.369	11706
272.429	6863
272.489	3388
272.550	3956
272.610	2978
272.671	2046
272.731	2933
272.791	3965
272.852	1929
272.912	2000
272.972	2163
273.033	1204
273.093	1512
273.153	2877
273.214	2667
273.274	1814
273.334	7226
273.394	17519
273.455	5516
273.515	5141
273.575	11854
273.635	4810
273.696	5656
273.756	17092
273.816	6033
273.876	3076
273.936	5259
273.997	9688
274.057	2577
274.117	2235
274.177	3859
274.237	17457
274.297	16194
274.358	8161
274.418	11764
274.478	8418
274.538	3315
274.598	1972
274.658	8113
274.718	9594
274.778	3974
274.838	2733
274.898	4021
274.958	12966
275.018	15933
275.078	10606
275.138	3351
275.198	2240
275.258	2031
275.318	2201
275.378	3293
275.438	3246
275.498	2451
275.558	6836
275.618	14531
275.678	10156
275.738	5231
275.798	4536
275.858	2196
275.918	2188
275.978	1695
276.038	1819
276.098	1468
276.157	2660
276.217	7991
276.277	3978
276.337	2366
276.397	1371
276.457	1847
276.517	1797
276.576	841
276.636	452
276.696	2267
276.756	4975
276.815	3526
276.875	2045
276.935	1537
276.995	1615
277.055	1341
277.114	1563
277.174	1882
277.234	7313
277.293	3071
277.353	1173
277.413	1718
277.472	1343
277.532	1254
277.592	1974
277.651	6332
277.711	12596
277.771	3753
277.830	16093
277.890	11732
277.950	9343
278.009	31920
278.069	11428
278.128	9110
278.188	13442
278.248	5600
278.307	14107
278.367	9354
278.426	3150
278.486	2479
278.545	1746
278.605	1264
278.664	1563
278.724	1781
278.783	5666
278.843	17965
278.902	5160
278.962	2819
279.021	2948
279.081	3771
279.140	4581
279.199	2494
279.259	3218
279.318	3725
279.378	5240
279.437	7083
279.496	17984
279.556	88562
279.615	70841
279.675	15794
279.734	8794
279.793	10784
279.853	10614
279.912	4966
279.971	4394
280.031	3159
280.090	4944
280.149	7260
280.208	9301
280.268	60395
280.327	63679
280.386	12921
280.445	8676
280.505	6866
280.564	3955
280.623	3020
280.682	4476
280.742	7535
280.801	2365
280.860	2698
280.919	1764
280.978	1072
281.037	1438
281.097	1021
281.156	2352
281.215	1498
281.274	1970
281.333	10039
281.392	7806
281.451	1726
281.510	1950
281.569	1615
281.628	2063
281.688	1002
281.747	1457
281.806	907
281.865	1080
281.924	486
281.983	1292
282.042	1462
282.101	523
282.160	1024
282.219	787
282.278	2011
282.337	4548
282.396	2939
282.454	758
282.513	968
282.572	6459
282.631	3645
282.690	1320
282.749	168
282.808	1729
282.867	1775
282.926	1785
282.985	1176
283.043	538
283.102	1670
283.161	698
283.220	2887
283.279	8875
283.338	2854
283.396	1167
283.455	926
283.514	1983
283.573	3088
283.631	2206
283.690	1652
283.749	1451
283.808	2970
283.866	3092
283.925	1199
283.984	1880
284.043	1955
284.101	2658
284.160	1447
284.219	1977
284.277	2081
284.336	2931
284.395	9979
284.453	9018
284.512	2711
284.570	4215
284.629	2714
284.688	3126
284.746	3501
284.805	4695
284.863	4371
284.922	6936
284.981	8555
285.039	13225
285.098	20748
285.156	50316
285.215	118102
285.273	112370
285.332	57419
285.390	28527
285.449	16243
285.507	10998
285.566	8047
285.624	6790
285.683	5564
285.741	4397
285.799	3694
285.858	3282
285.916	2386
285.975	2903
286.033	1864
286.091	1921
286.150	1443
286.208	1297
286.267	1878
286.325	1774
286.383	2816
286.442	2819
286.500	985
286.558	2058
286.616	1441
286.675	2127
286.733	2127
286.791	1339
286.850	1404
286.908	2029
286.966	3126
287.024	1632
287.083	762
287.141	2426
287.199	1593
287.257	2739
287.315	2662
287.374	2255
287.432	5154
287.490	3345
287.548	1621
287.606	2285
287.664	3431
287.723	3111
287.781	4259
287.839	4342
287.897	6274
287.955	9646
288.013	13783
288.071	28952
288.129	96265
288.187	207342
288.245	118739
288.303	45752
288.361	23767
288.419	15138
288.477	10259
288.535	7863
288.593	6366
288.651	5886
288.709	2451
288.767	3751
288.825	2896
288.883	2673
288.941	1808
288.999	1762
289.057	1346
289.115	1467
289.173	1731
289.231	2255
289.289	1241
289.346	1904
289.404	977
289.462	2593
289.520	1833
289.578	1733
289.636	987
289.694	1395
289.751	95
289.809	934
289.867	1098
289.925	2007
289.983	1202
290.040	1335
290.098	992
290.156	1296
290.214	1511
290.271	938
290.329	1631
290.387	601
290.444	955
290.502	215
290.560	732
290.617	-291
290.675	6
290.733	1210
290.790	429
290.848	1222
290.906	496
290.963	860
291.021	1326
291.078	893
291.136	569
291.194	3148
291.251	8504
291.309	1735
291.366	601
291.424	1316
291.481	408
291.539	686
291.596	539
291.654	152
291.711	603
291.769	1122
291.826	1919
291.884	1262
291.941	709
291.999	1030
292.056	484
292.114	1308
292.171	666
292.228	1513
292.286	1672
292.343	1643
292.401	2471
292.458	834
292.515	673
292.573	1442
292.630	1325
292.687	1146
292.745	1335
292.802	1351
292.859	3421
292.917	8598
292.974	4719
293.031	1451
293.089	1255
293.146	1263
293.203	491
293.260	751
293.318	586
293.375	1731
293.432	484
293.489	1847
293.546	74
293.604	1971
293.661	5736
293.718	18286
293.775	7576
293.832	3199
293.889	1673
293.947	2503
294.004	1149
294.061	1504
294.118	3545
294.175	6971
294.232	8664
294.289	4194
294.346	1685
294.403	2660
294.460	1466
294.517	754
294.574	1409
294.631	1648
294.688	1371
294.745	4211
294.802	18189
294.859	17921
294.916	4819
294.973	2272
295.030	1727
295.087	1731
295.144	1231
295.201	1629
295.258	1758
295.315	1941
295.372	7008
295.429	14358
295.486	5888
295.542	3795
295.599	6024
295.656	10474
295.713	7102
295.770	12521
295.827	4627
295.883	2312
295.940	2425
295.997	2496
296.054	2449
296.111	1730
296.167	1846
296.224	611
296.281	232
296.338	1428
296.394	1709
296.451	1898
296.508	5951
296.564	9960
296.621	6627
296.678	16358
296.734	23777
296.791	7937
296.848	3888
296.904	3178
296.961	6073
297.018	14653
297.074	11355
297.131	4254
297.187	3144
297.244	4765
297.301	15389
297.357	30775
297.414	10154
297.470	4046
297.527	2386
297.583	2280
297.640	2286
297.696	1088
297.753	861
297.809	853
297.866	345
297.922	1877
297.979	937
298.035	1026
298.092	2608
298.148	7493
298.204	7374
298.261	4011
298.317	6961
298.374	20213
298.430	11143
298.486	4144
298.543	2285
298.599	3563
298.656	4735
298.712	7533
298.768	25959
298.824	22720
298.881	6590
298.937	3822
298.993	3221
299.050	3237
299.106	2133
299.162	1472
299.218	2690
299.275	1937
299.331	2059
299.387	3860
299.443	18162
299.500	25481
299.556	12582
299.612	5697
299.668	4220
299.724	10679
299.780	12922
299.837	4968
299.893	4683
299.949	16500
300.005	20838
300.061	16573
300.117	32089
300.173	14045
300.229	6543
300.285	5177
300.341	4429
300.397	3881
300.453	1835
300.510	2468
300.566	3307
300.622	4756
300.678	20373
300.734	29956
300.790	17964
300.845	20049
300.901	14689
300.957	21931
301.013	12601
301.069	4590
301.125	3604
301.181	2854
301.237	2454
301.293	1800
301.349	1747
301.405	1317
301.461	1656
301.516	3042
301.572	2216
301.628	3078
301.684	2884
301.740	5263
301.796	8548
301.851	5871
301.907	8769
301.963	9311
302.019	17020
302.074	50510
302.130	49143
302.186	22531
302.242	8462
302.297	5675
302.353	4689
302.409	8433
302.464	7840
302.520	5880
302.576	15245
302.631	18843
302.687	9050
302.743	3651
302.798	2567
302.854	1614
302.910	1582
302.965	2811
303.021	4504
303.076	3569
303.132	3692
303.187	5629
303.243	3265
303.299	1691
303.354	1856
303.410	2607
303.465	918
303.521	2212
303.576	1142
303.632	2217
303.687	3947
303.743	15259
303.798	13040
303.853	5607
303.909	2778
303.964	2262
304.020	2622
304.075	3990
304.130	3179
304.186	6526
304.241	7590
304.297	5643
304.352	2711
304.358	2583
304.407	1542
304.449	1853
304.463	1965
304.518	1054
304.539	1172
304.573	1332
304.629	1982
304.630	2009
304.684	3510
304.720	8717
304.739	11231
304.794	18725
304.811	15779
304.850	8776
304.902	3340
304.905	2998
304.960	3058
304.992	3040
305.015	2996
305.071	3191
305.083	3030
305.126	2400
305.173	2123
305.181	2100
305.236	939
305.264	951
305.292	957
305.347	1362
305.354	1569
305.402	3005
305.445	2596
305.457	2406
305.512	3335
305.535	2973
305.567	2627
305.622	2628
305.626	2760
305.678	6193
305.716	13981
305.733	16560
305.788	17924
305.807	15118
305.843	11124
305.897	17036
305.898	17085
305.953	16351
305.988	10415
306.008	7413
306.063	3579
306.078	3154
306.118	2363
306.168	1783
306.173	1733
306.228	1238
306.259	1602
306.283	1915
306.338	1496
306.349	1656
306.393	2358
306.440	2795
306.448	2847
306.503	2407
306.530	2464
306.558	3023
306.613	5524
306.620	5902
306.668	8532
306.711	12594
306.723	13045
306.778	10300
306.801	7800
306.833	5243
306.888	2662
306.892	2594
306.943	2175
306.982	1549
306.997	1394
307.052	1591
307.072	1738
307.107	1997
307.162	2645
307.163	2645
307.217	2803
307.253	3525
307.272	3764
307.327	3166
307.343	3120
307.381	3185
307.434	3414
307.436	3518
307.491	6726
307.524	9603
307.546	10237
307.600	10376
307.614	9323
307.655	5983
307.704	3770
307.710	3785
307.765	4921
307.795	5887
307.819	6411
307.874	8301
307.885	8557
307.929	9202
307.975	10075
307.984	10780
308.038	16890
308.065	20838
308.093	38620
308.148	84208
308.156	93788
308.202	131824
308.246	153259
308.257	148342
308.312	80434
308.336	52678
308.366	37849
308.421	21502
308.426	20311
308.475	13744
308.517	10290
308.530	9404
308.585	8060
308.607	7440
308.639	7177
308.694	7305
308.697	7344
308.748	9643
308.787	12214
308.803	12078
308.857	10093
308.877	9387
308.912	9441
308.967	10233
308.967	10265
309.021	15027
309.058	18960
309.076	24885
309.130	45839
309.148	54446
309.185	111227
309.238	206924
309.239	207198
309.293	197430
309.328	172366
309.348	149059
309.402	71034
309.418	51012
309.457	35200
309.508	20900
309.511	20388
309.566	16009
309.598	14443
309.620	14480
309.674	15823
309.688	16292
309.729	14709
309.778	11926
309.783	11715
309.837	9211
309.868	8106
309.892	9411
309.946	13408
309.959	14709
310.001	17380
310.049	19170
310.055	18555
310.109	11494
310.139	7289
310.163	5688
310.218	3559
310.229	3215
310.272	3585
310.319	3972
310.326	3783
310.381	2342
310.409	1796
310.435	1867
310.489	1854
310.499	1889
310.543	1954
310.589	1881
310.598	1957
310.652	2674
310.679	2978
310.706	2595
310.760	1459
310.769	1326
310.814	1576
310.859	1981
310.868	2023
310.923	2045
310.948	2031
310.977	1923
311.031	1858
311.038	1819
311.085	1632
311.128	1619
311.139	1740
311.193	2166
311.218	2416
311.247	2293
311.301	2088
311.308	2054
311.356	2211
311.398	2316
311.410	2161
311.464	1384
311.488	1100
311.518	1354
311.572	1749
311.578	1790
311.626	1898
311.668	2007
311.680	2022
311.734	2097
311.758	2114
311.788	1895
311.842	1525
311.847	1489
311.896	2665
311.937	3682
311.950	3505
312.004	2703
312.027	2353
312.058	2223
312.112	1993
312.117	1971
312.165	1321
312.207	772
312.297	2015
312.386	1150
312.476	3141
312.566	3267
312.656	2011
312.745	1348
312.835	2550
312.925	1695
313.015	2210
313.104	2053
313.194	2399
313.284	1987
313.374	2426
313.463	2484
313.553	2197
313.643	1524
313.732	2353
313.822	916
313.912	2097
314.001	2227
314.091	2724
314.180	2186
314.270	3391
314.360	2438
314.449	2716
314.539	2417
314.628	2166
314.718	1400
314.808	2254
314.897	1637
314.987	2621
315.076	2642
315.166	3349
315.255	2730
315.345	2756
315.434	2900
315.524	3683
315.613	3883
315.703	6820
315.792	18818
315.881	69476
315.971	16789
316.060	6297
316.150	6854
316.239	6475
316.328	3171
316.418	2287
316.507	2219
316.597	4077
316.686	2451
316.775	4138
316.865	5980
316.954	3450
317.043	1679
317.133	1831
317.222	1696
317.311	2703
317.400	964
317.490	3964
317.579	4294
317.668	4423
317.757	8988
317.847	36166
317.936	118604
318.025	27500
318.114	20383
318.203	8281
318.293	5131
318.382	7594
318.471	6325
318.560	9075
318.649	13893
318.738	3750
318.828	2860
318.917	2724
319.006	4102
319.095	7820
319.184	18495
319.273	10049
319.362	4728
319.451	1907
319.540	1774
319.629	5878
319.718	6273
319.807	4215
319.896	7454
319.985	23941
320.074	6570
320.163	2730
320.252	3480
320.341	3138
320.430	2605
320.519	4235
320.608	1590
320.697	3034
320.786	2514
320.875	3242
320.964	3843
321.053	6243
321.142	7250
321.230	8100
321.319	6467
321.408	11773
321.497	5856
321.586	6027
321.675	6729
321.764	7674
321.852	5301
321.941	7427
322.030	5260
322.119	6681
322.207	13328
322.296	9919
322.385	5358
322.474	8438
322.562	16821
322.651	7942
322.740	6592
322.829	6919
322.917	8018
323.006	4838
323.095	3995
323.183	4100
323.272	5471
323.361	9764
323.449	23929
323.538	7245
323.626	16231
323.715	8167
323.804	4211
323.892	14451
323.981	6115
324.069	2889
324.158	8644
324.246	6584
324.335	3132
324.424	3813
324.512	1863
324.601	2617
324.689	4677
324.778	7113
324.866	5255
324.954	2547
325.043	1837
325.131	3217
325.220	6824
325.308	5988
325.397	4126
325.485	3033
325.574	1230
325.662	1759
325.750	915
325.839	1101
325.927	731
326.015	2009
326.104	3104
326.192	3492
326.280	1310
326.369	1716
326.457	2050
326.545	4250
326.634	1133
326.722	1695
326.810	1319
326.898	1903
326.987	1527
327.075	3147
327.163	3742
327.251	2038
327.340	3810
327.428	3850
327.516	2133
327.604	2564
327.692	1375
327.781	2722
327.869	2221
327.957	3039
328.045	1136
328.133	1268
328.221	1644
328.309	1683
328.397	1037
328.485	2775
328.574	3390
328.662	8278
328.750	3508
328.838	1861
328.926	1305
329.014	1313
329.102	1952
329.190	4918
329.278	1500
329.366	1135
329.454	496
329.542	1231
329.630	614
329.718	1466
329.806	648
329.893	1685
329.981	861
330.069	1820
330.157	3776
330.245	8476
330.333	3338
330.421	1746
330.509	2460
330.597	8928
330.684	3986
330.772	2220
330.860	2208
330.948	3180
331.036	1202
331.123	954
331.211	878
331.299	1738
331.387	3461
331.475	5104
331.562	2156
331.650	1389
331.738	762
331.825	1684
331.913	210
332.001	963
332.089	2050
332.176	3212
332.264	7625
332.352	4169
332.439	995
332.527	1645
332.614	1375
332.702	1943
332.790	2027
332.877	4915
332.965	6261
333.052	1693
333.140	1845
333.228	4311
333.315	1136
333.403	2683
333.490	4427
333.578	3635
333.665	5721
333.753	3629
333.840	1634
333.928	2556
334.015	5831
334.103	10381
334.190	24337
334.278	7994
334.365	6032
334.452	5167
334.540	2895
334.627	3625
334.715	5709
334.802	10577
334.889	36551
334.977	31795
335.064	7839
335.151	4881
335.239	3398
335.326	4379
335.413	14987
335.501	14170
335.588	3067
335.675	3919
335.762	4568
335.850	6236
335.937	8419
336.024	17090
336.111	40610
336.199	18942
336.286	6956
336.373	4175
336.460	2862
336.547	2712
336.635	2193
336.722	2311
336.809	1067
336.896	2789
336.983	7533
337.070	17025
337.157	22612
337.245	18935
337.332	10461
337.419	1775
337.506	1439
337.593	3033
337.680	5923
337.767	13450
337.854	3815
337.941	4599
338.028	5859
338.115	1842
338.202	3041
338.289	6156
338.376	16443
338.463	4671
338.550	9043
338.637	8418
338.724	3294
338.811	4969
338.898	1603
338.984	1575
339.071	802
339.158	1537
339.245	4233
339.332	3206
339.419	3815
339.506	3585
339.593	157
339.679	2022
339.766	1045
339.853	1887
339.940	2976
340.027	2116
340.113	791
340.200	1846
340.287	808
340.374	2131
340.460	2864
340.547	474
340.634	2534
340.720	10575
340.807	3924
340.894	1904
340.980	796
341.067	1027
341.154	1481
341.240	1973
341.327	4083
341.414	2513
341.500	1388
341.587	1118
341.674	2121
341.760	4047
341.847	2979
341.933	1442
342.020	-65
342.106	801
342.193	747
342.279	2725
342.366	1239
342.452	2671
342.539	1618
342.625	3876
342.712	8321
342.798	3581
342.885	554
342.971	858
343.058	158
343.144	970
343.230	1133
343.317	1841
343.403	-314
343.490	1104
343.576	849
343.662	1066
343.749	1144
343.835	2526
343.921	5687
344.008	43841
344.094	73690
344.180	11875
344.267	4501
344.353	15643
344.439	11842
344.525	6036
344.612	9439
344.698	8070
344.784	4401
344.870	2344
344.957	1338
345.043	2209
345.129	582
345.215	3820
345.301	1629
345.387	714
345.474	503
345.560	1287
345.646	215
345.732	1654
345.818	894
345.904	1632
345.990	1509
346.076	1571
346.162	1785
346.249	1938
346.335	1088
346.421	2100
346.507	8097
346.593	22203
346.679	3394
346.765	1886
346.851	1503
346.937	1221
347.023	2115
347.108	2115
347.194	483
347.280	1783
347.366	2086
347.452	10967
347.538	31674
347.624	19482
347.710	11108
347.796	2478
347.882	1296
347.967	1210
348.053	1092
348.139	1862
348.225	832
348.311	446
348.397	1210
348.482	1588
348.568	1157
348.654	1612
348.740	3563
348.825	3810
348.911	5118
348.997	16571
349.083	26673
349.168	3273
349.254	1414
349.340	2115
349.425	760
349.511	1427
349.597	1798
349.682	4135
349.768	12575
349.854	4871
349.939	1171
350.025	527
350.110	1433
350.196	1399
350.282	517
350.367	1503
350.453	1766
350.538	1557
350.624	658
350.709	1442
350.795	-105
350.880	1171
350.966	1532
351.051	2282
351.137	1122
351.222	1507
351.308	4180
351.393	9212
351.479	1652
351.564	506
351.649	625
351.735	838
351.820	271
351.906	1705
351.991	879
352.076	7095
352.162	7991
352.247	1963
352.332	730
352.418	3043
352.503	3218
352.588	14527
352.673	8825
352.759	1648
352.844	361
352.929	1554
353.014	1140
353.100	1080
353.185	1475
353.270	2695
353.355	2944
353.441	1231
353.526	1544
353.611	3189
353.696	2614
353.781	2343
353.866	-216
353.952	1817
354.037	2663
354.122	6563
354.207	4538
354.292	2213
354.377	616
354.462	1224
354.547	1429
354.632	1229
354.717	1231
354.802	322
354.887	-243
354.972	470
355.057	874
355.142	548
355.227	1269
355.312	2357
355.397	3416
355.482	9816
355.567	3926
355.652	4660
355.737	4420
355.822	16130
355.907	9527
355.991	2590
356.076	86
356.161	1393
356.246	62
356.331	1879
356.416	5235
356.501	39354
356.585	29484
356.670	3260
356.755	3375
356.840	4426
356.924	27831
357.009	86646
357.094	24658
357.179	4164
357.263	2471
357.348	3078
357.433	2128
357.517	2627
357.602	1517
357.687	1779
357.771	4436
357.856	14685
357.941	8061
358.025	27913
358.110	102295
358.195	35074
358.279	3333
358.364	3331
358.448	10290
358.533	25878
358.617	16198
358.702	18225
358.787	5906
358.871	3370
358.956	2597
359.040	1032
359.125	648
359.209	2431
359.294	7161
359.378	10955
359.462	3406
359.547	1300
359.631	908
359.716	1141
359.800	485
359.885	2308
359.969	459
360.053	2266
360.138	477
360.222	1585
360.306	2395
360.391	3388
360.475	7086
360.559	13588
360.644	9501
360.728	6569
360.812	22655
360.896	50551
360.981	14041
361.065	5163
361.149	1700
361.233	1386
361.318	414
361.402	2458
361.486	1372
361.570	1770
361.654	2506
361.739	6661
361.823	38891
361.907	51138
361.991	7600
362.075	4673
362.159	7458
362.243	8458
362.327	12944
362.411	17734
362.495	7408
362.580	4064
362.664	3564
362.748	3613
362.832	6655
362.916	12817
363.000	39730
363.084	74550
363.168	69202
363.252	14307
363.336	5097
363.420	6475
363.503	18017
363.587	17650
363.671	3598
363.755	3267
363.839	5148
363.923	3007
364.007	5877
364.091	7455
364.175	12828
364.258	42445
364.342	51963
364.426	73773
364.510	34107
364.594	13368
364.677	14914
364.761	49414
364.845	28386
364.929	7278
365.013	4554
365.096	4676
365.180	3904
365.264	9312
365.347	27743
365.431	10274
365.515	2188
365.598	1129
365.682	2355
365.766	2148
365.849	1997
365.933	1838
366.017	2924
366.100	1277
366.184	427
366.267	1792
366.351	1217
366.435	602
366.518	662
366.602	1464
366.685	1511
366.769	1909
366.852	2111
366.936	3281
367.019	1973
367.103	1457
367.186	3628
367.270	741
367.353	-137
367.436	2029
367.520	1146
367.603	1439
367.687	873
367.770	3550
367.853	2789
367.937	12837
368.020	15348
368.104	2411
368.187	2839
368.270	3430
368.353	3019
368.437	4912
368.520	10466
368.603	6596
368.687	10596
368.770	18481
368.853	3381
368.936	4165
369.020	3208
369.103	1143
369.186	1
369.269	666
369.352	2738
369.436	3321
369.519	2349
369.602	713
369.685	2437
369.768	39
369.851	1959
369.934	1159
370.018	1497
370.101	1587
370.184	3509
370.267	2410
370.350	2727
370.433	5938
370.516	25445
370.599	40126
370.682	11880
370.765	10188
370.848	15300
370.931	25399
371.014	8359
371.097	725
371.180	1194
371.263	1135
371.346	-238
371.429	1558
371.511	513
371.594	1679
371.677	2771
371.760	4389
371.843	4883
371.926	40935
372.009	75691
372.091	19342
372.174	11785
372.257	28572
372.340	8368
372.423	5262
372.505	5273
372.588	2792
372.671	9557
372.754	24960
372.836	10786
372.919	7890
373.002	12102
373.085	2729
373.167	4758
373.250	11683
373.332	26829
373.415	57340
373.498	104676
373.580	37509
373.663	79509
373.746	84117
373.828	12261
373.911	4698
373.993	4337
374.076	14434
374.159	11157
374.241	8586
374.324	19730
374.406	13981
374.489	33590
374.571	75736
374.654	23535
374.736	15522
374.819	47739
374.901	76260
374.983	70159
375.066	10360
375.148	3817
375.231	12955
375.313	19972
375.395	6325
375.478	1718
375.560	2498
375.643	2597
375.725	17658
375.807	62237
375.890	39588
375.972	8546
376.054	6810
376.136	8851
376.219	4973
376.301	19599
376.383	44879
376.465	14827
376.548	7243
376.630	12416
376.712	35534
376.794	13060
376.877	1722
376.959	428
377.041	1941
377.123	1947
377.205	2949
377.287	162
377.369	1019
377.452	545
377.534	1137
377.616	848
377.698	748
377.780	-827
377.862	1306
377.944	1012
378.026	-224
378.108	692
378.190	739
378.272	1241
378.354	215
378.436	640
378.518	322
378.600	4734
378.682	6241
378.764	12835
378.846	9216
378.928	1992
379.010	2520
379.091	2032
379.173	1863
379.255	-227
379.337	1058
379.419	7342
379.501	18554
379.583	6233
379.664	1575
379.746	3441
379.828	13450
379.910	17967
379.991	14446
380.073	1190
380.155	1988
380.237	684
380.318	1112
380.400	770
380.482	2916
380.564	3294
380.645	2317
380.727	1856
380.809	2740
380.890	1181
380.972	422
381.053	154
381.135	2847
381.217	4752
381.298	11686
381.380	5230
381.461	9234
381.543	39390
381.624	41430
381.706	5661
381.787	2502
381.869	4645
381.951	25310
382.032	80657
382.113	42103
382.195	4791
382.276	4925
382.358	11589
382.439	32094
382.521	45679
382.602	67209
382.684	27023
382.765	40233
382.846	38037
382.928	42385
383.009	21785
383.090	22407
383.172	76416
383.253	100121
383.334	39939
383.416	50453
383.497	22844
383.578	9753
383.659	19326
383.741	78504
383.822	168892
383.903	75361
383.984	33164
384.066	53821
384.147	27465
384.228	6956
384.309	4259
384.390	3335
384.471	3038
384.553	3145
384.634	3425
384.715	4141
384.796	1747
384.877	3615
384.958	14190
385.039	13033
385.120	4171
385.201	3378
385.282	2970
385.363	4131
385.444	3292
385.525	8639
385.606	27500
385.687	21764
385.768	5033
385.849	8014
385.930	40753
386.011	62729
386.092	12807
386.173	4001
386.254	2817
386.335	3583
386.416	3039
386.496	9654
386.577	12235
386.658	4887
386.739	1698
386.820	3667
386.901	1655
386.981	3687
387.062	2820
387.143	4981
387.224	13563
387.304	12768
387.385	5082
387.466	2435
387.547	4131
387.627	3211
387.708	7934
387.789	29763
387.869	31466
387.950	10691
388.031	2579
388.111	1589
388.192	5775
388.273	7918
388.353	4473
388.434	2957
388.514	8445
388.595	37113
388.676	35787
388.756	12556
388.837	11148
388.917	5989
388.998	681
389.078	2339
389.159	2256
389.239	409
389.320	3212
389.400	1430
389.480	6828
389.561	14751
389.641	6550
389.722	3190
389.802	2661
389.883	8502
389.963	19863
390.043	10220
390.124	1705
390.204	6331
390.284	14252
390.365	10413
390.445	27061
390.525	104130
390.605	86470
390.686	13949
390.766	3894
390.846	3608
390.927	1404
391.007	1791
391.087	2766
391.167	1603
391.247	978
391.328	3628
391.408	3729
391.488	3753
391.568	763
391.648	3195
391.728	3666
391.808	4010
391.888	3338
391.969	10401
392.049	12495
392.129	8469
392.209	9979
392.289	20617
392.369	10328
392.449	9303
392.529	6373
392.609	8749
392.689	12074
392.769	24798
392.849	22139
392.929	22852
393.009	39662
393.089	44361
393.169	74913
393.248	257922
393.328	747512
393.408	721361
393.488	217290
393.568	62614
393.648	30728
393.728	19406
393.807	12346
393.887	12108
393.967	9329
394.047	9709
394.127	10200
394.206	17917
394.286	72863
394.366	274326
394.446	264816
394.525	56486
394.605	13555
394.685	9915
394.764	12965
394.844	17481
394.924	13858
395.003	7001
395.083	4464
395.163	4625
395.242	4595
395.322	4829
395.402	3230
395.481	7017
395.561	9995
395.640	23041
395.720	26898
395.799	26914
395.879	19699
395.958	24817
396.038	104333
396.117	356727
396.197	351430
396.276	92412
396.356	28618
396.435	20316
396.515	19246
396.594	27487
396.673	63394
396.753	260671
396.832	650430
396.912	424794
396.991	91361
397.070	29656
397.150	14042
397.229	12469
397.308	17499
397.388	26976
397.467	13090
397.546	6204
397.625	1845
397.705	5948
397.784	3742
397.863	3179
397.942	2198
398.022	2902
398.101	7084
398.180	14485
398.259	6233
398.338	3532
398.417	1377
398.497	1070
398.576	2500
398.655	39
398.734	1547
398.813	1365
398.892	5973
398.971	15517
399.050	5904
399.129	601
399.208	1484
399.287	2416
399.366	-64
399.445	899
399.524	1119
399.603	-581
399.682	1999
399.761	6245
399.840	17976
399.919	12978
399.998	1852
400.077	-11
400.156	-1179
400.235	2216
400.313	-91
400.392	-25
400.471	6044
400.550	9530
400.629	1341
400.708	1815
400.786	886
400.865	2899
400.944	1784
401.023	3169
401.102	-20
401.180	460
401.259	702
401.338	312
401.416	825
401.495	55
401.574	466
401.652	-76
401.731	1336
401.810	182
401.888	438
401.967	-377
402.046	-417
402.124	1213
402.203	183
402.281	990
402.360	929
402.438	4264
402.517	97
402.596	1121
402.674	206
402.753	478
402.831	336
402.910	1351
402.988	542
403.066	1155
403.145	2086
403.223	2404
403.302	999
403.380	1166
403.459	640
403.537	441
403.615	535
403.694	-498
403.772	1638
403.850	484
403.929	519
404.007	834
404.085	1923
404.164	778
404.242	3074
404.320	18821
404.398	52849
404.477	51840
404.555	59996
404.633	51174
404.711	37211
404.789	23044
404.868	3880
404.946	861
405.024	989
405.102	1011
405.180	-449
405.258	-81
405.336	1380
405.415	83
405.493	772
405.571	1538
405.649	24
405.727	-17
405.805	1356
405.883	796
405.961	757
406.039	553
406.117	-934
406.195	2069
406.273	11122
406.351	34864
406.429	18144
406.507	1829
406.585	-305
406.663	1053
406.740	352
406.818	58
406.896	-105
406.974	1499
407.052	2214
407.130	20989
407.208	24096
407.285	4597
407.363	332
407.441	798
407.519	11
407.596	1203
407.674	3313
407.752	12904
407.830	9925
407.907	2571
407.985	-610
408.063	541
408.141	-4
408.218	1688
408.296	-702
408.373	-114
408.451	388
408.529	1034
408.606	-29
408.684	386
408.762	233
408.839	453
408.917	-378
408.994	652
409.072	-674
409.149	1245
409.227	2197
409.304	3150
409.382	3358
409.459	3940
409.537	5657
409.614	4649
409.692	3907
409.769	4149
409.846	5206
409.924	8259
410.001	3462
410.079	3731
410.156	2761
410.233	2919
410.311	1996
410.388	1139
410.465	446
410.543	691
410.620	1019
410.697	1736
410.775	174
410.852	-476
410.929	1324
411.006	1543
411.083	42
411.161	868
411.238	1764
411.315	1774
411.392	428
411.469	1901
411.547	26
411.624	-387
411.701	-250
411.778	598
411.855	555
411.932	-184
412.009	-528
412.086	241
412.163	-82
412.240	412
412.317	563
412.394	845
412.471	336
412.548	-422
412.625	275
412.702	70
412.779	611
412.856	833
412.933	-816
413.010	617
413.087	909
413.164	5096
413.241	6647
413.318	310
413.395	1008
413.471	889
413.548	-55
413.625	627
413.702	-1195
413.779	-189
413.855	-501
413.932	-189
414.009	-1163
414.086	-172
414.162	-115
414.239	1302
414.316	5617
414.393	11587
414.469	2442
414.546	-47
414.623	-429
414.699	141
414.776	-497
414.853	-239
414.929	-397
415.006	-886
415.082	-275
415.159	179
415.236	-186
415.312	488
415.389	941
415.465	1051
415.542	271
415.618	-1173
415.695	285
415.771	-78
415.848	121
415.924	684
416.000	-1274
416.077	557
416.153	-695
416.230	-823
416.306	-1111
416.383	-198
416.459	-43
416.535	-747
416.612	-887
416.688	174
416.764	-725
416.841	-917
416.917	-1141
416.993	216
417.069	169
417.146	432
417.222	1206
417.298	-127
417.374	-1199
417.451	1032
417.527	-319
417.603	-394
417.679	-929
417.755	467
417.831	-1254
417.908	-492
417.984	-803
418.060	-1172
418.136	1107
418.212	301
418.288	-246
418.364	62
418.440	-1165
418.516	-231
418.592	410
418.668	2078
418.744	1557
418.820	812
418.896	-489
418.972	-873
419.048	-714
419.124	1621
419.200	-13
419.276	390
419.352	-1080
419.428	339
419.504	-1217
419.579	592
419.655	-105
419.731	19
419.807	1710
419.883	3549
419.959	1963
420.034	850
420.110	1181
420.186	7452
420.262	4835
420.337	176
420.413	519
420.489	303
420.565	180
420.640	-77
420.716	633
420.792	-387
420.867	927
420.943	-309
421.019	1314
421.094	649
421.170	436
421.245	855
421.321	1055
421.397	1129
421.472	3671
421.548	6887
421.623	5277
421.699	2971
421.774	2789
421.850	3040
421.925	4638
422.001	4942
422.076	5908
422.152	7189
422.227	10627
422.302	15495
422.378	24701
422.453	45920
422.529	109019
422.604	259843
422.679	358314
422.755	243291
422.830	100898
422.905	43932
422.981	23627
423.056	16288
423.131	11349
423.207	8457
423.282	5329
423.357	6975
423.432	4447
423.508	4228
423.583	4138
423.658	4466
423.733	1993
423.808	2128
423.883	2012
423.959	2726
424.034	1337
424.109	2474
424.184	451
424.259	1637
424.334	533
424.409	-75
424.484	140
424.559	181
424.634	-55
424.709	921
424.784	324
424.859	543
424.934	204
425.009	5173
425.084	6955
425.159	2446
425.234	1070
425.309	-84
425.384	2868
425.459	4489
425.534	809
425.609	448
425.683	-334
425.758	-429
425.833	-744
425.908	967
425.983	3028
426.058	7643
426.132	2700
426.207	147
426.282	1373
426.357	-62
426.431	-634
426.506	-49
426.581	-506
426.655	-580
426.730	381
426.805	-775
426.879	246
426.954	716
427.029	1243
427.103	12176
427.178	26006
427.253	9845
427.327	34
427.402	1351
427.476	5221
427.551	2536
427.625	428
427.700	-488
427.774	-500
427.849	278
427.923	-739
427.998	167
428.072	-358
428.147	4583
428.221	28177
428.296	79363
428.370	39849
428.444	3586
428.519	817
428.593	2294
428.667	1075
428.742	3595
428.816	10317
428.890	49883
428.965	72453
429.039	17288
429.113	3295
429.188	731
429.262	-326
429.336	998
429.410	3357
429.485	3085
429.559	1440
429.633	2198
429.707	401
429.781	8583
429.855	45673
429.930	62358
430.004	18681
430.078	17194
430.152	35981
430.226	116258
430.300	106512
430.374	16209
430.448	3652
430.522	6255
430.596	13747
430.670	20230
430.744	72323
430.818	78821
430.892	11921
430.966	1048
431.040	459
431.114	-760
431.188	-751
431.262	-144
431.336	-613
431.410	1122
431.484	2340
431.557	1940
431.631	-553
431.705	2154
431.779	19668
431.853	75402
431.927	46811
432.000	5959
432.074	453
432.148	392
432.222	-569
432.295	-303
432.369	-683
432.443	901
432.516	11706
432.590	26630
432.664	7563
432.737	-306
432.811	-1184
432.885	-848
432.958	-14
433.032	-494
433.106	-1465
433.179	-746
433.253	-1002
433.326	-63
433.400	-1247
433.473	74
433.547	-2038
433.620	-624
433.694	-708
433.767	1004
433.841	-1237
433.914	-787
433.988	-682
434.061	-1165
434.134	-1780
434.208	-946
434.281	-2049
434.355	-335
434.428	-1395
434.501	-1364
434.575	-1013
434.648	-833
434.721	-758
434.795	-853
434.868	-1669
434.941	-1003
435.014	-830
435.088	-231
435.161	246
435.234	362
435.307	219
435.381	495
435.454	268
435.527	1704
435.600	1523
435.673	1791
435.746	1420
435.819	29
435.892	-69
435.966	-500
436.039	-694
436.112	-828
436.185	-1455
436.258	-1467
436.331	-1527
436.404	-1077
436.477	-1185
436.550	-888
436.623	-1162
436.696	-543
436.769	-914
436.842	-279
436.915	-1291
436.987	-516
437.060	-1343
437.133	40
437.206	-1125
437.279	-508
437.352	-1945
437.425	-837
437.498	-885
437.570	191
437.643	-704
437.716	-644
437.789	-1534
437.861	-476
437.934	586
438.007	-429
438.080	-1123
438.152	22
438.225	1374
438.298	20905
438.370	45575
438.443	14612
438.516	1129
438.588	-279
438.661	-1599
438.734	-512
438.806	-1418
438.879	-512
438.951	-648
439.024	-349
439.096	-1766
439.169	-579
439.241	-1462
439.314	-690
439.386	-1358
439.459	-447
439.531	-935
439.604	-722
439.676	-1356
439.749	-779
439.821	-1580
439.893	-311
439.966	-846
440.038	-375
440.110	-549
440.183	-787
440.255	-1294
440.327	-54
440.400	5540
440.472	22548
440.544	11843
440.617	662
440.689	473
440.761	714
440.833	106
440.905	471
440.978	-1266
441.050	-930
441.122	-76
441.194	-569
441.266	-706
441.338	-969
441.411	-43
441.483	5544
441.555	6478
441.627	1520
441.699	-415
441.771	-280
441.843	-1168
441.915	-386
441.987	-976
442.059	-193
442.131	-120
442.203	1279
442.275	906
442.347	2390
442.419	7545
442.491	43641
442.563	88443
442.635	35247
442.706	7362
442.778	4102
442.850	603
442.922	584
442.994	-179
443.066	717
443.137	1570
443.209	2880
443.281	3672
443.353	12907
443.425	58155
443.496	171500
443.568	152679
443.640	54420
443.711	10103
443.783	3982
443.855	1272
443.926	949
443.998	87
444.070	454
444.141	-270
444.213	403
444.285	1148
444.356	612
444.428	-399
444.499	137
444.571	-386
444.642	357
444.714	-649
444.785	1036
444.857	1146
444.928	2484
445.000	1534
445.071	2443
445.143	3075
445.214	4638
445.285	9136
445.357	30950
445.428	126537
445.500	238761
445.571	143522
445.642	77097
445.714	23970
445.785	9385
445.856	2857
445.928	2027
445.999	1029
446.070	1274
446.141	461
446.213	1137
446.284	-1087
446.355	895
446.426	-628
446.497	556
446.569	15
446.640	-272
446.711	-478
446.782	-189
446.853	-704
446.924	50
446.995	-1100
447.066	-134
447.138	-213
447.209	-495
447.280	-1590
447.351	-432
447.422	-1125
447.493	-646
447.564	-485
447.635	-484
447.706	-1087
447.777	-1361
447.847	-978
447.918	-803
447.989	-1512
448.060	68
448.131	-83
448.202	815
448.273	-881
448.344	-641
448.414	-671
448.485	-509
448.556	-1572
448.627	-1079
448.698	-54
448.768	-670
448.839	-727
448.910	-440
448.981	-191
449.051	-1109
449.122	-2022
449.193	-266
449.263	-830
449.334	-749
449.405	-777
449.475	-325
449.546	-582
449.616	437
449.687	-301
449.758	-544
449.828	-1200
449.899	-587
449.969	-1459
450.040	-1637
450.110	-1488
450.181	-573
450.251	-920
450.322	-625
450.392	-929
450.463	-389
450.533	-668
450.604	-337
450.674	-1269
450.744	-466
450.815	-1212
450.885	-1010
450.955	-934
451.026	-22
451.096	-1524
451.166	-1171
451.237	-61
451.307	985
451.377	-416
451.447	-971
451.518	-454
451.588	-1012
451.658	-604
451.728	73
451.799	1336
451.869	2104
451.939	-495
452.009	-594
452.079	-736
452.149	-81
452.219	-583
452.289	2191
452.360	1214
452.430	68
452.500	181
452.570	939
452.640	2399
452.710	7106
452.780	8668
452.850	5804
452.920	2672
452.990	957
453.060	566
453.129	279
453.199	-684
453.269	4990
453.339	7612
453.409	10263
453.479	11063
453.549	14915
453.619	14215
453.688	4213
453.758	188
453.828	-838
453.898	-196
453.968	-1032
454.037	-305
454.087	-728
454.107	-917
454.168	-463
454.177	-414
454.247	-332
454.249	-360
454.316	-1597
454.330	-1209
454.386	247
454.411	213
454.456	3
454.492	750
454.525	1409
454.574	317
454.595	-185
454.655	-404
454.665	-446
454.734	-747
454.736	-698
454.804	-90
454.817	310
454.873	1663
454.898	1810
454.943	2082
454.979	1132
455.013	284
455.060	138
455.082	107
455.141	-74
455.152	-0
455.221	4666
455.222	4777
455.291	7524
455.303	9206
455.360	15184
455.384	20695
455.430	28102
455.465	19193
455.499	11885
455.546	5963
455.569	3178
455.627	1716
455.638	1487
455.707	-304
455.708	-282
455.777	-364
455.789	-355
455.846	-226
455.869	-40
455.916	202
455.950	318
455.985	411
456.031	225
456.054	71
456.112	-223
456.124	-244
456.193	794
456.193	776
456.262	283
456.274	418
456.332	1104
456.355	1006
456.401	632
456.436	436
456.470	270
456.516	443
456.540	438
456.597	-288
456.609	-403
456.678	1009
456.678	996
456.747	-66
456.759	-74
456.817	33
456.840	141
456.886	203
456.920	378
456.955	559
457.001	904
457.024	1099
457.082	1047
457.093	991
457.162	1861
457.163	1878
457.232	1049
457.243	1094
457.301	1321
457.324	1196
457.370	1079
457.405	1650
457.439	2090
457.485	1766
457.508	1665
457.566	2423
457.577	2703
457.646	3982
457.647	4024
457.715	7719
457.727	8591
457.784	13623
457.808	17253
457.853	21166
457.889	23804
457.922	23662
457.969	19230
457.991	20042
458.050	22794
458.060	23497
458.129	36783
458.130	37207
458.198	34252
458.211	31344
458.267	19829
458.292	14742
458.336	11081
458.372	10793
458.405	14577
458.453	20327
458.474	23973
458.533	39586
458.543	40609
458.611	55581
458.614	55920
458.680	35868
458.694	29396
458.749	16014
458.775	11580
458.818	7440
458.855	5939
458.887	5114
458.936	3950
458.955	3537
459.016	2900
459.024	2882
459.093	3490
459.097	3484
459.162	2317
459.177	2288
459.230	2733
459.257	2851
459.299	2867
459.338	3152
459.368	3321
459.418	3370
459.437	3303
459.499	2657
459.505	2618
459.574	2296
459.579	2308
459.643	2183
459.659	2240
459.711	2566
459.740	2603
459.780	2702
459.820	2663
459.849	2465
459.900	2652
459.917	2743
459.981	2927
459.986	2944
460.054	3566
460.061	3546
460.123	2986
460.141	3043
460.191	3576
460.222	3586
460.260	3352
460.302	3533
460.328	3658
460.382	3667
460.397	3616
460.462	3667
460.465	3861
460.534	8095
460.543	8746
460.602	17493
460.623	20658
460.671	31303
460.703	40617
460.739	32630
460.783	20432
460.808	17979
460.864	6590
460.876	5494
460.944	3344
460.945	3318
461.013	2773
461.024	2745
461.081	2635
461.104	2872
461.150	3536
461.184	3461
461.218	3317
461.264	3591
461.286	3569
461.345	2967
461.355	2919
461.423	3708
461.425	3694
461.491	3012
461.505	3064
461.559	4384
461.585	4894
461.628	6286
461.665	7865
461.696	7880
461.745	7752
461.764	6947
461.825	3427
461.832	3406
461.901	3446
461.905	3500
461.969	3241
461.985	3117
462.037	4014
462.065	4384
462.105	4334
462.145	4334
462.173	4603
462.225	5260
462.241	5436
462.305	6020
462.310	5895
462.378	4485
462.385	4204
462.446	3904
462.465	4057
462.514	4089
462.545	3696
462.582	3440
462.625	3909
462.650	3993
462.705	3624
462.718	3638
462.785	3846
462.786	3852
462.854	3630
462.865	3747
462.922	5039
462.945	5318
462.990	4657
463.025	4030
463.058	3878
463.104	3756
463.126	3647
463.184	3632
463.194	3772
463.262	4319
463.264	4359
463.330	4652
463.344	4573
463.398	4563
463.424	4570
463.466	4225
463.504	4090
463.533	4236
463.583	4211
463.601	4142
463.663	3805
463.669	3846
463.737	4955
463.743	4974
463.805	5827
463.823	6210
463.873	8183
463.903	9388
463.940	9178
463.982	9037
464.008	8116
464.062	5504
464.076	5438
464.142	5327
464.144	5330
464.211	5165
464.221	5186
464.279	4765
464.301	4521
464.347	4469
464.381	4468
464.414	4728
464.461	4984
464.482	5223
464.540	6062
464.550	6028
464.617	5312
464.620	5290
464.685	6753
464.699	7002
464.753	7864
464.779	8401
464.820	8640
464.859	8721
464.888	7959
464.938	6671
464.956	6930
465.018	7783
465.023	7782
465.091	7488
465.098	7446
465.158	6944
465.177	6817
465.226	6635
465.257	6421
465.293	6806
465.336	7242
465.361	7458
465.416	8010
465.428	8264
465.495	9519
465.496	9543
465.563	10356
465.575	10553
465.631	11952
465.654	12450
465.698	9419
465.734	6869
465.765	6866
465.813	6671
465.833	6843
465.893	7576
465.900	7539
465.968	7006
465.972	6957
466.035	6984
466.052	6968
466.102	6596
466.131	6352
466.170	6642
466.210	6946
466.237	7104
466.290	7362
466.304	7269
466.369	6699
466.372	6723
466.439	7037
466.449	7074
466.506	7612
466.528	7811
466.573	9480
466.607	10649
466.641	12338
466.687	14681
466.708	15217
466.766	16624
466.775	15762
466.842	8948
466.845	8609
466.909	7919
466.925	7734
466.977	8639
467.004	9107
467.044	9537
467.083	9929
467.111	10651
467.163	11951
467.178	12199
467.242	13095
467.245	13039
467.312	11319
467.321	11068
467.379	11128
467.400	11115
467.446	11183
467.480	11192
467.559	10775
467.638	10433
467.717	10476
467.796	10895
467.875	12233
467.955	10940
468.034	14326
468.113	19027
468.192	22850
468.271	13424
468.350	15241
468.429	15827
468.508	15705
468.588	12927
468.667	11652
468.746	10766
468.825	10881
468.904	9679
468.983	10675
469.062	12063
469.141	12828
469.220	10006
469.299	10279
469.378	10201
469.456	13601
469.535	11413
469.614	10175
469.693	10757
469.772	11760
469.851	12911
469.930	10239
470.009	10319
470.088	10323
470.166	11016
470.245	11406
470.324	12457
470.403	11720
470.482	10134
470.560	10911
470.639	9006
470.718	11166
470.797	9993
470.875	10586
470.954	10916
471.033	11439
471.111	8610
471.190	9446
471.269	8495
471.347	8669
471.426	9619
471.505	10650
471.583	11535
471.662	10651
471.740	9324
471.819	10141
471.898	8688
471.976	9748
472.055	8329
472.133	10295
472.212	10853
472.290	9833
472.369	8363
472.447	9799
472.526	7905
472.604	10241
472.683	9087
472.761	9005
472.839	8547
472.918	8803
472.996	8453
473.075	9752
473.153	9344
473.231	9358
473.310	9193
473.388	8837
473.466	8739
473.545	11147
473.623	10790
473.701	9749
473.780	8723
473.858	8890
473.936	10738
474.014	9927
474.093	9993
474.171	11451
474.249	11531
474.327	9393
474.405	8387
474.484	9083
474.562	8393
474.640	8491
474.718	8113
474.796	8186
474.874	8340
474.952	8320
475.030	7220
475.108	8112
475.187	7790
475.265	8989
475.343	8516
475.421	9121
475.499	8069
475.577	8631
475.655	9418
475.733	12455
475.811	15860
475.889	14746
475.966	10383
476.044	8253
476.122	8037
476.200	7847
476.278	7501
476.356	7785
476.434	7729
476.512	7968
476.590	7568
476.667	8350
476.745	7515
476.823	7737
476.901	7447
476.979	8528
477.056	7759
477.134	7940
477.212	8141
477.290	7166
477.367	7546
477.445	7563
477.523	6992
477.601	7615
477.678	7981
477.756	8220
477.834	8212
477.911	7251
477.989	6965
478.066	7409
478.144	7499
478.222	7186
478.299	6404
478.377	8230
478.454	7886
478.532	7362
478.609	6846
478.687	7912
478.764	6703
478.842	7530
478.919	7594
478.997	7700
479.074	6919
479.152	7779
479.229	8561
479.307	6700
479.384	6077
479.461	7015
479.539	6212
479.616	7785
479.694	7186
479.771	8032
479.848	7219
479.926	7478
480.003	8480
480.080	7118
480.157	7075
480.235	6739
480.312	7175
480.389	7195
480.467	7138
480.544	9221
480.621	7287
480.698	7908
480.775	8480
480.853	8694
480.930	7140
481.007	7298
481.084	8287
481.161	9507
481.238	7849
481.315	7079
481.392	7008
481.470	7713
481.547	6799
481.624	6345
481.701	7073
481.778	7650
481.855	7192
481.932	9060
482.009	12520
482.086	9447
482.163	7974
482.240	9183
482.317	8505
482.393	7001
482.470	8380
482.547	7894
482.624	7183
482.701	7517
482.778	6702
482.855	7056
482.932	7112
483.009	7921
483.085	8568
483.162	9217
483.239	9441
483.316	7562
483.393	8747
483.469	8040
483.546	8704
483.623	8770
483.699	7693
483.776	7440
483.853	7363
483.930	10042
484.006	14947
484.083	23114
484.160	23960
484.236	34274
484.313	24683
484.389	20766
484.466	20283
484.543	19196
484.619	20064
484.696	20390
484.772	18051
484.849	19150
484.925	16573
485.002	17549
485.078	17677
485.155	17760
485.231	14973
485.308	15792
485.384	15810
485.461	17495
485.537	20058
485.614	20988
485.690	16054
485.766	14822
485.843	15861
485.919	17534
485.995	17032
486.072	14479
486.148	14690
486.224	13912
486.301	14523
486.377	14976
486.453	14478
486.530	17267
486.606	22050
486.682	21677
486.758	21268
486.835	20972
486.911	18789
486.987	26064
487.063	25721
487.139	29801
487.215	24133
487.292	20007
487.368	19976
487.444	21459
487.520	26974
487.596	33533
487.672	65019
487.748	151131
487.824	202465
487.900	80227
487.976	36043
488.052	23891
488.128	21175
488.204	18147
488.280	15827
488.356	17210
488.432	22202
488.508	24535
488.584	14725
488.660	14481
488.736	13686
488.812	14171
488.888	16544
488.964	18113
489.039	26994
489.115	33869
489.191	20046
489.267	13290
489.343	12247
489.418	11898
489.494	12291
489.570	10313
489.646	12641
489.722	11955
489.797	12525
489.873	15335
489.949	19503
490.024	17064
490.100	10492
490.176	11661
490.251	12100
490.327	13948
490.403	10188
490.478	11679
490.554	10468
490.629	10136
490.705	10238
490.781	11358
490.856	9242
490.932	12411
491.007	10937
491.083	11525
491.158	8856
491.234	12693
491.309	15514
491.385	14163
491.460	9461
491.536	12303
491.611	9747
491.686	10376
491.762	12292
491.837	17967
491.913	23681
491.988	31731
492.063	33770
492.139	13048
492.214	10291
492.289	8679
492.365	8262
492.440	9889
492.515	9797
492.590	10272
492.666	8576
492.741	10682
492.816	10376
492.891	8989
492.967	8972
493.042	9206
493.117	8967
493.192	12894
493.267	29907
493.342	79618
493.418	85132
493.493	14009
493.568	8080
493.643	9056
493.718	9114
493.793	10918
493.868	10879
493.943	9234
494.018	7929
494.093	7877
494.168	7993
494.243	7959
494.318	7992
494.393	8154
494.468	6607
494.543	7844
494.618	8425
494.693	7047
494.768	7329
494.842	7535
494.917	7210
494.992	7656
495.067	7847
495.142	8321
495.217	8133
495.292	7553
495.366	8468
495.441	8499
495.516	10846
495.591	14483
495.665	33382
495.740	57933
495.815	19872
495.890	9439
495.964	7586
496.039	10134
496.114	8395
496.188	9497
496.263	8774
496.338	7289
496.412	8596
496.487	10211
496.561	9456
496.636	9832
496.710	8943
496.785	8836
496.860	8924
496.934	7087
497.009	8050
497.083	7617
497.158	7622
497.232	8644
497.307	8642
497.381	8876
497.455	8902
497.530	10304
497.604	7434
497.679	7997
497.753	9969
497.827	10682
497.902	8573
497.976	12791
498.050	34642
498.125	97082
498.199	71982
498.273	12565
498.348	9759
498.422	9335
498.496	9027
498.570	9221
498.645	8031
498.719	6652
498.793	8938
498.867	11661
498.941	16396
499.016	46839
499.090	90487
499.164	24811
499.238	7615
499.312	7746
499.386	8348
499.460	7945
499.534	6887
499.609	8191
499.683	9235
499.757	10392
499.831	23522
499.905	66034
499.979	45560
500.053	11416
500.127	11995
500.201	8015
500.275	7457
500.349	7928
500.422	7442
500.496	10275
500.570	19269
500.644	40828
500.718	57293
500.792	13278
500.866	7879
500.940	9212
501.013	7602
501.087	7995
501.161	10974
501.235	12006
501.309	26883
501.382	56686
501.456	39192
501.530	14866
501.603	17999
501.677	8321
501.751	4826
501.825	8912
501.898	11810
501.972	24314
502.046	12268
502.119	7125
502.193	14382
502.266	24243
502.340	12129
502.413	15162
502.487	21132
502.561	12158
502.634	6825
502.708	6885
502.781	6593
502.855	5979
502.928	4827
503.002	6389
503.075	5113
503.149	5416
503.222	6370
503.295	5910
503.369	7823
503.442	9796
503.516	23130
503.589	40853
503.662	25101
503.736	14682
503.809	25421
503.882	22520
503.956	36447
504.029	44557
504.102	76090
504.175	90046
504.249	39602
504.322	21458
504.395	13556
504.468	10325
504.542	8885
504.615	7409
504.688	6231
504.761	6088
504.834	6462
504.907	8306
504.980	8152
505.053	6283
505.127	5191
505.200	9115
505.273	6900
505.346	4809
505.419	4131
505.492	6200
505.565	4308
505.638	5961
505.711	4463
505.784	3564
505.857	4858
505.930	7005
506.003	3733
506.076	6374
506.149	4822
506.221	4748
506.294	6787
506.367	13118
506.440	29334
506.513	13952
506.586	6709
506.659	4662
506.731	4858
506.804	5670
506.877	5242
506.950	5951
507.022	4837
507.095	5705
507.168	5618
507.241	4957
507.313	3904
507.386	4395
507.459	6730
507.531	4849
507.604	3872
507.677	6365
507.749	3540
507.822	8126
507.894	11154
507.967	13879
508.040	8369
508.112	8290
508.185	7924
508.257	6035
508.330	9659
508.402	7592
508.475	8535
508.547	8528
508.620	7416
508.692	8848
508.765	7316
508.837	6839
508.909	6722
508.982	7158
509.054	7234
509.127	6928
509.199	6178
509.271	6034
509.344	5252
509.416	7247
509.488	6614
509.560	7488
509.633	6816
509.705	9059
509.777	9118
509.849	11331
509.922	9902
509.994	9709
510.066	10145
510.138	10284
510.210	16377
510.283	12860
510.355	10971
510.427	9968
510.499	8829
510.571	9083
510.643	8160
510.715	12325
510.787	8011
510.859	9739
510.931	8831
511.003	11366
511.076	11127
511.148	8623
511.219	11132
511.291	12830
511.363	12443
511.435	9772
511.507	7858
511.579	9074
511.651	9091
511.723	8523
511.795	6803
511.867	7102
511.939	8934
512.010	10208
512.082	9218
512.154	7001
512.226	7795
512.298	12011
512.369	12369
512.441	10810
512.513	10421
512.585	8048
512.656	9599
512.728	7913
512.800	6875
512.871	8370
512.943	7817
513.015	5709
513.086	7643
513.158	7594
513.230	7478
513.301	8434
513.373	9632
513.444	7528
513.516	6412
513.588	7270
513.659	7239
513.731	8126
513.802	6106
513.874	13186
513.945	13629
514.016	6774
514.088	6945
514.159	6434
514.231	9274
514.302	11585
514.374	9138
514.445	7340
514.516	12813
514.588	9127
514.659	7942
514.730	9948
514.802	9748
514.873	5344
514.944	9733
515.016	7685
515.087	7181
515.158	9561
515.229	9496
515.301	5605
515.372	8055
515.443	6118
515.514	6030
515.585	5291
515.656	7058
515.728	7398
515.799	5359
515.870	7975
515.941	7581
516.012	6721
516.083	9881
516.154	8778
516.225	10991
516.296	10848
516.367	8466
516.438	10223
516.509	9680
516.580	14694
516.651	44212
516.722	106799
516.793	36826
516.864	12883
516.935	12393
517.006	14341
517.077	18254
517.148	44415
517.219	147953
517.289	163119
517.360	41795
517.431	16172
517.502	7606
517.573	9689
517.643	9251
517.714	10644
517.785	10417
517.856	10584
517.926	12837
517.997	13961
518.068	14553
518.138	20433
518.209	32060
518.280	122836
518.350	315729
518.421	92960
518.492	22027
518.562	19848
518.633	22900
518.703	33847
518.774	71317
518.845	131446
518.915	96509
518.986	37464
519.056	23402
519.127	22993
519.197	25310
519.268	36943
519.338	21135
519.408	11774
519.479	11674
519.549	8485
519.620	8814
519.690	6607
519.760	7436
519.831	6166
519.901	5989
519.971	7171
520.042	5952
520.112	6920
520.182	9081
520.253	8309
520.323	7728
520.393	10335
520.463	14497
520.534	9678
520.604	18321
520.674	8535
520.744	10095
520.814	20742
520.885	13599
520.955	17323
521.025	38044
521.095	12883
521.165	7461
521.235	6222
521.305	4386
521.375	6155
521.445	7515
521.515	6692
521.585	8039
521.655	5050
521.725	8169
521.795	6916
521.865	3625
521.935	9683
522.005	5811
522.075	4953
522.145	6921
522.215	5613
522.285	6866
522.355	9146
522.424	12415
522.494	9709
522.564	7643
522.634	15487
522.704	28315
522.774	9551
522.843	5548
522.913	6351
522.983	6238
523.053	5523
523.122	5647
523.192	7590
523.262	17482
523.331	11792
523.401	5810
523.471	5547
523.540	4916
523.610	4407
523.680	5187
523.749	5105
523.819	6162
523.888	4616
523.958	4903
524.027	5780
524.097	6104
524.166	5877
524.236	5045
524.305	7497
524.375	4348
524.444	4691
524.514	6784
524.583	5758
524.653	4225
524.722	6819
524.791	4208
524.861	7274
524.930	4027
524.999	5166
525.069	6625
525.138	6288
525.207	6677
525.277	6798
525.346	6160
525.415	7714
525.484	7383
525.554	8215
525.623	10577
525.692	11625
525.761	13198
525.830	15210
525.900	19256
525.969	31081
526.038	54266
526.107	139385
526.176	308231
526.245	190490
526.314	75703
526.383	180420
526.452	205899
526.522	375751
526.591	238258
526.660	49106
526.729	30884
526.797	38476
526.867	77359
526.935	269976
527.004	622546
527.073	257434
527.142	35092
527.211	17991
527.280	13912
527.349	11662
527.418	6170
527.487	8870
527.555	5259
527.624	6344
527.693	3827
527.762	7673
527.831	4129
527.899	6410
527.968	4704
528.037	4227
528.106	6037
528.174	7586
528.243	7252
528.312	7981
528.380	8094
528.449	4681
528.518	6391
528.586	3412
528.655	5633
528.723	4656
528.792	3821
528.861	4599
528.929	2764
528.998	6277
529.066	6194
529.135	8567
529.203	6630
529.272	8411
529.340	11208
529.409	10414
529.477	8424
529.545	8695
529.614	12036
529.682	12185
529.751	12828
529.819	16623
529.887	13889
529.956	12356
530.024	12901
530.092	11145
530.161	12757
530.229	13756
530.297	12392
530.365	13417
530.434	14209
530.502	12395
530.570	12418
530.638	10190
530.707	11000
530.775	12374
530.843	9978
530.911	12105
530.979	12266
531.047	12342
531.115	12675
531.183	12128
531.252	11914
531.320	11428
531.388	10003
531.456	13549
531.524	10725
531.592	13773
531.660	16410
531.728	12966
531.796	11570
531.864	13291
531.932	12796
532.000	13396
532.067	14500
532.135	16698
532.203	18010
532.271	18507
532.339	23395
532.407	27496
532.475	20501
532.542	17923
532.610	16489
532.678	19721
532.746	46153
532.814	61004
532.881	21628
532.949	16248
533.017	14600
533.084	14537
533.152	13314
533.220	14256
533.287	12992
533.355	14258
533.423	14611
533.490	14755
533.558	14646
533.625	15623
533.693	14627
533.761	15396
533.828	15192
533.896	17351
533.963	25829
534.031	26359
534.098	26014
534.166	21023
534.233	18957
534.300	22152
534.368	20846
534.435	18732
534.503	20107
534.570	19490
534.637	18369
534.705	19943
534.772	23454
534.840	47049
534.907	173042
534.974	129122
535.041	21341
535.109	15439
535.176	12045
535.243	13567
535.310	13344
535.378	11939
535.445	11688
535.512	12332
535.579	11812
535.646	11375
535.714	11233
535.781	14971
535.848	15110
535.915	17604
535.982	19862
536.049	19391
536.116	17492
536.183	15481
536.250	13471
536.317	12453
536.384	13410
536.451	14463
536.518	13863
536.585	10670
536.652	13326
536.719	14471
536.786	9992
536.853	10411
536.920	12842
536.987	14083
537.053	14248
537.120	40410
537.187	22184
537.254	10234
537.321	10160
537.388	10342
537.454	7948
537.521	8410
537.588	7877
537.654	10464
537.721	10195
537.788	10420
537.855	9016
537.921	9633
537.988	8007
538.055	10413
538.121	7098
538.188	8405
538.254	10197
538.321	11562
538.388	9974
538.454	8856
538.521	8198
538.587	8303
538.654	7144
538.720	8391
538.787	7705
538.853	8355
538.920	8477
538.986	8153
539.053	7120
539.119	8197
539.185	7246
539.252	9548
539.318	9727
539.385	10379
539.451	8146
539.517	9782
539.583	9170
539.650	16071
539.716	21599
539.782	9749
539.849	6956
539.915	8308
539.981	7843
540.047	8880
540.114	7807
540.180	9714
540.246	6999
540.312	9194
540.378	11441
540.444	12985
540.510	16988
540.576	25917
540.643	8974
540.709	7083
540.775	7703
540.841	7798
540.907	8407
540.973	12096
541.039	9550
541.105	9906
541.171	8100
541.237	7942
541.303	7982
541.369	9614
541.435	9477
541.500	11823
541.566	7254
541.632	6870
541.698	7882
541.764	7516
541.830	6410
541.896	6315
541.961	7579
542.027	6589
542.093	6992
542.159	8630
542.224	6875
542.290	11209
542.356	11033
542.421	11676
542.487	9831
542.553	7314
542.618	7639
542.684	7147
542.750	7397
542.815	8763
542.881	12054
542.947	26750
543.012	14129
543.078	7646
543.143	6588
543.209	7615
543.274	6427
543.340	8472
543.405	14610
543.471	13938
543.536	7908
543.602	7542
543.667	6621
543.732	8384
543.798	6796
543.863	7152
543.928	6745
543.994	6878
544.059	7552
544.124	8159
544.190	7048
544.255	8113
544.320	8578
544.386	7542
544.451	9545
544.516	9181
544.581	9903
544.646	20513
544.712	20082
544.777	9989
544.842	8306
544.907	7904
544.972	8191
545.037	8601
545.102	8646
545.168	8791
545.233	8997
545.298	10068
545.363	9404
545.428	11243
545.493	16181
545.558	20317
545.623	10385
545.688	8864
545.753	9338
545.818	9577
545.883	10957
545.947	10364
546.012	10392
546.077	10093
546.142	11938
546.207	11495
546.272	12762
546.337	11837
546.401	13163
546.466	12318
546.531	11605
546.596	13589
546.661	14141
546.725	15199
546.790	14820
546.855	16113
546.919	15418
546.984	18784
547.049	19371
547.113	22420
547.178	24166
547.243	27499
547.307	31462
547.372	34279
547.436	34236
547.501	36141
547.565	37097
547.630	34896
547.695	33742
547.759	34622
547.823	34293
547.888	35283
547.952	35941
548.017	38355
548.081	38566
548.146	38805
548.210	38206
548.274	40283
548.339	40068
548.403	36945
548.468	34269
548.532	34585
548.596	34561
548.660	35223
548.725	39811
548.789	42106
548.853	40916
548.917	39468
548.982	38723
549.046	34901
549.110	30334
549.174	33330
549.238	37892
549.303	40726
549.367	41342
549.431	37829
549.495	36328
549.559	37561
549.623	45286
549.687	45994
549.751	48982
549.815	56830
549.879	53351
549.943	53228
550.007	55583
550.071	53383
550.135	48535
550.199	46376
550.263	45712
550.327	44698
550.391	46562
550.455	51836
550.519	52179
550.582	58666
550.646	66904
550.710	65639
550.774	63301
550.838	64316
550.901	66953
550.965	71820
551.029	74566
551.093	82171
551.156	91014
551.220	102053
551.284	98478
551.347	79423
551.411	77878
551.475	73277
551.538	69838
551.602	62382
551.666	59100
551.729	55514
551.793	55923
551.856	56101
551.920	54354
551.983	54023
552.047	51777
552.110	53319
552.174	52630
552.237	53675
552.301	49999
552.364	48726
552.428	47017
552.491	50027
552.554	48931
552.618	50282
552.681	50792
552.745	48946
552.808	54106
552.871	56316
552.934	52280
552.998	50181
553.061	49310
553.124	48411
553.187	48556
553.251	50480
553.314	50883
553.377	55161
553.440	71045
553.503	132490
553.567	129774
553.630	58495
553.693	53769
553.756	53747
553.819	51645
553.882	49661
553.945	50752
554.008	49838
554.071	50484
554.134	52518
554.197	47359
554.260	46697
554.323	48825
554.386	49564
554.449	50831
554.512	50826
554.575	48248
554.638	47343
554.701	47225
554.764	47114
554.827	46272
554.889	44194
554.952	41440
555.015	40347
555.078	40788
555.141	41622
555.203	40379
555.266	40819
555.329	39610
555.391	38778
555.454	38184
555.517	37157
555.580	35638
555.642	32884
555.705	33448
555.768	33780
555.830	32677
555.893	31584
555.955	30899
556.018	30131
556.080	30140
556.143	31067
556.206	29956
556.268	29668
556.330	29903
556.393	29340
556.455	28103
556.518	29359
556.580	26343
556.643	25478
556.705	25755
556.767	25278
556.830	24368
556.892	24680
556.955	25871
557.017	23891
557.079	23528
557.142	23397
557.204	22758
557.266	27295
557.328	22786
557.391	19793
557.453	19459
557.515	20277
557.577	21306
557.639	21475
557.701	20823
557.764	20471
557.826	22022
557.888	22959
557.950	23636
558.012	28888
558.074	42573
558.136	113550
558.198	181059
558.260	50454
558.322	27892
558.384	28034
558.446	30903
558.508	33569
558.570	39090
558.632	51074
558.694	69910
558.756	139944
558.818	458741
558.880	707600
558.942	214290
559.003	205845
559.065	73129
559.127	39668
559.189	38118
559.251	47613
559.312	81610
559.374	239151
559.436	532553
559.498	168561
559.559	42676
559.621	38604
559.683	48711
559.744	99010
559.806	317772
559.868	295970
559.929	52187
559.991	42996
560.052	89090
560.114	194885
560.176	93264
560.237	137137
560.299	139519
560.360	27041
560.422	15090
560.483	14423
560.545	11654
560.606	12383
560.667	11175
560.729	10028
560.790	9989
560.852	10696
560.913	9752
560.974	10078
561.036	9343
561.097	9439
561.158	9053
561.220	10718
561.281	8132
561.342	8801
561.403	10033
561.465	10169
561.526	16703
561.587	16200
561.648	8285
561.709	8432
561.771	8902
561.832	8279
561.893	8092
561.954	8892
562.015	7607
562.076	8509
562.137	6897
562.198	8382
562.259	8461
562.320	8208
562.381	7718
562.442	9462
562.503	7694
562.564	8072
562.625	7484
562.686	7369
562.747	7262
562.808	6770
562.869	7885
562.930	7934
562.991	7009
563.051	7186
563.112	6599
563.173	7307
563.234	6615
563.294	8157
563.355	7461
563.416	8092
563.477	6286
563.537	7754
563.598	6229
563.659	7626
563.720	6435
563.780	7048
563.841	6901
563.901	7371
563.962	6895
564.023	7098
564.083	6199
564.144	6679
564.204	6187
564.265	6681
564.325	7970
564.386	10396
564.446	7776
564.507	6655
564.567	6074
564.628	7395
564.688	5745
564.749	6452
564.809	7064
564.869	7434
564.930	5562
564.990	6721
565.050	5748
565.111	6350
565.171	7252
565.231	7299
565.292	6728
565.352	6556
565.412	6527
565.472	6335
565.532	6538
565.593	5925
565.653	5608
565.713	6390
565.773	6530
565.833	6526
565.893	7847
565.953	6032
566.013	6353
566.074	6685
566.134	6930
566.194	8102
566.254	7321
566.314	6334
566.374	6083
566.434	6705
566.494	6492
566.554	6422
566.614	6605
566.673	6049
566.733	7003
566.793	7232
566.853	5413
566.913	6485
566.973	5934
567.033	7311
567.092	6884
567.152	6301
567.212	6460
567.272	6053
567.331	6332
567.391	6537
567.451	7055
567.511	8352
567.570	7429
567.630	7099
567.690	6478
567.749	7275
567.809	5809
567.868	7044
567.928	5467
567.988	6166
568.047	6862
568.107	7306
568.166	7043
568.226	8265
568.285	7561
568.345	7793
568.404	7862
568.464	8266
568.523	7430
568.582	8110
568.642	7088
568.701	8352
568.761	9179
568.820	10411
568.879	10897
568.939	9775
568.998	9067
569.057	8283
569.116	7687
569.176	7507
569.235	6285
569.294	6380
569.353	6345
569.413	6992
569.472	6348
569.531	6132
569.590	6134
569.649	6485
569.708	5816
569.767	6884
569.827	6100
569.886	6369
569.945	5535
570.004	5993
570.063	5710
570.122	6666
570.181	6422
570.240	6063
570.299	5907
570.358	6721
570.417	5847
570.475	6745
570.534	6371
570.593	6134
570.652	7271
570.711	6084
570.770	6937
570.829	7266
570.887	5627
570.946	7340
571.005	5629
571.064	5443
571.122	5872
571.181	6134
571.240	5556
571.299	5478
571.357	6560
571.416	6112
571.475	5798
571.533	7532
571.592	5572
571.650	6688
571.709	5695
571.768	6843
571.826	5987
571.885	6714
571.943	5953
572.002	5874
572.060	5794
572.119	5810
572.177	5072
572.236	5994
572.294	5766
572.352	7325
572.411	6009
572.469	5148
572.528	5342
572.586	5139
572.644	4783
572.703	5181
572.761	5639
572.819	5393
572.877	4955
572.936	5023
572.994	5646
573.052	5448
573.110	4494
573.169	5810
573.227	4951
573.285	4902
573.343	5207
573.401	4858
573.459	5855
573.517	5705
573.576	5515
573.634	6268
573.692	6224
573.750	6085
573.808	5386
573.866	5919
573.924	6028
573.982	5454
574.040	4433
574.098	4721
574.155	5531
574.213	4837
574.271	4822
574.329	5530
574.387	4038
574.445	4975
574.503	3714
574.560	4487
574.618	4700
574.676	4744
574.734	4838
574.792	5471
574.849	4350
574.907	4146
574.965	4048
575.022	4135
575.080	4089
575.138	5500
575.195	4238
575.253	4183
575.311	3445
575.368	4654
575.426	3392
575.483	4377
575.541	4298
575.598	4902
575.656	3952
575.713	4576
575.771	3921
575.828	4102
575.886	4586
575.943	5203
576.001	4300
576.058	4028
576.115	3257
576.173	4469
576.230	5454
576.287	5696
576.345	4680
576.402	4847
576.459	4102
576.517	4385
576.574	5158
576.631	4233
576.688	3508
576.746	4001
576.803	3161
576.860	4027
576.917	4624
576.974	3993
577.031	4294
577.089	3769
577.146	4297
577.203	4451
577.260	4993
577.317	4723
577.374	4409
577.431	4528
577.488	3895
577.545	3490
577.602	5070
577.659	4538
577.716	5597
577.773	6566
577.830	5260
577.886	5318
577.943	5804
578.000	6404
578.057	7289
578.114	9628
578.171	13748
578.227	20085
578.284	15778
578.341	13098
578.398	8437
578.454	9228
578.511	7491
578.568	7721
578.625	5077
578.681	5310
578.738	5045
578.794	4588
578.851	4227
578.908	4902
578.964	5104
579.021	4887
579.077	4073
579.134	4660
579.190	3943
579.247	5049
579.303	3784
579.360	4917
579.416	4627
579.473	4533
579.529	4277
579.586	5133
579.642	5723
579.698	4959
579.755	5660
579.811	7339
579.867	7080
579.924	8058
579.980	9971
580.036	13964
580.093	19912
580.149	32214
580.205	33163
580.261	23655
580.317	16958
580.374	15107
580.430	11859
580.486	9947
580.542	8149
580.598	7389
580.619	7504
580.654	7712
580.692	6967
580.710	6611
580.765	6412
580.767	6414
580.823	6739
580.838	6594
580.879	6196
580.911	6567
580.935	6851
580.984	6608
580.991	6595
581.047	7100
581.057	7158
581.103	7402
581.130	8867
581.159	10420
581.203	11517
581.215	11826
581.270	10099
581.276	10007
581.326	9195
581.349	8577
581.382	7651
581.422	7417
581.438	7347
581.494	6917
581.494	6897
581.550	5135
581.567	5433
581.606	6094
581.640	5806
581.661	5635
581.713	5723
581.717	5740
581.773	5375
581.786	5411
581.829	5521
581.859	5771
581.885	6022
581.932	5772
581.940	5711
581.996	5463
582.004	5495
582.052	5737
582.077	5258
582.107	4697
582.150	5471
582.163	5705
582.219	5405
582.223	5419
582.274	5678
582.296	5461
582.330	5067
582.368	5503
582.386	5741
582.441	6063
582.441	6065
582.497	6358
582.514	6332
582.552	6474
582.587	7382
582.608	7802
582.659	5520
582.663	5354
582.719	7127
582.732	6924
582.774	6311
582.805	6470
582.830	6510
582.877	7063
582.885	7213
582.941	7796
582.950	7988
582.996	8744
583.023	10053
583.052	11678
583.095	12918
583.107	13218
583.162	17082
583.168	17161
583.218	17893
583.240	16317
583.273	13717
583.313	12091
583.328	11571
583.384	10753
583.385	10711
583.439	9189
583.458	8805
583.494	8172
583.531	7502
583.549	7238
583.603	7096
583.605	7088
583.660	6389
583.676	6385
583.715	6302
583.748	6408
583.770	6625
583.820	6343
583.825	6289
583.881	5679
583.893	5587
583.936	5353
583.965	5502
583.991	5605
584.038	5941
584.046	5982
584.101	5340
584.110	5327
584.156	5402
584.183	5570
584.211	5689
584.255	6245
584.266	6435
584.321	5938
584.328	5936
584.376	5548
584.400	5633
584.431	5909
584.472	5557
584.486	5466
584.541	6317
584.545	6354
584.596	6574
584.617	6497
584.651	6784
584.689	7202
584.706	7119
584.761	6793
584.762	6788
584.816	6521
584.834	6798
584.871	7245
584.906	7689
584.926	7887
584.978	7374
584.980	7355
585.035	7920
585.051	8035
585.090	8542
585.123	9786
585.145	10420
585.195	9718
585.200	9761
585.254	12156
585.267	12853
585.309	14865
585.340	16211
585.364	16929
585.412	17451
585.419	17603
585.473	21488
585.484	22526
585.528	28112
585.556	36596
585.583	49408
585.628	80135
585.637	89866
585.692	186389
585.700	197427
585.747	237112
585.772	197910
585.801	120545
585.845	47797
585.856	37911
585.910	20255
585.917	18480
585.965	13593
585.989	12435
586.019	11671
586.061	10111
586.074	9693
586.128	9333
586.133	9229
586.183	8413
586.205	8500
586.237	8587
586.277	8155
586.292	7993
586.346	8302
586.349	8278
586.401	7775
586.421	7771
586.455	7937
586.493	8277
586.509	8531
586.564	9404
586.565	9444
586.618	11045
586.637	10950
586.672	10300
586.709	10102
586.727	10149
586.781	10735
586.781	10732
586.835	8944
586.853	8677
586.889	8151
586.925	7300
586.944	7100
586.996	8141
586.998	8158
587.052	7214
587.068	7223
587.106	7629
587.140	7514
587.161	7256
587.212	7085
587.215	7089
587.269	7310
587.284	7395
587.323	7865
587.356	8004
587.377	7730
587.427	7764
587.431	7808
587.485	7914
587.499	7969
587.539	8081
587.571	8368
587.593	8626
587.643	8893
587.648	8915
587.702	9016
587.715	9228
587.755	9685
587.786	9511
587.810	9349
587.858	9557
587.864	9608
587.917	10170
587.930	10296
587.971	11045
588.001	11532
588.025	11724
588.073	12197
588.079	12318
588.133	13849
588.145	14205
588.187	14857
588.217	15058
588.241	15947
588.288	18224
588.295	18444
588.348	20872
588.360	21339
588.402	23482
588.431	25015
588.456	26485
588.503	30113
588.510	30583
588.564	34196
588.575	35324
588.617	40751
588.646	45093
588.671	49330
588.718	60289
588.725	63050
588.778	92256
588.789	101077
588.832	169752
588.861	228824
588.886	332978
588.932	555977
588.939	577708
588.993	671391
589.004	667631
589.047	364704
589.075	190162
589.100	136115
589.147	66807
589.154	64171
589.207	50499
589.218	48447
589.261	48725
589.290	50220
589.314	53068
589.361	62295
589.368	65793
589.421	102834
589.433	113504
589.475	215759
589.504	302070
589.528	405390
589.576	585721
589.582	566452
589.635	287543
589.647	235457
589.689	116067
589.718	47199
589.742	38852
589.790	25099
589.795	24492
589.849	20536
589.861	19875
589.902	18042
589.932	16365
589.955	15443
590.004	13807
590.009	13668
590.062	12487
590.075	12229
590.115	11985
590.146	11778
590.168	11252
590.218	10219
590.222	10192
590.275	10041
590.289	9997
590.328	10631
590.360	11078
590.381	11065
590.431	11095
590.435	11033
590.488	9871
590.503	9582
590.541	9935
590.574	10158
590.594	9844
590.645	9389
590.647	9414
590.700	9909
590.716	10012
590.753	9499
590.787	9338
590.806	9625
590.859	10350
590.859	10348
590.912	10064
590.930	10152
590.965	10358
591.001	10276
591.018	10023
591.071	9350
591.072	9345
591.124	9309
591.143	9267
591.177	9219
591.214	9308
591.230	9562
591.283	10371
591.285	10400
591.336	10222
591.356	10125
591.389	10261
591.427	10475
591.442	10186
591.495	9139
591.498	9057
591.547	9576
591.569	9847
591.600	9614
591.640	9290
591.653	9333
591.706	9622
591.711	9651
591.759	9852
591.782	9933
591.811	10253
591.853	10742
591.864	10726
591.917	10711
591.924	10692
591.969	10874
591.995	11043
592.022	10738
592.066	10190
592.075	10369
592.127	11492
592.137	11716
592.180	11041
592.208	10537
592.233	10389
592.279	10191
592.285	10289
592.338	11192
592.350	11399
592.390	11225
592.421	11120
592.443	11065
592.491	10936
592.495	10955
592.548	11318
592.562	11426
592.600	11340
592.633	11288
592.653	11252
592.704	11133
592.705	11189
592.775	10832
592.846	11699
592.916	11137
592.987	11532
593.058	10757
593.128	11790
593.199	11080
593.270	10619
593.341	10971
593.411	12272
593.482	11127
593.553	13312
593.623	11830
593.694	13076
593.764	12923
593.835	13501
593.906	12258
593.976	13275
594.047	12354
594.117	14403
594.188	13468
594.258	13611
594.329	14022
594.399	14712
594.470	13401
594.540	15188
594.611	14916
594.681	15489
594.751	14976
594.822	16424
594.892	16875
594.963	16258
595.033	16106
595.103	16659
595.174	17648
595.244	19183
595.314	19127
595.384	19171
595.455	17918
595.525	19452
595.595	19713
595.665	20127
595.736	18873
595.806	20745
595.876	19623
595.946	20990
596.016	20728
596.087	21378
596.157	20868
596.227	20496
596.297	22172
596.367	23396
596.437	24838
596.507	26206
596.577	25992
596.647	25658
596.717	25628
596.787	25943
596.857	27148
596.927	27623
596.997	26923
597.067	28503
597.137	28804
597.207	29479
597.277	28343
597.347	27520
597.417	25216
597.487	27069
597.557	27959
597.626	27317
597.696	28042
597.766	29396
597.836	28462
597.906	25262
597.975	26190
598.045	26328
598.115	27234
598.185	28664
598.254	32014
598.324	34689
598.394	34860
598.464	33981
598.533	33424
598.603	31409
598.672	30137
598.742	32272
598.812	32022
598.881	32644
598.951	31905
599.020	32446
599.090	34003
599.159	35087
599.229	33149
599.299	32675
599.368	31975
599.437	33120
599.507	31150
599.576	30944
599.646	30888
599.715	31368
599.785	29170
599.854	29141
599.924	29292
599.993	29117
600.062	29901
600.132	29831
600.201	30830
600.270	36498
600.340	36799
600.409	37281
600.478	37083
600.547	39026
600.617	35795
600.686	29976
600.755	27891
600.824	27648
600.894	27226
600.963	27837
601.032	27975
601.101	26807
601.170	26216
601.239	25586
601.308	26212
601.378	26491
601.447	26688
601.516	26747
601.585	27146
601.654	28003
601.723	26821
601.792	28455
601.861	30744
601.930	32961
601.999	32713
602.068	31067
602.137	30570
602.206	31611
602.275	32575
602.343	34091
602.412	33508
602.481	33144
602.550	32875
602.619	33953
602.688	34405
602.756	34309
602.825	35349
602.894	36213
602.963	35498
603.032	35843
603.100	35347
603.169	35935
603.238	36610
603.307	35717
603.375	35801
603.444	37204
603.513	36362
603.581	37337
603.650	37963
603.719	35760
603.787	34692
603.856	36405
603.924	36517
603.993	38125
604.061	37744
604.130	40053
604.198	41175
604.267	42350
604.335	42184
604.404	42208
604.472	42471
604.541	43846
604.609	44902
604.678	45219
604.746	45307
604.815	47616
604.883	47762
604.951	46532
605.020	47253
605.088	47146
605.156	45301
605.225	46104
605.293	46049
605.361	47722
605.429	46485
605.498	48637
605.566	49525
605.634	51312
605.702	51806
605.771	53386
605.839	54735
605.907	50881
605.975	50067
606.043	49504
606.111	49544
606.180	51290
606.248	49163
606.316	48792
606.384	49119
606.452	46967
606.520	45319
606.588	47410
606.656	45993
606.724	45723
606.792	44723
606.860	39951
606.928	35889
606.996	34982
607.064	33273
607.132	34987
607.200	37499
607.267	38213
607.335	38223
607.403	40227
607.471	37903
607.539	38087
607.607	38237
607.674	34281
607.742	33291
607.810	34788
607.878	34103
607.946	34510
608.013	35107
608.081	36587
608.149	35982
608.216	38070
608.284	38883
608.352	37646
608.419	36988
608.487	39807
608.555	36550
608.622	38342
608.690	41333
608.757	43418
608.825	44092
608.893	43562
608.960	41230
609.028	39636
609.095	39778
609.163	39500
609.230	35014
609.298	33225
609.365	34520
609.432	37419
609.500	39837
609.567	44364
609.635	51404
609.702	53805
609.769	51382
609.837	42076
609.904	37218
609.971	38430
610.039	47078
610.106	68078
610.173	139004
610.241	327944
610.308	202936
610.375	68343
610.442	44982
610.509	39496
610.577	38618
610.644	39034
610.711	39308
610.778	41749
610.845	41524
610.912	44549
610.980	46438
611.047	50520
611.114	46573
611.181	43710
611.248	42300
611.315	46466
611.382	45809
611.449	48092
611.516	49218
611.583	48408
611.650	49364
611.717	51192
611.784	51910
611.851	56367
611.918	62836
611.984	79758
612.051	125935
612.118	278858
612.185	684712
612.252	447015
612.319	106174
612.386	74339
612.452	63713
612.519	58308
612.586	57090
612.653	56432
612.719	57550
612.786	55065
612.853	49983
612.919	49872
612.986	50396
613.053	48115
613.120	45792
613.186	43082
613.253	44874
613.319	44573
613.386	43120
613.453	43522
613.519	45200
613.586	45200
613.652	47324
613.719	46110
613.785	46166
613.852	46127
613.918	44574
613.985	48028
614.051	53685
614.118	68563
614.184	65020
614.250	47159
614.317	47389
614.383	46056
614.449	45873
614.516	45520
614.582	46002
614.648	45668
614.715	44509
614.781	44613
614.847	44486
614.914	44606
614.980	42527
615.046	43432
615.112	44662
615.179	43132
615.245	43962
615.311	45251
615.377	45508
615.443	46742
615.509	45580
615.575	49939
615.642	48472
615.708	51178
615.774	53380
615.840	60082
615.906	68760
615.972	92063
616.038	151978
616.104	349123
616.170	844413
616.236	732207
616.302	173442
616.368	107677
616.434	76556
616.500	66630
616.565	72776
616.631	91579
616.697	76122
616.763	78273
616.829	118610
616.895	215646
616.961	213303
617.026	94269
617.092	57468
617.158	50942
617.224	49207
617.289	44654
617.355	41302
617.421	40117
617.487	41560
617.552	38889
617.618	37742
617.684	37485
617.749	40375
617.815	37396
617.880	36549
617.946	36684
618.012	37697
618.077	37445
618.143	36582
618.208	36831
618.274	39601
618.339	39544
618.405	32106
618.470	34623
618.536	32514
618.601	32059
618.667	29360
618.732	29414
618.798	28608
618.863	30954
618.928	28536
618.994	30309
619.059	30047
619.124	31999
619.190	28448
619.255	29288
619.320	28732
619.386	28657
619.451	27641
619.516	28350
619.581	27912
619.647	29090
619.712	28874
619.777	29006
619.842	28597
619.907	29326
619.972	28412
620.038	27997
620.103	28463
620.168	26760
620.233	29111
620.298	28006
620.363	29126
620.428	29615
620.493	29213
620.558	30979
620.623	29817
620.688	30747
620.753	30033
620.818	31261
620.883	31603
620.948	31944
621.013	30841
621.078	30303
621.143	29318
621.207	32904
621.272	29957
621.337	30150
621.402	29986
621.467	31722
621.532	30749
621.596	30102
621.661	29434
621.726	28963
621.791	28766
621.855	29704
621.920	28587
621.985	29405
622.049	30298
622.114	30456
622.179	30134
622.243	30558
622.308	30598
622.373	33289
622.437	32502
622.502	30150
622.566	29366
622.631	28707
622.695	31036
622.760	30494
622.824	29896
622.889	30177
622.953	30141
623.018	35346
623.082	33632
623.147	32372
623.211	30778
623.276	31574
623.340	29356
623.404	29635
623.469	29354
623.533	29777
623.597	28119
623.662	28212
623.726	27434
623.790	25113
623.854	24364
623.919	25990
623.983	25557
624.047	27379
624.111	26410
624.176	26490
624.240	25515
624.304	28289
624.368	26387
624.432	26808
624.496	26617
624.560	27979
624.625	28954
624.689	28586
624.753	28098
624.817	27501
624.881	26912
624.945	24775
625.009	24102
625.073	25520
625.137	24697
625.201	26986
625.265	26474
625.329	25886
625.393	25282
625.456	26181
625.520	26548
625.584	26061
625.648	27038
625.712	29371
625.776	33475
625.839	34831
625.903	24204
625.967	22004
626.031	25748
626.095	30059
626.158	24453
626.222	19363
626.286	19002
626.349	17437
626.413	15221
626.477	18020
626.540	16584
626.604	17078
626.668	16752
626.731	16485
626.795	17002
626.858	16303
626.922	15806
626.986	16641
627.049	13673
627.113	16559
627.176	15150
627.240	15169
627.303	14729
627.366	14811
627.430	14597
627.493	15205
627.557	14689
627.620	16251
627.684	15505
627.747	16670
627.810	12510
627.874	13878
627.937	12159
628.000	15887
628.064	13650
628.127	10151
628.190	11948
628.253	12241
628.317	10985
628.380	10865
628.443	10482
628.506	10479
628.569	10053
628.632	9980
628.696	9484
628.759	9761
628.822	8824
628.885	8414
628.948	8894
629.011	8520
629.074	8452
629.137	8483
629.200	8039
629.263	9579
629.326	7109
629.389	8249
629.452	8414
629.515	8374
629.578	8021
629.641	8917
629.704	7000
629.767	8147
629.830	7601
629.892	8112
629.955	6650
630.018	9200
630.081	7103
630.144	9216
630.207	6188
630.269	9226
630.332	6633
630.395	7576
630.458	6852
630.520	5939
630.583	7935
630.646	8069
630.708	7150
630.771	6240
630.834	7955
630.896	7151
630.959	8186
631.021	6845
631.084	6582
631.146	8128
631.209	8564
631.272	7432
631.334	7947
631.397	8489
631.459	7189
631.522	8592
631.584	7144
631.646	9875
631.709	9123
631.771	9732
631.834	9048
631.896	8396
631.958	6907
632.021	8665
632.083	6425
632.145	7355
632.208	7426
632.270	7863
632.332	5574
632.395	6246
632.457	7931
632.519	6080
632.581	7749
632.643	5804
632.706	6763
632.768	5897
632.830	7517
632.892	6911
632.954	5419
633.016	6920
633.078	6067
633.141	7390
633.203	6779
633.265	7235
633.327	6807
633.389	6397
633.451	7263
633.513	7770
633.575	7775
633.637	7726
633.698	7299
633.760	8162
633.822	7750
633.884	8584
633.946	8193
634.008	8239
634.070	9357
634.132	11342
634.193	11071
634.255	12064
634.317	10838
634.379	12371
634.441	9926
634.502	9071
634.564	9085
634.626	8458
634.687	8131
634.749	7852
634.811	7572
634.873	6603
634.934	5634
634.996	8487
635.057	6413
635.119	6313
635.181	7058
635.242	8605
635.304	4679
635.365	9101
635.427	6229
635.488	6853
635.550	6034
635.611	7511
635.673	5592
635.734	8486
635.796	8920
635.857	9793
635.918	9090
635.980	12654
636.041	11204
636.102	13641
636.164	12194
636.225	12962
636.286	9020
636.348	10417
636.409	8088
636.470	7049
636.531	7837
636.593	6244
636.654	6536
636.715	6897
636.776	5618
636.838	6076
636.899	6675
636.960	6362
637.021	5691
637.082	5940
637.143	5349
637.204	4661
637.265	5224
637.326	5784
637.387	6599
637.448	4793
637.509	5804
637.570	5456
637.631	6553
637.692	4745
637.753	4134
637.814	5393
637.875	5248
637.936	6044
637.997	4585
638.058	5554
638.119	5620
638.179	4880
638.240	4216
638.301	5458
638.362	3059
638.423	4907
638.483	6251
638.544	3436
638.605	5456
638.666	4621
638.726	4442
638.787	6585
638.848	3980
638.908	4677
638.969	4714
639.030	5579
639.090	3858
639.151	4162
639.211	5687
639.272	5398
639.332	6426
639.393	5934
639.453	3972
639.514	5529
639.574	4874
639.635	4476
639.695	5369
639.756	4537
639.816	4735
639.877	4607
639.937	6129
639.997	6912
640.058	3206
640.118	3227
640.178	5179
640.239	4337
640.299	4165
640.359	4215
640.420	4547
640.480	6198
640.540	5404
640.600	6420
640.661	6340
640.721	4955
640.781	6290
640.841	4185
640.901	5062
640.961	5264
641.021	5060
641.082	4547
641.142	5965
641.202	5748
641.262	1972
641.322	5361
641.382	2865
641.442	5524
641.502	4141
641.562	5441
641.622	4252
641.682	5144
641.742	5136
641.802	5399
641.861	4513
641.921	4431
641.981	4530
642.041	4931
642.101	4004
642.161	2461
642.221	3553
642.280	3936
642.340	4379
642.400	3233
642.460	4079
642.519	4324
642.579	3505
642.639	4334
642.698	1983
642.758	6922
642.818	4380
642.877	3094
642.937	3808
642.997	5207
643.056	4965
643.116	2871
643.175	6001
643.235	4481
643.294	4261
643.354	6076
643.414	6279
643.473	8259
643.532	10524
643.592	16344
643.651	27986
643.711	52590
643.770	106651
643.830	259363
643.889	538060
643.948	128563
644.008	21495
644.067	12443
644.126	8878
644.186	6083
644.245	6110
644.304	5103
644.363	6119
644.423	3595
644.482	4636
644.541	6318
644.600	3800
644.659	7413
644.719	8610
644.778	15372
644.837	26332
644.896	59167
644.955	134287
645.014	43000
645.073	9571
645.132	5807
645.191	5534
645.250	4774
645.309	5970
645.368	5499
645.427	8545
645.486	14522
645.545	25841
645.604	6973
645.663	5470
645.722	4673
645.781	5809
645.840	6743
645.898	8367
645.957	15797
646.016	23466
646.075	48888
646.134	96725
646.192	262359
646.251	378453
646.310	55360
646.369	14232
646.427	10778
646.486	6154
646.545	6359
646.603	5609
646.662	5083
646.721	3861
646.779	4674
646.838	3436
646.896	7110
646.955	9020
647.014	16928
647.072	29678
647.131	85823
647.189	39140
647.248	5138
647.306	4477
647.365	4197
647.423	1118
647.481	4291
647.540	1261
647.598	2529
647.657	2211
647.715	3315
647.773	1564
647.832	3099
647.890	947
647.948	2181
648.007	2908
648.065	1407
648.123	2049
648.181	3655
648.240	3262
648.298	2704
648.356	1590
648.414	3115
648.472	2068
648.531	2628
648.589	2772
648.647	2217
648.705	2132
648.763	2940
648.821	2820
648.879	2609
648.937	3448
648.995	5078
649.053	5911
649.111	11612
649.169	19802
649.227	37963
649.285	80537
649.343	229654
649.401	106682
649.459	16291
649.516	10123
649.574	7225
649.632	13531
649.690	16979
649.748	8994
649.806	11908
649.863	24851
649.921	58853
649.979	37812
650.037	5794
650.094	2461
650.152	3245
650.210	1568
650.268	2962
650.325	2024
650.383	1900
650.440	122
650.498	2056
650.556	1503
650.613	1848
650.671	1859
650.728	2052
650.786	2219
650.843	2515
650.901	382
650.958	2418
651.016	1031
651.073	1483
651.131	994
651.188	801
651.246	1284
651.303	1045
651.360	2092
651.418	1367
651.475	1644
651.532	305
651.590	1657
651.647	304
651.704	1532
651.762	806
651.819	615
651.876	710
651.933	967
651.990	2093
652.048	-329
652.105	1096
652.162	932
652.219	451
652.276	1222
652.333	1565
652.390	704
652.448	1366
652.505	1125
652.562	799
652.619	1753
652.676	2939
652.733	2701
652.790	1607
652.847	84
652.904	1304
652.961	-249
653.017	595
653.074	1145
653.131	928
653.188	-149
653.245	914
653.302	543
653.359	573
653.415	587
653.472	822
653.529	1002
653.586	1125
653.642	803
653.699	602
653.756	238
653.813	461
653.869	1139
653.926	562
653.983	74
654.039	1466
654.096	509
654.152	1281
654.209	-882
654.266	1131
654.322	-169
654.379	1407
654.435	1242
654.492	661
654.548	971
654.605	1498
654.661	517
654.717	943
654.774	539
654.830	794
654.887	1051
654.943	498
655.000	589
655.056	1552
655.112	1237
655.168	570
655.225	1233
655.281	1411
655.337	485
655.394	1299
655.450	1176
655.506	1634
655.562	380
655.618	2079
655.675	-129
655.731	1322
655.787	210
655.843	2408
655.899	-180
655.955	1342
656.011	1541
656.067	107
656.123	1940
656.179	2027
656.235	3695
656.291	801
656.347	2509
656.403	1449
656.459	753
656.515	1976
656.571	369
656.627	1182
656.683	917
656.739	1421
656.795	767
656.850	1655
656.906	587
656.962	1100
657.018	61
657.074	1019
657.129	1360
657.185	2912
657.241	5555
657.297	2215
657.352	586
657.408	436
657.464	1356
657.519	511
657.575	220
657.630	1036
657.686	580
657.742	623
657.797	-138
657.853	255
657.908	485
657.964	-608
658.019	177
658.075	666
658.130	664
658.186	297
658.241	652
658.297	524
658.352	-384
658.407	1151
658.463	-190
658.518	1115
658.573	890
658.629	141
658.684	-95
658.739	487
658.795	-230
658.850	1182
658.905	-891
658.960	255
659.016	-800
659.071	699
659.126	874
659.181	-358
659.236	2158
659.291	2339
659.346	212
659.401	1170
659.457	1222
659.512	1286
659.567	1709
659.622	877
659.677	-526
659.732	47
659.787	403
659.842	679
659.897	90
659.952	1127
660.007	707
660.061	355
660.116	-144
660.171	613
660.226	244
660.281	1240
660.336	-369
660.391	1054
660.445	-617
660.500	481
660.555	-470
660.610	-364
660.664	-57
660.719	346
660.774	195
660.828	451
660.883	374
660.938	1198
660.992	-1384
661.047	-181
661.101	-269
661.156	-120
661.211	-888
661.265	379
661.320	-205
661.374	-326
661.429	-237
661.483	570
661.538	-1636
661.592	1206
661.647	-21
661.701	662
661.755	640
661.810	441
661.864	-756
661.919	-368
661.973	383
662.027	632
662.081	-416
662.136	253
662.190	109
662.244	467
662.299	-159
662.353	530
662.407	-815
662.461	378
662.515	-243
662.569	1116
662.624	404
662.678	-1025
662.732	242
662.786	199
662.840	329
662.894	760
662.948	-60
663.002	-330
663.056	548
663.110	-182
663.164	-334
663.218	668
663.272	-174
663.326	392
663.380	161
663.434	-33
663.488	-362
663.542	395
663.595	280
663.649	165
663.703	-3
663.757	-125
663.811	-180
663.864	468
663.918	-54
663.972	47
664.026	-214
664.079	928
664.133	667
664.187	389
664.240	-708
664.294	164
664.348	302
664.401	692
664.455	-172
664.508	24
664.562	687
664.615	-147
664.669	26
664.722	554
664.776	-295
664.829	233
664.883	-698
664.936	-715
664.990	-105
665.043	575
665.097	-1117
665.150	1367
665.203	-776
665.257	618
665.310	-300
665.363	457
665.417	-208
665.470	355
665.523	325
665.576	146
665.630	608
665.683	562
665.736	257
665.789	283
665.842	-362
665.895	589
665.949	828
666.002	449
666.055	242
666.108	980
666.161	710
666.214	519
666.267	820
666.320	1142
666.373	43
666.426	299
666.479	585
666.532	619
666.585	660
666.638	641
666.691	-86
666.744	148
666.796	-847
666.849	497
666.902	-99
666.955	809
667.008	-410
667.060	280
667.113	-647
667.166	-5
667.219	-169
667.271	22
667.324	785
667.377	-351
667.430	632
667.482	670
667.535	746
667.587	825
667.640	211
667.693	-80
667.745	421
667.798	1500
667.850	-325
667.903	152
667.955	18
668.008	693
668.060	-395
668.113	328
668.165	123
668.218	661
668.270	386
668.322	885
668.375	-797
668.427	835
668.479	216
668.532	172
668.584	408
668.636	-315
668.689	51
668.741	849
668.793	279
668.845	348
668.898	354
668.950	431
669.002	-21
669.054	103
669.106	-778
669.158	68
669.211	727
669.263	326
669.315	458
669.367	1316
669.419	88
669.471	818
669.523	82
669.575	1541
669.627	915
669.679	537
669.731	-213
669.783	445
669.835	813
669.886	751
669.938	756
669.990	539
670.042	355
670.094	984
670.146	105
670.197	1221
670.249	1551
670.301	2253
670.353	3004
670.404	5450
670.456	7258
670.508	13019
670.560	22648
670.611	39710
670.663	69466
670.715	170539
670.766	266197
670.818	79719
670.869	12874
670.921	6208
670.972	3304
671.024	3200
671.075	2593
671.127	1116
671.178	988
671.230	1204
671.281	1534
671.333	1636
671.384	191
671.436	2234
671.487	2697
671.538	3539
671.590	6081
671.641	10713
671.692	17550
671.744	35156
671.795	25867
671.846	10379
671.897	5097
671.949	2559
672.000	1381
672.051	1239
672.102	1737
672.153	1138
672.204	255
672.256	388
672.307	-86
672.358	461
672.409	-76
672.460	268
672.511	-103
672.562	-84
672.613	-559
672.664	274
672.715	287
672.766	64
672.817	-381
672.868	497
672.919	-584
672.970	191
673.021	383
673.071	138
673.122	56
673.173	196
673.224	-316
673.275	609
673.326	-672
673.376	-83
673.427	-168
673.478	-342
673.528	-284
673.579	294
673.630	-102
673.680	956
673.731	-387
673.782	-497
673.832	-561
673.883	-297
673.934	-471
673.984	-1166
674.035	-172
674.085	848
674.136	646
674.186	-242
674.237	501
674.287	-119
674.338	10
674.388	95
674.438	-630
674.489	495
674.539	-633
674.589	0
674.640	-801
674.690	232
674.740	-272
674.791	-170
674.841	-301
674.891	101
674.942	-779
674.992	-232
675.042	-524
675.092	197
675.142	-183
675.193	-153
675.243	-806
675.293	258
675.343	-839
675.393	-1083
675.443	316
675.493	1082
675.543	-947
675.593	-1
675.643	-716
675.693	-240
675.743	-260
675.793	-51
675.843	-366
675.893	485
675.943	-443
675.993	191
676.043	-679
676.093	123
676.142	-915
676.192	-518
676.242	-533
676.292	95
676.341	-479
676.391	115
676.441	-34
676.491	-873
676.540	-446
676.590	-155
676.640	-140
676.689	259
676.739	-390
676.789	-125
676.838	-519
676.888	-399
676.937	-540
676.987	-493
677.037	-670
677.086	-519
677.136	-1116
677.185	-460
677.235	-1212
677.284	-545
677.333	-312
677.383	-998
677.432	-949
677.482	-332
677.531	-1485
677.580	-244
677.630	-1237
677.679	-853
677.728	-547
677.778	125
677.827	-335
677.876	-369
677.925	-564
677.975	75
678.024	-1027
678.073	-710
678.122	-897
678.171	-847
678.220	-203
678.269	506
678.319	83
678.368	67
678.417	-1016
678.466	-264
678.515	-610
678.564	-376
678.613	-1147
678.662	-79
678.711	-391
678.760	154
678.809	-1207
678.857	-226
678.906	-1418
678.955	-138
679.004	-453
679.053	-548
679.102	-512
679.151	-602
679.199	-404
679.248	-24
679.297	-1029
679.346	-521
679.394	-538
679.443	-700
679.492	-24
679.540	487
679.589	-507
679.638	-238
679.686	-283
679.735	-197
679.784	-437
679.832	201
679.881	-1404
679.929	-335
679.978	-830
680.026	-513
680.075	-489
680.123	-822
680.172	-1588
680.220	-269
680.268	-590
680.317	-630
680.365	-1141
680.414	-995
680.462	-494
680.510	-211
680.559	-645
680.607	-1091
680.655	-907
680.703	-524
680.752	-296
680.800	-400
680.848	-935
680.896	-338
680.945	-973
680.993	-1120
681.041	-515
681.089	345
681.137	-624
681.185	-564
681.233	-563
681.258	-264
681.281	6
681.329	-1155
681.377	-659
681.380	-657
681.425	-870
681.473	289
681.502	-179
681.521	-534
681.569	-199
681.617	-1132
681.624	-1021
681.665	-399
681.713	-89
681.745	238
681.761	374
681.809	-770
681.857	336
681.867	226
681.904	-203
681.952	-321
681.989	-241
682.000	-235
682.048	-173
682.096	-453
682.111	-305
682.143	-39
682.191	-1041
682.233	233
682.239	411
682.286	-341
682.334	346
682.354	-41
682.382	-592
682.430	368
682.476	-35
682.477	-56
682.525	-111
682.572	-576
682.598	-474
682.620	-394
682.667	-236
682.715	951
682.720	914
682.763	439
682.810	974
682.841	322
682.857	-48
682.905	-82
682.952	591
682.963	585
683.000	537
683.047	-189
683.085	1102
683.095	1451
683.142	377
683.190	899
683.206	558
683.237	-119
683.284	806
683.328	77
683.332	5
683.379	1130
683.426	678
683.449	702
683.473	723
683.521	136
683.568	1447
683.571	1402
683.615	595
683.662	1369
683.693	1102
683.709	942
683.757	1312
683.804	877
683.814	784
683.851	482
683.898	979
683.936	1178
683.945	1204
683.992	925
684.039	1482
684.057	1164
684.086	661
684.133	1215
684.179	905
684.180	886
684.227	1797
684.274	1019
684.300	1349
684.321	1584
684.368	753
684.415	1267
684.422	1173
684.462	685
684.509	1738
684.543	1644
684.556	1565
684.603	1906
684.649	1118
684.665	1206
684.696	1377
684.743	1254
684.786	1978
684.790	2031
684.837	1480
684.883	1933
684.908	1525
684.930	1145
684.977	1687
685.023	875
685.029	979
685.070	1667
685.117	1517
685.150	1467
685.164	1477
685.210	1399
685.257	2425
685.272	2444
685.303	2346
685.350	1777
685.393	1744
685.396	1746
685.443	1834
685.490	1674
685.514	1847
685.536	1942
685.583	2210
685.629	2169
685.636	2049
685.675	1334
685.722	2305
685.757	1830
685.768	1660
685.815	1919
685.861	2091
685.878	2079
685.908	2129
685.954	1384
686.000	1830
686.000	1833
686.047	1750
686.093	2297
686.121	2223
686.139	2158
686.185	2798
686.232	2177
686.242	2280
686.278	2653
686.324	2802
686.363	2388
686.370	2294
686.416	1895
686.463	2890
686.484	2463
686.509	2093
686.555	2247
686.601	3005
686.606	2971
686.647	2451
686.693	2371
686.727	2451
686.739	2513
686.785	2545
686.831	3190
686.848	3161
686.877	3098
686.923	2923
686.969	2904
686.969	2902
687.015	2573
687.061	2477
687.090	2868
687.107	3101
687.153	2775
687.199	2970
687.211	2779
687.245	2298
687.291	2476
687.332	2778
687.336	2823
687.382	3070
687.428	2979
687.453	3229
687.474	3282
687.520	3272
687.565	2912
687.574	2793
687.611	2458
687.657	3503
687.695	3315
687.702	3311
687.748	3541
687.794	4244
687.816	4054
687.839	3684
687.885	3420
687.931	3488
687.937	3406
687.976	3134
688.022	3971
688.058	3629
688.067	3530
688.113	3702
688.158	3516
688.179	3681
688.204	3908
688.249	3143
688.295	3733
688.300	3774
688.340	4006
688.386	3714
688.421	3363
688.431	3287
688.477	3659
688.522	3739
688.542	3745
688.567	3820
688.613	3731
688.658	4285
688.663	4258
688.703	3900
688.749	3548
688.784	3792
688.794	3912
688.839	4168
688.884	3867
688.905	4217
688.930	4528
688.975	4132
689.020	3645
689.026	3618
689.065	3495
689.110	3868
689.146	3969
689.155	4042
689.201	3664
689.246	3728
689.267	4255
689.291	4785
689.336	4455
689.381	4189
689.388	4235
689.426	4556
689.471	5062
689.509	4558
689.516	4463
689.561	4942
689.606	4534
689.630	4747
689.651	4915
689.696	4541
689.741	4624
689.750	4614
689.785	4773
689.830	5327
689.871	5160
689.875	5124
689.920	5558
689.965	4811
689.992	4939
690.010	5161
690.054	4926
690.099	5654
690.112	5608
690.144	5458
690.189	5432
690.233	5146
690.233	5155
690.278	6047
690.323	6435
690.354	6424
690.367	6450
690.412	7090
690.457	7366
690.474	7563
690.501	7834
690.546	8170
690.590	8139
690.595	8190
690.635	9465
690.680	10264
690.716	11127
690.724	11607
690.769	14186
690.813	17222
690.836	18238
690.857	21009
690.902	28195
690.946	35069
690.957	36683
690.991	51001
691.035	70990
691.077	90475
691.080	90856
691.124	90915
691.168	91146
691.198	91572
691.213	85158
691.257	66465
691.301	47189
691.318	40064
691.346	35800
691.390	27854
691.434	20338
691.439	19448
691.478	17061
691.522	14858
691.559	12470
691.567	12310
691.611	11644
691.655	10494
691.680	10031
691.699	9820
691.743	9558
691.787	8735
691.800	8444
691.831	8027
691.875	7711
691.919	7488
691.921	7460
691.964	7450
692.008	7803
692.041	7681
692.052	7624
692.096	7533
692.139	7883
692.162	7587
692.183	7371
692.227	7351
692.271	7465
692.282	7441
692.315	7428
692.359	7536
692.402	7298
692.403	7311
692.447	6884
692.490	7152
692.523	6878
692.534	6832
692.578	7043
692.622	6760
692.643	6929
692.666	7242
692.709	7413
692.753	7433
692.763	7506
692.797	7826
692.840	8157
692.884	8117
692.884	8136
692.928	8656
692.971	8594
693.004	8662
693.015	8774
693.059	9210
693.102	10037
693.124	10179
693.146	10308
693.189	10774
693.233	11205
693.245	11261
693.276	12208
693.320	13774
693.363	15094
693.365	15108
693.407	17391
693.450	19778
693.485	21791
693.493	23060
693.537	29706
693.580	35923
693.605	39784
693.624	46567
693.667	61856
693.710	77967
693.725	83522
693.753	111893
693.797	157197
693.840	202733
693.845	207603
693.883	209586
693.926	209430
693.966	210125
693.970	206286
694.013	162449
694.056	118549
694.086	88245
694.099	83072
694.142	66253
694.185	49268
694.206	41234
694.229	38183
694.272	31934
694.315	25757
694.326	24013
694.358	21794
694.401	19333
694.444	16453
694.446	16281
694.487	15611
694.530	14784
694.566	14008
694.573	13844
694.616	12704
694.659	11784
694.686	10703
694.702	10494
694.745	10673
694.787	10195
694.806	10062
694.830	9981
694.873	9943
694.916	9657
694.926	9574
694.959	9426
695.002	9464
695.044	9071
695.046	9054
695.087	9305
695.130	8968
695.166	8808
695.172	8808
695.215	8572
695.258	8673
695.286	8416
695.301	8297
695.343	8089
695.386	7960
695.406	7879
695.428	8031
695.471	7914
695.514	8384
695.526	8352
695.556	8454
695.599	8996
695.641	9219
695.646	9234
695.684	9111
695.726	8811
695.766	8523
695.769	8533
695.811	8387
695.854	8453
695.886	8293
695.896	8363
695.938	8529
695.981	8678
696.005	8823
696.023	8845
696.065	8763
696.108	8745
696.125	8696
696.150	8835
696.192	9163
696.235	9343
696.245	9376
696.277	9542
696.319	9524
696.361	9765
696.365	9752
696.404	10222
696.446	10632
696.485	11012
696.488	11035
696.530	11021
696.572	10961
696.604	10859
696.614	10743
696.656	10172
696.698	9541
696.724	9106
696.740	9086
696.783	9044
696.825	9014
696.844	8963
696.867	8969
696.909	8838
696.951	8802
696.964	8778
696.992	8875
697.034	8949
697.076	8884
697.083	8867
697.118	9302
697.160	9907
697.202	10347
697.203	10329
697.244	9858
697.286	9596
697.323	9066
697.327	9092
697.369	9177
697.411	9305
697.442	9430
697.453	9436
697.494	9170
697.536	9081
697.562	8908
697.578	9018
697.620	9348
697.661	9555
697.682	9683
697.703	9724
697.744	9727
697.786	9802
697.801	9747
697.828	9966
697.869	10342
697.911	10642
697.921	10727
697.952	10510
697.994	10034
698.035	9631
698.040	9545
698.077	9403
698.118	9302
698.160	9092
698.160	9063
698.201	9319
698.243	9457
698.279	9634
698.284	9686
698.325	9875
698.367	10048
698.399	10147
698.408	10029
698.449	9352
698.491	8698
698.518	8221
698.532	8471
698.573	9157
698.614	9864
698.638	10225
698.656	10167
698.697	9987
698.738	9793
698.757	9677
698.779	9812
698.820	10004
698.862	10217
698.877	10263
698.903	10404
698.944	10588
698.985	10775
698.996	10799
699.026	10740
699.067	10613
699.116	10435
699.235	9692
699.354	10519
699.474	10039
699.593	9868
699.713	9784
699.832	10020
699.951	9702
700.070	9862
700.190	9236
700.309	10161
700.428	8778
700.547	8834
700.667	8832
700.786	8560
700.905	8597
701.024	8954
701.143	8461
701.262	9311
701.381	9506
701.500	9088
701.619	9280
701.738	8579
701.857	8956
701.976	9461
702.095	9157
702.214	8935
702.333	8246
702.452	9264
702.571	8181
702.690	8837
702.809	8591
702.928	8174
703.047	8937
703.165	8457
703.284	8040
703.403	8315
703.522	8638
703.640	8485
703.759	8144
703.878	8101
703.997	7739
704.115	8280
704.234	8902
704.353	8262
704.471	7641
704.590	7840
704.708	8003
704.827	8322
704.946	6820
705.064	7412
705.183	7363
705.301	8066
705.420	8934
705.538	8936
705.656	8435
705.775	9113
705.893	16657
706.012	20719
706.130	9072
706.249	7798
706.367	7432
706.485	7884
706.604	7921
706.722	8931
706.840	8158
706.958	9598
707.077	8670
707.195	7631
707.313	7884
707.431	7332
707.549	7465
707.668	7530
707.786	8532
707.904	6713
708.022	7569
708.140	7070
708.258	7190
708.376	7136
708.494	7344
708.612	8423
708.730	8590
708.848	7828
708.966	7844
709.084	8177
709.202	7810
709.320	7670
709.438	7207
709.556	7564
709.674	7168
709.791	8334
709.909	7703
710.027	7613
710.145	7573
710.263	7995
710.380	7669
710.498	7495
710.616	7076
710.733	7819
710.851	6894
710.969	7706
711.086	6989
711.204	7058
711.322	6397
711.439	7191
711.557	6828
711.674	7676
711.792	6927
711.909	8185
712.027	8941
712.144	6799
712.262	6579
712.379	7116
712.497	8706
712.614	7284
712.732	7138
712.849	7717
712.966	8057
713.084	8543
713.201	7408
713.318	8349
713.436	7120
713.553	7515
713.670	7379
713.787	8715
713.905	8488
714.022	7453
714.139	7783
714.256	11490
714.373	15179
714.490	28482
714.608	79386
714.725	339441
714.842	362437
714.959	29494
715.076	12950
715.193	10136
715.310	9307
715.427	7778
715.544	7452
715.661	8102
715.778	7168
715.895	6917
716.011	7248
716.128	7912
716.245	7101
716.362	7758
716.479	7192
716.596	7795
716.713	7597
716.829	7141
716.946	6681
717.063	6444
717.180	5967
717.296	7219
717.413	6148
717.530	6475
717.646	5768
717.763	5800
717.880	5942
717.996	5565
718.113	5789
718.229	5952
718.346	6177
718.462	5444
718.579	6317
718.695	6983
718.812	6887
718.928	6037
719.045	6757
719.161	6303
719.277	5748
719.394	6872
719.510	7189
719.626	8210
719.743	8235
719.859	13015
719.975	23771
720.092	98529
720.208	231326
720.324	29467
720.440	8784
720.557	7346
720.673	7940
720.789	7901
720.905	10663
721.021	6460
721.137	6472
721.253	6317
721.369	5992
721.486	5689
721.602	6189
721.718	5425
721.834	6020
721.950	5908
722.066	5829
722.181	5717
722.297	5390
722.413	6001
722.529	5814
722.645	6667
722.761	5078
722.877	5353
722.993	5672
723.108	6751
723.224	6302
723.340	5766
723.456	5234
723.571	5619
723.687	4212
723.803	5793
723.918	4397
724.034	4492
724.150	4695
724.265	4396
724.381	6488
724.497	6814
724.612	4199
724.728	5224
724.843	4797
724.959	5275
725.074	6096
725.190	6738
725.305	4770
725.421	5152
725.536	4910
725.651	5068
725.767	5572
725.882	4519
725.997	5046
726.113	4578
726.228	4233
726.343	5426
726.459	4649
726.574	4919
726.689	4479
726.804	5256
726.920	4411
727.035	5240
727.150	4300
727.265	3955
727.380	4186
727.495	4609
727.610	5141
727.725	5272
727.841	5964
727.956	10235
728.071	8091
728.186	4755
728.301	4641
728.416	5726
728.531	4641
728.645	4709
728.760	4763
728.875	4807
728.990	4772
729.105	5267
729.220	4650
729.335	4546
729.449	5059
729.564	4044
729.679	4037
729.794	3999
729.908	4707
730.023	5574
730.138	4059
730.253	4401
730.367	4778
730.482	5483
730.596	3860
730.711	4392
730.826	4885
730.940	5582
731.055	4289
731.169	5519
731.284	4922
731.398	4939
731.513	5436
731.627	5755
731.742	6272
731.856	5857
731.970	6773
732.085	7813
732.199	10982
732.313	19143
732.428	47678
732.542	122858
732.656	69277
732.771	16485
732.885	8931
732.999	7173
733.113	7570
733.227	7175
733.342	6593
733.456	5955
733.570	6250
733.684	6161
733.798	5291
733.912	5347
734.026	5080
734.140	5614
734.254	5212
734.368	6246
734.482	5787
734.596	5878
734.710	4788
734.824	6243
734.938	4982
735.052	5135
735.166	4753
735.280	5492
735.393	5808
735.507	5421
735.621	5092
735.735	5731
735.849	5275
735.962	5566
736.076	4802
736.190	5735
736.303	4887
736.417	5468
736.531	5326
736.644	5324
736.758	4498
736.872	5247
736.985	4920
737.099	5187
737.212	3951
737.326	5137
737.439	5409
737.553	4946
737.666	4681
737.780	4423
737.893	4516
738.007	4305
738.120	4275
738.233	5102
738.347	5955
738.460	5329
738.573	4970
738.687	4627
738.800	5008
738.913	4683
739.026	5332
739.140	5266
739.253	5383
739.366	4970
739.479	4845
739.592	4646
739.705	4853
739.818	4810
739.932	4919
740.045	4090
740.158	4825
740.271	4849
740.384	4471
740.497	4437
740.610	5575
740.723	5251
740.836	5393
740.949	5565
741.062	5183
741.174	5963
741.287	4990
741.400	4218
741.513	6054
741.626	5013
741.739	4667
741.851	4907
741.964	4928
742.077	4702
742.189	4588
742.302	5974
742.415	5576
742.527	4344
742.640	4550
742.753	4575
742.865	5042
742.978	4511
743.090	4201
743.203	3921
743.316	4301
743.428	4095
743.541	4939
743.653	3777
743.766	4164
743.878	4982
743.990	3644
744.103	6362
744.215	5108
744.327	4638
744.440	4732
744.552	5328
744.664	4464
744.777	4617
744.889	4491
745.001	4681
745.113	3723
745.226	4468
745.338	5379
745.450	5004
745.562	4565
745.674	3602
745.786	5267
745.898	5081
746.010	4843
746.122	5009
746.234	4454
746.347	5256
746.459	4348
746.570	4829
746.682	5399
746.794	6181
746.906	4827
747.018	4667
747.130	4529
747.242	4668
747.354	4158
747.466	4996
747.577	4421
747.689	4684
747.801	5333
747.913	3748
748.024	4936
748.136	4196
748.248	4474
748.359	4419
748.471	4402
748.583	4333
748.694	4460
748.806	5510
748.918	3944
749.029	4522
749.141	4470
749.252	4426
749.364	4471
749.475	5317
749.587	4285
749.698	4836
749.809	4796
749.921	4886
750.032	3512
750.144	4797
750.255	4492
750.366	4682
750.478	4111
750.589	4484
750.700	4411
750.811	5086
750.923	4187
751.034	5228
751.145	5776
751.256	4523
751.367	6034
751.479	5607
751.590	4129
751.701	4871
751.812	4652
751.923	4888
752.034	4780
752.145	4258
752.256	4978
752.367	4802
752.478	4913
752.589	4846
752.700	5179
752.811	4357
752.922	4983
753.032	4799
753.143	5412
753.254	5040
753.365	5576
753.476	4836
753.586	5665
753.697	4805
753.808	5145
753.919	5098
754.029	4699
754.140	5024
754.251	4844
754.361	5896
754.472	5470
754.582	5131
754.693	5561
754.804	5795
754.914	6158
755.025	5553
755.135	5590
755.246	5657
755.356	5266
755.466	7133
755.577	5514
755.687	7090
755.798	5842
755.908	5643
756.018	6024
756.129	6346
756.239	6586
756.349	6078
756.460	5729
756.570	6660
756.680	6115
756.790	7176
756.900	6951
757.011	6096
757.121	6738
757.231	7460
757.341	6818
757.451	5901
757.561	6816
757.671	7194
757.781	7266
757.891	7860
758.001	6916
758.111	7749
758.221	7872
758.331	8002
758.441	7755
758.551	8405
758.661	8178
758.771	8171
758.880	8322
758.990	9663
759.100	8768
759.210	9202
759.320	9282
759.429	9254
759.539	10447
759.649	9452
759.758	9391
759.868	10356
759.978	9493
760.087	10569
760.197	10998
760.307	10501
760.416	11429
760.526	10494
760.635	11493
760.745	11503
760.854	12461
760.964	13440
761.073	13541
761.182	12989
761.292	13544
761.401	13984
761.511	13554
761.620	13485
761.729	14852
761.839	14597
761.948	15776
762.057	15829
762.166	15444
762.276	15832
762.385	17876
762.494	17805
762.603	18899
762.712	19223
762.822	19787
762.931	22001
763.040	20787
763.149	22861
763.258	23162
763.367	25714
763.476	26951
763.585	27243
763.694	29651
763.803	30878
763.912	33448
764.021	35126
764.130	37561
764.238	40746
764.347	43962
764.456	46834
764.565	51522
764.674	56695
764.783	60488
764.891	67936
765.000	77688
765.109	86366
765.217	97499
765.326	113059
765.435	132201
765.543	154541
765.652	187266
765.761	225552
765.869	281859
765.978	354520
766.086	441536
766.195	538706
766.303	593992
766.412	478216
766.520	446068
766.629	545525
766.737	524255
766.846	437846
766.954	350669
767.062	275856
767.171	218671
767.279	176301
767.387	145714
767.496	123347
767.604	104984
767.712	92006
767.820	81366
767.928	74411
768.037	70190
768.145	66334
768.253	64113
768.361	61055
768.469	61377
768.577	62350
768.685	65667
768.793	70409
768.901	76719
769.009	89596
769.117	106666
769.225	132621
769.333	172229
769.441	237166
769.549	333506
769.657	464957
769.765	550539
769.873	431659
769.981	477700
770.088	449307
770.196	341862
770.304	251960
770.412	190229
770.519	149109
770.627	120671
770.735	101306
770.842	85704
770.950	74006
771.058	64145
771.165	57875
771.273	50432
771.380	46244
771.488	42116
771.595	38743
771.703	35762
771.810	33913
771.918	31516
772.025	29991
772.133	27506
772.240	26304
772.348	25150
772.455	23027
772.562	22314
772.670	20967
772.777	21293
772.884	19132
772.991	18590
773.099	18214
773.206	16604
773.313	17144
773.420	16046
773.528	14764
773.635	15349
773.742	15814
773.849	14502
773.956	13726
774.063	13375
774.170	13550
774.277	13712
774.384	12352
774.491	12340
774.598	12689
774.705	11210
774.812	12078
774.919	11427
775.026	10866
775.133	10641
775.239	9793
775.346	9350
775.453	9790
775.560	9605
775.667	9505
775.773	8971
775.880	9457
775.987	8460
776.093	9119
776.200	9253
776.307	7674
776.413	9040
776.520	8103
776.627	8523
776.733	8266
776.840	6407
776.946	9062
777.053	9053
777.159	9903
777.266	8219
777.372	10501
777.478	9142
777.585	7751
777.691	5593
777.798	6842
777.904	7687
778.010	7752
778.117	6590
778.223	6443
778.329	5294
778.435	5221
778.542	6001
778.648	5603
778.754	4392
778.860	6391
778.966	5594
779.072	5047
779.178	5511
779.284	5040
779.391	5510
779.497	5693
779.603	8078
779.708	8665
779.815	16118
779.920	50169
780.026	101389
780.132	20719
780.238	6887
780.344	5882
780.450	5655
780.556	4897
780.661	4453
780.767	4440
780.873	4311
780.979	4098
781.085	3466
781.190	4817
781.296	2890
781.402	3840
781.507	3885
781.613	4253
781.719	3824
781.824	4249
781.930	3979
782.035	3470
782.141	2862
782.246	2958
782.352	2885
782.457	3784
782.563	3305
782.668	3522
782.773	2441
782.879	3271
782.984	3226
783.090	4134
783.195	3559
783.300	3920
783.405	3193
783.511	2935
783.616	3595
783.721	3765
783.826	3101
783.932	3248
784.037	3673
784.142	3269
784.247	2379
784.352	2635
784.457	2892
784.562	3300
784.667	2086
784.772	2663
784.877	2500
784.982	3260
785.087	3482
785.192	3461
785.297	3029
785.402	2992
785.507	3113
785.611	3177
785.716	2538
785.821	2863
785.926	1872
786.031	2887
786.135	2473
786.240	2696
786.345	1093
786.450	2579
786.554	2878
786.659	2779
786.763	1274
786.868	2214
786.973	3014
787.077	1890
787.182	1815
787.286	2159
787.391	2424
787.495	2476
787.600	2170
787.704	1933
787.809	2243
787.913	1735
788.017	2755
788.122	2263
788.226	2098
788.330	788
788.435	1937
788.539	2189
788.643	1739
788.747	1843
788.852	2003
788.956	1391
789.060	2400
789.164	1871
789.268	862
789.372	2691
789.476	2094
789.580	2186
789.684	1479
789.788	2436
789.892	1730
789.996	2590
790.100	1788
790.204	2090
790.308	1913
790.412	1603
790.516	2030
790.620	2144
790.724	1843
790.828	1666
790.931	1354
791.035	3015
791.139	1239
791.242	753
791.346	2368
791.450	1363
791.554	1260
791.657	486
791.761	2538
791.864	1993
791.968	1413
792.072	3021
792.175	1685
792.279	1740
792.382	1241
792.486	2033
792.589	924
792.693	1464
792.796	-9
792.899	2132
793.003	2233
793.106	57
793.209	1365
793.313	1559
793.416	-66
793.519	2378
793.623	2248
793.726	2339
793.829	1182
793.932	1777
794.035	570
794.138	2310
794.242	2570
794.345	2250
794.448	4059
794.551	6958
794.654	26285
794.757	56035
794.860	11171
794.963	2840
795.066	1397
795.169	2857
795.272	1452
795.375	2043
795.477	854
795.580	1867
795.683	596
795.786	1524
795.889	884
795.991	2236
796.094	1815
796.197	584
796.300	1828
796.402	1027
796.505	936
796.608	677
796.710	988
796.813	1413
796.915	1066
797.018	1507
797.120	1404
797.223	458
797.326	2523
797.428	281
797.530	1059
797.633	1165
797.735	2110
797.838	1030
797.940	1986
798.042	1271
798.145	716
798.247	1299
798.349	-630
798.452	1979
798.554	349
798.656	63
798.758	2269
798.860	1018
798.962	898
799.065	398
799.167	-94
799.269	2124
799.371	2290
799.473	2137
799.575	821
799.677	1018
799.779	1918
799.881	-57
799.983	844
800.085	436
800.187	1430
800.289	772
800.390	937
800.492	1480
800.594	1796
800.696	500
800.798	1549
800.899	338
801.001	1191
801.103	1032
801.205	706
801.306	856
801.408	-577
801.509	577
801.611	1099
801.713	1102
801.814	690
801.916	497
802.017	626
802.119	365
802.220	371
802.322	-49
802.423	2318
802.525	-297
802.626	1018
802.727	955
802.829	959
802.930	-836
803.031	2428
803.133	1111
803.234	456
803.335	772
803.436	295
803.538	758
803.639	-842
803.740	1798
803.841	640
803.942	750
804.043	1382
804.144	859
804.245	753
804.346	466
804.447	329
804.548	642
804.649	1422
804.750	717
804.851	-168
804.952	-24
805.053	621
805.154	-283
805.255	1060
805.355	739
805.456	-27
805.557	67
805.658	-547
805.758	1001
805.859	153
805.960	226
806.061	-189
806.161	495
806.262	347
806.362	740
806.463	148
806.564	779
806.664	281
806.765	432
806.865	57
806.966	937
807.066	377
807.166	1251
807.267	585
807.367	-248
807.468	1163
807.568	-685
807.668	1461
807.769	886
807.869	-19
807.969	1469
808.069	933
808.170	568
808.270	-141
808.370	353
808.470	1310
808.570	-348
808.670	124
808.770	725
808.870	286
808.970	1315
809.070	-139
809.170	91
809.271	970
809.370	135
809.470	-137
809.570	556
809.670	-371
809.770	-57
809.870	570
809.970	60
810.070	437
810.169	999
810.269	-1344
810.369	1310
810.469	-329
810.568	1
810.668	487
810.768	420
810.867	222
810.967	-48
811.066	-27
811.166	-126
811.265	869
811.365	314
811.464	332
811.564	-237
811.663	613
811.763	-651
811.862	693
811.962	1133
812.061	225
812.160	-590
812.260	-19
812.359	1172
812.458	-81
812.557	1582
812.657	1775
812.756	1752
812.855	354
812.954	422
813.053	178
813.153	-68
813.252	-222
813.351	729
813.450	14
813.549	-18
813.648	313
813.747	-551
813.846	134
813.945	-958
814.044	49
814.143	921
814.242	757
814.341	160
814.439	-13
814.538	320
814.637	294
814.736	-150
814.835	308
814.933	46
815.032	457
815.131	220
815.229	31
815.328	1869
815.427	541
815.525	1074
815.624	819
815.722	529
815.821	969
815.919	608
816.018	379
816.116	940
816.215	817
816.313	920
816.412	930
816.510	1676
816.609	2573
816.707	612
816.805	269
816.904	304
817.002	1307
817.100	1487
817.198	1642
817.296	325
817.395	404
817.493	1481
817.591	478
817.689	1890
817.787	551
817.885	2197
817.983	2322
818.081	4166
818.179	8719
818.277	20066
818.375	21994
818.473	7924
818.571	3747
818.669	2642
818.767	2158
818.865	1955
818.963	2132
819.061	2526
819.158	3938
819.256	8983
819.354	18381
819.452	43885
819.549	33392
819.647	11626
819.745	4332
819.842	2983
819.940	1487
820.038	1232
820.135	929
820.233	2118
820.330	1035
820.428	1011
820.525	1313
820.623	1264
820.720	114
820.818	157
820.915	1683
821.012	1443
821.110	-221
821.207	1329
821.304	-134
821.402	738
821.499	1264
821.596	1980
821.693	1574
821.791	1196
821.888	562
821.985	1468
822.082	452
822.179	1085
822.276	657
822.373	732
822.470	366
822.567	489
822.664	-438
822.761	1350
822.858	-820
822.955	1433
823.052	290
823.149	-162
823.246	523
823.343	33
823.440	1192
823.536	54
823.633	260
823.730	487
823.827	839
823.923	-71
824.020	1067
824.117	393
824.213	35
824.310	1208
824.407	168
824.503	1151
824.600	470
824.696	1045
824.793	1179
824.889	-201
824.986	102
825.082	268
825.179	573
825.275	417
825.371	-173
825.468	822
825.564	-1185
825.660	812
825.757	486
825.853	680
825.949	-128
826.045	732
826.142	-643
826.238	595
826.334	635
826.430	-510
826.526	856
826.622	-1015
826.718	687
826.814	698
826.910	979
827.006	308
827.102	-194
827.198	930
827.294	-9
827.390	1378
827.486	704
827.582	-328
827.678	-55
827.774	1400
827.869	-921
827.965	1966
828.061	-649
828.157	225
828.252	-82
828.348	-420
828.444	1218
828.539	-618
828.635	426
828.731	1371
828.826	-182
828.922	515
829.017	-867
829.113	1290
829.208	-383
829.304	-658
829.399	1566
829.495	59
829.590	931
829.685	-174
829.781	600
829.876	-305
829.971	-626
830.066	-134
830.162	-26
830.257	-5
830.352	-727
830.447	558
830.543	538
830.638	-957
830.733	713
830.828	-318
830.923	589
831.018	64
831.113	-205
831.208	-559
831.303	-73
831.398	482
831.493	383
831.588	915
831.683	-606
831.778	163
831.873	588
831.967	799
832.062	-233
832.157	-639
832.252	-40
832.346	-114
832.441	776
832.536	999
832.631	806
832.725	1013
832.820	-956
832.914	-691
833.009	-397
833.104	146
833.198	604
833.293	185
833.387	458
833.482	-132
833.576	-167
833.670	509
833.765	621
833.859	459
833.954	296
834.048	-38
834.142	273
834.237	-232
834.331	34
834.425	922
834.519	-728
834.613	278
834.708	-347
834.802	-112
834.896	-486
834.990	554
835.084	353
835.178	1
835.272	-1174
835.366	-627
835.460	-51
835.554	237
835.648	-811
835.742	-104
835.836	-178
835.930	-1091
836.024	44
836.117	646
836.211	-593
836.305	213
836.399	-135
836.493	-818
836.586	699
836.680	-361
836.774	-670
836.867	425
836.961	-563
837.055	-412
837.148	-212
837.242	-968
837.335	269
837.429	-347
837.522	-575
837.616	-214
837.709	441
837.803	274
837.896	-146
837.989	-479
838.083	655
838.176	431
838.269	-49
838.363	-350
838.456	-916
838.549	1002
838.642	-211
838.735	1471
838.829	1143
838.922	-131
839.015	49
839.108	-469
839.201	-112
839.294	708
839.387	-384
839.480	106
839.573	-646
839.666	582
839.759	-987
839.852	-240
839.945	-603
840.038	479
840.131	24
840.223	-482
840.316	-169
840.409	-514
840.502	-1352
840.594	638
840.687	-562
840.780	114
840.873	-602
840.965	-733
841.058	315
841.150	211
841.243	-486
841.336	580
841.428	574
841.521	-19
841.613	-1515
841.706	-701
841.798	74
841.890	-761
841.983	-786
842.075	-345
842.167	-947
842.260	-152
842.352	67
842.444	-611
842.537	-427
842.629	146
842.721	323
842.813	413
842.905	-1299
842.997	-208
843.090	-806
843.182	274
843.274	64
843.366	1028
843.458	1790
843.550	1246
843.642	-356
843.734	140
843.826	-498
843.918	419
844.009	396
844.101	-164
844.193	-261
844.285	161
844.377	-21
844.469	1305
844.560	-16
844.652	-12
844.744	-335
844.835	-77
844.927	250
845.019	-742
845.110	238
845.202	698
845.293	-89
845.385	-143
845.476	511
845.568	1285
845.659	-739
845.751	65
845.842	-1325
845.934	-450
846.025	-793
846.116	583
846.208	-205
846.299	262
846.390	-884
846.482	101
846.573	40
846.664	670
846.755	-1265
846.846	-78
846.937	-969
847.029	328
847.120	-538
847.211	-675
847.302	212
847.393	-312
847.484	1086
847.575	11
847.666	325
847.757	-253
847.847	155
847.938	16
848.029	561
848.120	-247
848.211	-656
848.302	-552
848.392	-754
848.483	587
848.574	-75
848.664	-415
848.755	201
848.846	7
848.936	-172
849.027	294
849.118	137
849.208	-219
849.299	-95
849.389	1459
849.480	3058
849.570	6866
849.661	13316
849.751	22134
849.841	6719
849.932	366
850.022	29
850.112	461
850.203	-647
850.293	-282
850.383	446
850.474	-144
850.564	256
850.654	120
850.744	-423
850.834	97
850.924	-518
851.014	878
851.104	-127
851.194	150
851.284	-218
851.374	-307
851.464	-606
851.554	192
851.644	652
851.734	325
851.824	326
851.914	617
852.004	1016
852.094	395
852.183	-130
852.273	-288
852.363	-560
852.452	-172
852.542	-37
852.632	-227
852.721	260
852.811	-422
852.901	-183
852.990	436
853.080	-455
853.169	93
853.259	-741
853.348	845
853.438	-9
853.527	1685
853.617	2452
853.706	5052
853.795	9125
853.885	22346
853.974	42618
854.063	78320
854.152	117820
854.242	44987
854.331	7846
854.420	3133
854.509	2360
854.598	2080
854.687	603
854.777	578
854.866	365
854.955	1025
855.044	72
855.133	129
855.222	-248
855.311	103
855.400	745
855.488	-249
855.577	-150
855.666	-294
855.755	-333
855.844	815
855.933	189
856.021	608
856.110	-105
856.199	-1394
856.288	-575
856.376	-266
856.465	-720
856.554	-239
856.642	-377
856.731	-233
856.819	-512
856.908	-517
856.996	-681
857.085	-451
857.173	-78
857.262	-292
857.350	-27
857.438	-390
857.527	-640
857.615	-780
857.703	-177
857.792	-226
857.880	-796
857.968	-482
858.056	-1531
858.145	-152
858.233	-1104
858.321	-470
858.409	-941
858.497	-153
858.585	-1020
858.673	78
858.761	-532
858.849	-405
858.937	-959
859.025	-258
859.113	-848
859.201	-908
859.289	-451
859.377	-551
859.465	-749
859.552	180
859.640	-1078
859.728	-169
859.816	-613
859.903	-580
859.991	-756
860.079	-363
860.166	-649
860.254	-574
860.342	-642
860.429	-360
860.517	-943
860.604	-44
860.692	-368
860.779	-770
860.867	-648
860.954	-575
861.042	-326
861.129	-708
861.216	-942
861.304	-18
861.391	-20
861.478	-526
861.565	-482
861.653	199
861.740	-160
861.827	-1195
861.914	-674
862.001	-539
862.089	-66
862.176	-381
862.263	-502
862.350	-776
862.437	-836
862.524	-581
862.611	-303
862.698	-380
862.785	-423
862.871	582
862.958	-405
863.045	361
863.132	330
863.219	-457
863.306	-313
863.392	-47
863.479	201
863.566	-606
863.652	-169
863.739	-374
863.826	244
863.912	-1080
863.999	-1812
864.086	-650
864.172	-214
864.259	-469
864.345	-984
864.432	-732
864.518	-650
864.604	-577
864.691	-523
864.777	94
864.863	306
864.950	-173
865.036	259
865.122	361
865.209	1177
865.295	624
865.381	865
865.467	974
865.553	1889
865.639	1888
865.726	4001
865.812	9944
865.898	20573
865.984	31479
866.070	57603
866.156	61488
866.242	16181
866.328	4221
866.414	1738
866.499	1680
866.585	2112
866.671	409
866.757	1316
866.843	1203
866.928	22
867.014	-194
867.100	833
867.186	554
867.271	707
867.357	1222
867.442	414
867.528	672
867.614	-408
867.699	962
867.785	1260
867.870	1523
867.956	1894
868.041	1046
868.127	-61
868.212	207
868.297	361
868.383	958
868.468	1358
868.553	2254
868.639	167
868.724	594
868.809	1130
868.894	467
868.979	-557
869.065	185
869.150	-1124
869.235	498
869.320	195
869.405	-484
869.490	-81
869.575	-249
869.660	643
869.745	1156
869.830	333
869.915	-65
870.000	-829
870.085	532
870.169	96
870.254	728
870.339	-374
870.424	-786
870.509	534
870.593	991
870.678	-271
870.763	401
870.847	-494
870.932	550
871.016	436
871.101	-426
871.186	571
871.270	63
871.355	-228
871.439	-111
871.523	94
871.608	-18
871.692	-561
871.777	319
871.861	-96
871.945	946
872.030	-276
872.114	262
872.198	-197
872.282	-343
872.367	-421
872.451	-92
872.535	700
872.619	202
872.703	-116
872.787	-78
872.871	-256
872.955	205
873.039	-626
873.123	-350
873.207	419
873.291	-323
873.375	-1226
873.459	257
873.543	-325
873.627	-222
873.711	-651
873.794	386
873.878	-184
873.962	-461
874.045	-572
874.129	-72
874.137	-107
874.213	-465
874.245	-413
874.296	-325
874.352	-551
874.380	-664
874.460	83
874.464	113
874.547	-1204
874.568	-802
874.631	394
874.676	121
874.714	-115
874.784	-396
874.798	-459
874.881	1693
874.892	1469
874.965	-44
874.999	67
875.048	203
875.107	126
875.131	95
875.215	376
875.215	377
875.298	707
875.323	284
875.381	-730
875.430	-133
875.465	285
875.538	-33
875.548	-80
875.631	-384
875.646	-490
875.714	-1012
875.753	-699
875.798	-274
875.861	-159
875.881	-145
875.964	346
875.968	334
876.047	103
876.076	39
876.130	-94
876.183	-141
876.213	-124
876.291	823
876.296	879
876.379	-20
876.398	6
876.462	79
876.506	-258
876.545	-527
876.613	-480
876.628	-473
876.711	-258
876.721	-215
876.794	163
876.828	-51
876.877	-353
876.935	29
876.960	199
877.043	183
877.043	184
877.125	626
877.150	548
877.208	286
877.258	120
877.291	87
877.365	109
877.374	99
877.456	-237
877.472	-175
877.539	175
877.579	507
877.622	717
877.687	361
877.704	370
877.787	805
877.794	779
877.869	166
877.901	230
877.952	419
878.008	-88
878.034	-350
878.115	-442
878.117	-437
878.199	110
878.222	253
878.282	446
878.329	410
878.364	384
878.437	757
878.447	816
878.529	-107
878.544	-52
878.611	210
878.651	316
878.694	607
878.758	796
878.776	765
878.858	671
878.865	660
878.941	390
878.972	286
879.023	287
879.078	76
879.105	63
879.185	296
879.187	300
879.269	1176
879.292	931
879.351	166
879.399	251
879.433	333
879.506	210
879.516	241
879.598	444
879.613	447
879.680	166
879.720	195
879.762	308
879.827	217
879.844	170
879.926	123
879.933	154
880.007	520
880.040	387
880.089	250
880.147	434
880.171	583
880.253	924
880.254	923
880.335	906
880.360	965
880.417	1668
880.467	1763
880.499	1672
880.574	2067
880.580	2062
880.662	1555
880.680	1320
880.744	604
880.787	643
880.825	770
880.893	762
880.907	749
880.989	296
881.000	334
881.070	939
881.106	838
881.152	506
881.213	609
881.233	638
881.315	522
881.319	500
881.396	881
881.426	1035
881.478	891
881.532	698
881.559	548
881.639	376
881.641	375
881.722	409
881.745	220
881.803	631
881.852	1201
881.885	1070
881.958	642
881.966	617
882.047	640
882.064	535
882.129	570
882.171	954
882.210	1182
882.277	1127
882.291	1084
882.372	546
882.383	493
882.454	712
882.489	1152
882.535	1517
882.596	1193
882.616	998
882.697	918
882.702	902
882.778	1300
882.808	1294
882.859	956
882.914	810
882.940	873
883.020	1058
883.021	1065
883.102	1072
883.127	1061
883.183	1029
883.233	1197
883.264	1247
883.339	1211
883.345	1226
883.426	876
883.445	961
883.507	1159
883.551	1194
883.587	1109
883.657	798
883.668	808
883.749	945
883.763	954
883.830	931
883.869	778
883.910	838
883.975	1146
883.991	1099
884.072	733
884.081	722
884.152	939
884.187	866
884.233	1091
884.292	1755
884.314	1775
884.394	1051
884.398	1042
884.475	1158
884.504	979
884.555	1190
884.610	1502
884.636	1238
884.716	1002
884.716	1012
884.797	1286
884.821	1386
884.877	1396
884.927	1406
884.958	1362
885.033	1293
885.038	1280
885.118	1216
885.139	1049
885.199	847
885.244	929
885.279	1054
885.350	1297
885.359	1383
885.439	1941
885.456	1993
885.520	1452
885.561	1277
885.600	1272
885.667	1125
885.680	1108
885.760	1137
885.773	1085
885.840	1396
885.878	1733
885.920	1506
885.984	965
886.000	1002
886.080	1274
886.089	1291
886.160	1786
886.195	1984
886.240	1584
886.300	1043
886.320	1144
886.400	1612
886.406	1643
886.480	1557
886.511	1425
886.560	1354
886.616	1380
886.640	1449
886.720	1391
886.722	1388
886.800	1299
886.827	1286
886.879	1631
886.932	1774
886.959	1926
887.038	2621
887.039	2628
887.119	2256
887.143	2178
887.198	1776
887.248	1358
887.278	1497
887.354	1754
887.358	1732
887.437	1199
887.459	1065
887.517	1769
887.564	2270
887.596	2088
887.669	1541
887.676	1517
887.755	1372
887.774	1291
887.835	1059
887.880	900
887.914	1240
887.985	1868
887.994	1872
888.073	1826
888.090	1832
888.153	1905
888.195	1843
888.232	1848
888.300	2059
888.311	2118
888.391	2242
888.405	2269
888.470	2409
888.510	2470
888.549	2414
888.615	2347
888.628	2390
888.708	2595
888.720	2618
888.787	2672
888.825	2646
888.866	2199
888.930	1550
888.945	1712
889.024	2496
889.035	2596
889.103	2466
889.140	2375
889.182	2084
889.245	1659
889.261	1800
889.340	2459
889.349	2526
889.419	2759
889.454	2865
889.498	2480
889.559	1945
889.577	2008
889.656	2258
889.664	2279
889.735	2452
889.768	2523
889.814	2759
889.873	3055
889.978	2584
890.083	3376
890.187	3020
890.292	2420
890.397	2397
890.501	1721
890.606	1846
890.710	3502
890.815	2527
890.919	2490
891.024	2565
891.128	1835
891.233	2239
891.337	2019
891.442	2206
891.546	2634
891.650	2541
891.755	1466
891.859	3003
891.963	3063
892.068	2090
892.172	2686
892.276	1871
892.380	1313
892.484	1776
892.589	2355
892.693	2570
892.797	1252
892.901	1267
893.005	1692
893.109	2245
893.213	2333
893.317	2558
893.421	1763
893.525	1370
893.629	2377
893.733	1912
893.837	2070
893.941	1511
894.045	2767
894.148	1820
894.252	4079
894.356	2643
894.460	3232
894.564	1957
894.667	1154
894.771	695
894.875	1261
894.978	2150
895.082	2383
895.186	2303
895.289	2443
895.393	2200
895.496	2473
895.600	1527
895.703	997
895.807	1074
895.910	1124
896.014	1030
896.117	2071
896.221	1877
896.324	1608
896.427	1271
896.531	1043
896.634	2111
896.737	1867
896.840	1689
896.944	1444
897.047	1406
897.150	1597
897.253	1275
897.356	1289
897.460	1573
897.563	1230
897.666	1370
897.769	1435
897.872	1261
897.975	1606
898.078	1594
898.181	1242
898.284	1220
898.387	2366
898.490	1994
898.593	1707
898.695	1091
898.798	1337
898.901	1574
899.004	1745
899.107	1395
899.209	1534
899.312	1934
899.415	1841
899.518	816
899.620	1492
899.723	877
899.826	2164
899.928	1456
900.031	1427
900.133	752
900.236	1991
900.338	1352
900.441	1590
900.543	449
900.646	1321
900.748	1505
900.851	1434
900.953	1596
901.055	1658
901.158	1006
901.260	1183
901.362	763
901.465	905
901.567	1200
901.669	1259
901.771	1411
901.873	849
901.976	1375
902.078	2057
902.180	833
902.282	1071
902.384	1011
902.486	644
902.588	1322
902.690	1215
902.792	1309
902.894	1748
902.996	1006
903.098	1072
903.200	838
903.302	1982
903.404	727
903.505	1162
903.607	1540
903.709	1364
903.811	1728
903.913	587
904.014	1187
904.116	796
904.218	1211
904.319	1753
904.421	2249
904.523	2057
904.624	743
904.726	1248
904.827	1008
904.929	1229
905.030	544
905.132	1313
905.233	1206
905.335	1160
905.436	375
905.537	1241
905.639	986
905.740	947
905.841	1275
905.943	1286
906.044	1079
906.145	1238
906.247	716
906.348	1159
906.449	1255
906.550	2051
906.651	804
906.752	725
906.854	699
906.955	598
907.056	662
907.157	463
907.258	1645
907.359	1150
907.460	850
907.561	387
907.662	1091
907.762	1340
907.863	1053
907.964	1417
908.065	1289
908.166	1439
908.267	1481
908.367	1316
908.468	515
908.569	641
908.670	1344
908.770	1854
908.871	628
908.971	629
909.072	999
909.173	933
909.273	660
909.374	1009
909.474	1634
909.575	949
909.675	884
909.776	1789
909.876	1000
909.977	1257
910.077	1291
910.177	1065
910.278	1384
910.378	811
910.478	955
910.579	292
910.679	919
910.779	1189
910.879	1167
910.980	1132
911.080	1632
911.180	1036
911.280	1388
911.380	1226
911.480	882
911.580	563
911.680	190
911.780	1536
911.880	1146
911.980	1184
912.080	328
912.180	688
912.280	689
912.380	744
912.480	1486
912.580	585
912.679	809
912.779	2025
912.879	735
912.979	1479
913.078	1086
913.178	668
913.278	1204
913.377	734
913.477	911
913.577	1163
913.676	1541
913.776	784
913.875	1047
913.975	981
914.074	786
914.174	749
914.273	459
914.373	1791
914.472	-310
914.572	1545
914.671	803
914.770	587
914.870	1242
914.969	394
915.068	389
915.167	1141
915.267	906
915.366	1164
915.465	852
915.564	805
915.663	948
915.763	1010
915.862	532
915.961	1236
916.060	119
916.159	707
916.258	729
916.357	1329
916.456	1651
916.555	1240
916.654	1070
916.752	1067
916.851	1047
916.950	820
917.049	588
917.148	818
917.247	1579
917.345	456
917.444	777
917.543	1202
917.642	752
917.740	1108
917.839	1353
917.937	1635
918.036	470
918.135	959
918.233	570
918.332	668
918.430	614
918.529	401
918.627	551
918.726	2050
918.824	1170
918.923	425
919.021	952
919.119	145
919.218	926
919.316	796
919.414	1578
919.512	1343
919.611	1108
919.709	1032
919.807	1097
919.905	2142
920.003	518
920.102	1492
920.200	1395
920.298	1475
920.396	1470
920.494	1189
920.592	1056
920.690	1452
920.788	532
920.886	1615
920.984	1536
921.082	599
921.180	2041
921.277	1912
921.375	1556
921.473	1621
921.571	2430
921.669	2250
921.766	1999
921.864	2449
921.962	2149
922.060	2015
922.157	1411
922.255	2226
922.352	1944
922.450	2864
922.548	2639
922.645	2027
922.743	2972
922.840	4839
922.938	5444
923.035	4794
923.133	4153
923.230	4646
923.327	4953
923.425	5129
923.522	5480
923.619	5581
923.717	4693
923.814	4831
923.911	4259
924.008	6014
924.106	4788
924.203	5617
924.300	4493
924.397	4774
924.494	4684
924.591	4486
924.688	4806
924.786	4418
924.883	4363
924.979	4331
925.077	4648
925.173	3897
925.270	4645
925.367	4665
925.464	4118
925.561	4825
925.658	4855
925.755	3827
925.852	4259
925.948	4336
926.045	4867
926.142	4494
926.239	4200
926.335	4569
926.432	4256
926.529	4991
926.625	5242
926.722	3168
926.818	3517
926.915	4645
927.011	4174
927.108	4878
927.204	4349
927.301	4335
927.397	4545
927.494	4086
927.590	3428
927.687	3645
927.783	4217
927.879	4384
927.976	3833
928.072	4156
928.168	3105
928.264	4378
928.361	3347
928.457	4951
928.553	3821
928.649	3816
928.745	3434
928.841	3589
928.937	3905
929.033	4732
929.129	3549
929.225	4350
929.321	3607
929.417	3822
929.513	3838
929.609	4222
929.705	3700
929.801	4139
929.897	3280
929.993	3789
930.089	3245
930.184	3414
930.280	3828
930.376	4864
930.471	3198
930.567	3363
930.663	3694
930.758	3930
930.854	3326
930.950	3411
931.045	3598
931.141	3113
931.236	4321
931.332	3714
931.427	2714
931.523	3864
931.618	3843
931.714	2760
931.809	2787
931.905	4586
932.000	3171
932.095	2040
932.191	3625
932.286	4789
932.381	3242
932.476	2514
932.572	2627
932.667	3358
932.762	3065
932.857	2689
932.952	4608
933.047	3522
933.142	1723
933.237	1990
933.332	3325
933.427	3485
933.522	2920
933.617	3268
933.712	2768
933.807	3781
933.902	3790
933.997	3750
934.092	2848
934.187	2770
934.282	3372
934.376	2989
934.471	3563
934.566	2790
934.661	2275
934.755	3805
934.850	3654
934.945	2957
935.039	2729
935.134	1858
935.228	2415
935.323	4035
935.417	3056
935.512	2137
935.606	2327
935.701	3852
935.795	2350
935.890	3148
935.984	3395
936.079	2277
936.173	3278
936.267	2647
936.362	1771
936.456	3264
936.550	3618
936.644	3329
936.738	2869
936.833	2517
936.927	2691
937.021	2301
937.115	2563
937.209	2529
937.303	3129
937.397	1523
937.491	1687
937.585	2929
937.679	3161
937.773	1819
937.867	1762
937.961	2544
938.055	2402
938.149	3410
938.243	1425
938.337	1613
938.430	1661
938.524	3285
938.618	2602
938.712	1601
938.805	2138
938.899	2196
938.993	3493
939.086	2899
939.180	1213
939.274	2775
939.367	2933
939.461	2665
939.554	1333
939.648	1529
939.741	1219
939.835	1937
939.928	3052
940.022	3694
940.115	2800
940.208	2647
940.302	3274
940.395	2956
940.488	1974
940.582	2055
940.675	2046
940.768	2575
940.861	1574
940.954	3713
941.048	2121
941.141	2010
941.234	1300
941.327	2949
941.420	3317
941.513	2495
941.606	1987
941.699	3115
941.792	2731
941.885	1457
941.978	1992
942.071	2448
942.164	1250
942.257	2134
942.349	1627
942.442	2277
942.535	1482
942.628	1960
942.721	1839
942.813	1560
942.906	1874
942.999	2688
943.091	1877
943.184	929
943.277	1924
943.369	2177
943.462	1732
943.554	2234
943.647	1373
943.739	2635
943.832	2617
943.924	1185
944.017	1084
944.109	410
944.201	1876
944.294	2317
944.386	1114
944.478	2372
944.571	1311
944.663	1168
944.755	1423
944.847	2851
944.940	1809
945.032	1194
945.124	1194
945.216	2742
945.308	1885
945.400	1605
945.492	1398
945.584	1515
945.676	2633
945.768	1982
945.860	2048
945.952	2529
946.044	1420
946.136	1190
946.228	740
946.320	1424
946.412	1811
946.503	1575
946.595	2627
946.687	1019
946.779	1714
946.870	1585
946.962	1458
947.054	1786
947.145	2474
947.237	1950
947.329	1464
947.420	2094
947.512	1813
947.603	639
947.695	2035
947.786	1369
947.878	706
947.969	1773
948.061	2049
948.152	1887
948.243	1778
948.335	1545
948.426	1100
948.517	2446
948.609	1872
948.700	693
948.791	1590
948.882	1311
948.973	1328
949.065	1291
949.156	1502
949.247	1071
949.338	1511
949.429	1507
949.520	1342
949.611	1394
949.702	1882
949.793	1383
949.884	756
949.975	2111
950.066	793
950.157	1440
950.247	1544
950.338	1227
950.429	1780
950.520	1865
950.611	1506
950.701	1128
950.792	2185
950.883	2348
950.973	1136
951.064	1664
951.155	2060
951.245	1790
951.336	1519
951.427	1286
951.517	2724
951.608	1654
951.698	1172
951.788	846
951.879	1807
951.969	684
952.060	1045
952.150	1867
952.240	2062
952.331	1147
952.421	2769
952.511	1836
952.602	1884
952.692	1411
952.782	1561
952.872	2097
952.962	1919
953.052	2026
953.143	1281
953.233	2349
953.323	1808
953.413	1313
953.503	1909
953.593	2156
953.683	1765
953.773	627
953.863	1894
953.953	1389
954.042	2294
954.132	965
954.222	2719
954.312	1845
954.402	1793
954.492	1639
954.581	1586
954.671	1873
954.761	1052
954.850	2474
954.940	861
955.030	1248
955.119	1333
955.209	1837
955.298	921
955.388	2163
955.477	2299
955.567	951
955.656	2257
955.746	2183
955.835	913
955.925	1315
956.014	1978
956.103	1646
956.193	2697
956.282	2942
956.371	2095
956.461	2501
956.550	1818
956.639	2443
956.728	1952
956.817	2051
956.906	1897
956.995	2681
957.085	1590
957.174	2255
957.263	1970
957.352	2553
957.441	2175
957.530	2343
957.619	2991
957.708	2219
957.796	2641
957.885	2831
957.974	2458
958.063	2822
958.152	1849
958.241	2275
958.329	2360
958.418	2649
958.507	2539
958.596	3123
958.684	2648
958.773	4122
958.861	3563
958.950	3662
959.039	3648
959.127	3979
959.216	3908
959.304	3750
959.393	2681
959.481	4030
959.570	3605
959.658	3349
959.746	3177
959.835	3723
959.923	3578
960.011	2816
960.100	3755
960.188	3260
960.276	3031
960.365	2157
960.453	1977
960.541	2114
960.629	1606
960.717	2694
960.805	1845
960.893	2953
960.981	2445
961.069	3651
961.158	2849
961.245	3383
961.333	3423
961.421	1539
961.509	2900
961.597	2289
961.685	2100
961.773	1947
961.861	2002
961.949	3238
962.036	995
962.124	2609
962.212	1794
962.299	1347
962.387	1218
962.475	1098
962.562	1062
962.650	2252
962.738	1424
962.825	1084
962.913	1408
963.000	1153
963.088	1427
963.175	1803
963.263	1145
963.350	1469
963.438	1182
963.525	623
963.612	1886
963.700	1192
963.787	3474
963.874	1745
963.962	1629
964.049	404
964.136	79
964.223	1693
964.310	1746
964.398	539
964.485	1070
964.572	1047
964.659	1291
964.746	819
964.833	305
964.920	478
965.007	822
965.094	1276
965.181	639
965.268	1299
965.355	872
965.441	997
965.528	428
965.615	499
965.702	1060
965.789	122
965.875	184
965.962	2163
966.049	-149
966.136	1415
966.222	387
966.309	1637
966.395	708
966.482	2076
966.569	693
966.655	940
966.742	761
966.828	698
966.915	694
967.001	962
967.087	256
967.174	236
967.260	663
967.347	677
967.433	800
967.519	1566
967.605	-134
967.692	287
967.778	160
967.864	312
967.950	418
968.036	454
968.123	287
968.209	915
968.295	120
968.381	1836
968.467	-39
968.553	-285
968.639	890
968.725	856
968.811	1523
968.897	1758
968.983	887
969.069	487
969.154	208
969.240	616
969.326	-619
969.412	398
969.497	936
969.583	-78
969.669	1059
969.755	791
969.840	416
969.926	1331
970.012	798
970.097	2820
970.183	1569
970.268	740
970.354	925
970.439	-100
970.525	2151
970.610	-162
970.696	977
970.781	971
970.866	-124
970.952	925
971.037	215
971.122	120
971.208	-199
971.293	601
971.378	-293
971.463	-18
971.549	600
971.634	516
971.719	145
971.804	907
971.889	996
971.974	477
972.059	681
972.144	543
972.229	88
972.314	188
972.399	144
972.484	238
972.569	472
972.654	-691
972.739	845
972.824	-215
972.908	369
972.993	433
973.078	-209
973.163	529
973.247	312
973.332	-340
973.417	1404
973.501	64
973.586	-234
973.671	-392
973.755	-393
973.840	809
973.924	1101
974.009	790
974.093	454
974.178	1456
974.262	160
974.346	325
974.431	339
974.515	310
974.600	-374
974.684	682
974.768	-841
974.852	1397
974.937	-135
975.021	847
975.105	-180
975.189	710
975.273	38
975.358	-255
975.442	-763
975.526	657
975.610	-212
975.694	-890
975.778	820
975.862	-410
975.946	-1428
976.030	1184
976.114	-187
976.198	-120
976.281	210
976.365	941
976.449	40
976.533	374
976.617	-444
976.700	-244
976.784	-748
976.868	-91
976.951	-438
977.035	-778
977.119	294
977.202	38
977.286	1042
977.369	340
977.453	1024
977.536	922
977.620	624
977.703	975
977.787	-525
977.870	719
977.953	600
978.037	207
978.120	769
978.203	457
978.287	71
978.370	57
978.453	-814
978.536	-193
978.620	501
978.703	-152
978.786	-255
978.869	-917
978.952	-1402
979.035	1503
979.118	513
979.201	-133
979.284	419
979.367	295
979.450	1041
979.533	-928
979.616	-24
979.699	-118
979.782	648
979.865	663
979.948	-705
980.030	36
980.113	185
980.196	-1045
980.279	878
980.361	143
980.444	-489
980.526	683
980.609	-111
980.692	941
980.774	1539
980.857	-315
980.939	1029
981.022	348
981.104	-871
981.187	239
981.269	667
981.352	782
981.434	-156
981.516	-332
981.599	681
981.681	836
981.763	-290
981.846	-241
981.928	-717
982.010	715
982.092	141
982.174	771
982.256	25
982.339	432
982.421	651
982.503	163
982.585	-709
982.667	373
982.749	217
982.831	-40
982.913	-1095
982.995	143
983.077	-184
983.158	1154
983.240	-760
983.322	534
983.404	1626
983.486	191
983.568	1377
983.649	463
983.731	630
983.813	438
983.894	45
983.976	-231
984.058	-717
984.139	1614
984.221	-613
984.302	1147
984.384	1198
984.465	315
984.547	887
984.628	10
984.710	839
984.791	695
984.872	437
984.954	454
985.035	-54
985.116	673
985.198	-67
985.279	1660
985.360	-328
985.441	278
985.522	652
985.604	678
985.685	-1659
985.766	1230
985.847	1156
985.928	48
986.009	-373
986.090	509
986.171	687
986.252	185
986.333	321
986.414	751
986.495	535
986.576	947
986.656	388
986.737	728
986.818	1352
986.899	491
986.980	174
987.060	2205
987.141	-506
987.222	666
987.302	1333
987.383	761
987.464	196
987.544	1893
987.625	269
987.705	1134
987.786	396
987.866	954
987.947	1072
988.027	595
988.108	513
988.188	493
988.268	595
988.349	713
988.429	764
988.509	730
988.589	-58
988.670	-522
988.750	1739
988.830	456
988.910	846
988.990	883
989.070	-107
989.151	700
989.231	-305
989.311	1097
989.391	985
989.471	755
989.551	422
989.631	538
989.711	1245
989.791	380
989.870	-278
989.950	2266
990.030	-89
990.110	1177
990.190	-648
990.269	316
990.349	266
990.429	1485
990.509	1448
990.588	227
990.668	349
990.747	-101
990.827	-146
990.907	1055
990.986	627
991.066	947
991.145	-624
991.225	1185
991.304	-502
991.383	360
991.463	-57
991.542	-71
991.622	-43
991.701	-590
991.780	-182
991.859	302
991.939	211
992.018	374
992.097	728
992.176	1154
992.256	-861
992.335	-1154
992.414	483
992.493	-764
992.572	-768
992.651	1723
992.730	-171
992.809	682
992.888	-374
992.967	327
993.046	344
993.125	-817
993.203	31
993.282	310
993.361	624
993.440	-82
993.519	-994
993.597	-78
993.676	-388
993.755	903
993.834	-69
993.912	-556
993.991	1286
994.069	-189
994.148	82
994.226	-962
994.305	-67
994.384	-591
994.462	186
994.540	-227
994.619	-870
994.697	-133
994.776	-807
994.854	774
994.932	-53
995.011	-467
995.089	-310
995.167	-610
995.245	-523
995.324	-1019
995.402	-289
995.480	-634
995.558	430
995.636	-415
995.714	-996
995.792	1233
995.870	-549
995.948	-563
996.026	209
996.104	-1434
996.182	163
996.260	-1543
996.338	-566
996.416	-986
996.494	-539
996.572	-735
996.649	-1075
996.727	-1021
996.805	-819
996.883	-366
996.960	-557
997.038	-272
997.116	-508
997.193	-584
997.271	56
997.348	-1103
997.426	-437
997.504	-1014
997.581	-113
997.658	-78
997.736	-2357
997.813	-1426
997.891	573
997.968	-353
998.046	-1399
998.123	-734
998.200	-605
998.277	-992
998.355	-536
998.432	-531
998.509	-1759
998.586	-1018
998.663	-713
998.741	-676
998.818	-1271
998.895	-966
998.972	25
999.049	48
999.126	-852
999.203	-365
999.280	-1389
999.357	-794
999.434	-1798
999.511	-664
999.587	-1120
999.664	-1659
999.741	-1594
999.818	4
999.895	-1365
999.971	-468
1000.048	-1081
1000.125	-955
1000.202	-1582
1000.278	-1225
1000.355	-1263
1000.431	-964
1000.508	-1638
1000.584	-828
1000.661	-332
1000.738	-1280
1000.814	-1439
1000.890	-551
1000.967	-1322
1001.043	-877
1001.120	-1138
1001.196	-72
1001.272	-1701
1001.349	-1136
1001.425	-729
1001.501	-1075
1001.577	-773
1001.654	-459
1001.730	-1780
1001.806	-813
1001.882	-1163
1001.958	-767
1002.034	-847
1002.110	-975
1002.186	-1526
1002.262	-1104
1002.338	-1013
1002.414	-1201
1002.490	-1162
1002.566	-1558
1002.642	-2189
1002.718	-63
1002.794	-1022
1002.870	-911
1002.945	-743
1003.021	-327
1003.097	-890
1003.173	-487
1003.248	-1530
1003.324	-557
1003.400	-1340
1003.475	-943
1003.551	-1119
1003.626	-1154
1003.702	-1809
1003.777	-373
1003.853	-1648
1003.928	-1132
1004.004	-1547
1004.079	-1486
1004.155	-1809
1004.230	-1854
1004.305	-325
1004.381	-1468
1004.456	-1075
1004.531	-1287
1004.607	-2037
1004.682	-1414
1004.757	-730
1004.832	-877
1004.907	-1148
1004.982	-706
1005.057	-1560
1005.133	-1546
1005.208	-507
1005.283	-1383
1005.358	-139
1005.433	-1809
1005.508	-459
1005.583	-1752
1005.657	-1461
1005.732	-891
1005.807	-1362
1005.882	-994
1005.957	-914
1006.032	-834
1006.106	-1356
1006.181	-981
1006.256	-1106
1006.331	-800
1006.405	-2676
1006.480	-1381
1006.554	-1191
1006.629	-873
1006.704	-2022
1006.778	-981
1006.853	-956
1006.927	-1370
1007.002	-1380
1007.076	-983
1007.150	-1645
1007.225	-1368
1007.299	-1639
1007.373	-1967
1007.448	-1121
1007.522	-580
1007.596	-746
1007.671	-1671
1007.745	-1633
1007.819	-1632
1007.893	-1875
1007.967	-237
1008.041	-2146
1008.115	-534
1008.190	-2274
1008.264	-1270
1008.338	-2788
1008.412	-1371
1008.486	-1398
1008.560	-1805
1008.633	-2312
1008.707	-1564
1008.781	-968
1008.855	-1269
1008.929	-1445
1009.003	-2115
1009.076	-2430
1009.150	-1292
1009.224	-1566
1009.298	-1117
1009.371	-2634
1009.445	-1333
1009.519	-1333
1009.592	-2195
1009.666	-1619
1009.739	-1028
1009.813	-2452
1009.886	-953
1009.960	-2345
1010.033	-1128
1010.107	-1939
1010.180	-2930
1010.253	-1730
1010.327	-1775
1010.400	-2074
1010.473	-1898
1010.547	38
1010.620	-1694
1010.693	-1424
1010.766	-1598
1010.840	-1598
1010.913	-1290
1010.986	-2067
1011.059	-1624
1011.132	-1785
1011.205	-878
1011.278	-1481
1011.351	-2092
1011.424	-1396
1011.497	-1261
1011.570	-884
1011.643	-1907
1011.716	-1921
1011.789	-1452
1011.862	-1439
1011.934	-657
1012.007	-2621
1012.080	-421
1012.153	-1424
1012.225	-1093
1012.298	-2533
1012.371	-2003
1012.443	-1455
1012.516	-1719
1012.588	-1718
1012.661	-1385
1012.733	-2140
1012.806	-1060
1012.879	-1866
1012.951	-1938
1013.023	-1565
1013.096	-1143
1013.168	-1867
1013.241	-548
1013.313	-1857
1013.385	-1577
1013.458	-2281
1013.530	-993
1013.602	-3160
1013.674	-845
1013.746	-2394
1013.819	-2471
1013.891	-825
1013.963	-1278
1014.035	-1221
1014.107	-1345
1014.179	-940
1014.251	-1821
1014.323	-1922
1014.395	-1783
1014.467	-1554
1014.539	-821
1014.611	-1632
1014.683	-1020
1014.754	-2060
1014.826	-2002
1014.898	-1997
1014.970	-2153
1015.042	-1492
1015.113	-1333
1015.185	-2362
1015.257	-2419
1015.328	-2030
1015.400	-1368
1015.471	-1815
1015.543	-2407
1015.615	-1163
1015.686	-1237
1015.757	-2097
1015.829	-631
1015.901	-1204
1015.972	-1612
1016.043	-1526
1016.115	-1372
1016.186	-1774
1016.257	-1899
1016.328	-1684
1016.400	-977
1016.471	-2424
1016.542	-1890
1016.613	-1417
1016.685	-739
1016.756	-2072
1016.827	-2078
1016.898	-2446
1016.969	-2007
1017.040	-2199
1017.111	-1232
1017.182	-1924
1017.253	-1061
1017.324	-1925
1017.395	-1437
1017.466	-1314
1017.537	-1818
1017.608	-2356
1017.678	-1117
1017.749	-1405
1017.820	-1406
1017.891	-1487
1017.961	-1870
1018.032	-1818
1018.103	-1569
1018.173	-1715
1018.244	-2494
1018.315	-1535
1018.385	-1660
1018.456	-1714
1018.526	-1762
1018.597	-1860
1018.667	-1247
1018.738	-2000
1018.808	-1751
1018.878	-2482
1018.949	-1540
1019.019	-1568
1019.089	-1396
1019.160	-1776
1019.230	-1862
1019.300	-1810
1019.371	-2067
1019.441	-1733
1019.511	-1690
1019.581	-1741
1019.651	-1923
1019.721	-2218
1019.791	-2035
1019.861	-1707
1019.931	-1748
1020.001	-1815
1020.071	-1516
1020.141	-1337
1020.211	-1088
1020.281	-1729
1020.351	-2422
1020.421	-1650
1020.491	-561
1020.560	-1488
1020.630	-2129
1020.700	-1423
1020.770	-1891
1020.839	-1777
1020.909	-1684
1020.979	-1592
1021.048	-1927
1021.118	-2199
1021.187	-1241
1021.257	-2427
1021.326	-1675
1021.396	-1817
1021.465	-1291
1021.535	-2335
1021.604	-2694
1021.674	-2138
1021.743	-2010
1021.812	-1876
1021.882	-1708
1021.951	-2003
1022.020	-1587
1022.089	-1487
1022.159	-1558
1022.228	-2367
1022.297	-1952
1022.366	-2167
1022.435	-1740
1022.504	-2118
1022.573	-2463
1022.642	-1954
1022.711	-2128
1022.781	-1749
1022.849	-2249
1022.918	-1859
1022.987	-1997
1023.056	-2161
1023.125	-2118
1023.194	-1234
1023.263	-674
1023.331	-1525
1023.400	-2893
1023.469	-1744
1023.538	-1128
1023.606	-1810
1023.675	-2430
1023.744	-1905
1023.812	-2294
1023.881	-2516
1023.949	-1000
1024.018	-1295
1024.086	-2309
1024.155	-2285
1024.223	-2271
1024.292	-2147
1024.360	-1322
1024.429	-2192
1024.497	-2693
1024.565	-1701
1024.634	-1834
1024.702	-1880
1024.770	-1734
1024.838	-2102
1024.907	-1980
1024.975	-2905
1025.043	-762
1025.111	-2404
1025.179	-1789
1025.247	-2278
1025.315	-2077
1025.383	-2299
1025.451	-1716
1025.519	-2610
1025.587	-1904
1025.655	-1902
1025.723	-2031
1025.791	-2095
1025.859	-1858
1025.927	-1842
1025.995	-2647
1026.062	-1352
1026.130	-2507
1026.198	-2584
1026.266	-2104
1026.333	-1815
1026.401	-2181
1026.469	-2656
1026.536	-1361
1026.604	-1397
1026.671	-2631
1026.739	-2021
1026.806	-1934
1026.874	-1841
1026.941	-2019
1027.009	-2588
1027.076	-2636
1027.144	-1853
1027.211	-2592
1027.278	-2294
1027.345	-2303
1027.413	-2558
1027.480	-2847
1027.547	-2241
1027.614	-1876
1027.682	-2032
1027.749	-1715
1027.816	-2393
1027.883	-1604
1027.950	-1895
1028.017	-2393
1028.084	-1755
1028.151	-1676
1028.218	-2145
1028.285	-1960
1028.352	-1979
1028.419	-2235
1028.486	-2749
1028.553	-2728
1028.619	-2469
1028.686	-1057
1028.753	-3021
1028.820	-2571
1028.886	-1997
1028.953	-1370
1029.020	-2133
1029.086	-2045
1029.153	-2404
1029.220	-2209
1029.286	-2750
1029.353	-2387
1029.419	-1987
1029.486	-2105
1029.552	-2030
1029.619	-2134
1029.685	-2939
1029.751	-2234
1029.818	-1800
1029.884	-2539
1029.951	-1094
1030.017	-2342
1030.083	-2489
1030.149	-1979
1030.216	-2934
1030.282	-2497
1030.348	-2623
1030.414	-2498
1030.480	-2695
1030.546	-2343
1030.612	-2209
1030.678	-1903
1030.744	-2088
1030.810	-1916
1030.876	-1911
1030.942	-2102
1031.008	-1746
1031.074	-2676
1031.140	-2891
1031.206	-2215
1031.272	-2509
1031.337	-2641
1031.403	-1859
1031.469	-2043
1031.534	-2463
1031.600	-1376
1031.666	-2517
1031.731	-2071
1031.797	-2483
1031.863	-2705
1031.928	-2633
1031.994	-1989
1032.059	-1968
1032.125	-2259
1032.190	-2890
1032.256	-2948
1032.321	-2731
1032.386	-2031
1032.452	-1721
1032.517	-2800
1032.582	-2616
1032.647	-2226
1032.713	-2424
1032.778	-1227
1032.843	-2493
1032.908	-2001
1032.974	-3083
1033.039	-3430
1033.104	-699
1033.169	-2421
1033.234	-2030
1033.299	-1549
1033.364	-2549
1033.429	-1173
1033.494	-2054
1033.559	-1457
1033.624	-2274
1033.688	-2093
1033.753	-2713
1033.818	-2036
1033.883	-2934
1033.948	-764
1034.013	-1438
1034.077	-730
1034.142	-1723
1034.207	-1196
1034.271	-688
1034.336	-98
1034.400	-345
1034.465	-448
1034.530	-2295
1034.594	-2121
1034.658	-1987
1034.723	-2343
1034.787	-2523
1034.852	-2508
1034.916	-2720
1034.981	-2687
1035.045	-1926
1035.109	-2138
1035.173	-2081
1035.238	-2463
1035.302	-1800
1035.366	-2850
1035.430	-2037
1035.495	-2333
1035.559	-2026
1035.623	-1897
1035.687	-2541
1035.751	-2264
1035.815	-2350
1035.879	-1899
1035.943	-2476
1036.007	-1891
1036.071	-2184
1036.135	-2431
1036.198	-2095
1036.262	-2404
1036.326	-2104
1036.390	-2203
1036.454	-2715
1036.517	-2797
1036.581	-3231
1036.645	-2476
1036.709	-2219
1036.772	-2854
1036.836	-2285
1036.900	-2090
1036.963	-2617
1037.026	-2833
1037.090	-2309
1037.154	-2167
1037.217	-2624
1037.280	-2759
1037.344	-2135
1037.407	-2314
1037.471	-2012
1037.534	-2230
1037.597	-3421
1037.661	-2279
1037.724	-2998
1037.787	-3119
1037.850	-3154
1037.913	-2644
1037.977	-1839
1038.040	-2604
1038.103	-3163
1038.166	-3362
1038.229	-2584
1038.292	-2618
1038.355	-2640
1038.418	-1693
1038.481	-2498
1038.544	-2687
1038.607	-2906
1038.670	-2689
1038.732	-2415
1038.795	-2503
1038.858	-2926
1038.921	-1986
1038.984	-1860
1039.046	-3018
1039.109	-2549
1039.172	-1483
1039.234	-3152
1039.297	-2797
1039.360	-2563
1039.422	-2261
1039.485	-3338
1039.547	-2598
1039.610	-2069
1039.672	-1862
1039.734	-2057
1039.797	-3052
1039.859	-2813
1039.922	-2922
1039.984	-2356
1040.046	-2714
1040.109	-2547
1040.171	-2524
1040.233	-2384
1040.295	-2824
1040.358	-2602
1040.420	-2897
1040.482	-1894
1040.544	-2124
1040.606	-2009
1040.668	-2371
1040.730	-2767
1040.792	-2754
1040.854	-3320
1040.916	-2356
1040.978	-2607
1041.040	-1737
1041.102	-2568
1041.164	-2206
1041.225	-2316
1041.287	-2144
1041.349	-3233
1041.411	-2936
1041.472	-2918
1041.534	-2763
1041.596	-3005
1041.657	-2198
1041.719	-3301
1041.781	-2266
1041.842	-3227
1041.904	-1955
1041.965	-2469
1042.027	-1718
1042.088	-2278
1042.150	-2504
1042.211	-2810
1042.272	-2168
1042.334	-2196
1042.395	-1890
1042.456	-2339
1042.518	-1942
1042.579	-2958
1042.640	-2861
1042.701	-2478
1042.763	-1981
1042.824	-2103
1042.885	-2511
1042.946	-1776
1043.007	-1957
1043.068	-2317
1043.129	-2676
1043.190	-2350
1043.251	-1833
1043.312	-2930
1043.373	-2746
1043.434	-1818
1043.495	-1982
1043.556	-1975
1043.616	-1703
1043.677	-2211
1043.738	-2345
1043.799	-1964
1043.859	-1897
1043.920	-2151
1043.981	-2679
1044.041	-2115
1044.102	-1858
1044.162	-1725
1044.223	-2380
1044.284	-2878
1044.344	-1317
1044.405	-1793
1044.465	-2147
1044.525	-2700
1044.586	-2549
1044.646	-2419
1044.707	-1977
1044.767	-2586
1044.827	-1285
1044.887	-2156
1044.948	-2504
1045.008	-2144
1045.068	-1981
1045.128	-1814
1045.188	-1891
1045.249	-1479
1045.309	-1236
1045.369	-2125
1045.429	-1702
1045.489	-2111
1045.549	-2394
1045.609	-2025
1045.669	-1887
1045.729	-1746
1045.789	-2480
1045.848	-1730
1045.908	-1345
1045.968	-1451
1046.028	-1552
1046.088	-2040
1046.147	-1343
1046.207	-2320
1046.267	-1845
1046.326	-1746
1046.386	-1136
1046.446	-2033
1046.505	-1330
1046.565	-1331
1046.624	-1833
1046.684	-1449
1046.743	-762
1046.803	-458
1046.862	-1042
1046.922	0
