'Start Wavelength	183.907
'End Wavelength	1046.922
'Gate Delay	5.000
'Gate Width (ms)	1.050
'Laser Output Level	0.000
'X Position	0.000
'Y Position	0.000
'Z Position	0.000
'Grid Point Number	1.000
'Shot Number	100.000
183.907	740.000
183.977	-357.000
184.047	633
184.116	215
184.186	445
184.256	-215
184.325	-280
184.395	-1069
184.465	942
184.534	-261
184.604	-242
184.674	73
184.743	-527
184.813	331
184.883	-681
184.952	20
185.022	324
185.092	-257
185.161	176
185.231	-384
185.301	-263
185.370	-110
185.440	433
185.509	454
185.579	-159
185.649	164
185.718	610
185.788	343
185.857	553
185.927	-117
185.996	-165
186.066	-270
186.136	-139
186.205	-282
186.275	-246
186.344	60
186.414	382
186.483	-702
186.553	415
186.622	257
186.692	378
186.761	655
186.831	-50
186.900	-527
186.970	777
187.039	514
187.109	829
187.178	-148
187.248	-120
187.317	175
187.387	53
187.456	212
187.526	-362
187.595	614
187.664	-10
187.734	-674
187.803	800
187.873	-40
187.942	202
188.012	-759
188.081	-479
188.150	-206
188.220	-24
188.289	-269
188.358	1075
188.428	386
188.497	-158
188.567	93
188.636	-12
188.705	802
188.775	34
188.844	-651
188.913	389
188.983	-759
189.052	407
189.121	-866
189.191	-512
189.260	-1
189.329	686
189.399	-701
189.468	420
189.537	144
189.606	537
189.676	71
189.745	-355
189.814	399
189.883	55
189.953	-935
190.022	549
190.091	493
190.161	-418
190.230	-293
190.299	-7
190.368	-918
190.437	-195
190.507	-200
190.576	-164
190.645	-650
190.714	83
190.783	-983
190.853	982
190.922	304
190.991	-147
191.060	-735
191.129	-402
191.198	228
191.268	-289
191.337	-115
191.406	272
191.475	-393
191.544	186
191.613	-335
191.682	437
191.752	-505
191.821	-176
191.890	75
191.959	26
192.028	142
192.097	-490
192.166	460
192.235	-349
192.304	292
192.373	190
192.442	92
192.511	-562
192.580	92
192.650	36
192.719	170
192.788	4
192.857	-486
192.926	-70
192.995	-515
193.064	743
193.133	66
193.202	-178
193.271	-586
193.340	477
193.409	-293
193.478	749
193.547	281
193.615	167
193.684	267
193.753	-585
193.822	-93
193.891	-192
193.960	-82
194.029	-302
194.098	-345
194.167	-516
194.236	497
194.305	112
194.374	-445
194.443	-4
194.512	-438
194.580	231
194.649	-269
194.718	159
194.787	-498
194.856	179
194.925	198
194.994	-117
195.062	155
195.131	-754
195.200	-179
195.269	-122
195.338	-713
195.407	555
195.475	-670
195.544	-23
195.613	-74
195.682	108
195.751	-324
195.819	-733
195.888	-892
195.957	271
196.026	-625
196.094	294
196.163	-432
196.232	-259
196.301	444
196.369	-26
196.438	84
196.507	-367
196.576	-129
196.644	-646
196.713	-267
196.782	-109
196.850	-444
196.919	-170
196.988	-89
197.056	-208
197.125	-740
197.194	328
197.262	-196
197.331	-127
197.400	-889
197.468	593
197.537	443
197.606	-408
197.674	520
197.743	258
197.812	-939
197.880	158
197.949	-790
198.017	57
198.086	146
198.155	-416
198.223	303
198.292	288
198.360	-315
198.429	125
198.497	-369
198.566	708
198.635	647
198.703	41
198.772	579
198.840	-87
198.909	92
198.977	-187
199.046	-865
199.114	-417
199.183	152
199.251	-1009
199.320	686
199.388	-370
199.457	-175
199.525	-246
199.594	-381
199.662	372
199.731	247
199.799	-356
199.867	372
199.936	-82
200.004	66
200.073	-619
200.141	-59
200.210	-604
200.278	-336
200.346	-138
200.415	376
200.483	44
200.552	35
200.620	-117
200.688	-818
200.757	694
200.825	-428
200.893	-12
200.962	67
201.030	-388
201.098	-660
201.167	-19
201.235	24
201.303	299
201.372	-63
201.440	-153
201.508	-249
201.577	-441
201.645	-316
201.713	-58
201.781	526
201.850	493
201.918	-415
201.986	-8
202.055	134
202.123	1
202.191	5
202.259	17
202.327	-18
202.396	-934
202.464	-754
202.532	86
202.600	163
202.669	554
202.737	-75
202.805	165
202.873	-145
202.941	251
203.009	-773
203.078	-182
203.146	-312
203.214	-197
203.282	-1122
203.350	481
203.418	266
203.487	610
203.555	172
203.623	-466
203.691	-394
203.759	-1039
203.827	-504
203.895	611
203.963	-310
204.031	-370
204.099	-318
204.168	-286
204.236	128
204.304	-228
204.372	-800
204.440	-398
204.508	201
204.576	-999
204.644	98
204.712	-704
204.780	401
204.848	-29
204.916	-732
204.984	-148
205.052	-760
205.120	-394
205.188	-123
205.256	-477
205.324	-275
205.392	-275
205.460	-106
205.528	-826
205.596	-232
205.664	528
205.732	-203
205.799	-86
205.867	219
205.935	-452
206.003	328
206.071	-369
206.139	-481
206.207	47
206.275	-87
206.343	-1211
206.411	231
206.478	71
206.546	-372
206.614	-66
206.682	-14
206.750	99
206.818	-30
206.885	520
206.953	-812
207.021	507
207.089	908
207.157	-252
207.225	-770
207.292	-836
207.360	-544
207.428	-267
207.496	-83
207.563	-386
207.631	-126
207.699	-181
207.767	-311
207.834	-960
207.902	-585
207.970	122
208.038	-808
208.105	-251
208.173	132
208.241	-149
208.309	889
208.376	388
208.444	362
208.512	5
208.579	-815
208.647	14
208.715	632
208.782	-502
208.850	231
208.918	-45
208.985	-920
209.053	-326
209.120	-704
209.188	-734
209.256	-576
209.323	-264
209.391	-767
209.459	195
209.526	337
209.594	-722
209.661	-555
209.729	-261
209.796	515
209.864	504
209.932	-662
209.999	1438
210.067	-336
210.134	-14
210.202	296
210.269	777
210.337	1142
210.404	-61
210.472	-1039
210.539	301
210.607	-272
210.674	-266
210.742	225
210.809	-466
210.877	702
210.944	113
211.012	-274
211.079	867
211.146	-769
211.214	144
211.281	580
211.349	937
211.416	528
211.484	799
211.551	19
211.618	118
211.686	913
211.753	-1149
211.821	235
211.888	-893
211.955	195
212.023	235
212.090	-84
212.157	-467
212.225	313
212.292	296
212.359	823
212.427	3068
212.494	1441
212.561	-343
212.629	35
212.696	136
212.763	338
212.831	-68
212.898	737
212.965	-63
213.032	-995
213.100	200
213.167	-349
213.234	-52
213.301	-556
213.369	108
213.436	-591
213.503	-72
213.570	-136
213.638	118
213.705	-975
213.772	-1120
213.839	-141
213.906	35
213.973	-340
214.041	-470
214.108	-476
214.175	47
214.242	86
214.309	-241
214.376	-444
214.444	-299
214.511	-566
214.578	-473
214.645	561
214.712	889
214.779	-591
214.846	-685
214.913	796
214.980	194
215.048	843
215.115	843
215.182	-130
215.249	-40
215.316	-236
215.383	-316
215.450	-943
215.517	-733
215.584	-282
215.651	455
215.718	-221
215.785	279
215.852	-694
215.919	275
215.986	-118
216.053	-5
216.120	-1035
216.187	-323
216.254	-103
216.321	-110
216.388	-264
216.455	-143
216.522	395
216.589	101
216.656	189
216.722	485
216.789	324
216.856	-16
216.923	-148
216.990	-213
217.057	-223
217.124	232
217.191	-459
217.258	697
217.324	446
217.391	480
217.458	150
217.525	425
217.592	-91
217.659	-763
217.725	825
217.792	-529
217.859	876
217.926	-652
217.993	154
218.059	867
218.126	-431
218.193	-920
218.260	-652
218.327	-1105
218.393	-690
218.460	-421
218.527	-312
218.594	296
218.660	-139
218.727	836
218.794	-437
218.860	371
218.927	-130
218.994	545
219.061	-234
219.127	3
219.194	-441
219.261	-128
219.327	524
219.394	1111
219.461	-452
219.527	205
219.594	694
219.661	370
219.727	-788
219.794	802
219.860	-675
219.927	743
219.994	952
220.060	2720
220.127	2335
220.193	770
220.260	528
220.326	990
220.393	-183
220.460	196
220.526	70
220.593	137
220.659	1573
220.726	-190
220.792	1562
220.859	1460
220.925	583
220.992	2095
221.058	2342
221.125	2176
221.191	1250
221.258	-316
221.324	760
221.391	-39
221.457	-331
221.524	685
221.590	583
221.657	2338
221.723	697
221.789	773
221.856	930
221.922	-450
221.989	743
222.055	-50
222.121	-306
222.188	2172
222.254	1162
222.321	455
222.387	-1012
222.453	31
222.520	351
222.586	-55
222.652	280
222.719	-1014
222.785	235
222.851	45
222.918	30
222.984	-637
223.050	-539
223.116	-653
223.183	475
223.249	-1080
223.315	227
223.382	885
223.448	79
223.514	4
223.580	-327
223.647	-33
223.713	-379
223.779	271
223.845	-339
223.911	459
223.978	-1245
224.044	427
224.110	-82
224.176	111
224.242	-415
224.309	-479
224.375	43
224.441	562
224.507	5
224.573	-775
224.639	667
224.705	-737
224.772	-297
224.838	-674
224.904	-58
224.970	-389
225.036	-655
225.102	-764
225.168	588
225.234	1102
225.300	-159
225.366	-150
225.432	95
225.499	588
225.565	504
225.631	-318
225.697	-93
225.763	511
225.829	427
225.895	-115
225.961	71
226.027	90
226.093	-234
226.159	1292
226.225	1727
226.291	1621
226.357	2854
226.423	1834
226.489	886
226.554	992
226.620	650
226.686	-65
226.752	962
226.818	1782
226.884	4620
226.950	4819
227.016	1815
227.082	1963
227.148	922
227.214	559
227.279	168
227.345	580
227.411	849
227.477	1777
227.543	3848
227.609	5021
227.674	3098
227.740	1019
227.806	1061
227.872	685
227.938	444
228.003	396
228.069	207
228.135	-137
228.201	171
228.267	-304
228.332	-88
228.398	-479
228.464	1026
228.530	-293
228.595	308
228.661	232
228.727	-320
228.792	1422
228.858	-349
228.924	-1643
228.990	1575
229.055	-1154
229.121	-376
229.187	-851
229.252	-531
229.318	293
229.384	152
229.449	-77
229.515	-247
229.581	-1137
229.646	1354
229.712	-797
229.777	-118
229.843	-308
229.909	375
229.974	-127
230.040	664
230.105	-268
230.171	-382
230.236	254
230.302	436
230.368	-417
230.433	-1200
230.499	549
230.564	488
230.630	-632
230.695	-402
230.761	291
230.826	-732
230.892	348
230.957	-1455
231.023	-77
231.088	-114
231.154	330
231.219	888
231.284	-216
231.350	191
231.415	-355
231.481	473
231.546	-45
231.612	980
231.677	-448
231.742	-991
231.808	1205
231.873	-165
231.939	-1525
232.004	854
232.069	414
232.135	-732
232.200	17
232.265	337
232.331	-744
232.396	187
232.461	-263
232.527	-29
232.592	-185
232.657	264
232.723	-482
232.788	138
232.853	405
232.918	-160
232.984	-720
233.049	-666
233.114	-777
233.179	1083
233.245	983
233.310	524
233.375	-758
233.440	538
233.506	57
233.571	-1248
233.636	-527
233.701	24
233.766	188
233.832	-75
233.897	-290
233.962	-1462
234.027	902
234.092	510
234.157	-311
234.222	438
234.288	-5
234.353	785
234.418	1086
234.483	876
234.548	-151
234.613	-264
234.678	-53
234.743	-156
234.808	1151
234.873	76
234.938	751
235.004	127
235.069	-673
235.134	-1004
235.199	-246
235.264	603
235.329	-1256
235.394	129
235.459	427
235.524	-249
235.589	575
235.654	-531
235.719	-1123
235.784	737
235.849	346
235.913	-220
235.978	788
236.043	-321
236.108	477
236.173	-648
236.238	775
236.303	332
236.368	-69
236.433	353
236.498	111
236.563	462
236.627	993
236.692	6607
236.757	5006
236.822	1022
236.887	464
236.952	1304
237.017	-518
237.081	1033
237.146	364
237.211	2455
237.276	6155
237.341	11098
237.405	3635
237.470	978
237.535	1165
237.600	1089
237.664	1364
237.729	-910
237.794	-487
237.859	1255
237.923	457
237.988	230
238.053	538
238.118	3
238.182	1006
238.247	2274
238.312	-127
238.376	803
238.441	-1768
238.506	432
238.570	-1430
238.635	860
238.700	260
238.764	-71
238.829	1274
238.893	-60
238.958	693
239.023	-103
239.087	820
239.152	298
239.216	-672
239.281	478
239.346	311
239.410	-46
239.475	-71
239.539	1619
239.604	714
239.668	863
239.733	1026
239.797	4630
239.862	9132
239.926	6360
239.991	3237
240.055	1689
240.120	544
240.184	490
240.249	144
240.313	625
240.378	290
240.442	822
240.507	484
240.571	-332
240.635	441
240.700	727
240.764	429
240.829	-457
240.893	-421
240.957	417
241.022	808
241.086	2009
241.151	-551
241.215	-523
241.279	767
241.344	685
241.408	807
241.472	-74
241.537	698
241.601	634
241.665	-877
241.730	-438
241.794	1184
241.858	-757
241.922	233
241.987	577
242.051	-703
242.115	-858
242.179	-173
242.244	-1153
242.308	358
242.372	-289
242.436	43
242.501	205
242.565	-1006
242.629	-244
242.693	948
242.757	-451
242.822	-168
242.886	-108
242.950	833
243.014	-936
243.078	573
243.142	-683
243.206	-302
243.271	353
243.335	-859
243.399	468
243.463	2954
243.527	9504
243.591	1630
243.655	-59
243.719	-502
243.783	1691
243.847	78
243.911	798
243.975	17
244.040	-732
244.104	937
244.168	-388
244.232	-766
244.296	347
244.360	-174
244.424	-1361
244.488	381
244.552	-223
244.615	-1698
244.679	119
244.743	-594
244.807	-379
244.871	167
244.935	438
244.999	-1456
245.063	-258
245.127	708
245.191	114
245.255	51
245.319	263
245.383	-1860
245.446	565
245.510	-1115
245.574	-784
245.638	-196
245.702	-1623
245.766	908
245.829	870
245.893	-1008
245.957	-494
246.021	739
246.085	-251
246.149	1001
246.212	1764
246.276	2194
246.340	297
246.404	309
246.467	628
246.531	-1734
246.595	225
246.659	257
246.722	-836
246.786	202
246.850	-343
246.913	56
246.977	-1605
247.041	-529
247.104	-249
247.168	-502
247.232	961
247.295	2791
247.359	1109
247.423	-351
247.486	558
247.550	1255
247.614	-576
247.677	383
247.741	189
247.804	-383
247.868	897
247.932	209
247.995	3529
248.059	25
248.122	-425
248.186	1029
248.249	311
248.313	5074
248.376	5328
248.440	1766
248.503	-608
248.567	969
248.630	125
248.694	680
248.757	2254
248.821	6164
248.884	2556
248.948	1828
249.011	3630
249.075	6371
249.138	5589
249.202	177
249.265	189
249.328	1730
249.392	-989
249.455	720
249.519	-343
249.582	-22
249.645	783
249.709	739
249.772	14
249.835	655
249.899	-137
249.962	285
250.025	-292
250.089	2104
250.152	2232
250.215	817
250.279	-247
250.342	1404
250.405	457
250.468	201
250.532	798
250.595	2597
250.658	8327
250.721	16705
250.785	3645
250.848	2493
250.911	-96
250.974	1143
251.038	612
251.101	3862
251.164	581
251.227	1598
251.290	683
251.354	2619
251.417	14370
251.480	13443
251.543	7006
251.606	28061
251.669	17544
251.732	5238
251.795	4837
251.859	5010
251.922	16101
251.985	8416
252.048	2701
252.111	1475
252.174	463
252.237	2246
252.300	7320
252.363	7098
252.426	22100
252.489	6668
252.552	2729
252.615	902
252.678	1966
252.741	5896
252.804	7155
252.867	21458
252.930	10046
252.993	3657
253.056	1514
253.119	1136
253.182	463
253.245	880
253.308	1614
253.371	161
253.434	960
253.497	124
253.559	2296
253.622	1339
253.685	612
253.748	565
253.811	-149
253.874	1662
253.937	-236
254.000	740
254.062	135
254.125	2791
254.188	2602
254.251	888
254.314	-245
254.376	660
254.439	1715
254.502	628
254.565	635
254.628	3164
254.690	713
254.753	-296
254.816	477
254.878	-26
254.941	1960
255.004	1881
255.067	739
255.129	-299
255.192	-169
255.255	-1028
255.317	0
255.380	-59
255.443	-478
255.505	121
255.568	-201
255.631	-189
255.693	127
255.756	-1074
255.819	316
255.881	-159
255.944	-652
256.006	-737
256.069	-1046
256.132	-1019
256.194	-84
256.257	235
256.319	501
256.382	262
256.444	1112
256.507	1231
256.569	169
256.632	-283
256.694	-976
256.757	3314
256.819	10427
256.882	2427
256.944	303
257.007	805
257.069	67
257.132	17
257.194	636
257.257	-516
257.319	-207
257.381	-515
257.444	2378
257.506	11901
257.569	12280
257.631	2869
257.693	1667
257.756	796
257.818	-424
257.880	1276
257.943	-106
258.005	-1335
258.067	630
258.130	807
258.192	213
258.254	119
258.317	-220
258.379	-178
258.441	555
258.503	768
258.566	836
258.628	2395
258.690	-1669
258.753	475
258.815	399
258.877	-80
258.939	82
259.001	277
259.064	-541
259.126	-988
259.188	-368
259.250	-137
259.312	-415
259.375	375
259.437	-345
259.499	-91
259.561	379
259.623	9
259.685	-416
259.747	-57
259.809	1227
259.872	2612
259.934	4121
259.996	3462
260.058	874
260.120	-359
260.182	-697
260.244	-329
260.306	-484
260.368	424
260.430	-1036
260.492	596
260.554	344
260.616	-342
260.678	1794
260.740	2109
260.802	-369
260.864	1124
260.926	-781
260.988	702
261.050	-1228
261.112	98
261.174	2781
261.236	1852
261.298	-73
261.359	1221
261.421	1543
261.483	-964
261.545	72
261.607	-797
261.669	-184
261.731	151
261.793	988
261.854	-1156
261.916	693
261.978	-350
262.040	147
262.102	235
262.164	-796
262.225	734
262.287	-163
262.349	121
262.411	167
262.472	515
262.534	-534
262.596	616
262.658	740
262.719	-434
262.781	-390
262.843	-221
262.904	376
262.966	468
263.028	-761
263.090	3563
263.151	9954
263.213	3500
263.275	-183
263.336	722
263.398	632
263.459	-1770
263.521	-267
263.583	311
263.644	-543
263.706	-231
263.767	-636
263.829	222
263.891	-714
263.952	-395
264.014	-980
264.075	-182
264.137	91
264.198	225
264.260	-939
264.321	-278
264.383	95
264.444	1605
264.506	-297
264.567	-645
264.629	1089
264.690	-1012
264.752	431
264.813	197
264.875	-1080
264.936	219
264.998	-420
265.059	-6
265.120	-186
265.182	169
265.243	3364
265.305	4867
265.366	607
265.427	468
265.489	541
265.550	-855
265.611	-258
265.673	-417
265.734	-713
265.795	590
265.857	-790
265.918	28
265.979	559
266.040	6891
266.102	5609
266.163	2362
266.224	125
266.286	186
266.347	-1538
266.408	-666
266.469	-1066
266.530	-417
266.592	-925
266.653	383
266.714	927
266.775	-122
266.836	-61
266.898	-472
266.959	-1129
267.020	176
267.081	929
267.142	-482
267.203	-176
267.264	-705
267.326	-126
267.387	-1021
267.448	-610
267.509	151
267.570	-197
267.631	-153
267.692	-917
267.753	175
267.814	-345
267.875	-573
267.936	874
267.997	323
268.058	-853
268.119	161
268.180	-821
268.241	-603
268.302	-746
268.363	-1187
268.424	-992
268.485	59
268.546	-267
268.607	-180
268.668	-745
268.729	-755
268.790	-506
268.851	-705
268.912	-663
268.972	-369
269.033	-131
269.094	-534
269.155	93
269.216	-770
269.277	120
269.338	-854
269.398	-259
269.459	-1289
269.520	-219
269.581	368
269.642	-768
269.702	-118
269.763	4
269.824	-687
269.885	-623
269.945	-594
270.006	333
270.067	-1450
270.128	-729
270.188	-440
270.249	-1089
270.310	-467
270.370	-103
270.431	-325
270.492	-549
270.553	-55
270.613	-351
270.674	671
270.734	-142
270.795	-77
270.856	-112
270.916	-625
270.977	-374
271.038	303
271.098	-605
271.159	-203
271.219	-772
271.280	-196
271.340	-427
271.401	-885
271.462	-508
271.522	341
271.583	-456
271.643	-942
271.704	-344
271.764	-296
271.825	463
271.885	4604
271.946	6717
272.006	680
272.066	2208
272.127	6324
272.187	4298
272.248	2387
272.308	124
272.369	3591
272.429	2201
272.489	851
272.550	-204
272.610	771
272.671	-95
272.731	671
272.791	-89
272.852	-506
272.912	-286
272.972	170
273.033	-248
273.093	200
273.153	142
273.214	-4
273.274	50
273.334	1695
273.394	3951
273.455	513
273.515	1727
273.575	2665
273.635	1097
273.696	1263
273.756	4145
273.816	1441
273.876	562
273.936	1092
273.997	2145
274.057	-543
274.117	385
274.177	367
274.237	4768
274.297	5673
274.358	1653
274.418	3492
274.478	1349
274.538	182
274.598	281
274.658	1513
274.718	1928
274.778	1307
274.838	61
274.898	526
274.958	2961
275.018	4990
275.078	2589
275.138	1114
275.198	-446
275.258	-365
275.318	445
275.378	457
275.438	248
275.498	670
275.558	798
275.618	3464
275.678	2139
275.738	1414
275.798	1127
275.858	11
275.918	216
275.978	726
276.038	141
276.098	588
276.157	-157
276.217	2140
276.277	889
276.337	-143
276.397	232
276.457	127
276.517	221
276.576	738
276.636	0
276.696	685
276.756	484
276.815	923
276.875	-238
276.935	498
276.995	398
277.055	496
277.114	1312
277.174	-208
277.234	1485
277.293	511
277.353	159
277.413	366
277.472	136
277.532	-107
277.592	374
277.651	2158
277.711	5589
277.771	1950
277.830	6383
277.890	4182
277.950	3334
278.009	13100
278.069	4005
278.128	3687
278.188	5450
278.248	2278
278.307	5604
278.367	3508
278.426	1165
278.486	254
278.545	-2
278.605	-151
278.664	-20
278.724	1129
278.783	2002
278.843	5838
278.902	1261
278.962	390
279.021	809
279.081	2314
279.140	1066
279.199	893
279.259	833
279.318	1359
279.378	1744
279.437	2783
279.496	9269
279.556	40203
279.615	29434
279.675	6244
279.734	2994
279.793	3552
279.853	5159
279.912	2422
279.971	1633
280.031	2115
280.090	2862
280.149	3548
280.208	3897
280.268	26724
280.327	26390
280.386	4109
280.445	2669
280.505	2226
280.564	546
280.623	535
280.682	966
280.742	2060
280.801	691
280.860	377
280.919	306
280.978	199
281.037	-578
281.097	-90
281.156	928
281.215	744
281.274	-36
281.333	2882
281.392	2151
281.451	739
281.510	691
281.569	-86
281.628	-1027
281.688	-626
281.747	778
281.806	406
281.865	-564
281.924	26
281.983	-435
282.042	48
282.101	351
282.160	743
282.219	479
282.278	338
282.337	1058
282.396	-372
282.454	-164
282.513	682
282.572	771
282.631	726
282.690	518
282.749	-5
282.808	568
282.867	35
282.926	-197
282.985	-137
283.043	-727
283.102	469
283.161	-69
283.220	658
283.279	1396
283.338	778
283.396	-508
283.455	-94
283.514	444
283.573	899
283.631	594
283.690	151
283.749	519
283.808	436
283.866	586
283.925	-476
283.984	77
284.043	172
284.101	641
284.160	-421
284.219	-19
284.277	867
284.336	187
284.395	2316
284.453	1577
284.512	1459
284.570	1518
284.629	587
284.688	-177
284.746	844
284.805	635
284.863	969
284.922	1167
284.981	3379
285.039	4733
285.098	7432
285.156	20104
285.215	51233
285.273	45298
285.332	21170
285.390	10148
285.449	6868
285.507	3544
285.566	2514
285.624	1789
285.683	1375
285.741	825
285.799	718
285.858	517
285.916	956
285.975	287
286.033	-22
286.091	137
286.150	-556
286.208	-172
286.267	342
286.325	575
286.383	401
286.442	62
286.500	24
286.558	505
286.616	52
286.675	968
286.733	-70
286.791	185
286.850	310
286.908	362
286.966	657
287.024	650
287.083	359
287.141	155
287.199	1073
287.257	784
287.315	841
287.374	442
287.432	939
287.490	79
287.548	975
287.606	-698
287.664	573
287.723	383
287.781	1159
287.839	807
287.897	1000
287.955	867
288.013	1625
288.071	4194
288.129	17862
288.187	54851
288.245	21916
288.303	5781
288.361	3103
288.419	2427
288.477	1839
288.535	1438
288.593	432
288.651	-168
288.709	787
288.767	725
288.825	-327
288.883	-136
288.941	-94
288.999	175
289.057	391
289.115	-21
289.173	219
289.231	-151
289.289	-330
289.346	-269
289.404	919
289.462	427
289.520	990
289.578	-502
289.636	-474
289.694	228
289.751	8
289.809	-134
289.867	419
289.925	140
289.983	431
290.040	-202
290.098	-73
290.156	-174
290.214	25
290.271	23
290.329	1003
290.387	-276
290.444	6
290.502	125
290.560	303
290.617	247
290.675	748
290.733	-122
290.790	697
290.848	872
290.906	-429
290.963	-11
291.021	430
291.078	-7
291.136	-181
291.194	387
291.251	1639
291.309	546
291.366	127
291.424	-108
291.481	143
291.539	145
291.596	109
291.654	-390
291.711	-19
291.769	-261
291.826	725
291.884	-66
291.941	255
291.999	312
292.056	448
292.114	-319
292.171	351
292.228	997
292.286	160
292.343	551
292.401	754
292.458	360
292.515	116
292.573	232
292.630	512
292.687	-528
292.745	-89
292.802	-63
292.859	1187
292.917	1948
292.974	1604
293.031	1055
293.089	77
293.146	-168
293.203	-490
293.260	-276
293.318	-42
293.375	449
293.432	29
293.489	326
293.546	283
293.604	417
293.661	1567
293.718	6021
293.775	1639
293.832	1159
293.889	990
293.947	955
294.004	1315
294.061	180
294.118	1133
294.175	1616
294.232	2575
294.289	815
294.346	-497
294.403	539
294.460	-257
294.517	-168
294.574	596
294.631	388
294.688	-79
294.745	785
294.802	5910
294.859	4751
294.916	1805
294.973	-167
295.030	-350
295.087	355
295.144	83
295.201	275
295.258	-100
295.315	-39
295.372	2342
295.429	3996
295.486	1959
295.542	-75
295.599	1813
295.656	2081
295.713	1984
295.770	2922
295.827	1185
295.883	508
295.940	-179
295.997	-524
296.054	228
296.111	-397
296.167	-186
296.224	-728
296.281	-393
296.338	-233
296.394	282
296.451	-330
296.508	749
296.564	2267
296.621	1779
296.678	4837
296.734	7126
296.791	2084
296.848	1063
296.904	567
296.961	915
297.018	3038
297.074	2812
297.131	1239
297.187	721
297.244	1672
297.301	4330
297.357	9023
297.414	2178
297.470	-221
297.527	-390
297.583	42
297.640	-44
297.696	-320
297.753	-176
297.809	-406
297.866	-283
297.922	167
297.979	263
298.035	-564
298.092	328
298.148	1590
298.204	1573
298.261	966
298.317	2523
298.374	6079
298.430	3399
298.486	917
298.543	715
298.599	-49
298.656	72
298.712	1120
298.768	3667
298.824	2887
298.881	627
298.937	309
298.993	154
299.050	635
299.106	405
299.162	-204
299.218	861
299.275	460
299.331	691
299.387	796
299.443	6737
299.500	13011
299.556	9379
299.612	2749
299.668	3267
299.724	9255
299.780	11188
299.837	3177
299.893	2649
299.949	8898
300.005	12080
300.061	9154
300.117	15781
300.173	6847
300.229	2645
300.285	2553
300.341	1486
300.397	1099
300.453	772
300.510	1978
300.566	1139
300.622	3102
300.678	15393
300.734	18341
300.790	9109
300.845	7143
300.901	9024
300.957	12879
301.013	5887
301.069	1985
301.125	1718
301.181	1093
301.237	731
301.293	-130
301.349	573
301.405	-304
301.461	313
301.516	711
301.572	447
301.628	-219
301.684	-19
301.740	329
301.796	1664
301.851	537
301.907	2261
301.963	1881
302.019	4151
302.074	15889
302.130	16185
302.186	6131
302.242	2838
302.297	1434
302.353	771
302.409	1485
302.464	1528
302.520	837
302.576	3338
302.631	4948
302.687	2335
302.743	305
302.798	-59
302.854	385
302.910	246
302.965	363
303.021	15
303.076	183
303.132	1112
303.187	932
303.243	932
303.299	-377
303.354	-178
303.410	-35
303.465	-241
303.521	592
303.576	-376
303.632	324
303.687	1316
303.743	4547
303.798	4213
303.853	1315
303.909	432
303.964	740
304.020	-81
304.075	221
304.130	407
304.186	1153
304.241	2100
304.297	668
304.352	815
304.358	773
304.407	427
304.449	844
304.463	990
304.518	-741
304.539	-271
304.573	444
304.629	551
304.630	542
304.684	266
304.720	1726
304.739	2418
304.794	5371
304.811	4285
304.850	1711
304.902	1076
304.905	1038
304.960	-172
304.992	-70
305.015	8
305.071	780
305.083	536
305.126	-330
305.173	-135
305.181	-99
305.236	424
305.264	9
305.292	-450
305.347	-282
305.354	-341
305.402	-583
305.445	498
305.457	773
305.512	105
305.535	462
305.567	966
305.622	-138
305.626	-79
305.678	1408
305.716	3375
305.733	3991
305.788	4909
305.807	3969
305.843	2505
305.897	4833
305.898	4859
305.953	4669
305.988	3104
306.008	2257
306.063	803
306.078	600
306.118	316
306.168	-85
306.173	-118
306.228	651
306.259	206
306.283	-132
306.338	490
306.349	480
306.393	281
306.440	207
306.448	254
306.503	351
306.530	741
306.558	1088
306.613	1167
306.620	1310
306.668	2656
306.711	3554
306.723	3502
306.778	2782
306.801	1945
306.833	1269
306.888	710
306.892	702
306.943	566
306.982	299
306.997	255
307.052	553
307.072	568
307.107	654
307.162	852
307.163	854
307.217	1399
307.253	1582
307.272	1548
307.327	1831
307.343	1648
307.381	1363
307.434	951
307.436	969
307.491	2282
307.524	2904
307.546	2909
307.600	3494
307.614	3193
307.655	2142
307.704	1145
307.710	1151
307.765	1745
307.795	1949
307.819	1941
307.874	2865
307.885	2884
307.929	2878
307.975	3031
307.984	3238
308.038	4872
308.065	5936
308.093	12119
308.148	26740
308.156	30046
308.202	42549
308.246	49083
308.257	47266
308.312	23765
308.336	14845
308.366	10618
308.421	5366
308.426	5075
308.475	3881
308.517	2688
308.530	2415
308.585	2482
308.607	2140
308.639	1987
308.694	2048
308.697	2078
308.748	3415
308.787	4767
308.803	4728
308.857	3483
308.877	2988
308.912	2974
308.967	3503
308.967	3500
309.021	4932
309.058	6397
309.076	8371
309.130	14750
309.148	17154
309.185	37086
309.238	72052
309.239	72165
309.293	70224
309.328	59376
309.348	50441
309.402	22405
309.418	15568
309.457	10590
309.508	6123
309.511	6031
309.566	5727
309.598	5597
309.620	6211
309.674	8543
309.688	9012
309.729	8222
309.778	7151
309.783	7049
309.837	5270
309.868	4412
309.892	4786
309.946	6033
309.959	6315
310.001	6742
310.049	7257
310.055	7078
310.109	4521
310.139	3463
310.163	3050
310.218	1845
310.229	1626
310.272	1748
310.319	2011
310.326	1957
310.381	1507
310.409	1182
310.435	1391
310.489	1976
310.499	2071
310.543	1978
310.589	1888
310.598	1924
310.652	2171
310.679	2139
310.706	1939
310.760	1785
310.769	1730
310.814	1953
310.859	2092
310.868	2030
310.923	1680
310.948	1550
310.977	1753
311.031	2178
311.038	2216
311.085	2038
311.128	1795
311.139	1826
311.193	2041
311.218	2097
311.247	2181
311.301	2310
311.308	2323
311.356	2375
311.398	2389
311.410	2354
311.464	2142
311.488	2019
311.518	2027
311.572	2046
311.578	2043
311.626	2411
311.668	2738
311.680	2754
311.734	2663
311.758	2651
311.788	2472
311.842	2139
311.847	2094
311.896	2929
311.937	3622
311.950	3434
312.004	2558
312.027	2176
312.058	2270
312.112	2402
312.117	2408
312.165	2341
312.207	2271
312.297	2500
312.386	1814
312.476	2571
312.566	2512
312.656	2679
312.745	2241
312.835	2797
312.925	2465
313.015	3348
313.104	2058
313.194	3705
313.284	2287
313.374	3615
313.463	3152
313.553	3970
313.643	3557
313.732	4479
313.822	3570
313.912	4673
314.001	3883
314.091	4621
314.180	4906
314.270	5426
314.360	4436
314.449	4982
314.539	3079
314.628	4827
314.718	4399
314.808	5461
314.897	5329
314.987	5515
315.076	5356
315.166	5388
315.255	5118
315.345	5415
315.434	5288
315.524	6031
315.613	6695
315.703	10197
315.792	32963
315.881	110418
315.971	27485
316.060	9257
316.150	6666
316.239	5587
316.328	4498
316.418	5492
316.507	5572
316.597	6871
316.686	6058
316.775	5842
316.865	6377
316.954	4716
317.043	3984
317.133	4771
317.222	3688
317.311	4553
317.400	3273
317.490	5537
317.579	5819
317.668	7739
317.757	13997
317.847	55871
317.936	154395
318.025	40872
318.114	43339
318.203	16442
318.293	7152
318.382	9860
318.471	9524
318.560	9807
318.649	11195
318.738	5276
318.828	3939
318.917	4098
319.006	3561
319.095	5600
319.184	10521
319.273	6779
319.362	4229
319.451	3035
319.540	2977
319.629	3298
319.718	4665
319.807	3798
319.896	5601
319.985	14113
320.074	5111
320.163	4231
320.252	3239
320.341	4733
320.430	3707
320.519	5051
320.608	3878
320.697	5784
320.786	5835
320.875	7555
320.964	6634
321.053	7957
321.142	9602
321.230	10620
321.319	10294
321.408	13688
321.497	10869
321.586	9903
321.675	9533
321.764	9207
321.852	8264
321.941	9276
322.030	8484
322.119	10524
322.207	13875
322.296	13046
322.385	12963
322.474	15506
322.562	17070
322.651	12637
322.740	9689
322.829	9083
322.917	8625
323.006	6864
323.095	6390
323.183	5730
323.272	5924
323.361	8642
323.449	14364
323.538	6343
323.626	10638
323.715	6442
323.804	4718
323.892	9163
323.981	4966
324.069	5454
324.158	6496
324.246	5792
324.335	3578
324.424	4591
324.512	3359
324.601	3518
324.689	3660
324.778	5295
324.866	3925
324.954	3279
325.043	2736
325.131	3585
325.220	4981
325.308	4544
325.397	4495
325.485	3395
325.574	2643
325.662	3186
325.750	2716
325.839	3135
325.927	2231
326.015	3368
326.104	2870
326.192	4124
326.280	1897
326.369	2785
326.457	2824
326.545	3308
326.634	2424
326.722	3718
326.810	2340
326.898	3153
326.987	3468
327.075	4094
327.163	4663
327.251	3708
327.340	4125
327.428	5422
327.516	5994
327.604	4453
327.692	4080
327.781	3706
327.869	2810
327.957	2862
328.045	2424
328.133	3039
328.221	1654
328.309	2933
328.397	2575
328.485	3251
328.574	4950
328.662	8864
328.750	5735
328.838	3731
328.926	2627
329.014	2452
329.102	2479
329.190	3624
329.278	2160
329.366	2229
329.454	1445
329.542	2386
329.630	1335
329.718	2254
329.806	1514
329.893	2574
329.981	1871
330.069	2355
330.157	2355
330.245	2765
330.333	2475
330.421	2411
330.509	2358
330.597	5345
330.684	2845
330.772	3085
330.860	2748
330.948	3225
331.036	2273
331.123	1955
331.211	2435
331.299	2344
331.387	2696
331.475	4078
331.562	2309
331.650	1975
331.738	2193
331.825	2775
331.913	1840
332.001	2703
332.089	1998
332.176	3212
332.264	5185
332.352	3668
332.439	2496
332.527	2638
332.614	2585
332.702	2417
332.790	1900
332.877	3666
332.965	4709
333.052	3181
333.140	2949
333.228	5251
333.315	3848
333.403	4047
333.490	4716
333.578	4223
333.665	6630
333.753	5928
333.840	4636
333.928	5442
334.015	6892
334.103	9876
334.190	19663
334.278	14126
334.365	17183
334.452	16293
334.540	10922
334.627	12275
334.715	16569
334.802	23079
334.889	44085
334.977	46309
335.064	24550
335.151	13476
335.239	10008
335.326	9730
335.413	13660
335.501	15233
335.588	9642
335.675	11296
335.762	13208
335.850	20024
335.937	26847
336.024	42842
336.111	64580
336.199	48140
336.286	23948
336.373	15376
336.460	10195
336.547	8576
336.635	7019
336.722	5389
336.809	5165
336.896	5478
336.983	6542
337.070	11505
337.157	14606
337.245	12100
337.332	8421
337.419	5181
337.506	4263
337.593	4140
337.680	5896
337.767	9818
337.854	4338
337.941	4174
338.028	5133
338.115	3379
338.202	4309
338.289	5502
338.376	9626
338.463	4948
338.550	6268
338.637	6328
338.724	4456
338.811	4997
338.898	2670
338.984	3324
339.071	2113
339.158	3540
339.245	3461
339.332	3783
339.419	4008
339.506	3781
339.593	2348
339.679	3373
339.766	2695
339.853	2856
339.940	3448
340.027	3063
340.113	2512
340.200	3121
340.287	2178
340.374	2169
340.460	3279
340.547	2322
340.634	3233
340.720	5913
340.807	2949
340.894	2978
340.980	2533
341.067	3294
341.154	3196
341.240	2224
341.327	3493
341.414	3924
341.500	2356
341.587	2553
341.674	1983
341.760	3884
341.847	2972
341.933	2690
342.020	1817
342.106	3351
342.193	2654
342.279	2937
342.366	1915
342.452	3078
342.539	2311
342.625	3416
342.712	5106
342.798	3621
342.885	2335
342.971	2141
343.058	1945
343.144	2037
343.230	2390
343.317	3048
343.403	2021
343.490	3490
343.576	2310
343.662	2144
343.749	1914
343.835	2897
343.921	4368
344.008	17343
344.094	29127
344.180	6396
344.267	3333
344.353	7582
344.439	6895
344.525	3841
344.612	3537
344.698	2842
344.784	1858
344.870	2643
344.957	1825
345.043	3284
345.129	1726
345.215	3151
345.301	1629
345.387	2044
345.474	1527
345.560	1517
345.646	1529
345.732	2427
345.818	2175
345.904	2685
345.990	1921
346.076	2964
346.162	2647
346.249	3323
346.335	1682
346.421	2924
346.507	5398
346.593	10439
346.679	2246
346.765	3992
346.851	5630
346.937	4484
347.023	4074
347.108	3486
347.194	2166
347.280	3612
347.366	4041
347.452	14128
347.538	21290
347.624	13026
347.710	6957
347.796	3260
347.882	2325
347.967	3585
348.053	1947
348.139	3262
348.225	2129
348.311	2179
348.397	3036
348.482	3821
348.568	3883
348.654	5516
348.740	16368
348.825	17194
348.911	7989
348.997	9536
349.083	11959
349.168	3988
349.254	2660
349.340	3118
349.425	2069
349.511	3649
349.597	2486
349.682	2840
349.768	7562
349.854	4690
349.939	2736
350.025	2425
350.110	2089
350.196	2832
350.282	1993
350.367	3532
350.453	2771
350.538	2790
350.624	1354
350.709	2839
350.795	1752
350.880	2706
350.966	2654
351.051	3329
351.137	2487
351.222	2489
351.308	2824
351.393	5563
351.479	1993
351.564	2035
351.649	2506
351.735	2774
351.820	1655
351.906	2681
351.991	2298
352.076	4908
352.162	4297
352.247	2867
352.332	2428
352.418	2239
352.503	2571
352.588	7802
352.673	4891
352.759	3202
352.844	1502
352.929	2271
353.014	1874
353.100	3237
353.185	2434
353.270	2892
353.355	2539
353.441	2987
353.526	3046
353.611	2459
353.696	2591
353.781	3287
353.866	729
353.952	3769
354.037	2067
354.122	3715
354.207	3989
354.292	2776
354.377	2323
354.462	2016
354.547	1669
354.632	3105
354.717	3017
354.802	2408
354.887	1453
354.972	2629
355.057	2622
355.142	2346
355.227	3237
355.312	2979
355.397	2589
355.482	6046
355.567	2947
355.652	4629
355.737	3257
355.822	7972
355.907	4669
355.991	3834
356.076	2009
356.161	3147
356.246	1951
356.331	3213
356.416	2522
356.501	17904
356.585	12986
356.670	2809
356.755	4051
356.840	4510
356.924	12425
357.009	33461
357.094	11497
357.179	3231
357.263	2974
357.348	3323
357.433	3079
357.517	3152
357.602	3004
357.687	2601
357.771	3747
357.856	6801
357.941	5342
358.025	13278
358.110	40620
358.195	16214
358.279	3748
358.364	3567
358.448	6118
358.533	12067
358.617	8052
358.702	9136
358.787	4573
358.871	3762
358.956	2922
359.040	2564
359.125	2156
359.209	3458
359.294	5629
359.378	8646
359.462	5178
359.547	3534
359.631	2692
359.716	2293
359.800	2814
359.885	3817
359.969	1488
360.053	3904
360.138	2151
360.222	3349
360.306	3095
360.391	3383
360.475	4438
360.559	6796
360.644	5577
360.728	4642
360.812	11075
360.896	22275
360.981	7741
361.065	4030
361.149	3338
361.233	3506
361.318	3119
361.402	4627
361.486	5375
361.570	3883
361.654	3515
361.739	6121
361.823	17192
361.907	25016
361.991	7387
362.075	8673
362.159	12506
362.243	23124
362.327	49074
362.411	61095
362.495	24909
362.580	13582
362.664	12622
362.748	14946
362.832	24986
362.916	52091
363.000	122788
363.084	145491
363.168	69808
363.252	23659
363.336	14010
363.420	12440
363.503	16009
363.587	15778
363.671	8216
363.755	8777
363.839	11521
363.923	10461
364.007	14013
364.091	19889
364.175	31824
364.258	77003
364.342	149236
364.426	207242
364.510	105260
364.594	39939
364.677	22757
364.761	28473
364.845	18253
364.929	8955
365.013	6642
365.096	7397
365.180	5100
365.264	8760
365.347	16591
365.431	8524
365.515	3949
365.598	3150
365.682	5260
365.766	3875
365.849	4561
365.933	3854
366.017	5650
366.100	3530
366.184	3298
366.267	4978
366.351	3522
366.435	3777
366.518	3366
366.602	4379
366.685	3479
366.769	3866
366.852	3286
366.936	5096
367.019	3830
367.103	3476
367.186	4691
367.270	4246
367.353	2404
367.436	5343
367.520	4165
367.603	5528
367.687	3798
367.770	5404
367.853	5412
367.937	7437
368.020	9675
368.104	4358
368.187	4633
368.270	4741
368.353	3789
368.437	4329
368.520	7175
368.603	5290
368.687	5088
368.770	9049
368.853	4187
368.936	4376
369.020	4088
369.103	3466
369.186	1907
369.269	2250
369.352	3556
369.436	3664
369.519	3652
369.602	1677
369.685	4031
369.768	2143
369.851	2470
369.934	2928
370.018	2183
370.101	2924
370.184	5438
370.267	4184
370.350	3693
370.433	5655
370.516	23590
370.599	58962
370.682	23484
370.765	9256
370.848	8910
370.931	11403
371.014	6224
371.097	2168
371.180	3185
371.263	2775
371.346	1647
371.429	3291
371.511	1842
371.594	3043
371.677	3082
371.760	4547
371.843	3603
371.926	17824
372.009	29329
372.091	10939
372.174	6030
372.257	13899
372.340	6185
372.423	4081
372.505	6782
372.588	3122
372.671	6307
372.754	11563
372.836	6015
372.919	6668
373.002	8613
373.085	3837
373.167	4552
373.250	7210
373.332	12582
373.415	26220
373.498	43056
373.580	29261
373.663	88759
373.746	81280
373.828	13597
373.911	7972
373.993	5759
374.076	10558
374.159	8847
374.241	7691
374.324	11220
374.406	9437
374.489	15665
374.571	31735
374.654	12318
374.736	9889
374.819	21421
374.901	33314
374.983	30717
375.066	8791
375.148	5544
375.231	10022
375.313	14327
375.395	7867
375.478	5102
375.560	6630
375.643	5759
375.725	10885
375.807	25764
375.890	19551
375.972	6436
376.054	7204
376.136	7359
376.219	5466
376.301	10375
376.383	19729
376.465	8992
376.548	5396
376.630	7599
376.712	16068
376.794	8531
376.877	3918
376.959	2455
377.041	3339
377.123	2727
377.205	3677
377.287	1981
377.369	3871
377.452	2293
377.534	3319
377.616	3165
377.698	3314
377.780	1544
377.862	3208
377.944	4067
378.026	2112
378.108	3316
378.190	2618
378.272	2939
378.354	2813
378.436	1349
378.518	3104
378.600	3988
378.682	5283
378.764	6188
378.846	5744
378.928	3604
379.010	3098
379.091	3229
379.173	2882
379.255	2527
379.337	3416
379.419	3745
379.501	9677
379.583	4598
379.664	3023
379.746	2876
379.828	7870
379.910	7187
379.991	8583
380.073	3352
380.155	3099
380.237	2820
380.318	3045
380.400	2810
380.482	3918
380.564	3495
380.645	3984
380.727	3588
380.809	4494
380.890	3128
380.972	2268
381.053	2478
381.135	3827
381.217	4242
381.298	8216
381.380	4193
381.461	6282
381.543	16386
381.624	18324
381.706	4631
381.787	3267
381.869	4391
381.951	12826
382.032	31980
382.113	19881
382.195	3666
382.276	6064
382.358	6849
382.439	14982
382.521	20263
382.602	28825
382.684	14067
382.765	19064
382.846	24161
382.928	35039
383.009	19593
383.090	20048
383.172	58713
383.253	74804
383.334	27059
383.416	24853
383.497	13860
383.578	9289
383.659	16890
383.741	59793
383.822	121264
383.903	57274
383.984	20267
384.066	26410
384.147	15437
384.228	9306
384.309	8272
384.390	8378
384.471	8130
384.553	7031
384.634	6505
384.715	6780
384.796	5208
384.877	6547
384.958	9671
385.039	10265
385.120	6106
385.201	6518
385.282	5347
385.363	7534
385.444	6994
385.525	10131
385.606	15810
385.687	13932
385.768	8089
385.849	9022
385.930	20802
386.011	28255
386.092	10691
386.173	8231
386.254	6961
386.335	6647
386.416	6040
386.496	9432
386.577	9578
386.658	7288
386.739	6302
386.820	8915
386.901	6294
386.981	8905
387.062	9159
387.143	11058
387.224	13479
387.304	15330
387.385	12197
387.466	11022
387.547	13617
387.627	11674
387.708	13895
387.789	21046
387.869	20628
387.950	13937
388.031	8109
388.111	6844
388.192	11402
388.273	12419
388.353	9378
388.434	6968
388.514	7891
388.595	18561
388.676	17629
388.756	9777
388.837	8825
388.917	6944
388.998	3911
389.078	5999
389.159	5344
389.239	3923
389.320	7132
389.400	3737
389.480	6928
389.561	8991
389.641	6647
389.722	5912
389.802	4746
389.883	8168
389.963	12182
390.043	8518
390.124	5349
390.204	7002
390.284	9893
390.365	7765
390.445	11044
390.525	23382
390.605	19997
390.686	7399
390.766	6929
390.846	7658
390.927	5311
391.007	5724
391.087	7420
391.167	5995
391.247	5726
391.328	7577
391.408	9019
391.488	8276
391.568	5692
391.648	7431
391.728	9441
391.808	10446
391.888	9264
391.969	11852
392.049	13610
392.129	13656
392.209	13501
392.289	20715
392.369	17413
392.449	18873
392.529	18838
392.609	21427
392.689	26201
392.769	35167
392.849	40299
392.929	52034
393.009	73597
393.089	108197
393.169	194055
393.248	383308
393.328	582536
393.408	543108
393.488	338854
393.568	169104
393.648	92900
393.728	59649
393.807	42159
393.887	33976
393.967	26296
394.047	22897
394.127	19394
394.206	20236
394.286	38322
394.366	111726
394.446	105169
394.525	28943
394.605	13177
394.685	13677
394.764	15683
394.844	25594
394.924	27572
395.003	13971
395.083	9946
395.163	10077
395.242	8581
395.322	10140
395.402	8067
395.481	11139
395.561	13870
395.640	37130
395.720	60330
395.799	37578
395.879	19215
395.958	19880
396.038	47886
396.117	143464
396.197	139986
396.276	47695
396.356	28992
396.435	35008
396.515	45331
396.594	72027
396.673	146330
396.753	339358
396.832	523817
396.912	403423
396.991	178787
397.070	82150
397.150	46519
397.229	39952
397.308	56499
397.388	86969
397.467	45770
397.546	19270
397.625	12238
397.705	13850
397.784	10095
397.863	9437
397.942	8185
398.022	7847
398.101	8149
398.180	13072
398.259	8309
398.338	6907
398.417	5703
398.497	5713
398.576	5861
398.655	4213
398.734	4668
398.813	4979
398.892	6561
398.971	11489
399.050	6448
399.129	3696
399.208	3897
399.287	4483
399.366	3352
399.445	4116
399.524	3816
399.603	2489
399.682	3480
399.761	6308
399.840	11939
399.919	10631
399.998	3967
400.077	1864
400.156	1854
400.235	6188
400.313	3289
400.392	2908
400.471	5876
400.550	6298
400.629	2491
400.708	3849
400.786	2332
400.865	3591
400.944	2407
401.023	5349
401.102	1571
401.180	3265
401.259	2102
401.338	2359
401.416	2105
401.495	2408
401.574	3303
401.652	2523
401.731	3222
401.810	1159
401.888	2232
401.967	1565
402.046	1700
402.124	2540
402.203	1777
402.281	3033
402.360	1726
402.438	4007
402.517	1655
402.596	2652
402.674	1659
402.753	2039
402.831	2173
402.910	3642
402.988	1510
403.066	4854
403.145	5743
403.223	4904
403.302	3627
403.380	5192
403.459	3953
403.537	3690
403.615	2454
403.694	1897
403.772	3826
403.850	3644
403.929	2215
404.007	1777
404.085	3455
404.164	1970
404.242	2899
404.320	6086
404.398	10547
404.477	10944
404.555	23156
404.633	19071
404.711	8448
404.789	5629
404.868	2808
404.946	2448
405.024	2726
405.102	2719
405.180	1122
405.258	1271
405.336	2729
405.415	1742
405.493	1939
405.571	2646
405.649	1763
405.727	1413
405.805	3610
405.883	3711
405.961	2633
406.039	2523
406.117	924
406.195	3563
406.273	4523
406.351	14758
406.429	9023
406.507	2671
406.585	1360
406.663	2926
406.740	2860
406.818	1689
406.896	595
406.974	2965
407.052	1833
407.130	9548
407.208	10359
407.285	3793
407.363	636
407.441	2752
407.519	2093
407.596	3626
407.674	10139
407.752	33099
407.830	24580
407.907	5184
407.985	1605
408.063	2602
408.141	1649
408.218	2722
408.296	707
408.373	1865
408.451	2090
408.529	2823
408.606	2072
408.684	2981
408.762	2755
408.839	3215
408.917	3451
408.994	4006
409.072	3497
409.149	5931
409.227	10229
409.304	14224
409.382	16206
409.459	18264
409.537	22597
409.614	21549
409.692	17953
409.769	18214
409.846	23482
409.924	28769
410.001	21576
410.079	16996
410.156	12805
410.233	9502
410.311	7082
410.388	7037
410.465	6007
410.543	5797
410.620	5645
410.697	5213
410.775	4629
410.852	3726
410.929	5572
411.006	5645
411.083	4162
411.161	4777
411.238	3892
411.315	4249
411.392	2980
411.469	3237
411.547	2686
411.624	1644
411.701	2015
411.778	3180
411.855	2287
411.932	1876
412.009	1633
412.086	2750
412.163	2302
412.240	2623
412.317	2137
412.394	2278
412.471	2603
412.548	1607
412.625	1548
412.702	2188
412.779	1589
412.856	2641
412.933	536
413.010	2409
413.087	924
413.164	3411
413.241	3522
413.318	1280
413.395	1835
413.471	1948
413.548	1606
413.625	1957
413.702	-246
413.779	1291
413.855	949
413.932	732
414.009	222
414.086	1130
414.162	1851
414.239	1900
414.316	3373
414.393	6783
414.469	1177
414.546	1195
414.623	999
414.699	1464
414.776	864
414.853	1149
414.929	2080
415.006	234
415.082	1397
415.159	1490
415.236	855
415.312	2084
415.389	1591
415.465	1483
415.542	1045
415.618	422
415.695	1608
415.771	523
415.848	960
415.924	2388
416.000	1098
416.077	1858
416.153	486
416.230	326
416.306	589
416.383	657
416.459	1328
416.535	598
416.612	811
416.688	1144
416.764	495
416.841	952
416.917	824
416.993	1443
417.069	1058
417.146	1382
417.222	518
417.298	1599
417.374	802
417.451	2084
417.527	647
417.603	1012
417.679	868
417.755	1338
417.831	667
417.908	2128
417.984	1228
418.060	1077
418.136	1201
418.212	2109
418.288	1265
418.364	2022
418.440	370
418.516	2637
418.592	1049
418.668	1782
418.744	2017
418.820	3170
418.896	2024
418.972	831
419.048	1227
419.124	2946
419.200	1083
419.276	1948
419.352	951
419.428	2027
419.504	1346
419.579	1598
419.655	1415
419.731	1786
419.807	2340
419.883	3313
419.959	2421
420.034	3121
420.110	2956
420.186	5012
420.262	4990
420.337	3080
420.413	3043
420.489	3801
420.565	3485
420.640	3742
420.716	3718
420.792	3562
420.867	5047
420.943	4017
421.019	5482
421.094	5476
421.170	5147
421.245	5979
421.321	5897
421.397	8336
421.472	14159
421.548	25778
421.623	17582
421.699	12211
421.774	12618
421.850	14821
421.925	18118
422.001	21774
422.076	26318
422.152	32965
422.227	42864
422.302	59669
422.378	85574
422.453	130497
422.529	186402
422.604	203231
422.679	168405
422.755	183595
422.830	171241
422.905	123785
422.981	86254
423.056	61683
423.131	47127
423.207	35487
423.282	27875
423.357	23790
423.432	19711
423.508	17961
423.583	14058
423.658	13288
423.733	11600
423.808	11573
423.883	10587
423.959	11251
424.034	12062
424.109	11605
424.184	8208
424.259	7263
424.334	6323
424.409	6087
424.484	4915
424.559	4704
424.634	2890
424.709	4334
424.784	4343
424.859	3889
424.934	3191
425.009	5331
425.084	5971
425.159	2684
425.234	2629
425.309	2819
425.384	3880
425.459	3347
425.534	3096
425.609	2359
425.683	1952
425.758	2176
425.833	2736
425.908	2431
425.983	1625
426.058	5349
426.132	2221
426.207	1505
426.282	2678
426.357	1435
426.431	1948
426.506	2807
426.581	862
426.655	1978
426.730	1589
426.805	1007
426.879	2235
426.954	2298
427.029	1035
427.103	5380
427.178	10456
427.253	4919
427.327	1208
427.402	2772
427.476	2986
427.551	2707
427.625	1442
427.700	1333
427.774	1071
427.849	1820
427.923	912
427.998	3134
428.072	3258
428.147	10463
428.221	42022
428.296	98426
428.370	51309
428.444	9257
428.519	3678
428.593	3559
428.667	4025
428.742	6423
428.816	17989
428.890	67622
428.965	84735
429.039	23894
429.113	5246
429.188	3323
429.262	1329
429.336	2845
429.410	3625
429.485	3402
429.559	3094
429.633	3939
429.707	4491
429.781	15695
429.855	64113
429.930	78332
430.004	24443
430.078	20385
430.152	53367
430.226	135974
430.300	118409
430.374	30575
430.448	10875
430.522	8019
430.596	11713
430.670	27809
430.744	82367
430.818	78778
430.892	15458
430.966	3505
431.040	2201
431.114	1463
431.188	1378
431.262	2048
431.336	1066
431.410	2307
431.484	1183
431.557	3017
431.631	2321
431.705	7036
431.779	33312
431.853	95533
431.927	59117
432.000	9822
432.074	3190
432.148	1988
432.222	345
432.295	1226
432.369	497
432.443	483
432.516	5038
432.590	10508
432.664	3578
432.737	601
432.811	-74
432.885	273
432.958	1218
433.032	477
433.106	384
433.179	1011
433.253	-29
433.326	523
433.400	-260
433.473	502
433.547	256
433.620	816
433.694	184
433.767	1451
433.841	298
433.914	522
433.988	514
434.061	1390
434.134	81
434.208	-215
434.281	668
434.355	679
434.428	45
434.501	-15
434.575	-222
434.648	723
434.721	-862
434.795	841
434.868	401
434.941	785
435.014	344
435.088	1327
435.161	1606
435.234	2018
435.307	2687
435.381	4011
435.454	5463
435.527	9946
435.600	11762
435.673	9618
435.746	8032
435.819	6575
435.892	4433
435.966	3526
436.039	2131
436.112	2627
436.185	1658
436.258	1734
436.331	-170
436.404	1077
436.477	-95
436.550	901
436.623	1490
436.696	222
436.769	610
436.842	952
436.915	207
436.987	349
437.060	722
437.133	247
437.206	-896
437.279	781
437.352	-97
437.425	-175
437.498	224
437.570	618
437.643	39
437.716	982
437.789	41
437.861	153
437.934	604
438.007	475
438.080	-138
438.152	519
438.225	792
438.298	7903
438.370	18018
438.443	6278
438.516	72
438.588	969
438.661	47
438.734	274
438.806	-554
438.879	573
438.951	171
439.024	377
439.096	-980
439.169	387
439.241	13
439.314	-790
439.386	-170
439.459	940
439.531	-241
439.604	154
439.676	496
439.749	635
439.821	-826
439.893	331
439.966	116
440.038	-266
440.110	30
440.183	-11
440.255	-466
440.327	1512
440.400	2732
440.472	8890
440.544	4624
440.617	971
440.689	450
440.761	1284
440.833	615
440.905	602
440.978	-52
441.050	629
441.122	-22
441.194	254
441.266	-87
441.338	538
441.411	945
441.483	2839
441.555	3008
441.627	1510
441.699	836
441.771	1061
441.843	573
441.915	1440
441.987	858
442.059	1842
442.131	1523
442.203	2967
442.275	3559
442.347	9144
442.419	22889
442.491	88754
442.563	144913
442.635	60412
442.706	14665
442.778	7158
442.850	4261
442.922	4192
442.994	3824
443.066	4978
443.137	6651
443.209	9211
443.281	14476
443.353	35149
443.425	105740
443.496	226342
443.568	213566
443.640	92969
443.711	25868
443.783	12331
443.855	6338
443.926	4543
443.998	3685
444.070	3637
444.141	2442
444.213	2067
444.285	2616
444.356	2479
444.428	1254
444.499	1837
444.571	1945
444.642	2707
444.714	2294
444.785	3279
444.857	3129
444.928	5428
445.000	4998
445.071	7702
445.143	9502
445.214	15081
445.285	26681
445.357	67175
445.428	176306
445.500	249141
445.571	207513
445.642	137153
445.714	52210
445.785	19722
445.856	8474
445.928	6997
445.999	4290
446.070	3593
446.141	2423
446.213	3105
446.284	1360
446.355	1202
446.426	1087
446.497	1264
446.569	1634
446.640	1317
446.711	405
446.782	1703
446.853	1402
446.924	867
446.995	424
447.066	582
447.138	531
447.209	1015
447.280	-550
447.351	207
447.422	-252
447.493	189
447.564	-107
447.635	-251
447.706	-485
447.777	-45
447.847	-92
447.918	17
447.989	-523
448.060	538
448.131	-25
448.202	574
448.273	-50
448.344	-277
448.414	-668
448.485	742
448.556	-572
448.627	-18
448.698	107
448.768	-279
448.839	-575
448.910	288
448.981	-152
449.051	-113
449.122	-537
449.193	-109
449.263	-149
449.334	248
449.405	-18
449.475	708
449.546	247
449.616	970
449.687	735
449.758	1179
449.828	-299
449.899	10
449.969	-789
450.040	426
450.110	-446
450.181	704
450.251	-44
450.322	301
450.392	334
450.463	447
450.533	210
450.604	466
450.674	-502
450.744	703
450.815	407
450.885	721
450.955	526
451.026	1047
451.096	328
451.166	864
451.237	1002
451.307	2900
451.377	1524
451.447	1171
451.518	-17
451.588	-137
451.658	1117
451.728	451
451.799	957
451.869	1923
451.939	-205
452.009	707
452.079	106
452.149	-320
452.219	682
452.289	1741
452.360	2078
452.430	1171
452.500	2048
452.570	4222
452.640	10984
452.710	25268
452.780	26922
452.850	16124
452.920	7151
452.990	4331
453.060	3186
453.129	2133
453.199	183
453.269	3096
453.339	4192
453.409	5296
453.479	5549
453.549	7084
453.619	6840
453.688	2077
453.758	278
453.828	337
453.898	45
453.968	345
454.037	-118
454.087	-52
454.107	-28
454.168	58
454.177	59
454.247	42
454.249	34
454.316	-463
454.330	-321
454.386	210
454.411	72
454.456	-248
454.492	398
454.525	970
454.574	218
454.595	-115
454.655	-41
454.665	-39
454.734	-306
454.736	-266
454.804	772
454.817	828
454.873	960
454.898	1213
454.943	1686
454.979	845
455.013	73
455.060	395
455.082	533
455.141	148
455.152	70
455.221	1789
455.222	1799
455.291	1016
455.303	1273
455.360	2540
455.384	3223
455.430	4222
455.465	3074
455.499	1996
455.546	1238
455.569	855
455.627	965
455.638	1005
455.707	474
455.708	485
455.777	829
455.789	661
455.846	-41
455.869	97
455.916	242
455.950	110
455.985	14
456.031	393
456.054	561
456.112	320
456.124	261
456.193	595
456.193	583
456.262	225
456.274	435
456.332	1594
456.355	999
456.401	-267
456.436	179
456.470	597
456.516	515
456.540	397
456.597	481
456.609	536
456.678	540
456.678	530
456.747	261
456.759	139
456.817	125
456.840	402
456.886	426
456.920	510
456.955	733
457.001	968
457.024	1029
457.082	831
457.093	845
457.162	1520
457.163	1533
457.232	1186
457.243	1160
457.301	1390
457.324	1358
457.370	1312
457.405	1595
457.439	1833
457.485	1735
457.508	1684
457.566	2891
457.577	3348
457.646	4937
457.647	4982
457.715	11334
457.727	13137
457.784	22419
457.808	30654
457.853	41514
457.889	47717
457.922	50612
457.969	36293
457.991	34069
458.050	36905
458.060	37556
458.129	66890
458.130	67618
458.198	72452
458.211	64795
458.267	37674
458.292	27650
458.336	17268
458.372	16588
458.405	21093
458.453	30935
458.474	36238
458.533	62598
458.543	64481
458.611	101849
458.614	101933
458.680	70928
458.694	57769
458.749	25892
458.775	19153
458.818	10779
458.855	8336
458.887	6666
458.936	4947
458.955	4297
459.016	3009
459.024	2885
459.093	3881
459.097	3843
459.162	2368
459.177	2247
459.230	2352
459.257	2346
459.299	2144
459.338	2109
459.368	2159
459.418	2006
459.437	1915
459.499	1790
459.505	1811
459.574	1558
459.579	1643
459.643	2121
459.659	1857
459.711	1422
459.740	1806
459.780	2154
459.820	1874
459.849	1652
459.900	2130
459.917	2327
459.981	2193
459.986	2154
460.054	1951
460.061	1932
460.123	2035
460.141	2111
460.191	2269
460.222	2197
460.260	1919
460.302	1907
460.328	2063
460.382	2197
460.397	2249
460.462	2450
460.465	2574
460.534	5945
460.543	6396
460.602	14004
460.623	17068
460.671	25422
460.703	34300
460.739	30389
460.783	19568
460.808	16879
460.864	5237
460.876	3840
460.944	2068
460.945	2048
461.013	2200
461.024	2133
461.081	1609
461.104	1716
461.150	2140
461.184	2267
461.218	2231
461.264	2118
461.286	2132
461.345	2148
461.355	2125
461.423	2270
461.425	2258
461.491	1851
461.505	1994
461.559	2387
461.585	2169
461.628	2644
461.665	3514
461.696	3648
461.745	3971
461.764	3815
461.825	2276
461.832	2212
461.901	1927
461.905	1949
461.969	2192
461.985	2122
462.037	2060
462.065	2180
462.105	2115
462.145	2049
462.173	1970
462.225	1711
462.241	1979
462.305	3151
462.310	3114
462.378	2510
462.385	2407
462.446	1978
462.465	1980
462.514	2276
462.545	2268
462.582	2254
462.625	2543
462.650	2442
462.705	1870
462.718	1893
462.785	2353
462.786	2355
462.854	1667
462.865	1756
462.922	2515
462.945	2506
462.990	2052
463.025	1824
463.058	2398
463.104	3092
463.126	2755
463.184	2116
463.194	2204
463.262	2191
463.264	2215
463.330	2122
463.344	1995
463.398	2772
463.424	3256
463.466	2674
463.504	2035
463.533	2310
463.583	2628
463.601	2583
463.663	2462
463.669	2462
463.737	2875
463.743	2868
463.805	3378
463.823	3585
463.873	3861
463.903	4039
463.940	3884
463.982	3716
464.008	3525
464.062	2848
464.076	2779
464.142	2631
464.144	2637
464.211	2527
464.221	2540
464.279	2426
464.301	2358
464.347	2416
464.381	2639
464.414	2864
464.461	2787
464.482	2725
464.540	2763
464.550	2728
464.617	2307
464.620	2288
464.685	2494
464.699	2572
464.753	2814
464.779	2986
464.820	3152
464.859	3105
464.888	2823
464.938	2424
464.956	2710
465.018	3590
465.023	3564
465.091	3512
465.098	3451
465.158	2833
465.177	2762
465.226	3184
465.257	3328
465.293	3072
465.336	2760
465.361	2935
465.416	3323
465.428	3322
465.495	3469
465.496	3479
465.563	3907
465.575	4003
465.631	4279
465.654	4382
465.698	3235
465.734	2249
465.765	2612
465.813	3043
465.833	2930
465.893	2763
465.900	2758
465.968	2632
465.972	2617
466.035	2997
466.052	3075
466.102	3344
466.131	3561
466.170	3279
466.210	2815
466.237	2867
466.290	3092
466.304	3005
466.369	2510
466.372	2536
466.439	3153
466.449	3246
466.506	3201
466.528	3142
466.573	3785
466.607	4283
466.641	4655
466.687	5201
466.708	5429
466.766	5952
466.775	5737
466.842	4112
466.845	4025
466.909	3493
466.925	3364
466.977	3473
467.004	3546
467.044	3835
467.083	4107
467.111	4215
467.163	4373
467.178	4253
467.242	3753
467.245	3803
467.312	4735
467.321	4852
467.379	4006
467.400	3686
467.446	3850
467.480	3960
467.559	4315
467.638	4160
467.717	4762
467.796	4273
467.875	4297
467.955	3946
468.034	6841
468.113	8396
468.192	11253
468.271	8478
468.350	13056
468.429	16108
468.508	15457
468.588	9301
468.667	6647
468.746	6012
468.825	4851
468.904	4030
468.983	4218
469.062	4210
469.141	5150
469.220	3205
469.299	4297
469.378	3479
469.456	4985
469.535	4351
469.614	3898
469.693	3619
469.772	5059
469.851	5062
469.930	3870
470.009	3416
470.088	4067
470.166	4184
470.245	5396
470.324	3990
470.403	4648
470.482	3390
470.560	4093
470.639	3388
470.718	4041
470.797	3280
470.875	4087
470.954	3550
471.033	4430
471.111	3020
471.190	3235
471.269	3249
471.347	3944
471.426	3341
471.505	4967
471.583	4231
471.662	3704
471.740	3340
471.819	3488
471.898	3115
471.976	3821
472.055	3166
472.133	4745
472.212	4519
472.290	3520
472.369	3225
472.447	3536
472.526	2570
472.604	4142
472.683	3178
472.761	2825
472.839	3138
472.918	4602
472.996	3008
473.075	5133
473.153	3909
473.231	3727
473.310	4020
473.388	4348
473.466	4288
473.545	4336
473.623	3438
473.701	3564
473.780	4293
473.858	2679
473.936	4781
474.014	4411
474.093	4909
474.171	5344
474.249	5129
474.327	4126
474.405	2937
474.484	4298
474.562	3053
474.640	4023
474.718	3616
474.796	3188
474.874	3742
474.952	2722
475.030	3792
475.108	4026
475.187	2894
475.265	3637
475.343	4067
475.421	4519
475.499	2936
475.577	4224
475.655	4372
475.733	5247
475.811	6303
475.889	5584
475.966	4571
476.044	3434
476.122	3068
476.200	4750
476.278	2836
476.356	3173
476.434	4001
476.512	3446
476.590	3726
476.667	4029
476.745	3147
476.823	3857
476.901	3167
476.979	3692
477.056	3430
477.134	3520
477.212	2988
477.290	4148
477.367	3360
477.445	3478
477.523	3128
477.601	3231
477.678	3505
477.756	4236
477.834	3527
477.911	3578
477.989	3557
478.066	2930
478.144	3396
478.222	3647
478.299	2534
478.377	4517
478.454	3204
478.532	3146
478.609	2177
478.687	3632
478.764	2958
478.842	3602
478.919	2995
478.997	3669
479.074	3207
479.152	4207
479.229	4227
479.307	3664
479.384	3166
479.461	3339
479.539	2405
479.616	2962
479.694	3370
479.771	3560
479.848	3429
479.926	3093
480.003	4449
480.080	4238
480.157	4032
480.235	3929
480.312	3561
480.389	3677
480.467	3927
480.544	5268
480.621	5146
480.698	4252
480.775	3652
480.853	3943
480.930	3195
481.007	4378
481.084	4604
481.161	5829
481.238	4454
481.315	3929
481.392	3010
481.470	3562
481.547	3110
481.624	3114
481.701	3796
481.778	4540
481.855	4580
481.932	5929
482.009	6020
482.086	5616
482.163	5431
482.240	7110
482.317	7178
482.393	4978
482.470	5095
482.547	4766
482.624	4568
482.701	5321
482.778	4730
482.855	5103
482.932	4189
483.009	4756
483.085	6944
483.162	7985
483.239	6900
483.316	6567
483.393	7011
483.469	6057
483.546	5573
483.623	5590
483.699	3903
483.776	4015
483.853	4013
483.930	4719
484.006	6479
484.083	9406
484.160	6754
484.236	8831
484.313	7847
484.389	6661
484.466	7403
484.543	7974
484.619	9605
484.696	10983
484.772	7432
484.849	6439
484.925	5049
485.002	5892
485.078	5263
485.155	5370
485.231	5605
485.308	4952
485.384	4477
485.461	6073
485.537	6078
485.614	6867
485.690	4601
485.766	4418
485.843	4376
485.919	4819
485.995	4944
486.072	5242
486.148	4215
486.224	4662
486.301	4507
486.377	5137
486.453	4345
486.530	5865
486.606	6613
486.682	7023
486.758	6439
486.835	6964
486.911	6100
486.987	9476
487.063	8540
487.139	11149
487.215	9863
487.292	9923
487.368	10097
487.444	12003
487.520	16860
487.596	28965
487.672	78925
487.748	210207
487.824	278379
487.900	87667
487.976	25620
488.052	14799
488.128	11168
488.204	7723
488.280	6919
488.356	7093
488.432	9001
488.508	9736
488.584	5294
488.660	4964
488.736	4793
488.812	4090
488.888	5548
488.964	6398
489.039	7245
489.115	10375
489.191	6908
489.267	4099
489.343	4673
489.418	4616
489.494	4171
489.570	3027
489.646	5928
489.722	5147
489.797	4026
489.873	6698
489.949	6977
490.024	6404
490.100	5497
490.176	4070
490.251	4326
490.327	4834
490.403	4592
490.478	5645
490.554	4463
490.629	4510
490.705	4468
490.781	4408
490.856	3607
490.932	4679
491.007	4373
491.083	3291
491.158	3649
491.234	4521
491.309	6487
491.385	4629
491.460	3288
491.536	4619
491.611	3117
491.686	3893
491.762	3680
491.837	6288
491.913	7365
491.988	8886
492.063	8803
492.139	5614
492.214	4310
492.289	3555
492.365	3046
492.440	4122
492.515	3338
492.590	3732
492.666	2574
492.741	3873
492.816	4303
492.891	3521
492.967	4005
493.042	3611
493.117	2792
493.192	4407
493.267	5621
493.342	9282
493.418	9806
493.493	3568
493.568	3075
493.643	3231
493.718	3004
493.793	3618
493.868	3677
493.943	4141
494.018	3413
494.093	1985
494.168	4000
494.243	2711
494.318	3767
494.393	3448
494.468	2298
494.543	3736
494.618	3277
494.693	2649
494.768	2826
494.842	3213
494.917	3045
494.992	2841
495.067	3058
495.142	3220
495.217	2518
495.292	3380
495.366	2941
495.441	3366
495.516	4113
495.591	3866
495.665	8392
495.740	14717
495.815	6158
495.890	2975
495.964	1893
496.039	5525
496.114	3580
496.188	5114
496.263	3460
496.338	2850
496.412	2309
496.487	4087
496.561	3527
496.636	3458
496.710	2630
496.785	2716
496.860	2742
496.934	3057
497.009	3462
497.083	3297
497.158	3594
497.232	4352
497.307	3849
497.381	2977
497.455	3389
497.530	3368
497.604	2317
497.679	3816
497.753	4278
497.827	3966
497.902	2560
497.976	5589
498.050	13924
498.125	39172
498.199	27758
498.273	4846
498.348	4120
498.422	3416
498.496	3151
498.570	3590
498.645	3089
498.719	3020
498.793	4600
498.867	5685
498.941	5941
499.016	19294
499.090	35814
499.164	9268
499.238	4221
499.312	3662
499.386	3109
499.460	4072
499.534	4035
499.609	3642
499.683	3721
499.757	5117
499.831	10218
499.905	26089
499.979	17459
500.053	4155
500.127	4282
500.201	3383
500.275	2944
500.349	3720
500.422	3591
500.496	4197
500.570	7108
500.644	16897
500.718	21266
500.792	5966
500.866	3854
500.940	4217
501.013	3522
501.087	3412
501.161	4432
501.235	4618
501.309	11806
501.382	22617
501.456	14201
501.530	6619
501.603	6477
501.677	3520
501.751	2544
501.825	5521
501.898	5684
501.972	9429
502.046	5483
502.119	2992
502.193	6581
502.266	8729
502.340	5740
502.413	5945
502.487	7636
502.561	5022
502.634	4037
502.708	3967
502.781	2682
502.855	3347
502.928	2041
503.002	4468
503.075	2180
503.149	3568
503.222	3655
503.295	3912
503.369	4338
503.442	4291
503.516	10073
503.589	16300
503.662	10543
503.736	9061
503.809	13489
503.882	14257
503.956	25037
504.029	50007
504.102	122102
504.175	150717
504.249	55783
504.322	21180
504.395	11865
504.468	7045
504.542	5461
504.615	3695
504.688	4550
504.761	3368
504.834	4486
504.907	4743
504.980	3987
505.053	3543
505.127	1794
505.200	5501
505.273	3225
505.346	2677
505.419	1608
505.492	3731
505.565	2509
505.638	3337
505.711	2478
505.784	1541
505.857	1603
505.930	3857
506.003	1479
506.076	4759
506.149	2016
506.221	1709
506.294	3090
506.367	4288
506.440	11652
506.513	5788
506.586	2942
506.659	1494
506.731	2014
506.804	2155
506.877	1543
506.950	3490
507.022	2932
507.095	1031
507.168	2407
507.241	2130
507.313	2062
507.386	679
507.459	2393
507.531	2074
507.604	1125
507.677	2375
507.749	1028
507.822	3785
507.894	3038
507.967	4777
508.040	1152
508.112	2959
508.185	3243
508.257	1595
508.330	4209
508.402	2036
508.475	2648
508.547	2135
508.620	1638
508.692	3107
508.765	2572
508.837	1527
508.909	1934
508.982	2257
509.054	2782
509.127	1505
509.199	1629
509.271	1155
509.344	2181
509.416	2605
509.488	1900
509.560	2690
509.633	1984
509.705	2500
509.777	1667
509.849	2524
509.922	809
509.994	2282
510.066	2918
510.138	1263
510.210	4919
510.283	3342
510.355	3258
510.427	3022
510.499	2150
510.571	2148
510.643	1636
510.715	4456
510.787	1301
510.859	3762
510.931	2219
511.003	2943
511.076	3532
511.148	1696
511.219	2426
511.291	4011
511.363	3434
511.435	2401
511.507	1162
511.579	3264
511.651	3199
511.723	2635
511.795	2452
511.867	1421
511.939	2686
512.010	3236
512.082	3069
512.154	1091
512.226	2139
512.298	4205
512.369	1782
512.441	3303
512.513	2310
512.585	2027
512.656	3639
512.728	2368
512.800	1666
512.871	3032
512.943	2639
513.015	1592
513.086	2982
513.158	2957
513.230	1013
513.301	1818
513.373	3497
513.444	2661
513.516	2094
513.588	2055
513.659	2541
513.731	2682
513.802	1080
513.874	4683
513.945	3872
514.016	2345
514.088	2704
514.159	1302
514.231	2507
514.302	3107
514.374	3490
514.445	1642
514.516	4698
514.588	2169
514.659	2217
514.730	2989
514.802	4258
514.873	895
514.944	4059
515.016	3301
515.087	1577
515.158	3063
515.229	3715
515.301	1717
515.372	2984
515.443	1729
515.514	1813
515.585	2112
515.656	2926
515.728	3629
515.799	1115
515.870	3270
515.941	2933
516.012	1538
516.083	3290
516.154	1674
516.225	3936
516.296	4904
516.367	2554
516.438	3163
516.509	3235
516.580	5664
516.651	17455
516.722	38791
516.793	14499
516.864	4781
516.935	4914
517.006	6065
517.077	6575
517.148	16647
517.219	62484
517.289	71389
517.360	15188
517.431	6495
517.502	3201
517.573	4692
517.643	3045
517.714	3436
517.785	4801
517.856	3647
517.926	6383
517.997	6318
518.068	6294
518.138	10551
518.209	14041
518.280	55363
518.350	139094
518.421	44897
518.492	14994
518.562	16827
518.633	23125
518.703	38012
518.774	98172
518.845	226103
518.915	171148
518.986	51050
519.056	22075
519.127	15855
519.197	13733
519.268	16792
519.338	10056
519.408	5821
519.479	4398
519.549	4252
519.620	5002
519.690	3797
519.760	3624
519.831	3202
519.901	3006
519.971	3589
520.042	2750
520.112	2398
520.182	3857
520.253	3527
520.323	2480
520.393	3613
520.463	5783
520.534	1875
520.604	8073
520.674	3958
520.744	3804
520.814	5726
520.885	5418
520.955	7457
521.025	13539
521.095	4053
521.165	3322
521.235	2210
521.305	2287
521.375	3709
521.445	3028
521.515	1826
521.585	3707
521.655	2109
521.725	3739
521.795	3478
521.865	167
521.935	6017
522.005	1813
522.075	3086
522.145	3551
522.215	2886
522.285	3844
522.355	3878
522.424	4957
522.494	3108
522.564	3816
522.634	4476
522.704	8416
522.774	3508
522.843	2891
522.913	3672
522.983	3239
523.053	2848
523.122	3543
523.192	2470
523.262	4678
523.331	3992
523.401	3633
523.471	3337
523.540	2688
523.610	1886
523.680	3605
523.749	2472
523.819	3867
523.888	3856
523.958	3194
524.027	4169
524.097	3109
524.166	3002
524.236	2067
524.305	4389
524.375	2070
524.444	2157
524.514	5132
524.583	3060
524.653	1810
524.722	3934
524.791	2601
524.861	3872
524.930	2500
524.999	3602
525.069	5075
525.138	3432
525.207	3405
525.277	5037
525.346	4982
525.415	6056
525.484	6415
525.554	6745
525.623	9480
525.692	11599
525.761	13173
525.830	16423
525.900	21801
525.969	36227
526.038	73216
526.107	180711
526.176	423084
526.245	276233
526.314	94618
526.383	228439
526.452	272311
526.522	426146
526.591	295958
526.660	50755
526.729	30550
526.797	35425
526.867	62193
526.935	217226
527.004	604727
527.073	293696
527.142	42185
527.211	18517
527.280	12693
527.349	9750
527.418	7045
527.487	7687
527.555	4482
527.624	4847
527.693	3654
527.762	4636
527.831	3306
527.899	4514
527.968	4421
528.037	3049
528.106	4016
528.174	3753
528.243	4721
528.312	4934
528.380	3427
528.449	2711
528.518	4551
528.586	2172
528.655	4788
528.723	3101
528.792	2844
528.861	2010
528.929	1829
528.998	4665
529.066	4153
529.135	4603
529.203	3816
529.272	5787
529.340	7820
529.409	7565
529.477	5666
529.545	5638
529.614	8385
529.682	6751
529.751	7307
529.819	10771
529.887	9117
529.956	7711
530.024	8608
530.092	7440
530.161	8498
530.229	9047
530.297	7981
530.365	9021
530.434	9043
530.502	8404
530.570	8586
530.638	6037
530.707	6924
530.775	8191
530.843	7150
530.911	8012
530.979	7826
531.047	8307
531.115	8647
531.183	7714
531.252	8482
531.320	6849
531.388	6159
531.456	8173
531.524	7170
531.592	9508
531.660	11892
531.728	8284
531.796	6884
531.864	8710
531.932	8571
532.000	7632
532.067	9746
532.135	9355
532.203	11829
532.271	9446
532.339	11926
532.407	11965
532.475	10902
532.542	10180
532.610	10358
532.678	10471
532.746	18210
532.814	22427
532.881	12416
532.949	11142
533.017	9300
533.084	9834
533.152	8564
533.220	10087
533.287	8415
533.355	9967
533.423	10622
533.490	9323
533.558	9127
533.625	9339
533.693	8640
533.761	9813
533.828	10012
533.896	7919
533.963	11731
534.031	11251
534.098	12776
534.166	11770
534.233	10703
534.300	13728
534.368	12000
534.435	11329
534.503	12476
534.570	13945
534.637	14077
534.705	16532
534.772	21888
534.840	50834
534.907	216918
534.974	190129
535.041	25671
535.109	13002
535.176	9996
535.243	12167
535.310	10752
535.378	9486
535.445	9819
535.512	9668
535.579	9040
535.646	8240
535.714	9187
535.781	10199
535.848	9265
535.915	9677
535.982	9181
536.049	9400
536.116	9467
536.183	8595
536.250	8414
536.317	8084
536.384	8461
536.451	9760
536.518	8664
536.585	7207
536.652	10640
536.719	9699
536.786	6605
536.853	8125
536.920	9281
536.987	8941
537.053	8393
537.120	16178
537.187	12458
537.254	8996
537.321	9020
537.388	9393
537.454	7689
537.521	8408
537.588	8085
537.654	9403
537.721	8453
537.788	9136
537.855	8515
537.921	8955
537.988	8141
538.055	8461
538.121	6871
538.188	7302
538.254	7779
538.321	8754
538.388	8497
538.454	8877
538.521	9219
538.587	8466
538.654	8054
538.720	7832
538.787	8653
538.853	8536
538.920	8368
538.986	7239
539.053	7145
539.119	9113
539.185	7810
539.252	9034
539.318	8151
539.385	10191
539.451	7112
539.517	8391
539.583	8679
539.650	9014
539.716	10707
539.782	7986
539.849	6964
539.915	8013
539.981	6488
540.047	7702
540.114	7892
540.180	9396
540.246	7732
540.312	8783
540.378	9425
540.444	10841
540.510	9998
540.576	12916
540.643	6876
540.709	7172
540.775	7521
540.841	7580
540.907	7761
540.973	8709
541.039	7963
541.105	8357
541.171	8203
541.237	8538
541.303	9495
541.369	10715
541.435	9107
541.500	8153
541.566	6814
541.632	7833
541.698	7391
541.764	9832
541.830	7426
541.896	7150
541.961	8580
542.027	7864
542.093	8758
542.159	8691
542.224	6436
542.290	9207
542.356	8304
542.421	7667
542.487	7698
542.553	6743
542.618	6945
542.684	7058
542.750	7403
542.815	9425
542.881	7984
542.947	12477
543.012	9916
543.078	7859
543.143	6511
543.209	8061
543.274	6214
543.340	8904
543.405	8867
543.471	8693
543.536	7677
543.602	8226
543.667	7003
543.732	9386
543.798	7392
543.863	8130
543.928	7298
543.994	7116
544.059	8127
544.124	7983
544.190	7953
544.255	9069
544.320	9615
544.386	7949
544.451	9460
544.516	8286
544.581	8631
544.646	12016
544.712	11746
544.777	9102
544.842	9089
544.907	9032
544.972	9380
545.037	9418
545.102	10451
545.168	9576
545.233	9759
545.298	11084
545.363	9567
545.428	11245
545.493	12476
545.558	12082
545.623	10944
545.688	9977
545.753	11595
545.818	10691
545.883	12036
545.947	11194
546.012	13131
546.077	11997
546.142	14047
546.207	13590
546.272	14596
546.337	14827
546.401	16293
546.466	16462
546.531	16328
546.596	19115
546.661	18234
546.725	21112
546.790	20772
546.855	23579
546.919	23319
546.984	27650
547.049	30308
547.113	34354
547.178	36880
547.243	42918
547.307	50902
547.372	54746
547.436	54397
547.501	58490
547.565	60050
547.630	55598
547.695	51694
547.759	53861
547.823	54622
547.888	56439
547.952	58052
548.017	61101
548.081	60775
548.146	60153
548.210	63676
548.274	68134
548.339	63290
548.403	60059
548.468	56088
548.532	55452
548.596	57429
548.660	58953
548.725	64601
548.789	68801
548.853	65588
548.917	64189
548.982	60233
549.046	55242
549.110	50653
549.174	53888
549.238	62343
549.303	66828
549.367	68958
549.431	63174
549.495	60303
549.559	63168
549.623	74152
549.687	76154
549.751	78264
549.815	92468
549.879	91613
549.943	89295
550.007	93967
550.071	88780
550.135	81138
550.199	78567
550.263	77822
550.327	74223
550.391	77657
550.455	86095
550.519	89881
550.582	97944
550.646	108728
550.710	108776
550.774	107379
550.838	109312
550.901	112456
550.965	120579
551.029	127201
551.093	137592
551.156	155839
551.220	182195
551.284	185898
551.347	141190
551.411	123700
551.475	117176
551.538	118060
551.602	107661
551.666	102911
551.729	97446
551.793	96389
551.856	94382
551.920	94671
551.983	92622
552.047	93298
552.110	93504
552.174	95540
552.237	95451
552.301	90057
552.364	85765
552.428	85168
552.491	87713
552.554	87613
552.618	89485
552.681	90165
552.745	85230
552.808	91376
552.871	94407
552.934	91285
552.998	90128
553.061	86220
553.124	84719
553.187	85401
553.251	87790
553.314	87610
553.377	89806
553.440	96063
553.503	101698
553.567	101645
553.630	96624
553.693	94918
553.756	97462
553.819	95062
553.882	92393
553.945	94031
554.008	92456
554.071	94919
554.134	92696
554.197	90210
554.260	88767
554.323	91322
554.386	91727
554.449	95196
554.512	95139
554.575	89930
554.638	91075
554.701	90558
554.764	88986
554.827	85392
554.889	82963
554.952	77594
555.015	77974
555.078	77395
555.141	78918
555.203	78149
555.266	78436
555.329	77656
555.391	73963
555.454	72771
555.517	70518
555.580	69021
555.642	66585
555.705	64413
555.768	65476
555.830	61748
555.893	59964
555.955	58118
556.018	58250
556.080	57622
556.143	58951
556.206	56524
556.268	56808
556.330	54599
556.393	53879
556.455	52345
556.518	51597
556.580	49832
556.643	49476
556.705	48369
556.767	46487
556.830	45478
556.892	45393
556.955	44949
557.017	43145
557.079	43214
557.142	42430
557.204	41936
557.266	43802
557.328	39519
557.391	36951
557.453	35849
557.515	36496
557.577	36949
557.639	37593
557.701	37645
557.764	36894
557.826	38218
557.888	39583
557.950	40718
558.012	46430
558.074	66927
558.136	168966
558.198	292443
558.260	86845
558.322	43605
558.384	43012
558.446	45100
558.508	48952
558.570	53862
558.632	64453
558.694	86444
558.756	165184
558.818	481322
558.880	729042
558.942	303725
559.003	324197
559.065	123382
559.127	57374
559.189	54888
559.251	64367
559.312	103171
559.374	276071
559.436	599405
559.498	232571
559.559	64946
559.621	55577
559.683	68648
559.744	128880
559.806	389408
559.868	393446
559.929	84799
559.991	66940
560.052	132705
560.114	311045
560.176	160704
560.237	210009
560.299	237858
560.360	46748
560.422	23853
560.483	20828
560.545	19188
560.606	18846
560.667	17124
560.729	16278
560.790	15687
560.852	15421
560.913	15414
560.974	14559
561.036	14226
561.097	14563
561.158	13788
561.220	14827
561.281	12604
561.342	13429
561.403	13360
561.465	12235
561.526	14297
561.587	15237
561.648	10960
561.709	11661
561.771	12163
561.832	11277
561.893	10983
561.954	10964
562.015	10149
562.076	10753
562.137	10832
562.198	10932
562.259	10565
562.320	10939
562.381	9858
562.442	10278
562.503	10170
562.564	10898
562.625	9744
562.686	11026
562.747	9490
562.808	10190
562.869	9415
562.930	10782
562.991	9050
563.051	9691
563.112	9709
563.173	9946
563.234	9707
563.294	9390
563.355	8505
563.416	9171
563.477	8725
563.537	9022
563.598	9243
563.659	8698
563.720	7837
563.780	9236
563.841	9004
563.901	9549
563.962	7813
564.023	9843
564.083	8791
564.144	8051
564.204	8904
564.265	8093
564.325	8479
564.386	10325
564.446	8622
564.507	8597
564.567	8521
564.628	8732
564.688	7380
564.749	7159
564.809	7444
564.869	8288
564.930	8117
564.990	9070
565.050	7776
565.111	8610
565.171	7539
565.231	8615
565.292	9046
565.352	7614
565.412	8265
565.472	7675
565.532	8008
565.593	7501
565.653	7813
565.713	7788
565.773	8014
565.833	7245
565.893	8317
565.953	7439
566.013	6902
566.074	7415
566.134	7627
566.194	7897
566.254	8541
566.314	6753
566.374	7111
566.434	8010
566.494	6682
566.554	6486
566.614	6409
566.673	7500
566.733	8377
566.793	7658
566.853	7297
566.913	7525
566.973	8371
567.033	7863
567.092	7918
567.152	8041
567.212	7728
567.272	7888
567.331	7638
567.391	8291
567.451	8999
567.511	9494
567.570	8279
567.630	7843
567.690	7881
567.749	8148
567.809	7634
567.868	8088
567.928	7884
567.988	7753
568.047	7512
568.107	7904
568.166	8396
568.226	8419
568.285	8604
568.345	8431
568.404	7692
568.464	8367
568.523	8048
568.582	8629
568.642	7752
568.701	7620
568.761	7808
568.820	7969
568.879	7499
568.939	8661
568.998	7692
569.057	7926
569.116	7364
569.176	8416
569.235	7795
569.294	8822
569.353	8261
569.413	8495
569.472	7408
569.531	7356
569.590	6997
569.649	8300
569.708	7282
569.767	8828
569.827	7632
569.886	8096
569.945	7322
570.004	8581
570.063	8144
570.122	9218
570.181	8652
570.240	8312
570.299	8112
570.358	9244
570.417	8844
570.475	8659
570.534	8796
570.593	8981
570.652	8694
570.711	9047
570.770	8833
570.829	9056
570.887	9289
570.946	9123
571.005	8167
571.064	9206
571.122	8475
571.181	8653
571.240	7687
571.299	7800
571.357	8127
571.416	8017
571.475	8238
571.533	8707
571.592	8787
571.650	9513
571.709	9983
571.768	10758
571.826	11977
571.885	9964
571.943	9438
572.002	8756
572.060	7815
572.119	8223
572.177	9057
572.236	8473
572.294	7908
572.352	10264
572.411	9139
572.469	9005
572.528	8386
572.586	8152
572.644	7891
572.703	9087
572.761	8163
572.819	8685
572.877	6997
572.936	8260
572.994	7655
573.052	7812
573.110	8215
573.169	8940
573.227	7491
573.285	8910
573.343	8296
573.401	8408
573.459	9178
573.517	8917
573.576	9382
573.634	9314
573.692	8495
573.750	8820
573.808	8205
573.866	8442
573.924	8691
573.982	8486
574.040	8484
574.098	8483
574.155	7511
574.213	7718
574.271	7361
574.329	9298
574.387	8554
574.445	7422
574.503	7444
574.560	6940
574.618	7353
574.676	7220
574.734	7453
574.792	6770
574.849	6889
574.907	6289
574.965	6815
575.022	6307
575.080	6468
575.138	6816
575.195	5570
575.253	5594
575.311	6213
575.368	6769
575.426	5524
575.483	7781
575.541	6275
575.598	6630
575.656	5779
575.713	6894
575.771	7123
575.828	7021
575.886	6860
575.943	6669
576.001	5668
576.058	5804
576.115	5496
576.173	6521
576.230	6896
576.287	6739
576.345	6140
576.402	6800
576.459	6948
576.517	6171
576.574	5968
576.631	6254
576.688	5581
576.746	5967
576.803	5357
576.860	5277
576.917	6309
576.974	5804
577.031	5018
577.089	5863
577.146	5703
577.203	5741
577.260	5464
577.317	5275
577.374	5310
577.431	5390
577.488	5135
577.545	4616
577.602	5152
577.659	5733
577.716	6182
577.773	5570
577.830	5119
577.886	6561
577.943	4663
578.000	5864
578.057	5058
578.114	6149
578.171	5911
578.227	7108
578.284	5524
578.341	6375
578.398	5834
578.454	6192
578.511	6748
578.568	5279
578.625	6254
578.681	5991
578.738	5043
578.794	6195
578.851	5993
578.908	6141
578.964	4817
579.021	6503
579.077	5487
579.134	6232
579.190	6064
579.247	6890
579.303	5806
579.360	5645
579.416	5336
579.473	5665
579.529	6340
579.586	6205
579.642	6167
579.698	5963
579.755	5754
579.811	6530
579.867	6631
579.924	6200
579.980	6787
580.036	7816
580.093	7395
580.149	9223
580.205	9155
580.261	7879
580.317	7711
580.374	8218
580.430	7336
580.486	6894
580.542	6889
580.598	7756
580.619	7765
580.654	7788
580.692	7069
580.710	6722
580.765	7505
580.767	7535
580.823	6745
580.838	7061
580.879	7905
580.911	8054
580.935	8183
580.984	7559
580.991	7484
581.047	7854
581.057	7779
581.103	7437
581.130	7902
581.159	8401
581.203	8664
581.215	8746
581.270	7303
581.276	7298
581.326	7324
581.349	7255
581.382	7109
581.422	6751
581.438	6628
581.494	7069
581.494	7066
581.550	7100
581.567	7229
581.606	7552
581.640	7366
581.661	7215
581.713	7638
581.717	7684
581.773	6995
581.786	7151
581.829	7610
581.859	7593
581.885	7655
581.932	8416
581.940	8537
581.996	8450
582.004	8268
582.052	7253
582.077	7623
582.107	8160
582.150	8229
582.163	8208
582.219	6615
582.223	6749
582.274	8499
582.296	8164
582.330	7590
582.368	7497
582.386	7497
582.441	8405
582.441	8407
582.497	8467
582.514	8320
582.552	8004
582.587	8256
582.608	8446
582.659	7702
582.663	7631
582.719	9946
582.732	9775
582.774	9338
582.805	9190
582.830	9095
582.877	8801
582.885	8745
582.941	9697
582.950	9928
582.996	11096
583.023	11058
583.052	11070
583.095	11119
583.107	11121
583.162	11499
583.168	11423
583.218	10602
583.240	10304
583.273	9816
583.313	10225
583.328	10469
583.384	10021
583.385	9995
583.439	8929
583.458	8981
583.494	9204
583.531	8736
583.549	8508
583.603	9151
583.605	9164
583.660	8740
583.676	8768
583.715	8989
583.748	8753
583.770	8625
583.820	8859
583.825	8858
583.881	8827
583.893	8738
583.936	8662
583.965	8976
583.991	9175
584.038	9842
584.046	9931
584.101	8656
584.110	8779
584.156	9887
584.183	9825
584.211	9335
584.255	9225
584.266	9372
584.321	10114
584.328	10144
584.376	9815
584.400	9936
584.431	10387
584.472	10453
584.486	10365
584.541	10827
584.545	10886
584.596	11881
584.617	11599
584.651	11396
584.689	12136
584.706	12325
584.761	12264
584.762	12268
584.816	12897
584.834	13058
584.871	13310
584.906	13359
584.926	13426
584.978	14352
584.980	14405
585.035	16563
585.051	17032
585.090	18181
585.123	18910
585.145	19555
585.195	22171
585.200	22491
585.254	25565
585.267	26620
585.309	30301
585.340	33247
585.364	36121
585.412	43214
585.419	44475
585.473	56839
585.484	60547
585.528	82164
585.556	104050
585.583	143374
585.628	233301
585.637	264861
585.692	522875
585.700	553159
585.747	642642
585.772	578374
585.801	384830
585.845	169112
585.856	142104
585.910	68512
585.917	60811
585.965	43630
585.989	36842
586.019	32666
586.061	27492
586.074	26429
586.128	23860
586.133	23556
586.183	21383
586.205	20669
586.237	20092
586.277	19391
586.292	19057
586.346	18189
586.349	18120
586.401	17664
586.421	17641
586.455	17518
586.493	17670
586.509	17934
586.564	17674
586.565	17716
586.618	21105
586.637	21723
586.672	23657
586.709	26476
586.727	27845
586.781	30855
586.781	30870
586.835	24099
586.853	22550
586.889	20066
586.925	17845
586.944	17328
586.996	16879
586.998	16891
587.052	16349
587.068	16362
587.106	16663
587.140	16247
587.161	16078
587.212	16637
587.215	16649
587.269	15478
587.284	15622
587.323	16296
587.356	16177
587.377	16183
587.427	16782
587.431	16834
587.485	16922
587.499	16985
587.539	17250
587.571	17484
587.593	17802
587.643	18698
587.648	18765
587.702	18968
587.715	19040
587.755	19204
587.786	19099
587.810	18939
587.858	19310
587.864	19388
587.917	19297
587.930	19309
587.971	19321
588.001	19321
588.025	19492
588.073	19869
588.079	19919
588.133	19964
588.145	20070
588.187	20086
588.217	19982
588.241	20296
588.288	20595
588.295	20618
588.348	21354
588.360	21323
588.402	21487
588.431	21870
588.456	21958
588.503	22284
588.510	22485
588.564	23656
588.575	23945
588.617	24946
588.646	25812
588.671	26585
588.718	28142
588.725	28620
588.778	33426
588.789	34922
588.832	48981
588.861	60916
588.886	87219
588.932	148151
588.939	154724
588.993	187633
589.004	186155
589.047	95290
589.075	48777
589.100	39880
589.147	27407
589.154	27109
589.207	25248
589.218	24910
589.261	25971
589.290	26539
589.314	26890
589.361	28854
589.368	29662
589.421	36612
589.433	38764
589.475	62522
589.504	82160
589.528	108674
589.576	158927
589.582	154005
589.635	78722
589.647	65593
589.689	40639
589.718	25507
589.742	24703
589.790	22953
589.795	22935
589.849	22873
589.861	22792
589.902	22677
589.932	22422
589.955	21992
590.004	21428
590.009	21507
590.062	21889
590.075	22012
590.115	21618
590.146	21153
590.168	21130
590.218	21353
590.222	21416
590.275	21618
590.289	21734
590.328	22680
590.360	23332
590.381	23457
590.431	23465
590.435	23476
590.488	23256
590.503	23242
590.541	23808
590.574	24198
590.594	24392
590.645	24701
590.647	24794
590.700	26645
590.716	27155
590.753	26857
590.787	26483
590.806	26802
590.859	27849
590.859	27893
590.912	28468
590.930	28725
590.965	29246
591.001	29566
591.018	29274
591.071	28219
591.072	28176
591.124	27958
591.143	27922
591.177	27774
591.214	27367
591.230	27901
591.283	29982
591.285	30011
591.336	28429
591.356	27802
591.389	28482
591.427	29404
591.442	29232
591.495	28206
591.498	28100
591.547	28709
591.569	28999
591.600	29021
591.640	28837
591.653	29012
591.706	29667
591.711	29715
591.759	30785
591.782	31189
591.811	31936
591.853	33042
591.864	33078
591.917	32897
591.924	32846
591.969	32205
591.995	31719
592.022	32486
592.066	33755
592.075	33834
592.127	33980
592.137	33968
592.180	34768
592.208	35260
592.233	35618
592.279	36111
592.285	36219
592.338	36795
592.350	36865
592.390	36589
592.421	36332
592.443	37000
592.491	38350
592.495	38495
592.548	39812
592.562	40124
592.600	39830
592.633	39484
592.653	39105
592.704	37779
592.705	38025
592.775	39551
592.846	41140
592.916	41259
592.987	41073
593.058	42159
593.128	42641
593.199	42229
593.270	43201
593.341	43761
593.411	45226
593.482	45570
593.553	48924
593.623	47546
593.694	50298
593.764	50764
593.835	50602
593.906	50119
593.976	51088
594.047	53179
594.117	56266
594.188	57280
594.258	57567
594.329	56461
594.399	59324
594.470	60348
594.540	62484
594.611	62971
594.681	62826
594.751	62934
594.822	67166
594.892	69066
594.963	70107
595.033	72759
595.103	76165
595.174	74286
595.244	77232
595.314	80160
595.384	80310
595.455	83763
595.525	87032
595.595	88895
595.665	89735
595.736	86716
595.806	89364
595.876	89861
595.946	91190
596.016	94335
596.087	98489
596.157	99257
596.227	98660
596.297	102406
596.367	110455
596.437	116572
596.507	115979
596.577	117417
596.647	120335
596.717	126851
596.787	126815
596.857	128581
596.927	130446
596.997	130729
597.067	130998
597.137	133653
597.207	133784
597.277	134320
597.347	129971
597.417	125310
597.487	127404
597.557	128245
597.626	132144
597.696	134911
597.766	133451
597.836	126227
597.906	118668
597.975	117186
598.045	119717
598.115	125094
598.185	134163
598.254	149242
598.324	160888
598.394	165764
598.464	158715
598.533	157108
598.603	146571
598.672	142249
598.742	146981
598.812	147114
598.881	152778
598.951	150258
599.020	153148
599.090	158332
599.159	161058
599.229	154333
599.299	151504
599.368	155285
599.437	154757
599.507	141979
599.576	137674
599.646	136196
599.715	135205
599.785	133305
599.854	130710
599.924	128469
599.993	129993
600.062	131320
600.132	134047
600.201	143318
600.270	163173
600.340	171869
600.409	167813
600.478	168039
600.547	173024
600.617	159242
600.686	127106
600.755	116663
600.824	113146
600.894	112009
600.963	110982
601.032	110063
601.101	107309
601.170	102683
601.239	100312
601.308	102137
601.378	102218
601.447	102966
601.516	104482
601.585	105454
601.654	104988
601.723	106613
601.792	110367
601.861	115100
601.930	118671
601.999	119946
602.068	119885
602.137	120319
602.206	122203
602.275	124565
602.343	125662
602.412	126729
602.481	127377
602.550	128909
602.619	134310
602.688	133523
602.756	135697
602.825	136098
602.894	138743
602.963	140318
603.032	142897
603.100	144062
603.169	143758
603.238	145141
603.307	143429
603.375	145614
603.444	150418
603.513	149701
603.581	152061
603.650	155888
603.719	148595
603.787	149940
603.856	153317
603.924	155912
603.993	163780
604.061	168861
604.130	176273
604.198	179754
604.267	182684
604.335	184552
604.404	187350
604.472	190901
604.541	192321
604.609	195151
604.678	195380
604.746	197058
604.815	204291
604.883	203606
604.951	202255
605.020	206814
605.088	207649
605.156	208644
605.225	211080
605.293	212349
605.361	213335
605.429	213715
605.498	218654
605.566	223896
605.634	235863
605.702	241182
605.771	244415
605.839	246915
605.907	240992
605.975	235581
606.043	229839
606.111	228499
606.180	231051
606.248	225127
606.316	222198
606.384	223760
606.452	221897
606.520	218615
606.588	228283
606.656	231189
606.724	225504
606.792	214204
606.860	193117
606.928	177719
606.996	170495
607.064	167163
607.132	172514
607.200	182994
607.267	188783
607.335	191462
607.403	197166
607.471	190480
607.539	183682
607.607	186765
607.674	165838
607.742	164954
607.810	161263
607.878	163247
607.946	166748
608.013	174457
608.081	178471
608.149	178754
608.216	186623
608.284	190969
608.352	191708
608.419	187029
608.487	185209
608.555	181524
608.622	190015
608.690	197567
608.757	220016
608.825	222540
608.893	217200
608.960	202079
609.028	195262
609.095	197257
609.163	194084
609.230	175342
609.298	161198
609.365	169599
609.432	182092
609.500	196616
609.567	226906
609.635	255336
609.702	267092
609.769	255760
609.837	203134
609.904	179264
609.971	186756
610.039	212604
610.106	274502
610.173	487564
610.241	971602
610.308	658553
610.375	270789
610.442	206333
610.509	190100
610.577	186649
610.644	186093
610.711	193386
610.778	196141
610.845	203867
610.912	216834
610.980	222266
611.047	223227
611.114	219304
611.181	212412
611.248	210108
611.315	223118
611.382	228362
611.449	235844
611.516	240630
611.583	237448
611.650	238824
611.717	245338
611.784	250589
611.851	263267
611.918	282169
611.984	329501
612.051	441082
612.118	741640
612.185	1340240
612.252	1058626
612.319	470248
612.386	349400
612.452	304445
612.519	279374
612.586	272386
612.653	274940
612.719	279687
612.786	267556
612.853	249752
612.919	245288
612.986	248968
613.053	232446
613.120	217796
613.186	211774
613.253	214707
613.319	212129
613.386	212919
613.453	219094
613.519	219463
613.586	213531
613.652	217761
613.719	215672
613.785	218294
613.852	219942
613.918	218821
613.985	221404
614.051	230344
614.118	232033
614.184	222235
614.250	217082
614.317	223764
614.383	219075
614.449	224908
614.516	222606
614.582	225010
614.648	219530
614.715	218093
614.781	213079
614.847	212813
614.914	210199
614.980	206796
615.046	207298
615.112	212183
615.179	213423
615.245	218427
615.311	214305
615.377	218711
615.443	220022
615.509	225978
615.575	234474
615.642	232963
615.708	239934
615.774	249977
615.840	270326
615.906	293152
615.972	354846
616.038	508243
616.104	888876
616.170	1459447
616.236	1337783
616.302	680949
616.368	504706
616.434	366591
616.500	317049
616.565	347478
616.631	445559
616.697	378619
616.763	369804
616.829	541078
616.895	922391
616.961	923115
617.026	465081
617.092	291191
617.158	250726
617.224	234841
617.289	214717
617.355	201776
617.421	196029
617.487	195575
617.552	185030
617.618	183591
617.684	181442
617.749	184001
617.815	176131
617.880	168932
617.946	171206
618.012	173922
618.077	177288
618.143	169316
618.208	167656
618.274	183267
618.339	185404
618.405	151281
618.470	153087
618.536	152626
618.601	149379
618.667	138482
618.732	130942
618.798	129812
618.863	130398
618.928	126912
618.994	130084
619.059	128140
619.124	130239
619.190	128845
619.255	126644
619.320	124690
619.386	127281
619.451	126427
619.516	122212
619.581	124984
619.647	128594
619.712	129869
619.777	122418
619.842	123451
619.907	125168
619.972	127576
620.038	125198
620.103	123905
620.168	122458
620.233	125465
620.298	126330
620.363	126756
620.428	131674
620.493	134640
620.558	134867
620.623	136695
620.688	136622
620.753	135161
620.818	140320
620.883	139059
620.948	139512
621.013	136399
621.078	135813
621.143	135819
621.207	139728
621.272	134799
621.337	132087
621.402	130326
621.467	129845
621.532	129621
621.596	130708
621.661	125051
621.726	124401
621.791	125574
621.855	125301
621.920	125416
621.985	129019
622.049	130179
622.114	130126
622.179	131948
622.243	135253
622.308	139887
622.373	145459
622.437	141791
622.502	132796
622.566	132313
622.631	131173
622.695	135624
622.760	133614
622.824	131994
622.889	133152
622.953	132986
623.018	142752
623.082	143856
623.147	142092
623.211	138766
623.276	138162
623.340	132345
623.404	130021
623.469	128858
623.533	131282
623.597	128865
623.662	126402
623.726	116969
623.790	111469
623.854	106836
623.919	110489
623.983	110144
624.047	112568
624.111	114538
624.176	116545
624.240	116477
624.304	121366
624.368	116622
624.432	117434
624.496	120586
624.560	125486
624.625	127250
624.689	126684
624.753	131115
624.817	125517
624.881	122202
624.945	109611
625.009	105940
625.073	108196
625.137	112219
625.201	118806
625.265	117858
625.329	113582
625.393	114185
625.456	114360
625.520	120607
625.584	120585
625.648	123881
625.712	127702
625.776	130403
625.839	122695
625.903	102622
625.967	94722
626.031	102088
626.095	119726
626.158	112649
626.222	89347
626.286	81318
626.349	77640
626.413	73061
626.477	74346
626.540	74108
626.604	72490
626.668	73334
626.731	72453
626.795	71173
626.858	72810
626.922	70809
626.986	70540
627.049	68269
627.113	75279
627.176	71694
627.240	69280
627.303	70100
627.366	69195
627.430	70157
627.493	68598
627.557	67551
627.620	70847
627.684	71132
627.747	72689
627.810	66180
627.874	61588
627.937	57956
628.000	62291
628.064	59510
628.127	52471
628.190	52245
628.253	50716
628.317	49018
628.380	46139
628.443	44293
628.506	45212
628.569	43624
628.632	40999
628.696	41057
628.759	41259
628.822	39003
628.885	38154
628.948	38118
629.011	36540
629.074	35488
629.137	34710
629.200	33325
629.263	34396
629.326	32849
629.389	33065
629.452	33326
629.515	33143
629.578	31766
629.641	34112
629.704	32567
629.767	31496
629.830	32773
629.892	31402
629.955	29819
630.018	33042
630.081	30157
630.144	32357
630.207	29568
630.269	31505
630.332	30633
630.395	30035
630.458	29644
630.520	28082
630.583	29785
630.646	30308
630.708	30205
630.771	29630
630.834	32822
630.896	31338
630.959	31419
631.021	30258
631.084	30614
631.146	31470
631.209	32773
631.272	30835
631.334	33621
631.397	34091
631.459	34975
631.522	38048
631.584	40094
631.646	43320
631.709	45108
631.771	47007
631.834	44181
631.896	41643
631.958	36684
632.021	36450
632.083	32331
632.145	31857
632.208	30598
632.270	31879
632.332	29413
632.395	29040
632.457	29604
632.519	29643
632.581	30251
632.643	29301
632.706	29429
632.768	28526
632.830	30040
632.892	30713
632.954	29165
633.016	30967
633.078	29716
633.141	29767
633.203	29715
633.265	29863
633.327	29837
633.389	29899
633.451	30638
633.513	30813
633.575	32022
633.637	32036
633.698	33720
633.760	34576
633.822	35891
633.884	38262
633.946	40519
634.008	42075
634.070	45130
634.132	49979
634.193	55295
634.255	61156
634.317	61905
634.379	60047
634.441	52729
634.502	47374
634.564	41344
634.626	37973
634.687	36066
634.749	33056
634.811	31831
634.873	31476
634.934	31209
634.996	31946
635.057	30741
635.119	31730
635.181	33681
635.242	34366
635.304	32743
635.365	36198
635.427	32714
635.488	34362
635.550	34192
635.611	35746
635.673	35200
635.734	40094
635.796	42861
635.857	50327
635.918	52393
635.980	61354
636.041	65800
636.102	70430
636.164	71034
636.225	67522
636.286	56015
636.348	50379
636.409	44707
636.470	39013
636.531	36915
636.593	33601
636.654	32505
636.715	30763
636.776	29906
636.838	27083
636.899	28228
636.960	27532
637.021	26520
637.082	25450
637.143	24423
637.204	22667
637.265	22933
637.326	24675
637.387	25791
637.448	24077
637.509	24990
637.570	24796
637.631	25107
637.692	22817
637.753	21371
637.814	23002
637.875	21546
637.936	23624
637.997	21802
638.058	21822
638.119	22317
638.179	22158
638.240	20981
638.301	21672
638.362	21077
638.423	20136
638.483	20557
638.544	18121
638.605	20161
638.666	20072
638.726	20612
638.787	20762
638.848	19049
638.908	19165
638.969	18544
639.030	18741
639.090	17513
639.151	18639
639.211	20613
639.272	19975
639.332	21156
639.393	22616
639.453	23167
639.514	25256
639.574	21581
639.635	18965
639.695	18541
639.756	16011
639.816	17437
639.877	17900
639.937	20103
639.997	19151
640.058	17587
640.118	17559
640.178	18797
640.239	17465
640.299	17514
640.359	19244
640.420	20466
640.480	24401
640.540	31090
640.600	31442
640.661	26499
640.721	23953
640.781	26294
640.841	20820
640.901	19761
640.961	19048
641.021	19951
641.082	23070
641.142	19278
641.202	18147
641.262	16002
641.322	16830
641.382	16255
641.442	16642
641.502	15684
641.562	17850
641.622	18425
641.682	21287
641.742	26355
641.802	24155
641.861	17578
641.921	16060
641.981	15984
642.041	15219
642.101	14758
642.161	14105
642.221	14470
642.280	15370
642.340	15219
642.400	14325
642.460	17852
642.519	16882
642.579	16332
642.639	17442
642.698	14984
642.758	19778
642.818	17236
642.877	16243
642.937	16879
642.997	17095
643.056	17149
643.116	15688
643.175	19107
643.235	17883
643.294	19233
643.354	20341
643.414	23594
643.473	27751
643.532	34285
643.592	48458
643.651	74514
643.711	126225
643.770	237718
643.830	512431
643.889	854203
643.948	332540
644.008	87658
644.067	47208
644.126	32850
644.186	27455
644.245	23517
644.304	19019
644.363	21182
644.423	18285
644.482	19480
644.541	20916
644.600	19895
644.659	30140
644.719	37679
644.778	58762
644.837	99548
644.896	203310
644.955	427019
645.014	159206
645.073	40908
645.132	27123
645.191	23992
645.250	22368
645.309	24875
645.368	27415
645.427	40138
645.486	71775
645.545	129491
645.604	37295
645.663	21147
645.722	19748
645.781	21889
645.840	24722
645.898	31356
645.957	45190
646.016	67909
646.075	118101
646.134	224136
646.192	523911
646.251	687813
646.310	179782
646.369	59682
646.427	45338
646.486	30130
646.545	23084
646.603	20046
646.662	18245
646.721	17974
646.779	17358
646.838	19526
646.896	26059
646.955	34834
647.014	58319
647.072	115134
647.131	304445
647.189	152580
647.248	26203
647.306	17255
647.365	15549
647.423	11480
647.481	14158
647.540	10820
647.598	12170
647.657	11187
647.715	11469
647.773	10508
647.832	10810
647.890	9556
647.948	9753
648.007	11090
648.065	9272
648.123	9201
648.181	10181
648.240	9954
648.298	8911
648.356	8893
648.414	9231
648.472	8819
648.531	9503
648.589	8278
648.647	8273
648.705	8633
648.763	9593
648.821	10381
648.879	10420
648.937	12537
648.995	15679
649.053	20918
649.111	33291
649.169	54431
649.227	100361
649.285	207608
649.343	508180
649.401	272886
649.459	48879
649.516	25404
649.574	18342
649.632	20482
649.690	23343
649.748	27888
649.806	41228
649.863	82329
649.921	227968
649.979	154572
650.037	22927
650.094	11898
650.152	10629
650.210	8914
650.268	8406
650.325	8438
650.383	9082
650.440	6082
650.498	7249
650.556	7145
650.613	6293
650.671	7183
650.728	6243
650.786	7760
650.843	14434
650.901	8687
650.958	7437
651.016	5496
651.073	5932
651.131	5266
651.188	4290
651.246	5138
651.303	4758
651.360	5458
651.418	4539
651.475	5551
651.532	4320
651.590	5017
651.647	3878
651.704	4268
651.762	5101
651.819	4721
651.876	3619
651.933	4920
651.990	4788
652.048	3785
652.105	3845
652.162	4778
652.219	3727
652.276	4168
652.333	5411
652.390	3315
652.448	3464
652.505	3794
652.562	4224
652.619	4452
652.676	4725
652.733	5269
652.790	3732
652.847	3458
652.904	4911
652.961	2828
653.017	2734
653.074	3599
653.131	4251
653.188	3423
653.245	3083
653.302	3898
653.359	3797
653.415	4186
653.472	3658
653.529	4923
653.586	3187
653.642	3486
653.699	5088
653.756	3133
653.813	4051
653.869	5414
653.926	4147
653.983	2433
654.039	4152
654.096	3181
654.152	5244
654.209	3046
654.266	4462
654.322	2644
654.379	4057
654.435	4037
654.492	3210
654.548	4075
654.605	3450
654.661	3753
654.717	3608
654.774	3790
654.830	3768
654.887	3766
654.943	3385
655.000	4308
655.056	4307
655.112	3106
655.168	2076
655.225	3302
655.281	5282
655.337	2924
655.394	3989
655.450	3920
655.506	3325
655.562	2822
655.618	4541
655.675	2327
655.731	3152
655.787	2912
655.843	3809
655.899	2837
655.955	4009
656.011	2786
656.067	2724
656.123	4482
656.179	3485
656.235	4463
656.291	3039
656.347	4337
656.403	3416
656.459	3277
656.515	3264
656.571	3974
656.627	3407
656.683	3046
656.739	3539
656.795	3489
656.850	3137
656.906	2580
656.962	4028
657.018	3647
657.074	5456
657.129	7943
657.185	13705
657.241	33061
657.297	17641
657.352	4677
657.408	3031
657.464	3491
657.519	2953
657.575	2392
657.630	2465
657.686	2728
657.742	2421
657.797	2398
657.853	2730
657.908	3300
657.964	2487
658.019	2994
658.075	2647
658.130	2951
658.186	2391
658.241	2998
658.297	2104
658.352	2839
658.407	3244
658.463	1315
658.518	2898
658.573	2484
658.629	2094
658.684	2668
658.739	3436
658.795	1211
658.850	1766
658.905	2041
658.960	3065
659.016	2519
659.071	2546
659.126	2589
659.181	3009
659.236	2776
659.291	3213
659.346	1400
659.401	1991
659.457	2547
659.512	1837
659.567	3546
659.622	1902
659.677	1865
659.732	1585
659.787	2160
659.842	2245
659.897	2218
659.952	2796
660.007	2441
660.061	2016
660.116	1703
660.171	2064
660.226	2301
660.281	2943
660.336	1220
660.391	2630
660.445	568
660.500	1824
660.555	1649
660.610	1645
660.664	2552
660.719	1525
660.774	1841
660.828	2211
660.883	2102
660.938	2167
660.992	1264
661.047	2516
661.101	2475
661.156	2000
661.211	1252
661.265	1090
661.320	1551
661.374	1897
661.429	1741
661.483	2280
661.538	1628
661.592	2331
661.647	2045
661.701	3412
661.755	1543
661.810	1405
661.864	1328
661.919	1182
661.973	1552
662.027	1261
662.081	1167
662.136	934
662.190	1755
662.244	2232
662.299	1014
662.353	2974
662.407	1908
662.461	1461
662.515	1931
662.569	485
662.624	2549
662.678	1105
662.732	1455
662.786	724
662.840	1363
662.894	2004
662.948	1698
663.002	1824
663.056	2164
663.110	829
663.164	1013
663.218	1195
663.272	2401
663.326	1568
663.380	1940
663.434	1745
663.488	1070
663.542	2049
663.595	1690
663.649	1809
663.703	2521
663.757	2067
663.811	1204
663.864	656
663.918	2036
663.972	877
664.026	1630
664.079	1749
664.133	1676
664.187	1759
664.240	1684
664.294	1829
664.348	2145
664.401	1829
664.455	2022
664.508	1321
664.562	1609
664.615	2186
664.669	1370
664.722	2139
664.776	1871
664.829	1489
664.883	1256
664.936	751
664.990	1903
665.043	1845
665.097	803
665.150	1547
665.203	1060
665.257	2083
665.310	1585
665.363	2287
665.417	1877
665.470	2297
665.523	2050
665.576	1731
665.630	2723
665.683	1612
665.736	1778
665.789	2256
665.842	1875
665.895	1964
665.949	1921
666.002	2489
666.055	2389
666.108	2776
666.161	1776
666.214	2255
666.267	2510
666.320	3494
666.373	2393
666.426	1854
666.479	1586
666.532	1945
666.585	3186
666.638	2982
666.691	2303
666.744	2818
666.796	1858
666.849	2288
666.902	3017
666.955	2233
667.008	1565
667.060	1256
667.113	1103
667.166	2542
667.219	2313
667.271	2263
667.324	1731
667.377	2986
667.430	2208
667.482	2110
667.535	2560
667.587	2566
667.640	2232
667.693	2352
667.745	1896
667.798	3560
667.850	2476
667.903	2616
667.955	1962
668.008	2833
668.060	2071
668.113	2533
668.165	2065
668.218	1963
668.270	2738
668.322	2583
668.375	2201
668.427	1522
668.479	1797
668.532	2273
668.584	2073
668.636	3005
668.689	1848
668.741	1458
668.793	2182
668.845	1622
668.898	2300
668.950	1940
669.002	2002
669.054	1510
669.106	1180
669.158	1647
669.211	2099
669.263	1299
669.315	1948
669.367	1688
669.419	1071
669.471	2954
669.523	1724
669.575	2624
669.627	1210
669.679	2496
669.731	2173
669.783	2294
669.835	2261
669.886	2553
669.938	2043
669.990	2146
670.042	1498
670.094	2036
670.146	1566
670.197	1960
670.249	2416
670.301	2145
670.353	3557
670.404	5109
670.456	5423
670.508	9153
670.560	15114
670.611	24840
670.663	42006
670.715	97459
670.766	153856
670.818	47462
670.869	9425
670.921	5928
670.972	4601
671.024	3058
671.075	3257
671.127	3623
671.178	3923
671.230	4269
671.281	4492
671.333	4724
671.384	6324
671.436	9385
671.487	14847
671.538	21521
671.590	34778
671.641	56004
671.692	96761
671.744	175227
671.795	139317
671.846	57177
671.897	27102
671.949	15198
672.000	10412
672.051	7524
672.102	6433
672.153	4637
672.204	4091
672.256	4154
672.307	3505
672.358	3140
672.409	2845
672.460	2371
672.511	2003
672.562	1527
672.613	1391
672.664	1805
672.715	1947
672.766	1681
672.817	1366
672.868	1313
672.919	1677
672.970	1394
673.021	1173
673.071	1463
673.122	1431
673.173	1282
673.224	461
673.275	999
673.326	1417
673.376	97
673.427	126
673.478	1093
673.528	1439
673.579	1324
673.630	987
673.680	1870
673.731	740
673.782	412
673.832	1732
673.883	1744
673.934	1083
673.984	348
674.035	1210
674.085	1782
674.136	1086
674.186	1590
674.237	1043
674.287	1545
674.338	2018
674.388	1254
674.438	1749
674.489	1750
674.539	2087
674.589	1622
674.640	1826
674.690	2322
674.740	1774
674.791	1267
674.841	334
674.891	1161
674.942	948
674.992	440
675.042	957
675.092	984
675.142	372
675.193	1151
675.243	430
675.293	1622
675.343	905
675.393	1069
675.443	920
675.493	1789
675.543	-40
675.593	1344
675.643	603
675.693	1333
675.743	792
675.793	1353
675.843	76
675.893	841
675.943	830
675.993	713
676.043	143
676.093	686
676.142	112
676.192	506
676.242	446
676.292	690
676.341	-404
676.391	792
676.441	-240
676.491	187
676.540	642
676.590	-76
676.640	-181
676.689	834
676.739	-400
676.789	247
676.838	148
676.888	588
676.937	-21
676.987	-199
677.037	-91
677.086	147
677.136	218
677.185	818
677.235	781
677.284	367
677.333	-762
677.383	-178
677.432	-956
677.482	-66
677.531	-130
677.580	383
677.630	322
677.679	226
677.728	352
677.778	1054
677.827	-240
677.876	170
677.925	278
677.975	-246
678.024	8
678.073	601
678.122	497
678.171	-240
678.220	949
678.269	1619
678.319	2896
678.368	1907
678.417	2216
678.466	631
678.515	383
678.564	494
678.613	266
678.662	-237
678.711	-134
678.760	-774
678.809	-57
678.857	748
678.906	920
678.955	-188
679.004	196
679.053	624
679.102	-32
679.151	-959
679.199	221
679.248	278
679.297	452
679.346	-54
679.394	-688
679.443	552
679.492	825
679.540	591
679.589	-14
679.638	-226
679.686	-169
679.735	426
679.784	974
679.832	1058
679.881	524
679.929	354
679.978	112
680.026	431
680.075	370
680.123	-640
680.172	22
680.220	-413
680.268	167
680.317	-186
680.365	-1391
680.414	-377
680.462	-1044
680.510	-364
680.559	-535
680.607	-491
680.655	-304
680.703	33
680.752	-864
680.800	-308
680.848	-678
680.896	-65
680.945	-354
680.993	-420
681.041	-700
681.089	383
681.137	-286
681.185	-430
681.233	-729
681.258	-437
681.281	-203
681.329	-687
681.377	-22
681.380	-16
681.425	-676
681.473	522
681.502	225
681.521	-57
681.569	499
681.617	-281
681.624	-131
681.665	483
681.713	1381
681.745	937
681.761	669
681.809	221
681.857	1202
681.867	1131
681.904	712
681.952	1095
681.989	1153
682.000	1112
682.048	1354
682.096	893
682.111	1203
682.143	1755
682.191	1417
682.233	2150
682.239	2215
682.286	1563
682.334	1377
682.354	1592
682.382	1801
682.430	2109
682.476	2008
682.477	1969
682.525	2435
682.572	1894
682.598	1924
682.620	1887
682.667	1953
682.715	2020
682.720	2069
682.763	2177
682.810	1921
682.841	2227
682.857	2325
682.905	2437
682.952	2483
682.963	2653
683.000	3132
683.047	3429
683.085	4063
683.095	4185
683.142	3496
683.190	3263
683.206	3291
683.237	3200
683.284	3701
683.328	2943
683.332	2854
683.379	4086
683.426	4052
683.449	4029
683.473	3982
683.521	3602
683.568	4025
683.571	4061
683.615	4037
683.662	4496
683.693	3916
683.709	3527
683.757	4253
683.804	4287
683.814	4366
683.851	4640
683.898	4587
683.936	4444
683.945	4367
683.992	4785
684.039	4255
684.057	4574
684.086	5014
684.133	5415
684.179	4214
684.180	4149
684.227	5161
684.274	4869
684.300	5238
684.321	5491
684.368	5181
684.415	5380
684.422	5299
684.462	4877
684.509	4896
684.543	5466
684.556	5589
684.603	5458
684.649	5177
684.665	5452
684.696	6009
684.743	5983
684.786	6372
684.790	6373
684.837	5777
684.883	6714
684.908	6811
684.930	6944
684.977	6843
685.023	6704
685.029	6809
685.070	7324
685.117	6774
685.150	7100
685.164	7232
685.210	7305
685.257	7117
685.272	7274
685.303	7453
685.350	6823
685.393	6480
685.396	6435
685.443	6915
685.490	7420
685.514	7052
685.536	6788
685.583	6652
685.629	6993
685.636	6929
685.675	6462
685.722	7290
685.757	7426
685.768	7435
685.815	7272
685.861	7589
685.878	7856
685.908	8373
685.954	7525
686.000	8027
686.000	8024
686.047	7832
686.093	8140
686.121	8137
686.139	8164
686.185	8865
686.232	8673
686.242	8880
686.278	9259
686.324	8869
686.363	8945
686.370	8995
686.416	8248
686.463	8688
686.484	8715
686.509	8666
686.555	9302
686.601	8618
686.606	8683
686.647	9205
686.693	8724
686.727	8556
686.739	8511
686.785	8354
686.831	8894
686.848	8920
686.877	8996
686.923	9117
686.969	8793
686.969	8791
687.015	9748
687.061	9542
687.090	9718
687.107	9688
687.153	10054
687.199	10622
687.211	10397
687.245	9760
687.291	10202
687.332	9827
687.336	9817
687.382	10164
687.428	10249
687.453	10396
687.474	10424
687.520	11398
687.565	10502
687.574	10472
687.611	10731
687.657	11656
687.695	12286
687.702	12431
687.748	12795
687.794	14191
687.816	14408
687.839	13969
687.885	12837
687.931	12402
687.937	12306
687.976	12148
688.022	11882
688.058	11791
688.067	11806
688.113	11365
688.158	11436
688.179	11425
688.204	11583
688.249	11661
688.295	11796
688.300	11821
688.340	12055
688.386	12272
688.421	12079
688.431	11971
688.477	11887
688.522	12011
688.542	11973
688.567	12400
688.613	12978
688.658	13773
688.663	13860
688.703	13632
688.749	12764
688.784	12418
688.794	12457
688.839	12910
688.884	12989
688.905	12868
688.930	12754
688.975	13310
689.020	12767
689.026	12757
689.065	12799
689.110	12900
689.146	13279
689.155	13382
689.201	13782
689.246	13350
689.267	13472
689.291	13451
689.336	13002
689.381	12671
689.388	12648
689.426	13061
689.471	13028
689.509	13456
689.516	13547
689.561	13424
689.606	13711
689.630	13841
689.651	13899
689.696	13745
689.741	13648
689.750	13663
689.785	13961
689.830	14301
689.871	13923
689.875	13869
689.920	14022
689.965	13878
689.992	13783
690.010	13859
690.054	13776
690.099	13414
690.112	13484
690.144	13684
690.189	14297
690.233	13742
690.233	13760
690.278	13891
690.323	13846
690.354	14316
690.367	14542
690.412	14229
690.457	14680
690.474	14559
690.501	14423
690.546	14598
690.590	14575
690.595	14515
690.635	14248
690.680	14307
690.716	14400
690.724	14528
690.769	14848
690.813	15993
690.836	16066
690.857	16654
690.902	18241
690.946	19718
690.957	20027
690.991	22812
691.035	26788
691.077	30632
691.080	30638
691.124	28815
691.168	27851
691.198	26868
691.213	25765
691.257	22493
691.301	18749
691.318	17429
691.346	17175
691.390	16480
691.434	15971
691.439	15911
691.478	16215
691.522	16004
691.559	16022
691.567	16065
691.611	16499
691.655	16356
691.680	16531
691.699	16695
691.743	16657
691.787	16611
691.800	16507
691.831	16276
691.875	16333
691.919	16142
691.921	16111
691.964	16385
692.008	16467
692.041	16278
692.052	16235
692.096	16526
692.139	16330
692.162	16246
692.183	16163
692.227	16203
692.271	15935
692.282	15861
692.315	15856
692.359	15708
692.402	16132
692.403	16169
692.447	15792
692.490	16208
692.523	16357
692.534	16388
692.578	16343
692.622	16161
692.643	16131
692.666	16198
692.709	16185
692.753	16325
692.763	16269
692.797	16276
692.840	16380
692.884	16566
692.884	16603
692.928	16315
692.971	16504
693.004	16537
693.015	16585
693.059	16642
693.102	16799
693.124	16667
693.146	16810
693.189	17300
693.233	17698
693.245	17812
693.276	17926
693.320	17946
693.363	17839
693.365	17789
693.407	18162
693.450	18939
693.485	19406
693.493	19586
693.537	20339
693.580	20939
693.605	21250
693.624	22404
693.667	24854
693.710	28103
693.725	28993
693.753	34842
693.797	44102
693.840	53429
693.845	54382
693.883	50895
693.926	47119
693.966	43391
693.970	42794
694.013	35758
694.056	29009
694.086	24176
694.099	23720
694.142	21900
694.185	20056
694.206	19361
694.229	19531
694.272	19494
694.315	19169
694.326	19132
694.358	19189
694.401	19146
694.444	19024
694.446	18965
694.487	18770
694.530	18824
694.566	18545
694.573	18567
694.616	18663
694.659	18934
694.686	18896
694.702	18932
694.745	18916
694.787	18791
694.806	18811
694.830	18962
694.873	18741
694.916	19101
694.926	19008
694.959	19120
695.002	19560
695.044	19856
695.046	19818
695.087	20212
695.130	20508
695.166	20931
695.172	20960
695.215	20536
695.258	20347
695.286	20095
695.301	20370
695.343	21130
695.386	21709
695.406	22032
695.428	22648
695.471	23506
695.514	24419
695.526	24640
695.556	26258
695.599	28578
695.641	30759
695.646	30916
695.684	29430
695.726	27815
695.766	26064
695.769	26074
695.811	25426
695.854	24755
695.886	24169
695.896	24410
695.938	25109
695.981	25781
696.005	26161
696.023	26834
696.065	28252
696.108	29812
696.125	30339
696.150	30653
696.192	31015
696.235	31326
696.245	31392
696.277	31730
696.319	31696
696.361	31853
696.365	31792
696.404	31675
696.446	31475
696.485	31014
696.488	31084
696.530	30982
696.572	30855
696.604	30852
696.614	30970
696.656	30962
696.698	31084
696.724	30993
696.740	31117
696.783	31303
696.825	31545
696.844	31539
696.867	31512
696.909	31237
696.951	30977
696.964	30834
696.992	31130
697.034	31436
697.076	31762
697.083	31722
697.118	32673
697.160	33893
697.202	34917
697.203	34856
697.244	34559
697.286	34249
697.323	33667
697.327	33756
697.369	34029
697.411	34115
697.442	34129
697.453	34134
697.494	33783
697.536	33426
697.562	33070
697.578	33244
697.620	33609
697.661	33824
697.682	33921
697.703	34726
697.744	35983
697.786	37394
697.801	37771
697.828	37627
697.869	37244
697.911	36859
697.921	36678
697.952	36482
697.994	36062
698.035	35627
698.040	35481
698.077	35613
698.118	35667
698.160	35717
698.160	35622
698.201	36787
698.243	37909
698.279	38797
698.284	38967
698.325	39593
698.367	40203
698.399	40562
698.408	40823
698.449	41518
698.491	42243
698.518	42596
698.532	42643
698.573	42446
698.614	42245
698.638	42004
698.656	42074
698.697	41982
698.738	41906
698.757	41754
698.779	41832
698.820	41746
698.862	41685
698.877	41542
698.903	42031
698.944	42636
698.985	43246
698.996	43298
699.026	42949
699.067	42303
699.116	41419
699.235	41340
699.354	41962
699.474	38270
699.593	38452
699.713	39140
699.832	38532
699.951	41975
700.070	39732
700.190	37787
700.309	36400
700.428	35069
700.547	34813
700.667	34363
700.786	36965
700.905	34848
701.024	34379
701.143	33862
701.262	36036
701.381	36290
701.500	37156
701.619	35444
701.738	35983
701.857	35292
701.976	32832
702.095	34107
702.214	36047
702.333	34352
702.452	35943
702.571	35025
702.690	34891
702.809	35951
702.928	33018
703.047	31619
703.165	32453
703.284	31927
703.403	30729
703.522	33377
703.640	30321
703.759	30595
703.878	29365
703.997	30831
704.115	31299
704.234	31370
704.353	31768
704.471	28860
704.590	29161
704.708	28812
704.827	28242
704.946	28686
705.064	29001
705.183	28270
705.301	28996
705.420	27116
705.538	27114
705.656	25728
705.775	25227
705.893	28883
706.012	29269
706.130	26096
706.249	27291
706.367	25146
706.485	25495
706.604	23918
706.722	24243
706.840	27987
706.958	32410
707.077	26129
707.195	23018
707.313	24540
707.431	23217
707.549	23075
707.668	21894
707.786	24618
707.904	22873
708.022	23939
708.140	23175
708.258	21844
708.376	24172
708.494	22367
708.612	23794
708.730	24185
708.848	23153
708.966	22773
709.084	23376
709.202	24195
709.320	20984
709.438	21558
709.556	22117
709.674	19822
709.791	20548
709.909	20002
710.027	20609
710.145	20569
710.263	20153
710.380	20823
710.498	19081
710.616	19925
710.733	19012
710.851	19611
710.969	19098
711.086	18808
711.204	19755
711.322	18413
711.439	18685
711.557	17781
711.674	18938
711.792	18506
711.909	16776
712.027	17978
712.144	17529
712.262	16834
712.379	18877
712.497	18709
712.614	17988
712.732	18541
712.849	17760
712.966	18144
713.084	19279
713.201	16972
713.318	17852
713.436	19356
713.553	17658
713.670	19826
713.787	20117
713.905	17927
714.022	19872
714.139	21508
714.256	24276
714.373	34719
714.490	60476
714.608	150510
714.725	535324
714.842	510676
714.959	77502
715.076	33722
715.193	25627
715.310	22908
715.427	16920
715.544	19044
715.661	18061
715.778	17020
715.895	17319
716.011	17069
716.128	16409
716.245	16256
716.362	15562
716.479	14269
716.596	14711
716.713	15279
716.829	15542
716.946	14385
717.063	13611
717.180	13070
717.296	13554
717.413	13934
717.530	14041
717.646	12716
717.763	13116
717.880	12990
717.996	12781
718.113	12873
718.229	12912
718.346	12224
718.462	11958
718.579	13176
718.695	12842
718.812	12387
718.928	12550
719.045	12512
719.161	12802
719.277	13089
719.394	14104
719.510	13552
719.626	14653
719.743	18714
719.859	28788
719.975	55729
720.092	206102
720.208	418442
720.324	67285
720.440	22105
720.557	15664
720.673	13391
720.789	13347
720.905	13901
721.021	12658
721.137	12024
721.253	10771
721.369	11847
721.486	11745
721.602	11390
721.718	11616
721.834	11403
721.950	11153
722.066	11552
722.181	9865
722.297	10528
722.413	10825
722.529	10742
722.645	10585
722.761	9806
722.877	10925
722.993	12625
723.108	15231
723.224	13476
723.340	11535
723.456	10969
723.571	8724
723.687	9647
723.803	9873
723.918	9913
724.034	9188
724.150	9379
724.265	10106
724.381	10902
724.497	10196
724.612	10206
724.728	9747
724.843	8841
724.959	8760
725.074	10453
725.190	10190
725.305	9321
725.421	8612
725.536	10640
725.651	11036
725.767	9773
725.882	9203
725.997	9784
726.113	9805
726.228	8926
726.343	9131
726.459	8827
726.574	9748
726.689	8842
726.804	9406
726.920	9164
727.035	9096
727.150	9780
727.265	8234
727.380	9515
727.495	8893
727.610	9330
727.725	9332
727.841	8867
727.956	10040
728.071	9602
728.186	8374
728.301	8509
728.416	8350
728.531	9426
728.645	8379
728.760	9055
728.875	8696
728.990	9328
729.105	8569
729.220	8705
729.335	8956
729.449	8800
729.564	8663
729.679	8134
729.794	9943
729.908	9323
730.023	8766
730.138	9768
730.253	9126
730.367	8818
730.482	9395
730.596	9182
730.711	10958
730.826	14399
730.940	13267
731.055	12586
731.169	11005
731.284	12709
731.398	12009
731.513	12955
731.627	14853
731.742	17101
731.856	21629
731.970	22365
732.085	27139
732.199	39540
732.313	68740
732.428	169542
732.542	441285
732.656	266131
732.771	62226
732.885	34450
732.999	28784
733.113	29958
733.227	27803
733.342	26260
733.456	25386
733.570	24410
733.684	22719
733.798	22886
733.912	22328
734.026	22752
734.140	21783
734.254	20486
734.368	20243
734.482	21282
734.596	20091
734.710	20401
734.824	19306
734.938	20199
735.052	20396
735.166	19561
735.280	19823
735.393	18717
735.507	19084
735.621	19440
735.735	18242
735.849	19176
735.962	18477
736.076	18941
736.190	17262
736.303	18640
736.417	19137
736.531	16773
736.644	18536
736.758	16922
736.872	17878
736.985	16597
737.099	17572
737.212	16300
737.326	16111
737.439	17588
737.553	16306
737.666	17299
737.780	14683
737.893	16673
738.007	15640
738.120	17689
738.233	14168
738.347	16798
738.460	13770
738.573	16261
738.687	14265
738.800	15197
738.913	15533
739.026	14649
739.140	13997
739.253	15499
739.366	14726
739.479	13951
739.592	15083
739.705	13496
739.818	15629
739.932	13570
740.045	14345
740.158	13766
740.271	14720
740.384	13805
740.497	12148
740.610	15082
740.723	13570
740.836	14410
740.949	13586
741.062	15277
741.174	13424
741.287	13153
741.400	14103
741.513	12834
741.626	13729
741.739	13302
741.851	13060
741.964	13204
742.077	11497
742.189	12056
742.302	12575
742.415	12173
742.527	12510
742.640	13043
742.753	11251
742.865	12402
742.978	10955
743.090	11262
743.203	12314
743.316	11272
743.428	11215
743.541	11751
743.653	10965
743.766	11889
743.878	12551
743.990	10312
744.103	11785
744.215	12653
744.327	10539
744.440	13553
744.552	12250
744.664	10444
744.777	11654
744.889	11796
745.001	10791
745.113	11900
745.226	11439
745.338	9984
745.450	11655
745.562	11595
745.674	9183
745.786	11321
745.898	10196
746.010	10195
746.122	10126
746.234	11496
746.347	10425
746.459	11119
746.570	9305
746.682	11460
746.794	11652
746.906	9568
747.018	10280
747.130	11417
747.242	9682
747.354	9780
747.466	11096
747.577	9536
747.689	9874
747.801	10995
747.913	9314
748.024	9530
748.136	9276
748.248	9182
748.359	10286
748.471	10122
748.583	8876
748.694	8984
748.806	9927
748.918	8257
749.029	9150
749.141	9305
749.252	9624
749.364	7917
749.475	8477
749.587	9013
749.698	8745
749.809	9742
749.921	8688
750.032	8470
750.144	8453
750.255	8643
750.366	9183
750.478	7982
750.589	8820
750.700	7040
750.811	8681
750.923	7454
751.034	7661
751.145	9864
751.256	8528
751.367	8139
751.479	7643
751.590	7270
751.701	7168
751.812	6999
751.923	7427
752.034	9729
752.145	8791
752.256	9185
752.367	7574
752.478	7797
752.589	8812
752.700	8665
752.811	7626
752.922	8133
753.032	8754
753.143	8665
753.254	8894
753.365	9168
753.476	9498
753.586	7929
753.697	7567
753.808	7892
753.919	7652
754.029	7056
754.140	7210
754.251	7400
754.361	7612
754.472	9045
754.582	7573
754.693	8048
754.804	8484
754.914	7868
755.025	6170
755.135	8451
755.246	8378
755.356	7773
755.466	7136
755.577	6939
755.687	7292
755.798	7182
755.908	7064
756.018	7223
756.129	7284
756.239	7522
756.349	7434
756.460	8115
756.570	8859
756.680	7154
756.790	7999
756.900	7357
757.011	7050
757.121	6904
757.231	7498
757.341	7371
757.451	6707
757.561	6643
757.671	7349
757.781	6677
757.891	7164
758.001	6153
758.111	8372
758.221	8522
758.331	8684
758.441	7981
758.551	7769
758.661	9488
758.771	9174
758.880	7945
758.990	6942
759.100	7916
759.210	8569
759.320	8214
759.429	7761
759.539	9247
759.649	8916
759.758	10663
759.868	11526
759.978	10909
760.087	11523
760.197	11578
760.307	11042
760.416	10386
760.526	9286
760.635	11598
760.745	11830
760.854	12307
760.964	13590
761.073	14188
761.182	12718
761.292	11710
761.401	10855
761.511	9438
761.620	8523
761.729	8968
761.839	7622
761.948	8714
762.057	7923
762.166	8154
762.276	7538
762.385	9291
762.494	7815
762.603	8716
762.712	8006
762.822	7777
762.931	7591
763.040	7804
763.149	8271
763.258	8283
763.367	8907
763.476	8812
763.585	8800
763.694	9154
763.803	9970
763.912	9810
764.021	9990
764.130	10529
764.238	11233
764.347	10875
764.456	11910
764.565	12752
764.674	12421
764.783	13446
764.891	14408
765.000	15524
765.109	16374
765.217	18734
765.326	22400
765.435	25302
765.543	28955
765.652	34930
765.761	45152
765.869	60187
765.978	85398
766.086	126879
766.195	200461
766.303	318924
766.412	372745
766.520	293381
766.629	289478
766.737	188497
766.846	120230
766.954	82897
767.062	61403
767.171	46640
767.279	38013
767.387	30323
767.496	25745
767.604	22848
767.712	20525
767.820	18556
767.928	17454
768.037	15948
768.145	16581
768.253	15732
768.361	15163
768.469	13695
768.577	14259
768.685	16462
768.793	16669
768.901	18288
769.009	19643
769.117	22912
769.225	27772
769.333	37251
769.441	55429
769.549	89790
769.657	164385
769.765	298424
769.873	304592
769.981	253475
770.088	152821
770.196	86803
770.304	57663
770.412	42405
770.519	31630
770.627	26426
770.735	21876
770.842	20504
770.950	17732
771.058	16597
771.165	16871
771.273	16289
771.380	15758
771.488	18013
771.595	20225
771.703	16844
771.810	17000
771.918	16108
772.025	17915
772.133	20069
772.240	19091
772.348	21728
772.455	19618
772.562	18637
772.670	17255
772.777	18544
772.884	17528
772.991	16551
773.099	17200
773.206	15728
773.313	16565
773.420	15693
773.528	15948
773.635	16017
773.742	17042
773.849	15362
773.956	15885
774.063	13650
774.170	14678
774.277	15997
774.384	14114
774.491	13951
774.598	14544
774.705	14553
774.812	13978
774.919	14856
775.026	14288
775.133	14126
775.239	14402
775.346	13192
775.453	14009
775.560	13508
775.667	14167
775.773	12221
775.880	13139
775.987	13880
776.093	13082
776.200	14414
776.307	10981
776.413	11386
776.520	14583
776.627	12902
776.733	12141
776.840	10257
776.946	15320
777.053	12709
777.159	11894
777.266	10532
777.372	12776
777.478	12272
777.585	12833
777.691	10258
777.798	12238
777.904	11838
778.010	10160
778.117	11670
778.223	11202
778.329	11527
778.435	9576
778.542	11785
778.648	11118
778.754	10038
778.860	11312
778.966	11089
779.072	9946
779.178	10606
779.284	9757
779.391	9188
779.497	10306
779.603	12454
779.708	10346
779.815	13246
779.920	28372
780.026	53046
780.132	15067
780.238	9995
780.344	8071
780.450	12120
780.556	8721
780.661	7869
780.767	10999
780.873	6735
780.979	8966
781.085	10020
781.190	8512
781.296	8587
781.402	9139
781.507	9352
781.613	6863
781.719	8114
781.824	10461
781.930	8103
782.035	8681
782.141	10372
782.246	7685
782.352	7480
782.457	8692
782.563	7735
782.668	8772
782.773	7521
782.879	7241
782.984	7964
783.090	8140
783.195	7844
783.300	9028
783.405	7921
783.511	6962
783.616	7295
783.721	8402
783.826	7844
783.932	6479
784.037	7761
784.142	7488
784.247	7314
784.352	7976
784.457	6587
784.562	7907
784.667	8535
784.772	6881
784.877	5768
784.982	7173
785.087	8009
785.192	5909
785.297	6662
785.402	7566
785.507	7525
785.611	7081
785.716	6243
785.821	6669
785.926	7061
786.031	6448
786.135	7648
786.240	6683
786.345	5203
786.450	6409
786.554	6637
786.659	5778
786.763	6561
786.868	6332
786.973	6915
787.077	5725
787.182	5871
787.286	6847
787.391	8152
787.495	5178
787.600	4473
787.704	5442
787.809	6884
787.913	5624
788.017	6185
788.122	7115
788.226	6052
788.330	4252
788.435	5153
788.539	6399
788.643	5379
788.747	4068
788.852	5172
788.956	4772
789.060	7006
789.164	6340
789.268	6119
789.372	7157
789.476	5385
789.580	4009
789.684	4285
789.788	6680
789.892	4946
789.996	5039
790.100	4562
790.204	5572
790.308	7185
790.412	5070
790.516	3770
790.620	4742
790.724	6226
790.828	4724
790.931	4103
791.035	5592
791.139	3663
791.242	4652
791.346	5794
791.450	4915
791.554	4741
791.657	3460
791.761	4885
791.864	5703
791.968	6062
792.072	4778
792.175	3713
792.279	4541
792.382	5206
792.486	3939
792.589	4106
792.693	4575
792.796	3238
792.899	5492
793.003	4746
793.106	3591
793.209	5061
793.313	4787
793.416	2495
793.519	4632
793.623	6310
793.726	4749
793.829	3451
793.932	3313
794.035	3488
794.138	5899
794.242	5926
794.345	3142
794.448	5322
794.551	5844
794.654	14410
794.757	29445
794.860	7765
794.963	5842
795.066	4059
795.169	4685
795.272	4129
795.375	4774
795.477	2655
795.580	3410
795.683	2458
795.786	4662
795.889	3407
795.991	3939
796.094	4381
796.197	2648
796.300	5765
796.402	4797
796.505	3465
796.608	2717
796.710	4181
796.813	3913
796.915	4980
797.018	4856
797.120	4933
797.223	3455
797.326	6152
797.428	3055
797.530	3447
797.633	3012
797.735	5446
797.838	3218
797.940	4656
798.042	3668
798.145	3299
798.247	3904
798.349	2699
798.452	4998
798.554	3886
798.656	3445
798.758	5467
798.860	4181
798.962	3632
799.065	2923
799.167	3475
799.269	4172
799.371	4584
799.473	5908
799.575	4402
799.677	2645
799.779	4560
799.881	2329
799.983	5137
800.085	3684
800.187	4014
800.289	1761
800.390	2949
800.492	4085
800.594	4873
800.696	2566
800.798	2610
800.899	3739
801.001	3289
801.103	3650
801.205	3675
801.306	4001
801.408	3024
801.509	3485
801.611	4673
801.713	4050
801.814	2794
801.916	2624
802.017	2474
802.119	1766
802.220	3256
802.322	1251
802.423	4195
802.525	1993
802.626	3225
802.727	3620
802.829	3496
802.930	1534
803.031	3435
803.133	2261
803.234	3103
803.335	3639
803.436	2774
803.538	2923
803.639	2064
803.740	3929
803.841	2192
803.942	3299
804.043	3377
804.144	1820
804.245	3148
804.346	2725
804.447	3018
804.548	2502
804.649	4405
804.750	2182
804.851	2774
804.952	2446
805.053	2695
805.154	1792
805.255	3199
805.355	2436
805.456	3173
805.557	1515
805.658	2813
805.758	2679
805.859	2825
805.960	2752
806.061	2689
806.161	1330
806.262	2792
806.362	2013
806.463	2911
806.564	3505
806.664	3188
806.765	2857
806.865	2128
806.966	2533
807.066	2540
807.166	3966
807.267	3267
807.367	1727
807.468	3151
807.568	918
807.668	2667
807.769	3335
807.869	2897
807.969	2807
808.069	2828
808.170	2146
808.270	2270
808.370	3036
808.470	2608
808.570	1327
808.670	2563
808.770	2680
808.870	2629
808.970	2651
809.070	2329
809.170	1544
809.271	3311
809.370	1989
809.470	3082
809.570	1448
809.670	1345
809.770	2372
809.870	3290
809.970	2695
810.070	2603
810.169	3743
810.269	1575
810.369	2564
810.469	2699
810.568	1965
810.668	1664
810.768	2304
810.867	2467
810.967	2243
811.066	1896
811.166	1791
811.265	3557
811.365	2512
811.464	2272
811.564	2457
811.663	2378
811.763	942
811.862	3928
811.962	3091
812.061	3156
812.160	2043
812.260	2457
812.359	3006
812.458	1556
812.557	3556
812.657	3442
812.756	2613
812.855	2662
812.954	2304
813.053	2774
813.153	2030
813.252	1894
813.351	2347
813.450	2856
813.549	1683
813.648	2719
813.747	2213
813.846	3332
813.945	1831
814.044	3347
814.143	2518
814.242	2564
814.341	1944
814.439	3300
814.538	3385
814.637	3467
814.736	2126
814.835	4426
814.933	3636
815.032	4086
815.131	4923
815.229	10285
815.328	14071
815.427	10366
815.525	9176
815.624	9058
815.722	8316
815.821	9632
815.919	9540
816.018	8739
816.116	9307
816.215	9212
816.313	9565
816.412	11719
816.510	12126
816.609	13336
816.707	13052
816.805	11727
816.904	10737
817.002	11625
817.100	12236
817.198	12610
817.296	11500
817.395	11365
817.493	11320
817.591	10627
817.689	11054
817.787	10691
817.885	10167
817.983	9124
818.081	11489
818.179	10663
818.277	13794
818.375	12356
818.473	9471
818.571	9498
818.669	9913
818.767	12263
818.865	9820
818.963	8623
819.061	10144
819.158	9783
819.256	12110
819.354	10621
819.452	13324
819.549	10559
819.647	10743
819.745	8487
819.842	8742
819.940	9587
820.038	8843
820.135	8708
820.233	9605
820.330	9394
820.428	8367
820.525	10365
820.623	8123
820.720	7518
820.818	8560
820.915	9440
821.012	8593
821.110	7322
821.207	8168
821.304	8407
821.402	8458
821.499	9429
821.596	6800
821.693	7623
821.791	9479
821.888	8047
821.985	9194
822.082	5632
822.179	8869
822.276	8970
822.373	6867
822.470	6867
822.567	8352
822.664	7042
822.761	7600
822.858	7475
822.955	7334
823.052	6515
823.149	7816
823.246	8086
823.343	5977
823.440	7438
823.536	7767
823.633	7603
823.730	6800
823.827	7973
823.923	6595
824.020	7023
824.117	8232
824.213	7315
824.310	5921
824.407	5820
824.503	7382
824.600	6222
824.696	5317
824.793	8679
824.889	7296
824.986	7067
825.082	4439
825.179	5135
825.275	7656
825.371	7968
825.468	5429
825.564	2804
825.660	6944
825.757	8574
825.853	5977
825.949	5304
826.045	5143
826.142	5803
826.238	6924
826.334	6280
826.430	6807
826.526	4584
826.622	3688
826.718	7339
826.814	7368
826.910	7253
827.006	3257
827.102	4356
827.198	6127
827.294	6619
827.390	6938
827.486	6089
827.582	2983
827.678	3960
827.774	7705
827.869	3699
827.965	5414
828.061	3304
828.157	7052
828.252	6154
828.348	4907
828.444	4849
828.539	4175
828.635	4978
828.731	5795
828.826	3902
828.922	6165
829.017	5977
829.113	6793
829.208	3734
829.304	5383
829.399	7792
829.495	5737
829.590	5726
829.685	5193
829.781	5810
829.876	6043
829.971	3130
830.066	2661
830.162	3721
830.257	6200
830.352	5524
830.447	4040
830.543	3761
830.638	4068
830.733	7515
830.828	4749
830.923	4637
831.018	5920
831.113	6018
831.208	4240
831.303	3411
831.398	3215
831.493	4087
831.588	7540
831.683	4581
831.778	3230
831.873	3855
831.967	5588
832.062	5135
832.157	3898
832.252	4804
832.346	4215
832.441	5181
832.536	4414
832.631	5343
832.725	3779
832.820	3715
832.914	4961
833.009	3451
833.104	3444
833.198	3721
833.293	4316
833.387	5255
833.482	5214
833.576	4963
833.670	4372
833.765	4488
833.859	4814
833.954	5055
834.048	4222
834.142	3799
834.237	3276
834.331	4088
834.425	5199
834.519	3643
834.613	4131
834.708	3826
834.802	3347
834.896	3125
834.990	3751
835.084	3012
835.178	2400
835.272	3790
835.366	4490
835.460	5137
835.554	4386
835.648	1885
835.742	2586
835.836	2110
835.930	2704
836.024	3889
836.117	4263
836.211	3329
836.305	3414
836.399	2518
836.493	2953
836.586	3827
836.680	2538
836.774	3115
836.867	3587
836.961	2764
837.055	2154
837.148	2457
837.242	2988
837.335	3701
837.429	2435
837.522	2363
837.616	2733
837.709	3071
837.803	2802
837.896	3970
837.989	4040
838.083	2445
838.176	2452
838.269	2193
838.363	3546
838.456	2669
838.549	3763
838.642	3013
838.735	2943
838.829	4366
838.922	3109
839.015	3050
839.108	2826
839.201	3218
839.294	3499
839.387	2735
839.480	1503
839.573	2405
839.666	1917
839.759	2118
839.852	2196
839.945	2787
840.038	2022
840.131	1771
840.223	2139
840.316	3083
840.409	3640
840.502	3801
840.594	3853
840.687	1593
840.780	1481
840.873	1029
840.965	1687
841.058	2043
841.150	3493
841.243	943
841.336	2634
841.428	1923
841.521	1622
841.613	2120
841.706	1775
841.798	2481
841.890	2862
841.983	1430
842.075	2101
842.167	1707
842.260	2279
842.352	2951
842.444	2636
842.537	2162
842.629	2031
842.721	1427
842.813	2085
842.905	1396
842.997	2923
843.090	3026
843.182	2281
843.274	1508
843.366	2000
843.458	3288
843.550	3802
843.642	2440
843.734	2439
843.826	1929
843.918	1827
844.009	1745
844.101	1775
844.193	1651
844.285	2364
844.377	2634
844.469	2186
844.560	867
844.652	1327
844.744	1941
844.835	2326
844.927	2457
845.019	2771
845.110	1613
845.202	2528
845.293	1301
845.385	1467
845.476	2289
845.568	3251
845.659	1622
845.751	2012
845.842	1571
845.934	2390
846.025	2064
846.116	1349
846.208	2510
846.299	1766
846.390	1139
846.482	1772
846.573	2845
846.664	2170
846.755	1331
846.846	2288
846.937	416
847.029	1241
847.120	963
847.211	1642
847.302	2946
847.393	1219
847.484	2439
847.575	813
847.666	1257
847.757	1640
847.847	2644
847.938	2605
848.029	2184
848.120	1375
848.211	2180
848.302	317
848.392	1234
848.483	1597
848.574	1569
848.664	2294
848.755	2173
848.846	1888
848.936	1492
849.027	2045
849.118	2655
849.208	2149
849.299	3499
849.389	5625
849.480	10949
849.570	20314
849.661	37776
849.751	58084
849.841	22877
849.932	4389
850.022	3898
850.112	2902
850.203	2361
850.293	2160
850.383	1371
850.474	1448
850.564	1566
850.654	1301
850.744	1294
850.834	1252
850.924	1106
851.014	3145
851.104	2571
851.194	1404
851.284	870
851.374	2131
851.464	1150
851.554	1384
851.644	1973
851.734	1912
851.824	2121
851.914	1976
852.004	3102
852.094	2096
852.183	1158
852.273	1913
852.363	1891
852.452	2032
852.542	2074
852.632	689
852.721	2108
852.811	1647
852.901	3077
852.990	2798
853.080	2823
853.169	2823
853.259	2665
853.348	2917
853.438	3814
853.527	4999
853.617	7778
853.706	13249
853.795	21359
853.885	41434
853.974	69792
854.063	120320
854.152	152696
854.242	72338
854.331	23635
854.420	11011
854.509	6965
854.598	5045
854.687	5182
854.777	4060
854.866	2406
854.955	2985
855.044	2302
855.133	2703
855.222	2267
855.311	1477
855.400	2627
855.488	1141
855.577	1709
855.666	1484
855.755	2050
855.844	1261
855.933	1063
856.021	1650
856.110	1540
856.199	369
856.288	1043
856.376	564
856.465	1075
856.554	1019
856.642	2523
856.731	2078
856.819	1649
856.908	2144
856.996	1668
857.085	902
857.173	1166
857.262	890
857.350	1594
857.438	1877
857.527	1348
857.615	1130
857.703	1597
857.792	1601
857.880	1313
857.968	1279
858.056	741
858.145	841
858.233	2053
858.321	1081
858.409	1744
858.497	1561
858.585	1665
858.673	1942
858.761	762
858.849	662
858.937	1098
859.025	1138
859.113	1504
859.201	1219
859.289	2500
859.377	1314
859.465	2114
859.552	1135
859.640	1334
859.728	1614
859.816	1151
859.903	691
859.991	1482
860.079	2447
860.166	1754
860.254	1669
860.342	2293
860.429	1443
860.517	868
860.604	1761
860.692	1569
860.779	126
860.867	1312
860.954	1649
861.042	1874
861.129	2266
861.216	1788
861.304	1405
861.391	1837
861.478	1806
861.565	2426
861.653	1807
861.740	-374
861.827	1064
861.914	1906
862.001	1775
862.089	1709
862.176	968
862.263	682
862.350	1274
862.437	1875
862.524	1065
862.611	1046
862.698	2075
862.785	2549
862.871	2295
862.958	2578
863.045	2251
863.132	1703
863.219	1110
863.306	1045
863.392	1203
863.479	1587
863.566	1501
863.652	2416
863.739	1667
863.826	2565
863.912	2012
863.999	1709
864.086	2577
864.172	2771
864.259	3266
864.345	2379
864.432	2906
864.518	2134
864.604	2973
864.691	3102
864.777	3040
864.863	4575
864.950	5839
865.036	7340
865.122	12775
865.209	14792
865.295	11935
865.381	12115
865.467	11369
865.553	12625
865.639	14403
865.726	19054
865.812	29059
865.898	45582
865.984	63201
866.070	103269
866.156	101348
866.242	41190
866.328	19424
866.414	13354
866.499	11969
866.585	11238
866.671	10345
866.757	10936
866.843	10214
866.928	10144
867.014	8623
867.100	9695
867.186	9362
867.271	9218
867.357	9676
867.442	9198
867.528	8429
867.614	9063
867.699	9017
867.785	8837
867.870	8334
867.956	8428
868.041	7705
868.127	8039
868.212	8642
868.297	7348
868.383	8934
868.468	8476
868.553	8710
868.639	7313
868.724	7441
868.809	8553
868.894	7674
868.979	8601
869.065	9067
869.150	6759
869.235	7684
869.320	7672
869.405	7018
869.490	7883
869.575	7848
869.660	5998
869.745	7946
869.830	8205
869.915	7105
870.000	7463
870.085	6351
870.169	7929
870.254	8324
870.339	5566
870.424	6097
870.509	7007
870.593	8116
870.678	7321
870.763	6462
870.847	5996
870.932	7059
871.016	7559
871.101	5362
871.186	7097
871.270	8956
871.355	5537
871.439	6293
871.523	7550
871.608	6012
871.692	5947
871.777	7524
871.861	6909
871.945	5867
872.030	6436
872.114	6316
872.198	6491
872.282	5557
872.367	5409
872.451	5513
872.535	5584
872.619	6688
872.703	5876
872.787	6549
872.871	6351
872.955	4583
873.039	4454
873.123	6148
873.207	6569
873.291	4195
873.375	5472
873.459	5892
873.543	5350
873.627	4181
873.711	4667
873.794	6179
873.878	5694
873.962	4164
874.045	5066
874.129	5236
874.137	5220
874.213	5065
874.245	5066
874.296	5075
874.352	4457
874.380	4155
874.460	4618
874.464	4637
874.547	4486
874.568	4808
874.631	5794
874.676	5287
874.714	4858
874.784	5464
874.798	5583
874.881	5105
874.892	4875
874.965	3336
874.999	3966
875.048	4830
875.107	4824
875.131	4801
875.215	3812
875.215	3811
875.298	2846
875.323	3212
875.381	4083
875.430	4857
875.465	5388
875.538	5314
875.548	5298
875.631	3764
875.646	3623
875.714	3020
875.753	3445
875.798	3926
875.861	5278
875.881	5701
875.964	4224
875.968	4152
876.047	2770
876.076	3101
876.130	3837
876.183	4222
876.213	4375
876.291	5304
876.296	5371
876.379	3981
876.398	3856
876.462	3365
876.506	3152
876.545	3013
876.613	3242
876.628	3313
876.711	3787
876.721	3882
876.794	4401
876.828	4337
876.877	4250
876.935	3539
876.960	3243
877.043	3512
877.043	3513
877.125	3637
877.150	3971
877.208	4693
877.258	3772
877.291	3080
877.365	2496
877.374	2461
877.456	3091
877.472	3128
877.539	3149
877.579	3272
877.622	3360
877.687	3902
877.704	4031
877.787	3281
877.794	3297
877.869	3637
877.901	3845
877.952	4088
878.008	3065
878.034	2634
878.115	2471
878.117	2464
878.199	2498
878.222	2792
878.282	3728
878.329	3733
878.364	3607
878.437	3437
878.447	3424
878.529	2918
878.544	2866
878.611	2596
878.651	2590
878.694	2695
878.758	3611
878.776	3813
878.858	2902
878.865	2899
878.941	2620
878.972	2541
879.023	2761
879.078	2360
879.105	2143
879.185	3708
879.187	3732
879.269	3031
879.292	2939
879.351	2924
879.399	2580
879.433	2159
879.506	2322
879.516	2364
879.598	2327
879.613	2285
879.680	2302
879.720	2826
879.762	3289
879.827	3031
879.844	2947
879.926	2373
879.933	2405
880.007	2589
880.040	2210
880.089	1842
880.147	2398
880.171	2549
880.253	3222
880.254	3221
880.335	2606
880.360	2871
880.417	3631
880.467	3526
880.499	3415
880.574	3553
880.580	3545
880.662	2985
880.680	2803
880.744	2152
880.787	1923
880.825	1824
880.893	2373
880.907	2431
880.989	2249
881.000	2235
881.070	2597
881.106	2774
881.152	2470
881.213	1452
881.233	1378
881.315	2556
881.319	2563
881.396	2178
881.426	2142
881.478	1914
881.532	2074
881.559	2376
881.639	2222
881.641	2195
881.722	1214
881.745	1286
881.803	2118
881.852	2234
881.885	2059
881.958	2032
881.966	2062
882.047	2140
882.064	2085
882.129	1411
882.171	1287
882.210	1268
882.277	1406
882.291	1537
882.372	1873
882.383	2030
882.454	2867
882.489	2705
882.535	2107
882.596	1812
882.616	1869
882.697	1918
882.702	1916
882.778	1721
882.808	1643
882.859	1474
882.914	1684
882.940	1743
883.020	1941
883.021	1942
883.102	2088
883.127	2183
883.183	2313
883.233	2338
883.264	2053
883.339	703
883.345	634
883.426	744
883.445	803
883.507	1512
883.551	2146
883.587	2389
883.657	2354
883.668	2341
883.749	2458
883.763	2340
883.830	1436
883.869	1320
883.910	1407
883.975	1417
883.991	1435
884.072	2044
884.081	2043
884.152	2036
884.187	2100
884.233	2127
884.292	2092
884.314	1942
884.394	1007
884.398	974
884.475	530
884.504	592
884.555	1178
884.610	1610
884.636	1635
884.716	1986
884.716	1985
884.797	2010
884.821	1945
884.877	1877
884.927	1671
884.958	1344
885.033	668
885.038	673
885.118	1198
885.139	1272
885.199	921
885.244	743
885.279	1163
885.350	2460
885.359	2512
885.439	2258
885.456	2187
885.520	1445
885.561	1013
885.600	894
885.667	1033
885.680	1059
885.760	1148
885.773	1101
885.840	919
885.878	1159
885.920	1295
885.984	1021
886.000	1043
886.080	1273
886.089	1325
886.160	1109
886.195	909
886.240	855
886.300	969
886.320	1043
886.400	1116
886.406	1129
886.480	1159
886.511	1221
886.560	1283
886.616	1233
886.640	1129
886.720	797
886.722	797
886.800	1144
886.827	1212
886.879	1329
886.932	1520
886.959	1641
887.038	1948
887.039	1943
887.119	1578
887.143	1481
887.198	1215
887.248	931
887.278	1078
887.354	1470
887.358	1467
887.437	1475
887.459	1474
887.517	1455
887.564	1449
887.596	1390
887.669	1135
887.676	1071
887.755	462
887.774	309
887.835	644
887.880	1007
887.914	1146
887.985	1125
887.994	1100
888.073	1198
888.090	1193
888.153	1623
888.195	1787
888.232	1668
888.300	1745
888.311	1643
888.391	855
888.405	709
888.470	786
888.510	812
888.549	851
888.615	1058
888.628	1105
888.708	1274
888.720	1315
888.787	996
888.825	780
888.866	874
888.930	1054
888.945	1061
889.024	1205
889.035	1213
889.103	1123
889.140	1088
889.182	796
889.245	426
889.261	668
889.340	1823
889.349	1959
889.419	1226
889.454	861
889.498	1084
889.559	1413
889.577	1408
889.656	1408
889.664	1413
889.735	1134
889.768	1006
889.814	1105
889.873	1241
889.978	1274
890.083	220
890.187	1723
890.292	1171
890.397	1352
890.501	837
890.606	1477
890.710	1267
890.815	762
890.919	840
891.024	1365
891.128	997
891.233	954
891.337	1263
891.442	1241
891.546	1112
891.650	1173
891.755	979
891.859	2117
891.963	2123
892.068	1019
892.172	681
892.276	1113
892.380	408
892.484	1812
892.589	1347
892.693	1096
892.797	564
892.901	504
893.005	145
893.109	771
893.213	2185
893.317	1290
893.421	417
893.525	112
893.629	-418
893.733	1196
893.837	562
893.941	528
894.045	1204
894.148	1239
894.252	816
894.356	848
894.460	1616
894.564	558
894.667	733
894.771	-39
894.875	940
894.978	1044
895.082	1178
895.186	663
895.289	883
895.393	1133
895.496	867
895.600	-239
895.703	638
895.807	445
895.910	1696
896.014	557
896.117	574
896.221	250
896.324	592
896.427	425
896.531	210
896.634	400
896.737	533
896.840	730
896.944	665
897.047	1063
897.150	656
897.253	-97
897.356	171
897.460	823
897.563	-167
897.666	649
897.769	474
897.872	718
897.975	419
898.078	504
898.181	615
898.284	669
898.387	1405
898.490	1158
898.593	1069
898.695	-71
898.798	-58
898.901	474
899.004	992
899.107	912
899.209	43
899.312	1026
899.415	1254
899.518	922
899.620	82
899.723	217
899.826	968
899.928	104
900.031	425
900.133	207
900.236	278
900.338	258
900.441	-19
900.543	1002
900.646	-41
900.748	57
900.851	1006
900.953	888
901.055	538
901.158	569
901.260	565
901.362	734
901.465	351
901.567	184
901.669	1582
901.771	-647
901.873	256
901.976	-363
902.078	722
902.180	-448
902.282	120
902.384	-757
902.486	1476
902.588	833
902.690	-118
902.792	844
902.894	929
902.996	1044
903.098	1166
903.200	779
903.302	-65
903.404	569
903.505	-147
903.607	222
903.709	1090
903.811	909
903.913	242
904.014	204
904.116	510
904.218	7
904.319	903
904.421	1026
904.523	927
904.624	393
904.726	610
904.827	333
904.929	43
905.030	498
905.132	884
905.233	576
905.335	70
905.436	326
905.537	139
905.639	1021
905.740	-912
905.841	835
905.943	677
906.044	-168
906.145	-10
906.247	392
906.348	-405
906.449	463
906.550	403
906.651	572
906.752	136
906.854	354
906.955	-212
907.056	104
907.157	646
907.258	1154
907.359	195
907.460	171
907.561	428
907.662	-280
907.762	-401
907.863	713
907.964	-330
908.065	718
908.166	718
908.267	882
908.367	-537
908.468	-197
908.569	-131
908.670	745
908.770	639
908.871	257
908.971	193
909.072	119
909.173	-392
909.273	486
909.374	904
909.474	1352
909.575	443
909.675	953
909.776	876
909.876	187
909.977	16
910.077	669
910.177	522
910.278	63
910.378	1117
910.478	926
910.579	819
910.679	699
910.779	933
910.879	660
910.980	312
911.080	248
911.180	-48
911.280	80
911.380	29
911.480	547
911.580	399
911.680	-192
911.780	319
911.880	381
911.980	808
912.080	-528
912.180	-383
912.280	433
912.380	627
912.480	-347
912.580	500
912.679	434
912.779	1356
912.879	568
912.979	123
913.078	277
913.178	583
913.278	-579
913.377	-292
913.477	-206
913.577	97
913.676	653
913.776	729
913.875	675
913.975	386
914.074	-158
914.174	576
914.273	-397
914.373	1092
914.472	807
914.572	639
914.671	10
914.770	173
914.870	173
914.969	-961
915.068	-166
915.167	875
915.267	-575
915.366	259
915.465	64
915.564	201
915.663	237
915.763	308
915.862	1017
915.961	901
916.060	422
916.159	541
916.258	471
916.357	551
916.456	693
916.555	310
916.654	529
916.752	-812
916.851	234
916.950	348
917.049	188
917.148	607
917.247	-651
917.345	162
917.444	-680
917.543	-315
917.642	165
917.740	386
917.839	646
917.937	932
918.036	1226
918.135	880
918.233	246
918.332	304
918.430	434
918.529	941
918.627	114
918.726	597
918.824	658
918.923	-255
919.021	550
919.119	371
919.218	-116
919.316	413
919.414	-27
919.512	48
919.611	267
919.709	610
919.807	1019
919.905	698
920.003	1475
920.102	-251
920.200	550
920.298	930
920.396	366
920.494	1390
920.592	234
920.690	299
920.788	888
920.886	425
920.984	1401
921.082	1639
921.180	1311
921.277	1139
921.375	643
921.473	1683
921.571	2398
921.669	1900
921.766	660
921.864	1785
921.962	2383
922.060	1381
922.157	1973
922.255	1942
922.352	1098
922.450	1915
922.548	1389
922.645	2112
922.743	2574
922.840	4533
922.938	4576
923.035	4303
923.133	3704
923.230	4767
923.327	6378
923.425	6128
923.522	5238
923.619	5132
923.717	3903
923.814	2961
923.911	4137
924.008	4265
924.106	3541
924.203	3583
924.300	2934
924.397	3973
924.494	4163
924.591	3516
924.688	3393
924.786	4398
924.883	3747
924.979	3736
925.077	3546
925.173	3515
925.270	4115
925.367	4453
925.464	4225
925.561	4452
925.658	4727
925.755	3638
925.852	4565
925.948	3771
926.045	3551
926.142	3876
926.239	3816
926.335	3024
926.432	3585
926.529	4480
926.625	4552
926.722	4094
926.818	3426
926.915	3753
927.011	3579
927.108	4599
927.204	3046
927.301	3514
927.397	4415
927.494	4297
927.590	2840
927.687	3161
927.783	4324
927.879	3449
927.976	2501
928.072	2718
928.168	4239
928.264	3651
928.361	3173
928.457	3881
928.553	2725
928.649	3398
928.745	3222
928.841	3323
928.937	3634
929.033	2999
929.129	1837
929.225	3481
929.321	3497
929.417	2413
929.513	2292
929.609	3303
929.705	2440
929.801	2588
929.897	2107
929.993	2559
930.089	2640
930.184	2722
930.280	3828
930.376	3356
930.471	2423
930.567	2344
930.663	2282
930.758	2763
930.854	2951
930.950	2584
931.045	2458
931.141	2603
931.236	3328
931.332	3599
931.427	2150
931.523	3660
931.618	3771
931.714	2016
931.809	1769
931.905	3674
932.000	2066
932.095	2581
932.191	2836
932.286	2977
932.381	3433
932.476	2466
932.572	3045
932.667	2688
932.762	2456
932.857	2468
932.952	2825
933.047	2238
933.142	2557
933.237	2728
933.332	3440
933.427	3223
933.522	3367
933.617	1948
933.712	3054
933.807	2360
933.902	3323
933.997	3163
934.092	2048
934.187	2308
934.282	3018
934.376	2079
934.471	2608
934.566	1546
934.661	2666
934.755	2749
934.850	2760
934.945	2423
935.039	1305
935.134	1634
935.228	2073
935.323	3695
935.417	2008
935.512	1478
935.606	1193
935.701	2192
935.795	1729
935.890	2547
935.984	2439
936.079	1273
936.173	2274
936.267	1951
936.362	1493
936.456	2545
936.550	3104
936.644	1918
936.738	1319
936.833	2153
936.927	770
937.021	1923
937.115	1882
937.209	1918
937.303	2260
937.397	1084
937.491	1836
937.585	2593
937.679	1818
937.773	1642
937.867	1067
937.961	1310
938.055	2161
938.149	2762
938.243	1647
938.337	1528
938.430	2170
938.524	2395
938.618	1991
938.712	1501
938.805	1570
938.899	1733
938.993	2870
939.086	1744
939.180	1377
939.274	1752
939.367	1569
939.461	1992
939.554	1904
939.648	1131
939.741	1342
939.835	1800
939.928	2410
940.022	2766
940.115	777
940.208	3393
940.302	2583
940.395	2653
940.488	324
940.582	1826
940.675	1327
940.768	1047
940.861	1733
940.954	1542
941.048	819
941.141	1406
941.234	1540
941.327	1172
941.420	1941
941.513	1435
941.606	1616
941.699	2230
941.792	1692
941.885	1750
941.978	1593
942.071	2382
942.164	923
942.257	941
942.349	1753
942.442	1646
942.535	1245
942.628	1567
942.721	852
942.813	513
942.906	2107
942.999	1603
943.091	1500
943.184	1343
943.277	842
943.369	957
943.462	145
943.554	1171
943.647	1192
943.739	1251
943.832	1585
943.924	-202
944.017	843
944.109	-272
944.201	2425
944.294	1636
944.386	419
944.478	1021
944.571	344
944.663	970
944.755	1112
944.847	1876
944.940	440
945.032	19
945.124	965
945.216	1888
945.308	1335
945.400	1925
945.492	1568
945.584	1829
945.676	1681
945.768	1068
945.860	1506
945.952	1558
946.044	2176
946.136	1111
946.228	893
946.320	1105
946.412	957
946.503	1596
946.595	2334
946.687	1113
946.779	1175
946.870	648
946.962	650
947.054	1117
947.145	1477
947.237	1252
947.329	1242
947.420	1068
947.512	1294
947.603	1036
947.695	728
947.786	122
947.878	319
947.969	1561
948.061	1308
948.152	373
948.243	1005
948.335	1301
948.426	508
948.517	1073
948.609	1531
948.700	1214
948.791	743
948.882	622
948.973	-213
949.065	740
949.156	677
949.247	284
949.338	1075
949.429	1
949.520	604
949.611	178
949.702	1738
949.793	964
949.884	725
949.975	13
950.066	266
950.157	272
950.247	984
950.338	-381
950.429	351
950.520	702
950.611	1260
950.701	124
950.792	1502
950.883	1621
950.973	1157
951.064	515
951.155	1037
951.245	1579
951.336	1129
951.427	788
951.517	1738
951.608	1429
951.698	819
951.788	542
951.879	415
951.969	1337
952.060	694
952.150	591
952.240	1125
952.331	-551
952.421	1543
952.511	-1270
952.602	375
952.692	121
952.782	66
952.872	539
952.962	875
953.052	81
953.143	432
953.233	742
953.323	1192
953.413	-71
953.503	859
953.593	586
953.683	551
953.773	-356
953.863	490
953.953	370
954.042	642
954.132	172
954.222	834
954.312	369
954.402	210
954.492	173
954.581	200
954.671	798
954.761	-180
954.850	1202
954.940	-304
955.030	-541
955.119	415
955.209	207
955.298	-753
955.388	513
955.477	1185
955.567	-602
955.656	890
955.746	15
955.835	150
955.925	525
956.014	324
956.103	790
956.193	1034
956.282	1615
956.371	268
956.461	651
956.550	865
956.639	784
956.728	313
956.817	936
956.906	324
956.995	1335
957.085	381
957.174	349
957.263	-176
957.352	174
957.441	-48
957.530	-153
957.619	737
957.708	292
957.796	140
957.885	665
957.974	-129
958.063	506
958.152	-555
958.241	879
958.329	-80
958.418	-127
958.507	-596
958.596	406
958.684	-298
958.773	207
958.861	174
958.950	-20
959.039	507
959.127	-91
959.216	795
959.304	-281
959.393	333
959.481	765
959.570	611
959.658	306
959.746	819
959.835	272
959.923	-75
960.011	-278
960.100	652
960.188	80
960.276	-252
960.365	216
960.453	-577
960.541	-146
960.629	-375
960.717	-347
960.805	-740
960.893	210
960.981	-524
961.069	-251
961.158	753
961.245	864
961.333	550
961.421	-280
961.509	118
961.597	-51
961.685	218
961.773	401
961.861	-843
961.949	631
962.036	-168
962.124	519
962.212	-344
962.299	-342
962.387	-559
962.475	-54
962.562	-223
962.650	1240
962.738	-44
962.825	-247
962.913	-1035
963.000	-253
963.088	451
963.175	306
963.263	-31
963.350	-43
963.438	198
963.525	-1115
963.612	356
963.700	-655
963.787	302
963.874	-267
963.962	633
964.049	-74
964.136	-597
964.223	-1088
964.310	-368
964.398	-268
964.485	-413
964.572	79
964.659	378
964.746	-108
964.833	-365
964.920	243
965.007	-418
965.094	19
965.181	-402
965.268	506
965.355	-930
965.441	218
965.528	-679
965.615	863
965.702	-219
965.789	-339
965.875	-256
965.962	-150
966.049	220
966.136	669
966.222	-982
966.309	437
966.395	-393
966.482	301
966.569	-320
966.655	-133
966.742	-776
966.828	-281
966.915	-542
967.001	-208
967.087	-1147
967.174	-372
967.260	367
967.347	-920
967.433	-497
967.519	139
967.605	-101
967.692	160
967.778	359
967.864	-597
967.950	-267
968.036	-793
968.123	532
968.209	-25
968.295	-1326
968.381	559
968.467	449
968.553	-1010
968.639	515
968.725	-1117
968.811	-235
968.897	974
968.983	-56
969.069	78
969.154	495
969.240	109
969.326	-1585
969.412	-328
969.497	113
969.583	-391
969.669	986
969.755	218
969.840	-231
969.926	1118
970.012	11
970.097	1104
970.183	27
970.268	353
970.354	154
970.439	-768
970.525	1082
970.610	-1210
970.696	345
970.781	-537
970.866	-1373
970.952	-757
971.037	-1023
971.122	-209
971.208	-225
971.293	213
971.378	-368
971.463	146
971.549	502
971.634	-647
971.719	-132
971.804	-642
971.889	955
971.974	-429
972.059	-609
972.144	-592
972.229	-236
972.314	-87
972.399	-175
972.484	-604
972.569	439
972.654	-701
972.739	1
972.824	-856
972.908	182
972.993	-1112
973.078	-230
973.163	-1016
973.247	-543
973.332	-793
973.417	327
973.501	-941
973.586	164
973.671	340
973.755	-830
973.840	1099
973.924	-197
974.009	-441
974.093	-141
974.178	602
974.262	-207
974.346	-180
974.431	-64
974.515	-396
974.600	-539
974.684	289
974.768	-359
974.852	-315
974.937	-1230
975.021	182
975.105	303
975.189	-611
975.273	-141
975.358	-242
975.442	-793
975.526	27
975.610	-553
975.694	-853
975.778	813
975.862	-51
975.946	-1826
976.030	605
976.114	-504
976.198	-397
976.281	-326
976.365	569
976.449	181
976.533	111
976.617	-811
976.700	-580
976.784	-349
976.868	-845
976.951	-208
977.035	-719
977.119	-413
977.202	-613
977.286	534
977.369	194
977.453	1501
977.536	-104
977.620	368
977.703	-440
977.787	-815
977.870	172
977.953	683
978.037	-423
978.120	1015
978.203	-615
978.287	-450
978.370	-339
978.453	-1504
978.536	-551
978.620	154
978.703	-482
978.786	-1072
978.869	-618
978.952	-1224
979.035	131
979.118	-319
979.201	-715
979.284	-218
979.367	-1182
979.450	324
979.533	-1243
979.616	-337
979.699	-952
979.782	75
979.865	-70
979.948	497
980.030	-978
980.113	-111
980.196	-890
980.279	649
980.361	-1003
980.444	-21
980.526	380
980.609	721
980.692	438
980.774	792
980.857	-263
980.939	149
981.022	-889
981.104	103
981.187	269
981.269	459
981.352	-239
981.434	-1239
981.516	-294
981.599	1282
981.681	-405
981.763	515
981.846	-35
981.928	-689
982.010	-433
982.092	-1375
982.174	202
982.256	-459
982.339	-93
982.421	-650
982.503	167
982.585	-502
982.667	-780
982.749	-717
982.831	-697
982.913	-824
982.995	242
983.077	-806
983.158	116
983.240	-930
983.322	1215
983.404	1005
983.486	-18
983.568	499
983.649	49
983.731	1180
983.813	220
983.894	196
983.976	-769
984.058	316
984.139	274
984.221	-588
984.302	862
984.384	-367
984.465	-350
984.547	-222
984.628	-593
984.710	-308
984.791	-71
984.872	-251
984.954	-218
985.035	254
985.116	-447
985.198	-377
985.279	1360
985.360	544
985.441	-444
985.522	244
985.604	-161
985.685	-1675
985.766	1465
985.847	1168
985.928	238
986.009	-465
986.090	-186
986.171	443
986.252	-380
986.333	554
986.414	-394
986.495	106
986.576	-657
986.656	80
986.737	-26
986.818	23
986.899	-216
986.980	1281
987.060	66
987.141	-293
987.222	483
987.302	688
987.383	775
987.464	799
987.544	317
987.625	543
987.705	1249
987.786	1016
987.866	162
987.947	-281
988.027	1035
988.108	500
988.188	573
988.268	380
988.349	61
988.429	714
988.509	724
988.589	1090
988.670	-1034
988.750	1617
988.830	-535
988.910	-279
988.990	284
989.070	74
989.151	-126
989.231	212
989.311	-7
989.391	18
989.471	86
989.551	-303
989.631	-463
989.711	206
989.791	-571
989.870	-552
989.950	556
990.030	-369
990.110	427
990.190	-223
990.269	384
990.349	297
990.429	996
990.509	661
990.588	-365
990.668	-149
990.747	89
990.827	-481
990.907	669
990.986	-222
991.066	69
991.145	-250
991.225	614
991.304	-202
991.383	-57
991.463	-580
991.542	-76
991.622	193
991.701	-126
991.780	-788
991.859	-93
991.939	127
992.018	-745
992.097	106
992.176	-55
992.256	-407
992.335	-924
992.414	-363
992.493	-704
992.572	-1282
992.651	818
992.730	-337
992.809	632
992.888	-589
992.967	-510
993.046	353
993.125	-1361
993.203	-894
993.282	-40
993.361	-34
993.440	18
993.519	-1238
993.597	-602
993.676	-651
993.755	601
993.834	-777
993.912	-1476
993.991	-22
994.069	-24
994.148	-1014
994.226	-937
994.305	-590
994.384	-665
994.462	-51
994.540	-1330
994.619	-687
994.697	-829
994.776	-1213
994.854	-106
994.932	-758
995.011	-909
995.089	-883
995.167	-466
995.245	-412
995.324	-1072
995.402	159
995.480	-1375
995.558	-163
995.636	-1043
995.714	-993
995.792	-347
995.870	-1494
995.948	-1377
996.026	-44
996.104	-1179
996.182	-604
996.260	-694
996.338	-410
996.416	-794
996.494	-1261
996.572	-559
996.649	-1551
996.727	-1610
996.805	-697
996.883	-620
996.960	-645
997.038	-787
997.116	-683
997.193	-1497
997.271	161
997.348	-1824
997.426	-1402
997.504	-1650
997.581	221
997.658	184
997.736	-1715
997.813	-1157
997.891	85
997.968	-912
998.046	-1249
998.123	-744
998.200	-1423
998.277	-1521
998.355	-727
998.432	-2301
998.509	-580
998.586	-349
998.663	-1051
998.741	-1056
998.818	-1717
998.895	-958
998.972	-744
999.049	-715
999.126	-1017
999.203	-1453
999.280	-823
999.357	-1776
999.434	-1003
999.511	-1714
999.587	-179
999.664	-1229
999.741	-836
999.818	-739
999.895	-1603
999.971	-594
1000.048	-1221
1000.125	-1052
1000.202	-1693
1000.278	-1492
1000.355	-702
1000.431	-1104
1000.508	-1540
1000.584	-1275
1000.661	-964
1000.738	-2150
1000.814	-1835
1000.890	-1193
1000.967	-1766
1001.043	-977
1001.120	-1976
1001.196	-849
1001.272	-2067
1001.349	-1522
1001.425	-430
1001.501	-1502
1001.577	-1196
1001.654	-716
1001.730	-1248
1001.806	-1155
1001.882	-1815
1001.958	-843
1002.034	-650
1002.110	-1053
1002.186	-1258
1002.262	-1949
1002.338	-1864
1002.414	-816
1002.490	-1016
1002.566	-1861
1002.642	-946
1002.718	-466
1002.794	-1499
1002.870	-1131
1002.945	-2034
1003.021	-958
1003.097	-1189
1003.173	-505
1003.248	-1184
1003.324	-914
1003.400	-574
1003.475	-1959
1003.551	-511
1003.626	-2251
1003.702	-1927
1003.777	-862
1003.853	-1223
1003.928	-373
1004.004	-1901
1004.079	-1606
1004.155	-1453
1004.230	-1649
1004.305	-94
1004.381	-1630
1004.456	-1202
1004.531	-1913
1004.607	-1890
1004.682	-1441
1004.757	-842
1004.832	-2027
1004.907	-1510
1004.982	-1175
1005.057	-977
1005.133	-1641
1005.208	-1977
1005.283	-1237
1005.358	-944
1005.433	-1731
1005.508	-1058
1005.583	-1946
1005.657	-1937
1005.732	-1255
1005.807	-1848
1005.882	-1850
1005.957	-1822
1006.032	-1083
1006.106	-1909
1006.181	-1907
1006.256	-2132
1006.331	-2463
1006.405	-2183
1006.480	-1737
1006.554	-1803
1006.629	-971
1006.704	-1316
1006.778	-1385
1006.853	-2266
1006.927	-1216
1007.002	-1915
1007.076	-954
1007.150	-1183
1007.225	-1574
1007.299	-2352
1007.373	-1535
1007.448	-1150
1007.522	-527
1007.596	-1767
1007.671	-1357
1007.745	-905
1007.819	-1735
1007.893	-1649
1007.967	-746
1008.041	-1892
1008.115	-1221
1008.190	-1566
1008.264	-1226
1008.338	-2113
1008.412	-1782
1008.486	-1395
1008.560	-1594
1008.633	-1828
1008.707	-2040
1008.781	-1369
1008.855	-1165
1008.929	-1478
1009.003	-1926
1009.076	-1904
1009.150	-1533
1009.224	-1512
1009.298	-1549
1009.371	-1860
1009.445	-1228
1009.519	-1214
1009.592	-3047
1009.666	-1537
1009.739	-1122
1009.813	-2514
1009.886	-670
1009.960	-3048
1010.033	-1084
1010.107	-1345
1010.180	-2693
1010.253	-1392
1010.327	-2373
1010.400	-1691
1010.473	-2263
1010.547	-360
1010.620	-1679
1010.693	-1853
1010.766	-1391
1010.840	-722
1010.913	-1231
1010.986	-2507
1011.059	-1638
1011.132	-1611
1011.205	-1471
1011.278	-1463
1011.351	-1450
1011.424	-1577
1011.497	-1705
1011.570	-1390
1011.643	-1670
1011.716	-2011
1011.789	-2097
1011.862	-1264
1011.934	-1252
1012.007	-2804
1012.080	-1503
1012.153	-2043
1012.225	-218
1012.298	-2202
1012.371	-2507
1012.443	-969
1012.516	-1972
1012.588	-1566
1012.661	-650
1012.733	-2348
1012.806	-1144
1012.879	-2475
1012.951	-1275
1013.023	-1414
1013.096	-1956
1013.168	-1546
1013.241	-851
1013.313	-1472
1013.385	-1763
1013.458	-1244
1013.530	-1493
1013.602	-2003
1013.674	-1777
1013.746	-2909
1013.819	-2082
1013.891	-1319
1013.963	-1692
1014.035	-1353
1014.107	-2136
1014.179	-2231
1014.251	-2431
1014.323	-1674
1014.395	-1428
1014.467	-1399
1014.539	-1701
1014.611	-1862
1014.683	-1087
1014.754	-1351
1014.826	-1923
1014.898	-1568
1014.970	-2133
1015.042	-835
1015.113	-915
1015.185	-1218
1015.257	-2469
1015.328	-1068
1015.400	-2273
1015.471	-1752
1015.543	-2459
1015.615	-1433
1015.686	-2343
1015.757	-2377
1015.829	-2096
1015.901	-2296
1015.972	-1715
1016.043	-1820
1016.115	-1301
1016.186	-1526
1016.257	-2174
1016.328	-2054
1016.400	-741
1016.471	-2301
1016.542	-1980
1016.613	-1622
1016.685	-2113
1016.756	-1231
1016.827	-2150
1016.898	-1841
1016.969	-909
1017.040	-2243
1017.111	-2053
1017.182	-2482
1017.253	-1975
1017.324	-1984
1017.395	-1631
1017.466	-2285
1017.537	-2098
1017.608	-1638
1017.678	-2101
1017.749	-1473
1017.820	-1794
1017.891	-1759
1017.961	-2275
1018.032	-1539
1018.103	-1674
1018.173	-2163
1018.244	-2702
1018.315	-1617
1018.385	-1512
1018.456	-2334
1018.526	-2426
1018.597	-1331
1018.667	-1288
1018.738	-1831
1018.808	-2218
1018.878	-1851
1018.949	-1801
1019.019	-1672
1019.089	-1496
1019.160	-1751
1019.230	-2876
1019.300	-1785
1019.371	-2960
1019.441	-362
1019.511	-1456
1019.581	-1449
1019.651	-1851
1019.721	-1894
1019.791	-2133
1019.861	-2363
1019.931	-1941
1020.001	-2194
1020.071	-2731
1020.141	-1807
1020.211	-2658
1020.281	-1455
1020.351	-2123
1020.421	-1051
1020.491	-1768
1020.560	-2788
1020.630	-1683
1020.700	-1846
1020.770	-2302
1020.839	-1171
1020.909	-2187
1020.979	-2074
1021.048	-1275
1021.118	-2657
1021.187	-1271
1021.257	-1612
1021.326	-2050
1021.396	-2330
1021.465	-1267
1021.535	-1863
1021.604	-2634
1021.674	-2094
1021.743	-1412
1021.812	-2408
1021.882	-2192
1021.951	-1661
1022.020	-2071
1022.089	-1629
1022.159	-2056
1022.228	-1870
1022.297	-2092
1022.366	-2230
1022.435	-1737
1022.504	-2680
1022.573	-2480
1022.642	-1236
1022.711	-1151
1022.781	-1211
1022.849	-1443
1022.918	-2331
1022.987	-2133
1023.056	-1195
1023.125	-1564
1023.194	-2031
1023.263	-2107
1023.331	-1676
1023.400	-1912
1023.469	-2485
1023.538	-1781
1023.606	-1751
1023.675	-2039
1023.744	-1927
1023.812	-2429
1023.881	-2198
1023.949	-2345
1024.018	-2580
1024.086	-2292
1024.155	-1929
1024.223	-2893
1024.292	-1855
1024.360	-1941
1024.429	-1728
1024.497	-2106
1024.565	-1636
1024.634	-1743
1024.702	-1472
1024.770	-1802
1024.838	-2002
1024.907	-1687
1024.975	-2238
1025.043	-2417
1025.111	-2691
1025.179	-1634
1025.247	-1694
1025.315	-2524
1025.383	-1617
1025.451	-2366
1025.519	-2351
1025.587	-2006
1025.655	-2390
1025.723	-1591
1025.791	-1773
1025.859	-2030
1025.927	-1679
1025.995	-1989
1026.062	-2317
1026.130	-1407
1026.198	-1826
1026.266	-1920
1026.333	-1885
1026.401	-1443
1026.469	-1894
1026.536	-1403
1026.604	-2808
1026.671	-2522
1026.739	-1903
1026.806	-1803
1026.874	-1773
1026.941	-2282
1027.009	-2227
1027.076	-1979
1027.144	-1472
1027.211	-2534
1027.278	-1851
1027.345	-1892
1027.413	-1998
1027.480	-2488
1027.547	-2361
1027.614	-1636
1027.682	-923
1027.749	-2567
1027.816	-2342
1027.883	-2299
1027.950	-1390
1028.017	-2678
1028.084	-1343
1028.151	-2478
1028.218	-2894
1028.285	-1233
1028.352	-2069
1028.419	-2311
1028.486	-2720
1028.553	-2410
1028.619	-1518
1028.686	-2001
1028.753	-1842
1028.820	-2300
1028.886	-1836
1028.953	-2043
1029.020	-2473
1029.086	-2094
1029.153	-2693
1029.220	-2738
1029.286	-2350
1029.353	-2392
1029.419	-1995
1029.486	-1522
1029.552	-2972
1029.619	-1908
1029.685	-1874
1029.751	-2696
1029.818	-2195
1029.884	-1705
1029.951	-1375
1030.017	-2331
1030.083	-2637
1030.149	-1171
1030.216	-2266
1030.282	-1810
1030.348	-1995
1030.414	-2869
1030.480	-2583
1030.546	-2226
1030.612	-1906
1030.678	-2559
1030.744	-1708
1030.810	-2143
1030.876	-2401
1030.942	-2300
1031.008	-800
1031.074	-2121
1031.140	-2356
1031.206	-1678
1031.272	-2227
1031.337	-2359
1031.403	-2529
1031.469	-1278
1031.534	-2272
1031.600	-1170
1031.666	-2639
1031.731	-2459
1031.797	-1576
1031.863	-2475
1031.928	-2393
1031.994	-2859
1032.059	-2141
1032.125	-1412
1032.190	-2516
1032.256	-2017
1032.321	-2352
1032.386	-2292
1032.452	-2109
1032.517	-2542
1032.582	-2000
1032.647	-2004
1032.713	-1634
1032.778	-2343
1032.843	-2249
1032.908	-2393
1032.974	-2067
1033.039	-2041
1033.104	-1777
1033.169	-2357
1033.234	-1968
1033.299	-1472
1033.364	-2466
1033.429	-2339
1033.494	-1806
1033.559	-1955
1033.624	-1709
1033.688	-2266
1033.753	-2690
1033.818	-2154
1033.883	-2368
1033.948	-1518
1034.013	-2096
1034.077	-823
1034.142	-1106
1034.207	-941
1034.271	-455
1034.336	207
1034.400	-812
1034.465	-1560
1034.530	-2162
1034.594	-1880
1034.658	-2379
1034.723	-2185
1034.787	-1643
1034.852	-1953
1034.916	-1874
1034.981	-2491
1035.045	-1790
1035.109	-2864
1035.173	-1399
1035.238	-2255
1035.302	-1944
1035.366	-2020
1035.430	-1368
1035.495	-1973
1035.559	-2406
1035.623	-1217
1035.687	-1794
1035.751	-1271
1035.815	-1727
1035.879	-2247
1035.943	-2185
1036.007	-3296
1036.071	-2251
1036.135	-2731
1036.198	-1987
1036.262	-1624
1036.326	-2075
1036.390	-2958
1036.454	-1955
1036.517	-2048
1036.581	-2192
1036.645	-2321
1036.709	-1854
1036.772	-2037
1036.836	-1677
1036.900	-2223
1036.963	-2194
1037.026	-2485
1037.090	-2111
1037.154	-2525
1037.217	-2200
1037.280	-2813
1037.344	-2540
1037.407	-2259
1037.471	-1900
1037.534	-1930
1037.597	-1777
1037.661	-2149
1037.724	-1582
1037.787	-1919
1037.850	-1825
1037.913	-2201
1037.977	-1600
1038.040	-2122
1038.103	-2214
1038.166	-2255
1038.229	-2556
1038.292	-2441
1038.355	-2003
1038.418	-2198
1038.481	-1732
1038.544	-2549
1038.607	-2677
1038.670	-2026
1038.732	-1845
1038.795	-1983
1038.858	-1965
1038.921	-1956
1038.984	-2364
1039.046	-1721
1039.109	-1822
1039.172	-1852
1039.234	-1974
1039.297	-2563
1039.360	-1735
1039.422	-3019
1039.485	-1999
1039.547	-3221
1039.610	-2474
1039.672	-1627
1039.734	-1694
1039.797	-1302
1039.859	-1549
1039.922	-2784
1039.984	-2257
1040.046	-1924
1040.109	-2184
1040.171	-2526
1040.233	-1893
1040.295	-2503
1040.358	-2051
1040.420	-2338
1040.482	-2532
1040.544	-2128
1040.606	-2211
1040.668	-1793
1040.730	-2691
1040.792	-2097
1040.854	-1506
1040.916	-2150
1040.978	-2051
1041.040	-2344
1041.102	-2135
1041.164	-2066
1041.225	-1826
1041.287	-2358
1041.349	-1881
1041.411	-2053
1041.472	-1904
1041.534	-1995
1041.596	-2469
1041.657	-2179
1041.719	-2287
1041.781	-2095
1041.842	-2671
1041.904	-2085
1041.965	-2125
1042.027	-1461
1042.088	-2111
1042.150	-1640
1042.211	-1933
1042.272	-1659
1042.334	-2748
1042.395	-2362
1042.456	-2615
1042.518	-2161
1042.579	-1866
1042.640	-1703
1042.701	-2143
1042.763	-1567
1042.824	-1756
1042.885	-2132
1042.946	-1926
1043.007	-2371
1043.068	-2496
1043.129	-1788
1043.190	-2008
1043.251	-1990
1043.312	-1976
1043.373	-1488
1043.434	-2822
1043.495	-2009
1043.556	-1856
1043.616	-1450
1043.677	-2222
1043.738	-1709
1043.799	-2452
1043.859	-1941
1043.920	-2112
1043.981	-2278
1044.041	-1980
1044.102	-1791
1044.162	-2099
1044.223	-2535
1044.284	-1369
1044.344	-2085
1044.405	-2206
1044.465	-2118
1044.525	-1943
1044.586	-1430
1044.646	-1350
1044.707	-1746
1044.767	-2218
1044.827	-1875
1044.887	-2082
1044.948	-1790
1045.008	-1063
1045.068	-2045
1045.128	-1800
1045.188	-1531
1045.249	-1543
1045.309	-2152
1045.369	-2165
1045.429	-2131
1045.489	-2477
1045.549	-1731
1045.609	-1752
1045.669	-2190
1045.729	-1873
1045.789	-1291
1045.848	-2306
1045.908	-1280
1045.968	-996
1046.028	-1303
1046.088	-1362
1046.147	-1101
1046.207	-1278
1046.267	-1102
1046.326	-2158
1046.386	-853
1046.446	-830
1046.505	-1020
1046.565	-702
1046.624	-1350
1046.684	-1510
1046.743	-1314
1046.803	-267
1046.862	-540
1046.922	0
