'Start Wavelength	183.907
'End Wavelength	1046.922
'Gate Delay	5.000
'Gate Width (ms)	1.050
'Laser Output Level	0.000
'X Position	0.000
'Y Position	0.000
'Z Position	0.000
'Grid Point Number	1.000
'Shot Number	100.000
183.907	-188.000
183.977	-315.000
184.047	-814
184.116	625
184.186	948
184.256	421
184.325	-97
184.395	152
184.465	962
184.534	862
184.604	-416
184.674	274
184.743	-261
184.813	1049
184.883	241
184.952	524
185.022	274
185.092	895
185.161	102
185.231	51
185.301	5
185.370	1364
185.440	115
185.509	234
185.579	362
185.649	1126
185.718	558
185.788	598
185.857	445
185.927	-365
185.996	-114
186.066	170
186.136	-185
186.205	-77
186.275	440
186.344	558
186.414	574
186.483	90
186.553	956
186.622	155
186.692	-441
186.761	186
186.831	191
186.900	221
186.970	637
187.039	202
187.109	215
187.178	316
187.248	377
187.317	819
187.387	374
187.456	84
187.526	181
187.595	428
187.664	81
187.734	360
187.803	243
187.873	-220
187.942	782
188.012	837
188.081	177
188.150	474
188.220	448
188.289	157
188.358	9
188.428	503
188.497	424
188.567	1432
188.636	-501
188.705	-124
188.775	330
188.844	-63
188.913	613
188.983	606
189.052	221
189.121	543
189.191	964
189.260	384
189.329	994
189.399	708
189.468	549
189.537	497
189.606	-76
189.676	183
189.745	-316
189.814	889
189.883	-302
189.953	-240
190.022	18
190.091	-58
190.161	-379
190.230	579
190.299	-595
190.368	479
190.437	-574
190.507	915
190.576	621
190.645	373
190.714	-233
190.783	-654
190.853	706
190.922	191
190.991	-392
191.060	-160
191.129	-61
191.198	35
191.268	-492
191.337	72
191.406	272
191.475	537
191.544	716
191.613	329
191.682	-170
191.752	978
191.821	80
191.890	-53
191.959	668
192.028	-5
192.097	1085
192.166	196
192.235	3
192.304	862
192.373	-652
192.442	499
192.511	-141
192.580	-281
192.650	-71
192.719	238
192.788	169
192.857	292
192.926	214
192.995	-92
193.064	243
193.133	476
193.202	-50
193.271	503
193.340	-242
193.409	686
193.478	705
193.547	510
193.615	207
193.684	495
193.753	263
193.822	1090
193.891	-475
193.960	701
194.029	-252
194.098	352
194.167	23
194.236	1324
194.305	-99
194.374	-176
194.443	479
194.512	466
194.580	154
194.649	-129
194.718	405
194.787	643
194.856	157
194.925	855
194.994	313
195.062	323
195.131	116
195.200	-207
195.269	342
195.338	-176
195.407	9
195.475	-525
195.544	213
195.613	178
195.682	183
195.751	461
195.819	-318
195.888	-160
195.957	788
196.026	-260
196.094	689
196.163	587
196.232	-294
196.301	88
196.369	635
196.438	149
196.507	381
196.576	221
196.644	370
196.713	-87
196.782	-174
196.850	753
196.919	59
196.988	230
197.056	-96
197.125	300
197.194	379
197.262	75
197.331	-263
197.400	-354
197.468	-302
197.537	139
197.606	-354
197.674	316
197.743	327
197.812	28
197.880	-19
197.949	-696
198.017	-84
198.086	395
198.155	392
198.223	37
198.292	26
198.360	226
198.429	545
198.497	47
198.566	256
198.635	600
198.703	312
198.772	734
198.840	-220
198.909	350
198.977	-546
199.046	355
199.114	-99
199.183	133
199.251	611
199.320	-37
199.388	128
199.457	-52
199.525	-27
199.594	-13
199.662	435
199.731	-20
199.799	156
199.867	-17
199.936	-51
200.004	58
200.073	399
200.141	-452
200.210	28
200.278	-123
200.346	147
200.415	-245
200.483	85
200.552	618
200.620	370
200.688	470
200.757	519
200.825	415
200.893	-40
200.962	562
201.030	-19
201.098	566
201.167	114
201.235	634
201.303	-68
201.372	-93
201.440	156
201.508	-11
201.577	-119
201.645	42
201.713	819
201.781	229
201.850	282
201.918	710
201.986	-121
202.055	-188
202.123	-784
202.191	188
202.259	-440
202.327	-328
202.396	265
202.464	-292
202.532	-305
202.600	845
202.669	999
202.737	-326
202.805	-237
202.873	872
202.941	579
203.009	174
203.078	783
203.146	51
203.214	-795
203.282	185
203.350	67
203.418	24
203.487	803
203.555	175
203.623	33
203.691	162
203.759	-931
203.827	-635
203.895	-418
203.963	-547
204.031	-24
204.099	137
204.168	10
204.236	514
204.304	-1
204.372	126
204.440	-26
204.508	-286
204.576	-510
204.644	3
204.712	-8
204.780	-213
204.848	-373
204.916	-8
204.984	55
205.052	487
205.120	-184
205.188	300
205.256	479
205.324	-155
205.392	-391
205.460	485
205.528	142
205.596	436
205.664	100
205.732	-347
205.799	53
205.867	365
205.935	-195
206.003	456
206.071	-605
206.139	-616
206.207	-105
206.275	558
206.343	-159
206.411	195
206.478	907
206.546	-41
206.614	-457
206.682	-158
206.750	-547
206.818	166
206.885	208
206.953	-291
207.021	732
207.089	350
207.157	-540
207.225	566
207.292	-256
207.360	-298
207.428	-257
207.496	-178
207.563	269
207.631	168
207.699	18
207.767	-134
207.834	-306
207.902	-255
207.970	-816
208.038	69
208.105	-519
208.173	484
208.241	-423
208.309	-172
208.376	181
208.444	99
208.512	-335
208.579	-333
208.647	50
208.715	615
208.782	-761
208.850	133
208.918	-242
208.985	-203
209.053	-386
209.120	-686
209.188	-723
209.256	604
209.323	-1227
209.391	-22
209.459	1015
209.526	40
209.594	225
209.661	91
209.729	269
209.796	324
209.864	10
209.932	-1057
209.999	610
210.067	17
210.134	-80
210.202	27
210.269	659
210.337	124
210.404	-250
210.472	-69
210.539	158
210.607	-589
210.674	-409
210.742	71
210.809	204
210.877	290
210.944	-166
211.012	-508
211.079	1598
211.146	379
211.214	398
211.281	252
211.349	408
211.416	105
211.484	441
211.551	-598
211.618	548
211.686	14
211.753	-1023
211.821	225
211.888	-516
211.955	587
212.023	229
212.090	360
212.157	573
212.225	276
212.292	-56
212.359	578
212.427	964
212.494	-103
212.561	-1019
212.629	-354
212.696	-417
212.763	427
212.831	-464
212.898	1072
212.965	-134
213.032	-723
213.100	-260
213.167	-680
213.234	160
213.301	-576
213.369	517
213.436	225
213.503	-553
213.570	471
213.638	179
213.705	-692
213.772	-909
213.839	-1046
213.906	-515
213.973	214
214.041	-604
214.108	469
214.175	61
214.242	149
214.309	-461
214.376	-70
214.444	-572
214.511	506
214.578	-531
214.645	-197
214.712	-6
214.779	-599
214.846	-952
214.913	404
214.980	482
215.048	717
215.115	393
215.182	542
215.249	1003
215.316	-1138
215.383	260
215.450	-180
215.517	-283
215.584	-359
215.651	-284
215.718	290
215.785	239
215.852	-700
215.919	328
215.986	142
216.053	98
216.120	-766
216.187	-105
216.254	-159
216.321	-566
216.388	-27
216.455	-240
216.522	-386
216.589	-532
216.656	-271
216.722	-331
216.789	444
216.856	-133
216.923	-340
216.990	390
217.057	-376
217.124	-725
217.191	-154
217.258	13
217.324	-549
217.391	841
217.458	-830
217.525	-359
217.592	-259
217.659	-1380
217.725	82
217.792	-1435
217.859	435
217.926	-500
217.993	601
218.059	-504
218.126	174
218.193	708
218.260	-209
218.327	-559
218.393	-770
218.460	-401
218.527	-550
218.594	-24
218.660	-263
218.727	430
218.794	-829
218.860	346
218.927	-148
218.994	-673
219.061	-737
219.127	-599
219.194	-56
219.261	-205
219.327	-252
219.394	251
219.461	-177
219.527	10
219.594	67
219.661	-522
219.727	-752
219.794	82
219.860	89
219.927	-207
219.994	546
220.060	535
220.127	1563
220.193	1759
220.260	222
220.326	382
220.393	-483
220.460	-1107
220.526	-572
220.593	-956
220.659	946
220.726	-791
220.792	662
220.859	-194
220.925	-151
220.992	155
221.058	545
221.125	-598
221.191	-83
221.258	-742
221.324	148
221.391	14
221.457	-379
221.524	-187
221.590	491
221.657	152
221.723	-680
221.789	88
221.856	917
221.922	-730
221.989	403
222.055	-504
222.121	-1062
222.188	1114
222.254	-215
222.321	489
222.387	-463
222.453	76
222.520	-188
222.586	-464
222.652	-241
222.719	-922
222.785	-507
222.851	-582
222.918	172
222.984	-456
223.050	-40
223.116	-1644
223.183	86
223.249	-726
223.315	-356
223.382	-1139
223.448	-486
223.514	-868
223.580	-109
223.647	-582
223.713	82
223.779	-148
223.845	16
223.911	194
223.978	-942
224.044	28
224.110	6
224.176	-29
224.242	-188
224.309	-1086
224.375	127
224.441	-556
224.507	-277
224.573	-921
224.639	277
224.705	-573
224.772	221
224.838	-1370
224.904	-631
224.970	-61
225.036	-829
225.102	-509
225.168	-123
225.234	268
225.300	-309
225.366	-331
225.432	-303
225.499	-673
225.565	-443
225.631	-630
225.697	-103
225.763	-235
225.829	11
225.895	15
225.961	-950
226.027	91
226.093	18
226.159	-477
226.225	367
226.291	168
226.357	525
226.423	-237
226.489	-344
226.554	-525
226.620	191
226.686	-854
226.752	163
226.818	-191
226.884	2270
226.950	1575
227.016	-691
227.082	-194
227.148	-421
227.214	-485
227.279	-230
227.345	-435
227.411	230
227.477	579
227.543	1514
227.609	1642
227.674	1357
227.740	-277
227.806	141
227.872	-663
227.938	-755
228.003	-51
228.069	-839
228.135	-245
228.201	-511
228.267	-869
228.332	-85
228.398	-1431
228.464	-33
228.530	-1003
228.595	295
228.661	-339
228.727	-543
228.792	371
228.858	-516
228.924	-2130
228.990	1456
229.055	-1173
229.121	-229
229.187	-286
229.252	-624
229.318	-897
229.384	-183
229.449	-411
229.515	-1295
229.581	-843
229.646	1667
229.712	-21
229.777	-513
229.843	-757
229.909	511
229.974	419
230.040	39
230.105	-445
230.171	-207
230.236	-9
230.302	-970
230.368	-688
230.433	-1076
230.499	-96
230.564	-122
230.630	-1241
230.695	-224
230.761	325
230.826	-1686
230.892	514
230.957	-1601
231.023	-729
231.088	-473
231.154	-609
231.219	-297
231.284	-279
231.350	207
231.415	-903
231.481	235
231.546	-1123
231.612	-567
231.677	-671
231.742	-1162
231.808	980
231.873	-1184
231.939	-2435
232.004	525
232.069	148
232.135	-439
232.200	-138
232.265	96
232.331	-1283
232.396	-137
232.461	2
232.527	48
232.592	-689
232.657	-47
232.723	237
232.788	-13
232.853	-553
232.918	-245
232.984	-847
233.049	-517
233.114	-1399
233.179	286
233.245	-152
233.310	-170
233.375	-1134
233.440	-74
233.506	-1075
233.571	-473
233.636	-714
233.701	-617
233.766	-1011
233.832	96
233.897	-615
233.962	-1228
234.027	-277
234.092	-386
234.157	-766
234.222	-89
234.288	-3
234.353	-203
234.418	-595
234.483	205
234.548	-1263
234.613	96
234.678	-180
234.743	-1198
234.808	683
234.873	-1249
234.938	-306
235.004	-750
235.069	-83
235.134	-1407
235.199	-599
235.264	-243
235.329	-1463
235.394	564
235.459	448
235.524	-940
235.589	629
235.654	-781
235.719	-2286
235.784	-116
235.849	-1149
235.913	-15
235.978	-377
236.043	-434
236.108	-638
236.173	-974
236.238	-510
236.303	-1070
236.368	-1305
236.433	-80
236.498	-1281
236.563	-144
236.627	-268
236.692	2283
236.757	1247
236.822	-154
236.887	-1138
236.952	-294
237.017	-1148
237.081	184
237.146	-1231
237.211	668
237.276	1713
237.341	4510
237.405	-82
237.470	688
237.535	-324
237.600	-580
237.664	37
237.729	-1511
237.794	-2208
237.859	117
237.923	-526
237.988	-380
238.053	-557
238.118	-499
238.182	-854
238.247	1033
238.312	-1674
238.376	-934
238.441	-1801
238.506	421
238.570	-1662
238.635	841
238.700	-258
238.764	172
238.829	-351
238.893	-1398
238.958	657
239.023	-569
239.087	-274
239.152	-4
239.216	-1297
239.281	443
239.346	-204
239.410	-3
239.475	-873
239.539	158
239.604	-583
239.668	1049
239.733	366
239.797	2699
239.862	4127
239.926	3746
239.991	1735
240.055	1199
240.120	-180
240.184	67
240.249	-1057
240.313	-533
240.378	-84
240.442	111
240.507	-195
240.571	-686
240.635	-1181
240.700	298
240.764	-247
240.829	-741
240.893	-1007
240.957	195
241.022	-641
241.086	269
241.151	-753
241.215	-995
241.279	-261
241.344	-787
241.408	-495
241.472	-939
241.537	321
241.601	-85
241.665	-1599
241.730	-588
241.794	474
241.858	-869
241.922	-293
241.987	1
242.051	-1377
242.115	-1534
242.179	434
242.244	-1335
242.308	460
242.372	181
242.436	-1389
242.501	155
242.565	-1395
242.629	-1311
242.693	-55
242.757	-1091
242.822	-831
242.886	289
242.950	579
243.014	-1123
243.078	-603
243.142	-690
243.206	-508
243.271	347
243.335	-1338
243.399	-82
243.463	-177
243.527	2798
243.591	-252
243.655	-137
243.719	-1057
243.783	360
243.847	-413
243.911	328
243.975	-1007
244.040	-1293
244.104	1315
244.168	35
244.232	-965
244.296	-381
244.360	-317
244.424	-929
244.488	-155
244.552	102
244.615	-1820
244.679	33
244.743	-567
244.807	-1315
244.871	-473
244.935	-291
244.999	-1873
245.063	-1043
245.127	320
245.191	-605
245.255	-403
245.319	64
245.383	-2034
245.446	349
245.510	-1358
245.574	-11
245.638	-751
245.702	-869
245.766	-119
245.829	853
245.893	-2037
245.957	-810
246.021	46
246.085	-549
246.149	-1456
246.212	842
246.276	-1121
246.340	-577
246.404	-419
246.467	-197
246.531	-1854
246.595	11
246.659	-243
246.722	-1783
246.786	-484
246.850	-95
246.913	-695
246.977	-1074
247.041	-355
247.104	-608
247.168	-401
247.232	331
247.295	-217
247.359	-8
247.423	-940
247.486	21
247.550	507
247.614	-29
247.677	-301
247.741	-454
247.804	-612
247.868	517
247.932	-832
247.995	1367
248.059	-689
248.122	-648
248.186	424
248.249	-457
248.313	1431
248.376	1985
248.440	349
248.503	-1276
248.567	1654
248.630	-1015
248.694	30
248.757	1148
248.821	1944
248.884	1479
248.948	-458
249.011	1642
249.075	1157
249.138	1840
249.202	-118
249.265	-433
249.328	-89
249.392	-1492
249.455	63
249.519	-621
249.582	-166
249.645	-45
249.709	-302
249.772	-612
249.835	-455
249.899	-606
249.962	-86
250.025	-815
250.089	-237
250.152	-33
250.215	726
250.279	-336
250.342	-817
250.405	-707
250.468	-1355
250.532	-901
250.595	1455
250.658	1821
250.721	5730
250.785	535
250.848	759
250.911	-471
250.974	655
251.038	85
251.101	1222
251.164	-525
251.227	211
251.290	-105
251.354	401
251.417	4285
251.480	4194
251.543	1710
251.606	9074
251.669	6228
251.732	1241
251.795	1278
251.859	866
251.922	5167
251.985	2121
252.048	795
252.111	206
252.174	-1161
252.237	445
252.300	1950
252.363	1325
252.426	8169
252.489	870
252.552	-39
252.615	-1009
252.678	1390
252.741	643
252.804	1323
252.867	7568
252.930	2674
252.993	156
253.056	1409
253.119	-18
253.182	-271
253.245	-997
253.308	361
253.371	-828
253.434	366
253.497	264
253.559	1609
253.622	153
253.685	319
253.748	-933
253.811	-437
253.874	-71
253.937	-963
254.000	-749
254.062	419
254.125	249
254.188	859
254.251	-859
254.314	-700
254.376	-328
254.439	-238
254.502	159
254.565	10
254.628	415
254.690	36
254.753	-1258
254.816	-998
254.878	-906
254.941	234
255.004	214
255.067	-534
255.129	-1077
255.192	-365
255.255	-1643
255.317	-693
255.380	-73
255.443	941
255.505	-441
255.568	-523
255.631	-931
255.693	-144
255.756	-502
255.819	972
255.881	-602
255.944	-259
256.006	-382
256.069	-400
256.132	-361
256.194	-80
256.257	1
256.319	-429
256.382	-485
256.444	855
256.507	-128
256.569	-722
256.632	2
256.694	-629
256.757	853
256.819	3585
256.882	-451
256.944	-9
257.007	769
257.069	-686
257.132	-676
257.194	748
257.257	-1037
257.319	-292
257.381	-1001
257.444	1871
257.506	4507
257.569	3923
257.631	-12
257.693	-425
257.756	-100
257.818	-909
257.880	-1246
257.943	112
258.005	-1088
258.067	-398
258.130	-14
258.192	-978
258.254	-581
258.317	-905
258.379	-323
258.441	26
258.503	366
258.566	-360
258.628	422
258.690	-731
258.753	42
258.815	-531
258.877	-312
258.939	-205
259.001	680
259.064	-431
259.126	-1002
259.188	-920
259.250	288
259.312	25
259.375	-1064
259.437	87
259.499	-329
259.561	-653
259.623	-254
259.685	-1428
259.747	-314
259.809	130
259.872	-30
259.934	1002
259.996	889
260.058	-310
260.120	-253
260.182	386
260.244	-366
260.306	-732
260.368	10
260.430	-494
260.492	-1058
260.554	695
260.616	-754
260.678	342
260.740	-161
260.802	-68
260.864	347
260.926	-1472
260.988	754
261.050	-278
261.112	-700
261.174	1179
261.236	129
261.298	923
261.359	118
261.421	807
261.483	-498
261.545	500
261.607	-1427
261.669	1188
261.731	-169
261.793	-289
261.854	-1255
261.916	394
261.978	-275
262.040	1001
262.102	675
262.164	-625
262.225	214
262.287	174
262.349	-761
262.411	-190
262.472	-35
262.534	-146
262.596	338
262.658	730
262.719	-592
262.781	255
262.843	-1894
262.904	515
262.966	449
263.028	593
263.090	262
263.151	2143
263.213	292
263.275	-474
263.336	179
263.398	291
263.459	-968
263.521	-663
263.583	646
263.644	310
263.706	-65
263.767	-841
263.829	430
263.891	516
263.952	-597
264.014	-1152
264.075	-411
264.137	-136
264.198	365
264.260	-768
264.321	-305
264.383	-312
264.444	158
264.506	-367
264.567	-180
264.629	577
264.690	-201
264.752	382
264.813	5
264.875	-1169
264.936	58
264.998	-35
265.059	-267
265.120	392
265.182	-571
265.243	1664
265.305	1195
265.366	171
265.427	-396
265.489	418
265.550	-1498
265.611	-272
265.673	-394
265.734	-1096
265.795	735
265.857	-601
265.918	-1661
265.979	394
266.040	2485
266.102	1909
266.163	-219
266.224	-93
266.286	-435
266.347	423
266.408	-121
266.469	-261
266.530	-861
266.592	-156
266.653	-124
266.714	-1309
266.775	-99
266.836	-500
266.898	-984
266.959	-425
267.020	-711
267.081	193
267.142	-408
267.203	244
267.264	-978
267.326	308
267.387	-243
267.448	-467
267.509	-350
267.570	-1123
267.631	-539
267.692	-487
267.753	149
267.814	-979
267.875	-241
267.936	166
267.997	-750
268.058	-623
268.119	-642
268.180	-449
268.241	-752
268.302	-347
268.363	-200
268.424	-468
268.485	-216
268.546	-992
268.607	-836
268.668	-697
268.729	-1286
268.790	218
268.851	-471
268.912	121
268.972	-445
269.033	-1200
269.094	-639
269.155	3
269.216	-63
269.277	124
269.338	-306
269.398	527
269.459	-871
269.520	-538
269.581	-594
269.642	100
269.702	-602
269.763	-249
269.824	-894
269.885	83
269.945	207
270.006	-438
270.067	-947
270.128	135
270.188	-227
270.249	-886
270.310	-258
270.370	240
270.431	-657
270.492	-465
270.553	-872
270.613	-970
270.674	-304
270.734	-131
270.795	-746
270.856	751
270.916	-788
270.977	-166
271.038	89
271.098	-322
271.159	-431
271.219	-554
271.280	-525
271.340	633
271.401	-1533
271.462	-577
271.522	166
271.583	-110
271.643	-138
271.704	-152
271.764	-732
271.825	-588
271.885	1717
271.946	1890
272.006	-240
272.066	840
272.127	2035
272.187	2748
272.248	1026
272.308	215
272.369	1055
272.429	317
272.489	-514
272.550	-12
272.610	-508
272.671	9
272.731	148
272.791	-763
272.852	-390
272.912	582
272.972	-862
273.033	-235
273.093	-117
273.153	1117
273.214	-918
273.274	-411
273.334	-539
273.394	1038
273.455	-660
273.515	447
273.575	-357
273.635	519
273.696	588
273.756	1214
273.816	202
273.876	90
273.936	-764
273.997	702
274.057	-433
274.117	-1364
274.177	-458
274.237	741
274.297	758
274.358	244
274.418	246
274.478	710
274.538	176
274.598	-969
274.658	-25
274.718	-631
274.778	194
274.838	317
274.898	-538
274.958	418
275.018	486
275.078	440
275.138	64
275.198	-289
275.258	-429
275.318	201
275.378	-384
275.438	-559
275.498	351
275.558	-53
275.618	311
275.678	463
275.738	306
275.798	33
275.858	-301
275.918	-686
275.978	-4
276.038	-236
276.098	-480
276.157	283
276.217	436
276.277	383
276.337	-406
276.397	-381
276.457	-521
276.517	-338
276.576	-184
276.636	-192
276.696	-714
276.756	207
276.815	-413
276.875	-290
276.935	-313
276.995	-263
277.055	512
277.114	905
277.174	151
277.234	-121
277.293	-594
277.353	-994
277.413	-457
277.472	-874
277.532	-643
277.592	-402
277.651	804
277.711	2126
277.771	-3
277.830	2493
277.890	2266
277.950	1360
278.009	5571
278.069	1836
278.128	2492
278.188	1865
278.248	977
278.307	1893
278.367	1603
278.426	-327
278.486	-289
278.545	-354
278.605	246
278.664	-398
278.724	-347
278.783	291
278.843	1606
278.902	596
278.962	139
279.021	132
279.081	1184
279.140	-22
279.199	923
279.259	1282
279.318	865
279.378	1189
279.437	1711
279.496	4921
279.556	19842
279.615	11968
279.675	4097
279.734	2737
279.793	2077
279.853	3424
279.912	1498
279.971	1754
280.031	1258
280.090	1488
280.149	3119
280.208	2064
280.268	13113
280.327	11649
280.386	2111
280.445	1764
280.505	848
280.564	1047
280.623	150
280.682	783
280.742	1044
280.801	463
280.860	274
280.919	-256
280.978	-843
281.037	60
281.097	-386
281.156	650
281.215	342
281.274	-32
281.333	629
281.392	131
281.451	-454
281.510	-5
281.569	-478
281.628	673
281.688	268
281.747	544
281.806	184
281.865	715
281.924	-1087
281.983	62
282.042	-620
282.101	-834
282.160	238
282.219	565
282.278	-697
282.337	473
282.396	227
282.454	-296
282.513	939
282.572	229
282.631	-58
282.690	168
282.749	-287
282.808	127
282.867	758
282.926	276
282.985	262
283.043	151
283.102	144
283.161	100
283.220	566
283.279	491
283.338	308
283.396	-64
283.455	77
283.514	142
283.573	516
283.631	-142
283.690	243
283.749	-468
283.808	-25
283.866	1007
283.925	119
283.984	634
284.043	-389
284.101	-174
284.160	-35
284.219	1128
284.277	200
284.336	6
284.395	405
284.453	7
284.512	70
284.570	806
284.629	-259
284.688	297
284.746	445
284.805	1065
284.863	915
284.922	1842
284.981	1820
285.039	2123
285.098	4096
285.156	10621
285.215	22024
285.273	20350
285.332	10567
285.390	5728
285.449	3968
285.507	2836
285.566	881
285.624	636
285.683	1228
285.741	604
285.799	967
285.858	98
285.916	-261
285.975	274
286.033	-604
286.091	-267
286.150	-379
286.208	654
286.267	422
286.325	317
286.383	-19
286.442	-354
286.500	-390
286.558	579
286.616	15
286.675	1435
286.733	-205
286.791	96
286.850	20
286.908	635
286.966	-615
287.024	-274
287.083	644
287.141	447
287.199	876
287.257	-64
287.315	-19
287.374	-113
287.432	620
287.490	-53
287.548	420
287.606	461
287.664	246
287.723	823
287.781	-22
287.839	753
287.897	126
287.955	-128
288.013	337
288.071	1500
288.129	6690
288.187	17653
288.245	5832
288.303	2083
288.361	1564
288.419	1789
288.477	-29
288.535	191
288.593	273
288.651	184
288.709	185
288.767	505
288.825	30
288.883	474
288.941	652
288.999	-82
289.057	236
289.115	-126
289.173	-208
289.231	215
289.289	63
289.346	-129
289.404	-325
289.462	-121
289.520	793
289.578	-16
289.636	36
289.694	192
289.751	-613
289.809	730
289.867	503
289.925	1156
289.983	371
290.040	715
290.098	-241
290.156	646
290.214	-310
290.271	851
290.329	241
290.387	501
290.444	429
290.502	70
290.560	106
290.617	-26
290.675	-313
290.733	-201
290.790	629
290.848	368
290.906	372
290.963	374
291.021	220
291.078	161
291.136	-388
291.194	24
291.251	456
291.309	289
291.366	312
291.424	334
291.481	-84
291.539	-643
291.596	840
291.654	220
291.711	729
291.769	934
291.826	-224
291.884	932
291.941	-284
291.999	-96
292.056	140
292.114	-590
292.171	232
292.228	1228
292.286	341
292.343	590
292.401	393
292.458	231
292.515	-362
292.573	1034
292.630	-671
292.687	201
292.745	-86
292.802	340
292.859	643
292.917	999
292.974	481
293.031	227
293.089	143
293.146	362
293.203	-169
293.260	-533
293.318	223
293.375	407
293.432	201
293.489	617
293.546	-970
293.604	267
293.661	342
293.718	1859
293.775	811
293.832	756
293.889	1007
293.947	424
294.004	271
294.061	-554
294.118	245
294.175	722
294.232	1128
294.289	667
294.346	-445
294.403	54
294.460	275
294.517	-85
294.574	378
294.631	125
294.688	159
294.745	747
294.802	1488
294.859	1365
294.916	206
294.973	472
295.030	47
295.087	-109
295.144	329
295.201	680
295.258	-560
295.315	-12
295.372	384
295.429	0
295.486	-175
295.542	-301
295.599	608
295.656	1495
295.713	587
295.770	1403
295.827	781
295.883	955
295.940	-327
295.997	-438
296.054	726
296.111	285
296.167	56
296.224	-609
296.281	-409
296.338	-408
296.394	-102
296.451	350
296.508	170
296.564	224
296.621	883
296.678	2029
296.734	2528
296.791	684
296.848	477
296.904	347
296.961	685
297.018	518
297.074	379
297.131	657
297.187	-373
297.244	332
297.301	1656
297.357	2419
297.414	1243
297.470	162
297.527	63
297.583	-67
297.640	642
297.696	24
297.753	-423
297.809	155
297.866	-326
297.922	-200
297.979	-11
298.035	-486
298.092	-415
298.148	298
298.204	580
298.261	26
298.317	465
298.374	1717
298.430	354
298.486	134
298.543	-414
298.599	291
298.656	-208
298.712	307
298.768	101
298.824	161
298.881	-155
298.937	-242
298.993	89
299.050	-548
299.106	1
299.162	88
299.218	119
299.275	247
299.331	-70
299.387	1286
299.443	3205
299.500	7018
299.556	4290
299.612	2300
299.668	2093
299.724	5788
299.780	6092
299.837	2760
299.893	2481
299.949	5134
300.005	6097
300.061	5106
300.117	8011
300.173	3664
300.229	1083
300.285	930
300.341	1048
300.397	1132
300.453	106
300.510	487
300.566	661
300.622	2586
300.678	9475
300.734	11017
300.790	4605
300.845	3564
300.901	4942
300.957	6959
301.013	2809
301.069	1514
301.125	666
301.181	431
301.237	1232
301.293	94
301.349	560
301.405	1024
301.461	422
301.516	144
301.572	-387
301.628	228
301.684	-537
301.740	594
301.796	840
301.851	-455
301.907	911
301.963	335
302.019	1466
302.074	4814
302.130	4666
302.186	2907
302.242	880
302.297	887
302.353	820
302.409	-569
302.464	305
302.520	169
302.576	1226
302.631	973
302.687	57
302.743	303
302.798	-130
302.854	-17
302.910	74
302.965	176
303.021	389
303.076	-279
303.132	332
303.187	-418
303.243	-76
303.299	558
303.354	-374
303.410	648
303.465	-555
303.521	196
303.576	-372
303.632	50
303.687	597
303.743	1420
303.798	1234
303.853	413
303.909	-311
303.964	-814
304.020	374
304.075	-657
304.130	752
304.186	1093
304.241	1137
304.297	480
304.352	-221
304.358	-259
304.407	-566
304.449	-213
304.463	-91
304.518	-204
304.539	-113
304.573	9
304.629	137
304.630	135
304.684	83
304.720	523
304.739	719
304.794	1639
304.811	1477
304.850	1100
304.902	312
304.905	262
304.960	83
304.992	49
305.015	15
305.071	703
305.083	571
305.126	90
305.173	-76
305.181	-97
305.236	-116
305.264	308
305.292	738
305.347	380
305.354	372
305.402	302
305.445	15
305.457	-104
305.512	91
305.535	12
305.567	62
305.622	-495
305.626	-411
305.678	858
305.716	1258
305.733	1391
305.788	1240
305.807	1045
305.843	818
305.897	1782
305.898	1793
305.953	1789
305.988	1246
306.008	929
306.063	1022
306.078	836
306.118	395
306.168	-205
306.173	-254
306.228	96
306.259	503
306.283	818
306.338	-22
306.349	163
306.393	886
306.440	435
306.448	358
306.503	612
306.530	726
306.558	844
306.613	775
306.620	754
306.668	762
306.711	1213
306.723	1263
306.778	804
306.801	720
306.833	696
306.888	609
306.892	624
306.943	912
306.982	776
306.997	699
307.052	748
307.072	549
307.107	350
307.162	574
307.163	569
307.217	293
307.253	821
307.272	1017
307.327	311
307.343	211
307.381	156
307.434	67
307.436	74
307.491	1085
307.524	1163
307.546	1007
307.600	994
307.614	757
307.655	367
307.704	704
307.710	764
307.765	800
307.795	1020
307.819	1011
307.874	1063
307.885	1103
307.929	1784
307.975	2302
307.984	2411
308.038	2749
308.065	3369
308.093	6195
308.148	12054
308.156	13571
308.202	18789
308.246	20278
308.257	19343
308.312	8590
308.336	4950
308.366	3441
308.421	1958
308.426	1798
308.475	1012
308.517	1069
308.530	1111
308.585	1159
308.607	1192
308.639	1198
308.694	764
308.697	761
308.748	1332
308.787	1909
308.803	1921
308.857	1388
308.877	1364
308.912	1424
308.967	1529
308.967	1525
309.021	2232
309.058	2599
309.076	3282
309.130	6675
309.148	7646
309.185	16904
309.238	33170
309.239	33195
309.293	31196
309.328	24701
309.348	20420
309.402	8635
309.418	5771
309.457	4226
309.508	3237
309.511	3237
309.566	3367
309.598	3538
309.620	3742
309.674	3840
309.688	4090
309.729	3914
309.778	3158
309.783	3133
309.837	2567
309.868	2438
309.892	2503
309.946	2445
309.959	2501
310.001	2314
310.049	1745
310.055	1718
310.109	1832
310.139	1618
310.163	1368
310.218	1223
310.229	1175
310.272	1535
310.319	1811
310.326	1736
310.381	1343
310.409	968
310.435	1137
310.489	1753
310.499	1841
310.543	1571
310.589	1229
310.598	1258
310.652	1594
310.679	1606
310.706	1359
310.760	1188
310.769	1113
310.814	1279
310.859	1722
310.868	1783
310.923	1600
310.948	1674
310.977	1831
311.031	2026
311.038	2051
311.085	1665
311.128	1210
311.139	1240
311.193	1349
311.218	1479
311.247	1761
311.301	2218
311.308	2259
311.356	2252
311.398	2256
311.410	2190
311.464	1836
311.488	1688
311.518	1751
311.572	1838
311.578	1835
311.626	1811
311.668	1881
311.680	1961
311.734	2185
311.758	2310
311.788	2126
311.842	1796
311.847	1750
311.896	2028
311.937	2302
311.950	2272
312.004	2097
312.027	2023
312.058	1991
312.112	1908
312.117	1897
312.165	1921
312.207	1937
312.297	1567
312.386	2247
312.476	2850
312.566	2142
312.656	2058
312.745	1939
312.835	2622
312.925	1660
313.015	2178
313.104	2505
313.194	2962
313.284	2229
313.374	2315
313.463	3052
313.553	2578
313.643	2457
313.732	2864
313.822	2260
313.912	3908
314.001	3763
314.091	3874
314.180	3920
314.270	4012
314.360	3887
314.449	4426
314.539	3376
314.628	4208
314.718	4178
314.808	3829
314.897	4715
314.987	5122
315.076	4604
315.166	4847
315.255	4054
315.345	5255
315.434	4059
315.524	4648
315.613	5515
315.703	6975
315.792	19925
315.881	48398
315.971	13902
316.060	6657
316.150	5857
316.239	5206
316.328	4660
316.418	4433
316.507	3573
316.597	6320
316.686	5787
316.775	5186
316.865	5024
316.954	4781
317.043	4280
317.133	3029
317.222	3367
317.311	3786
317.400	2323
317.490	4513
317.579	3673
317.668	4361
317.757	8778
317.847	32128
317.936	68704
318.025	21665
318.114	22326
318.203	9717
318.293	5718
318.382	8391
318.471	6864
318.560	8097
318.649	7077
318.738	4412
318.828	4197
318.917	2599
319.006	2459
319.095	3126
319.184	5581
319.273	2455
319.362	2953
319.451	2157
319.540	2410
319.629	3367
319.718	2944
319.807	3658
319.896	2774
319.985	5908
320.074	3341
320.163	2622
320.252	3368
320.341	2972
320.430	2300
320.519	4114
320.608	3371
320.697	5855
320.786	5037
320.875	6067
320.964	6994
321.053	6570
321.142	6505
321.230	7907
321.319	8416
321.408	10143
321.497	8540
321.586	7681
321.675	6960
321.764	6821
321.852	6300
321.941	6517
322.030	6740
322.119	8193
322.207	9435
322.296	10804
322.385	11257
322.474	12077
322.562	12944
322.651	10178
322.740	7700
322.829	6925
322.917	6672
323.006	5912
323.095	5095
323.183	5242
323.272	3877
323.361	4767
323.449	6908
323.538	4552
323.626	5032
323.715	4028
323.804	3590
323.892	4682
323.981	3446
324.069	3604
324.158	3979
324.246	3571
324.335	3411
324.424	3305
324.512	3873
324.601	2364
324.689	2936
324.778	3260
324.866	3235
324.954	2441
325.043	2997
325.131	1959
325.220	3758
325.308	2951
325.397	2855
325.485	2898
325.574	2070
325.662	2477
325.750	1799
325.839	3307
325.927	2075
326.015	2989
326.104	2528
326.192	2756
326.280	2472
326.369	1701
326.457	2765
326.545	2046
326.634	2380
326.722	2590
326.810	2256
326.898	3004
326.987	2952
327.075	3313
327.163	3470
327.251	3323
327.340	2871
327.428	4317
327.516	4374
327.604	3713
327.692	3152
327.781	2650
327.869	2893
327.957	2445
328.045	1440
328.133	2572
328.221	1888
328.309	2116
328.397	2060
328.485	3569
328.574	5460
328.662	6182
328.750	4101
328.838	3995
328.926	2659
329.014	2412
329.102	2707
329.190	3502
329.278	1799
329.366	3108
329.454	2268
329.542	3251
329.630	1874
329.718	2973
329.806	1663
329.893	3112
329.981	2207
330.069	2758
330.157	2958
330.245	5605
330.333	3071
330.421	2634
330.509	3171
330.597	3095
330.684	2103
330.772	2738
330.860	2144
330.948	2244
331.036	3025
331.123	1962
331.211	2836
331.299	2392
331.387	1637
331.475	2297
331.562	2497
331.650	2490
331.738	2659
331.825	2419
331.913	1993
332.001	2314
332.089	2031
332.176	2747
332.264	3320
332.352	2939
332.439	2649
332.527	3407
332.614	2358
332.702	2576
332.790	1836
332.877	2680
332.965	3282
333.052	3287
333.140	3277
333.228	4184
333.315	2388
333.403	3284
333.490	3672
333.578	3042
333.665	4943
333.753	4663
333.840	4056
333.928	4332
334.015	4629
334.103	7737
334.190	11751
334.278	12163
334.365	14945
334.452	14974
334.540	10158
334.627	10588
334.715	12756
334.802	19759
334.889	30599
334.977	34842
335.064	20658
335.151	11067
335.239	8812
335.326	7130
335.413	9943
335.501	9661
335.588	9230
335.675	9606
335.762	12957
335.850	16844
335.937	22463
336.024	35548
336.111	50910
336.199	40731
336.286	20541
336.373	13394
336.460	8464
336.547	7878
336.635	5527
336.722	4878
336.809	5048
336.896	4467
336.983	4876
337.070	6785
337.157	7525
337.245	6591
337.332	4999
337.419	3570
337.506	3789
337.593	3620
337.680	3921
337.767	6053
337.854	3292
337.941	3762
338.028	3585
338.115	2471
338.202	4290
338.289	3655
338.376	4112
338.463	3238
338.550	4094
338.637	4283
338.724	3193
338.811	3201
338.898	2893
338.984	3080
339.071	2229
339.158	2896
339.245	2513
339.332	2726
339.419	2399
339.506	2994
339.593	2182
339.679	3527
339.766	2993
339.853	2770
339.940	1897
340.027	2906
340.113	2497
340.200	2931
340.287	1826
340.374	2291
340.460	2796
340.547	762
340.634	2828
340.720	3912
340.807	2539
340.894	2512
340.980	2571
341.067	2346
341.154	2604
341.240	2620
341.327	1822
341.414	3036
341.500	1983
341.587	2259
341.674	2826
341.760	3239
341.847	2439
341.933	2216
342.020	1738
342.106	2605
342.193	2707
342.279	2983
342.366	1762
342.452	3291
342.539	2630
342.625	2373
342.712	2738
342.798	2999
342.885	2258
342.971	2392
343.058	2373
343.144	2612
343.230	1961
343.317	2679
343.403	1870
343.490	2464
343.576	1867
343.662	2189
343.749	2111
343.835	3131
343.921	2714
344.008	7667
344.094	9456
344.180	3974
344.267	1844
344.353	3915
344.439	2862
344.525	3326
344.612	3150
344.698	2436
344.784	1802
344.870	2227
344.957	2027
345.043	3079
345.129	2132
345.215	2651
345.301	2203
345.387	2270
345.474	925
345.560	1856
345.646	1514
345.732	2681
345.818	1742
345.904	2485
345.990	1758
346.076	2843
346.162	1668
346.249	3186
346.335	2093
346.421	2949
346.507	2448
346.593	4553
346.679	1985
346.765	4100
346.851	4710
346.937	4052
347.023	3416
347.108	2619
347.194	2249
347.280	2655
347.366	4263
347.452	11418
347.538	11687
347.624	7711
347.710	3707
347.796	3296
347.882	2632
347.967	2770
348.053	2014
348.139	3243
348.225	2669
348.311	2494
348.397	1557
348.482	3355
348.568	2373
348.654	5691
348.740	15142
348.825	14216
348.911	6419
348.997	5668
349.083	6748
349.168	2764
349.254	2897
349.340	2768
349.425	2533
349.511	2497
349.597	2978
349.682	2170
349.768	4180
349.854	3558
349.939	2977
350.025	2834
350.110	1686
350.196	2665
350.282	1971
350.367	2987
350.453	1880
350.538	2497
350.624	1608
350.709	2758
350.795	2731
350.880	2489
350.966	3303
351.051	3018
351.137	2072
351.222	1837
351.308	2536
351.393	3013
351.479	2057
351.564	2598
351.649	2190
351.735	2857
351.820	2306
351.906	1837
351.991	2145
352.076	2205
352.162	2900
352.247	2052
352.332	1806
352.418	1911
352.503	2374
352.588	4109
352.673	2131
352.759	2102
352.844	1654
352.929	2228
353.014	2224
353.100	2833
353.185	2551
353.270	1948
353.355	2917
353.441	3081
353.526	2300
353.611	2441
353.696	2801
353.781	2718
353.866	1311
353.952	1986
354.037	1448
354.122	3400
354.207	2264
354.292	2276
354.377	2011
354.462	1820
354.547	1939
354.632	2697
354.717	2588
354.802	1512
354.887	2139
354.972	3118
355.057	2094
355.142	2359
355.227	2195
355.312	2249
355.397	1995
355.482	2817
355.567	1847
355.652	3699
355.737	2997
355.822	2898
355.907	2811
355.991	3668
356.076	1385
356.161	2873
356.246	2634
356.331	2881
356.416	1702
356.501	7577
356.585	4983
356.670	2330
356.755	4057
356.840	3407
356.924	5605
357.009	11299
357.094	4884
357.179	2460
357.263	2665
357.348	3777
357.433	1791
357.517	3307
357.602	2529
357.687	2630
357.771	2861
357.856	4150
357.941	3436
358.025	6507
358.110	16291
358.195	7181
358.279	3022
358.364	2924
358.448	3699
358.533	5447
358.617	3963
358.702	3967
358.787	2692
358.871	2799
358.956	3164
359.040	2588
359.125	3147
359.209	3226
359.294	3890
359.378	6271
359.462	4527
359.547	3216
359.631	3015
359.716	2520
359.800	2197
359.885	3663
359.969	2272
360.053	3084
360.138	2678
360.222	2056
360.306	2509
360.391	2812
360.475	2714
360.559	3097
360.644	3320
360.728	2387
360.812	5950
360.896	8103
360.981	4235
361.065	3043
361.149	3635
361.233	3593
361.318	2818
361.402	2997
361.486	4759
361.570	3860
361.654	3760
361.739	4979
361.823	8441
361.907	10636
361.991	6436
362.075	7523
362.159	9738
362.243	22579
362.327	42861
362.411	51985
362.495	22053
362.580	12132
362.664	12148
362.748	14552
362.832	23009
362.916	47798
363.000	103603
363.084	113265
363.168	47284
363.252	18679
363.336	12031
363.420	9855
363.503	10290
363.587	10167
363.671	7068
363.755	7459
363.839	9444
363.923	9697
364.007	12297
364.091	18212
364.175	29311
364.258	61622
364.342	121757
364.426	163090
364.510	83278
364.594	32590
364.677	18106
364.761	14531
364.845	10288
364.929	7309
365.013	5561
365.096	5599
365.180	3949
365.264	5742
365.347	9162
365.431	5057
365.515	3386
365.598	3094
365.682	4644
365.766	3148
365.849	3681
365.933	3061
366.017	5267
366.100	3838
366.184	3346
366.267	4542
366.351	3747
366.435	3578
366.518	2369
366.602	3966
366.685	3881
366.769	4278
366.852	3061
366.936	3194
367.019	3123
367.103	2588
367.186	5106
367.270	4043
367.353	2829
367.436	5353
367.520	4302
367.603	4645
367.687	3200
367.770	4672
367.853	4538
367.937	4926
368.020	5020
368.104	3370
368.187	3152
368.270	3727
368.353	3390
368.437	3186
368.520	3912
368.603	3956
368.687	3070
368.770	3926
368.853	2682
368.936	3480
369.020	3427
369.103	2751
369.186	2168
369.269	3202
369.352	3436
369.436	2705
369.519	2546
369.602	1481
369.685	3894
369.768	2547
369.851	3647
369.934	2515
370.018	2007
370.101	1518
370.184	4601
370.267	3401
370.350	3094
370.433	4161
370.516	12423
370.599	29119
370.682	10517
370.765	6559
370.848	5166
370.931	4420
371.014	4691
371.097	1954
371.180	3252
371.263	3568
371.346	1283
371.429	3328
371.511	2308
371.594	2946
371.677	3251
371.760	4248
371.843	3595
371.926	8660
372.009	11305
372.091	7257
372.174	3591
372.257	6233
372.340	2951
372.423	2962
372.505	4373
372.588	3815
372.671	4620
372.754	4370
372.836	3839
372.919	4541
373.002	4587
373.085	2600
373.167	3264
373.250	4063
373.332	5635
373.415	11726
373.498	16600
373.580	17237
373.663	44012
373.746	36280
373.828	7802
373.911	6459
373.993	4806
374.076	6337
374.159	4793
374.241	4740
374.324	6533
374.406	6587
374.489	8261
374.571	12266
374.654	5521
374.736	6758
374.819	8816
374.901	13694
374.983	11382
375.066	6133
375.148	5640
375.231	6351
375.313	8236
375.395	5397
375.478	4919
375.560	5575
375.643	4528
375.725	6588
375.807	9943
375.890	8682
375.972	4245
376.054	4767
376.136	4517
376.219	3731
376.301	5630
376.383	7018
376.465	4261
376.548	4012
376.630	4949
376.712	6864
376.794	3965
376.877	3698
376.959	2737
377.041	3152
377.123	2598
377.205	3894
377.287	2097
377.369	3306
377.452	3262
377.534	3514
377.616	3009
377.698	3337
377.780	2282
377.862	3195
377.944	4114
378.026	2585
378.108	2702
378.190	3214
378.272	2857
378.354	2911
378.436	2960
378.518	2510
378.600	2392
378.682	3826
378.764	3610
378.846	4338
378.928	2193
379.010	2320
379.091	3796
379.173	2549
379.255	1713
379.337	2620
379.419	3240
379.501	5272
379.583	3083
379.664	3781
379.746	1854
379.828	4820
379.910	3224
379.991	4063
380.073	2581
380.155	2818
380.237	2699
380.318	2718
380.400	2486
380.482	3531
380.564	2391
380.645	2621
380.727	2540
380.809	3813
380.890	2267
380.972	1529
381.053	1624
381.135	3275
381.217	2640
381.298	5194
381.380	3010
381.461	3840
381.543	7099
381.624	7018
381.706	3806
381.787	3628
381.869	3478
381.951	5745
382.032	10769
382.113	10068
382.195	1287
382.276	4191
382.358	3760
382.439	6054
382.521	8952
382.602	10679
382.684	6375
382.765	8066
382.846	11530
382.928	18631
383.009	11030
383.090	13531
383.172	32872
383.253	37639
383.334	12470
383.416	10093
383.497	6751
383.578	7022
383.659	11217
383.741	34644
383.822	62830
383.903	26775
383.984	9759
384.066	10813
384.147	6673
384.228	6848
384.309	6382
384.390	6374
384.471	5812
384.553	6349
384.634	4952
384.715	5619
384.796	4297
384.877	4396
384.958	6626
385.039	4430
385.120	4192
385.201	5792
385.282	4921
385.363	6275
385.444	5821
385.525	7200
385.606	7981
385.687	7899
385.768	5990
385.849	5528
385.930	11461
386.011	14416
386.092	7016
386.173	6222
386.254	5165
386.335	6492
386.416	5387
386.496	6640
386.577	7225
386.658	6329
386.739	5840
386.820	7452
386.901	5427
386.981	7843
387.062	8288
387.143	8914
387.224	9108
387.304	11588
387.385	9881
387.466	9323
387.547	11243
387.627	10460
387.708	11271
387.789	13115
387.869	11821
387.950	10690
388.031	7488
388.111	6323
388.192	8660
388.273	9532
388.353	6856
388.434	6569
388.514	5885
388.595	8788
388.676	7849
388.756	6354
388.837	6045
388.917	5436
388.998	3140
389.078	5575
389.159	5476
389.239	3484
389.320	6456
389.400	3250
389.480	5241
389.561	5317
389.641	5898
389.722	4790
389.802	4046
389.883	6119
389.963	7047
390.043	5009
390.124	3928
390.204	5636
390.284	5650
390.365	4685
390.445	6329
390.525	7780
390.605	7146
390.686	4208
390.766	6261
390.846	6153
390.927	4795
391.007	4345
391.087	6170
391.167	4813
391.247	4032
391.328	6262
391.408	6503
391.488	7046
391.568	4726
391.648	6188
391.728	6984
391.808	7946
391.888	7772
391.969	9114
392.049	9292
392.129	10436
392.209	10124
392.289	13131
392.369	12618
392.449	12612
392.529	14120
392.609	17136
392.689	18826
392.769	23021
392.849	27240
392.929	36803
393.009	48754
393.089	72699
393.169	131161
393.248	240083
393.328	354325
393.408	333222
393.488	202345
393.568	104983
393.648	60429
393.728	40541
393.807	26967
393.887	23559
393.967	18129
394.047	15716
394.127	11821
394.206	13585
394.286	22524
394.366	60955
394.446	53973
394.525	15056
394.605	9101
394.685	9734
394.764	11852
394.844	18154
394.924	21555
395.003	10674
395.083	8007
395.163	7746
395.242	6747
395.322	7371
395.402	6050
395.481	9691
395.561	9645
395.640	30045
395.720	48109
395.799	26062
395.879	12531
395.958	12233
396.038	28613
396.117	77205
396.197	70757
396.276	25717
396.356	18587
396.435	23670
396.515	31145
396.594	49132
396.673	100062
396.753	215157
396.832	316380
396.912	243076
396.991	107644
397.070	53783
397.150	30555
397.229	29115
397.308	48509
397.388	72380
397.467	36487
397.546	14946
397.625	9131
397.705	10949
397.784	7896
397.863	8245
397.942	6877
398.022	7945
398.101	5969
398.180	8282
398.259	5539
398.338	6106
398.417	4483
398.497	4849
398.576	5429
398.655	4191
398.734	4660
398.813	4672
398.892	5408
398.971	6630
399.050	3955
399.129	3164
399.208	4097
399.287	5162
399.366	3312
399.445	3595
399.524	3803
399.603	2719
399.682	3911
399.761	4686
399.840	6525
399.919	5570
399.998	3457
400.077	2050
400.156	2052
400.235	5583
400.313	2396
400.392	2045
400.471	4274
400.550	3666
400.629	1684
400.708	2575
400.786	1352
400.865	2799
400.944	1032
401.023	4380
401.102	2339
401.180	2569
401.259	1804
401.338	2836
401.416	2677
401.495	1056
401.574	2783
401.652	1834
401.731	3120
401.810	1456
401.888	1579
401.967	1465
402.046	3109
402.124	3248
402.203	1492
402.281	2661
402.360	1558
402.438	2816
402.517	1443
402.596	1836
402.674	1830
402.753	2443
402.831	2237
402.910	3268
402.988	1475
403.066	4100
403.145	3785
403.223	3965
403.302	3300
403.380	4832
403.459	3629
403.537	3330
403.615	3120
403.694	1488
403.772	3532
403.850	2728
403.929	1580
404.007	1963
404.085	3871
404.164	1743
404.242	2677
404.320	4791
404.398	6277
404.477	5225
404.555	8346
404.633	6015
404.711	5011
404.789	3980
404.868	1620
404.946	2423
405.024	1293
405.102	2068
405.180	1455
405.258	715
405.336	3169
405.415	1804
405.493	2017
405.571	2793
405.649	1077
405.727	1264
405.805	3264
405.883	3052
405.961	2315
406.039	1543
406.117	1217
406.195	2457
406.273	1588
406.351	5051
406.429	4101
406.507	1695
406.585	862
406.663	2321
406.740	1926
406.818	1873
406.896	1275
406.974	2619
407.052	1082
407.130	3218
407.208	3483
407.285	2709
407.363	1646
407.441	2390
407.519	1678
407.596	3188
407.674	8020
407.752	23890
407.830	15842
407.907	3739
407.985	1558
408.063	2045
408.141	1445
408.218	2118
408.296	1284
408.373	1929
408.451	3230
408.529	3008
408.606	2745
408.684	2224
408.762	3546
408.839	3154
408.917	3991
408.994	4114
409.072	3889
409.149	6420
409.227	10112
409.304	14371
409.382	16241
409.459	18479
409.537	21463
409.614	19522
409.692	16185
409.769	17344
409.846	23437
409.924	26231
410.001	18436
410.079	13977
410.156	11183
410.233	8735
410.311	6527
410.388	6069
410.465	6253
410.543	5008
410.620	5392
410.697	5535
410.775	4852
410.852	4266
410.929	4959
411.006	6083
411.083	4416
411.161	4560
411.238	3893
411.315	4234
411.392	3333
411.469	4642
411.547	3574
411.624	2125
411.701	2655
411.778	3449
411.855	2683
411.932	2210
412.009	2193
412.086	2639
412.163	2201
412.240	2964
412.317	2344
412.394	2053
412.471	2435
412.548	2391
412.625	2151
412.702	2264
412.779	3087
412.856	2804
412.933	1281
413.010	2587
413.087	1576
413.164	2230
413.241	2299
413.318	1215
413.395	2386
413.471	2242
413.548	1391
413.625	2684
413.702	995
413.779	1893
413.855	2046
413.932	1610
414.009	906
414.086	1563
414.162	1480
414.239	1856
414.316	1969
414.393	3666
414.469	1143
414.546	1384
414.623	1706
414.699	1105
414.776	1471
414.853	1990
414.929	1665
415.006	1868
415.082	1179
415.159	2102
415.236	1805
415.312	2919
415.389	2472
415.465	987
415.542	1627
415.618	1150
415.695	1370
415.771	204
415.848	1063
415.924	1655
416.000	443
416.077	2277
416.153	1102
416.230	1392
416.306	1453
416.383	1119
416.459	1624
416.535	823
416.612	1199
416.688	1490
416.764	126
416.841	1846
416.917	874
416.993	1685
417.069	1597
417.146	1277
417.222	821
417.298	1777
417.374	1102
417.451	2032
417.527	924
417.603	1192
417.679	1242
417.755	1819
417.831	1722
417.908	1884
417.984	1723
418.060	984
418.136	1241
418.212	967
418.288	455
418.364	2725
418.440	772
418.516	2244
418.592	1237
418.668	1554
418.744	1800
418.820	1680
418.896	1919
418.972	1427
419.048	1858
419.124	3060
419.200	732
419.276	2939
419.352	1441
419.428	2758
419.504	1699
419.579	2921
419.655	2217
419.731	2943
419.807	2620
419.883	1789
419.959	2848
420.034	2627
420.110	2954
420.186	3216
420.262	3767
420.337	3673
420.413	3345
420.489	4004
420.565	4900
420.640	4746
420.716	5877
420.792	4820
420.867	6208
420.943	5514
421.019	6180
421.094	6701
421.170	7249
421.245	7699
421.321	9116
421.397	9199
421.472	15940
421.548	22797
421.623	17998
421.699	14902
421.774	16942
421.850	18075
421.925	22617
422.001	26432
422.076	32398
422.152	39586
422.227	50876
422.302	67904
422.378	92628
422.453	123617
422.529	145317
422.604	132056
422.679	106525
422.755	138624
422.830	147180
422.905	119490
422.981	90078
423.056	69381
423.131	54064
423.207	41932
423.282	33250
423.357	28655
423.432	22630
423.508	22094
423.583	16660
423.658	15165
423.733	14346
423.808	13244
423.883	12729
423.959	13329
424.034	14063
424.109	13540
424.184	8970
424.259	8795
424.334	7011
424.409	6014
424.484	5515
424.559	5988
424.634	5405
424.709	4388
424.784	4851
424.859	4971
424.934	3444
425.009	3948
425.084	4809
425.159	3585
425.234	4090
425.309	3696
425.384	4043
425.459	3399
425.534	3105
425.609	2608
425.683	1688
425.758	3284
425.833	2572
425.908	2977
425.983	2090
426.058	3505
426.132	2447
426.207	2050
426.282	3018
426.357	1744
426.431	1930
426.506	2805
426.581	1705
426.655	1888
426.730	2423
426.805	1088
426.879	2425
426.954	2080
427.029	1733
427.103	2718
427.178	3120
427.253	2868
427.327	1286
427.402	1094
427.476	2861
427.551	1908
427.625	1393
427.700	2030
427.774	1789
427.849	2237
427.923	1180
427.998	2648
428.072	3493
428.147	9348
428.221	36198
428.296	79269
428.370	40829
428.444	7622
428.519	3524
428.593	2380
428.667	3270
428.742	4830
428.816	15753
428.890	55872
428.965	67283
429.039	17893
429.113	4944
429.188	3335
429.262	2232
429.336	3062
429.410	1556
429.485	2821
429.559	2703
429.633	3446
429.707	4383
429.781	14591
429.855	53043
429.930	60403
430.004	19368
430.078	16021
430.152	46202
430.226	111416
430.300	91861
430.374	24957
430.448	8708
430.522	6097
430.596	8008
430.670	23309
430.744	65681
430.818	58189
430.892	12124
430.966	3123
431.040	1544
431.114	952
431.188	796
431.262	1947
431.336	879
431.410	1407
431.484	466
431.557	2181
431.631	2256
431.705	7555
431.779	28642
431.853	76629
431.927	44931
432.000	8564
432.074	2341
432.148	1897
432.222	596
432.295	1750
432.369	755
432.443	908
432.516	1724
432.590	3131
432.664	676
432.737	-11
432.811	-310
432.885	396
432.958	982
433.032	-396
433.106	226
433.179	-105
433.253	892
433.326	808
433.400	-118
433.473	858
433.547	-307
433.620	527
433.694	-319
433.767	911
433.841	419
433.914	164
433.988	713
434.061	97
434.134	295
434.208	783
434.281	729
434.355	276
434.428	706
434.501	255
434.575	320
434.648	-103
434.721	861
434.795	468
434.868	269
434.941	665
435.014	630
435.088	893
435.161	1008
435.234	1586
435.307	2202
435.381	3559
435.454	5967
435.527	9770
435.600	10625
435.673	8163
435.746	6892
435.819	5129
435.892	2733
435.966	2952
436.039	2086
436.112	1927
436.185	1217
436.258	674
436.331	309
436.404	1171
436.477	1237
436.550	909
436.623	805
436.696	1131
436.769	70
436.842	-59
436.915	936
436.987	488
437.060	684
437.133	-61
437.206	-231
437.279	1193
437.352	-381
437.425	161
437.498	421
437.570	465
437.643	-310
437.716	259
437.789	-144
437.861	-119
437.934	577
438.007	207
438.080	-332
438.152	721
438.225	469
438.298	2003
438.370	4568
438.443	2003
438.516	104
438.588	-35
438.661	-514
438.734	2
438.806	-432
438.879	478
438.951	-475
439.024	-319
439.096	119
439.169	-339
439.241	-150
439.314	449
439.386	-284
439.459	22
439.531	-413
439.604	46
439.676	406
439.749	-539
439.821	-399
439.893	-124
439.966	-746
440.038	-3
440.110	128
440.183	-312
440.255	-572
440.327	1715
440.400	400
440.472	2303
440.544	908
440.617	-48
440.689	892
440.761	379
440.833	156
440.905	489
440.978	-262
441.050	485
441.122	655
441.194	-35
441.266	-639
441.338	545
441.411	858
441.483	1219
441.555	1058
441.627	575
441.699	1269
441.771	455
441.843	690
441.915	678
441.987	841
442.059	484
442.131	1690
442.203	2303
442.275	4130
442.347	8290
442.419	20573
442.491	74330
442.563	112816
442.635	45536
442.706	10767
442.778	5704
442.850	3831
442.922	3285
442.994	3782
443.066	4449
443.137	4780
443.209	8080
443.281	12257
443.353	30360
443.425	88964
443.496	176096
443.568	164611
443.640	70115
443.711	20957
443.783	8813
443.855	5991
443.926	3203
443.998	1947
444.070	3113
444.141	2235
444.213	1394
444.285	1794
444.356	1831
444.428	610
444.499	877
444.571	1443
444.642	1625
444.714	2228
444.785	2259
444.857	2947
444.928	3353
445.000	3495
445.071	6206
445.143	7230
445.214	12472
445.285	23358
445.357	57015
445.428	137707
445.500	192667
445.571	162737
445.642	105725
445.714	39329
445.785	15070
445.856	7414
445.928	4687
445.999	3371
446.070	2592
446.141	1483
446.213	1868
446.284	840
446.355	535
446.426	721
446.497	1222
446.569	11
446.640	396
446.711	530
446.782	438
446.853	119
446.924	644
446.995	-792
447.066	272
447.138	-129
447.209	971
447.280	-923
447.351	-264
447.422	-144
447.493	-111
447.564	-894
447.635	-705
447.706	-773
447.777	68
447.847	-387
447.918	-653
447.989	-628
448.060	-43
448.131	-439
448.202	-488
448.273	-909
448.344	410
448.414	-460
448.485	-573
448.556	-55
448.627	-670
448.698	-356
448.768	-788
448.839	-706
448.910	-452
448.981	-474
449.051	-143
449.122	-411
449.193	-892
449.263	-815
449.334	-975
449.405	-667
449.475	-167
449.546	-295
449.616	509
449.687	147
449.758	-213
449.828	-883
449.899	-636
449.969	-721
450.040	-333
450.110	-624
450.181	-167
450.251	-1044
450.322	-736
450.392	-381
450.463	-867
450.533	-309
450.604	-238
450.674	-852
450.744	969
450.815	131
450.885	833
450.955	534
451.026	275
451.096	443
451.166	861
451.237	415
451.307	1185
451.377	169
451.447	372
451.518	-27
451.588	-1145
451.658	-1437
451.728	-947
451.799	-458
451.869	85
451.939	-1043
452.009	-518
452.079	-718
452.149	-178
452.219	-824
452.289	303
452.360	252
452.430	-150
452.500	788
452.570	3137
452.640	9343
452.710	20122
452.780	19727
452.850	9797
452.920	3927
452.990	2282
453.060	1623
453.129	301
453.199	-220
453.269	789
453.339	930
453.409	1077
453.479	1079
453.549	1801
453.619	1450
453.688	-122
453.758	-145
453.828	-774
453.898	-1183
453.968	-579
454.037	-786
454.087	-636
454.107	-586
454.168	-905
454.177	-965
454.247	-913
454.249	-913
454.316	-1352
454.330	-1237
454.386	-852
454.411	-835
454.456	-865
454.492	-634
454.525	-433
454.574	-68
454.595	70
454.655	-415
454.665	-503
454.734	-796
454.736	-770
454.804	-387
454.817	-398
454.873	-464
454.898	-233
454.943	115
454.979	-549
455.013	-1132
455.060	-838
455.082	-746
455.141	-586
455.152	-567
455.221	-510
455.222	-493
455.291	-391
455.303	-248
455.360	238
455.384	663
455.430	1280
455.465	902
455.499	548
455.546	56
455.569	-153
455.627	-199
455.638	-232
455.707	-906
455.708	-890
455.777	-168
455.789	-177
455.846	-157
455.869	-138
455.916	-278
455.950	-136
455.985	15
456.031	-341
456.054	-483
456.112	-481
456.124	-516
456.193	-2
456.193	-12
456.262	-286
456.274	-284
456.332	-312
456.355	-201
456.401	89
456.436	344
456.470	479
456.516	294
456.540	206
456.597	48
456.609	-6
456.678	603
456.678	594
456.747	227
456.759	243
456.817	293
456.840	280
456.886	288
456.920	252
456.955	209
457.001	924
457.024	1197
457.082	462
457.093	315
457.162	973
457.163	984
457.232	115
457.243	244
457.301	852
457.324	706
457.370	601
457.405	1308
457.439	1983
457.485	1488
457.508	1260
457.566	2737
457.577	3223
457.646	5241
457.647	5299
457.715	13118
457.727	14848
457.784	23322
457.808	31071
457.853	40994
457.889	45108
457.922	45014
457.969	31877
457.991	30851
458.050	36826
458.060	37890
458.129	65525
458.130	66164
458.198	62775
458.211	55950
458.267	29893
458.292	21399
458.336	15520
458.372	15818
458.405	21700
458.453	32338
458.474	37950
458.533	63746
458.543	65554
458.611	96704
458.614	96734
458.680	58404
458.694	47041
458.749	21298
458.775	15111
458.818	8928
458.855	6780
458.887	5534
458.936	4289
458.955	3858
459.016	2642
459.024	2522
459.093	2741
459.097	2744
459.162	2406
459.177	2312
459.230	2216
459.257	2082
459.299	1731
459.338	2017
459.368	2288
459.418	1941
459.437	1726
459.499	1778
459.505	1817
459.574	1579
459.579	1591
459.643	1679
459.659	1734
459.711	1908
459.740	1941
459.780	1682
459.820	1570
459.849	1683
459.900	1746
459.917	1758
459.981	1736
459.986	1670
460.054	1190
460.061	1092
460.123	1262
460.141	1616
460.191	1936
460.222	1762
460.260	1834
460.302	1855
460.328	1967
460.382	2429
460.397	2360
460.462	2156
460.465	2301
460.534	5491
460.543	5993
460.602	13539
460.623	16482
460.671	23619
460.703	30989
460.739	27821
460.783	18547
460.808	15445
460.864	4861
460.876	3665
460.944	1872
460.945	1857
461.013	1569
461.024	1528
461.081	1302
461.104	1345
461.150	1751
461.184	1973
461.218	2049
461.264	2076
461.286	1829
461.345	1150
461.355	1229
461.423	2331
461.425	2336
461.491	1447
461.505	1438
461.559	1838
461.585	1801
461.628	1588
461.665	2002
461.696	2446
461.745	2292
461.764	2212
461.825	2291
461.832	2281
461.901	1927
461.905	1941
461.969	1865
461.985	1725
462.037	2102
462.065	2409
462.105	1713
462.145	999
462.173	1398
462.225	2415
462.241	2435
462.305	1944
462.310	1929
462.378	2146
462.385	2145
462.446	2086
462.465	2061
462.514	2294
462.545	2427
462.582	2264
462.625	2208
462.650	2065
462.705	1634
462.718	1679
462.785	1911
462.786	1909
462.854	1742
462.865	1696
462.922	2062
462.945	2254
462.990	2145
463.025	1961
463.058	2023
463.104	2291
463.126	2189
463.184	1988
463.194	2085
463.262	2383
463.264	2392
463.330	2179
463.344	2178
463.398	2685
463.424	2930
463.466	2579
463.504	2242
463.533	2501
463.583	2680
463.601	2592
463.663	2341
463.669	2311
463.737	2399
463.743	2364
463.805	2678
463.823	2807
463.873	2849
463.903	2798
463.940	2620
463.982	2575
464.008	2597
464.062	2532
464.076	2477
464.142	2186
464.144	2199
464.211	2490
464.221	2526
464.279	2279
464.301	2147
464.347	2198
464.381	2371
464.414	2371
464.461	2248
464.482	2190
464.540	1983
464.550	1977
464.617	2023
464.620	2018
464.685	2680
464.699	2822
464.753	2694
464.779	2602
464.820	2820
464.859	3019
464.888	2535
464.938	1816
464.956	2056
465.018	2864
465.023	2872
465.091	2553
465.098	2547
465.158	2744
465.177	2822
465.226	3157
465.257	3223
465.293	2865
465.336	2567
465.361	2839
465.416	3409
465.428	3293
465.495	2666
465.496	2674
465.563	3024
465.575	3105
465.631	3137
465.654	3182
465.698	2798
465.734	2400
465.765	2605
465.813	2908
465.833	3072
465.893	3590
465.900	3529
465.968	2857
465.972	2803
466.035	3270
466.052	3407
466.102	2726
466.131	2295
466.170	2437
466.210	2578
466.237	3024
466.290	3879
466.304	3714
466.369	2983
466.372	2986
466.439	2819
466.449	2789
466.506	2878
466.528	2897
466.573	3727
466.607	4346
466.641	4160
466.687	3892
466.708	3961
466.766	4065
466.775	4021
466.842	3678
466.845	3652
466.909	3547
466.925	3511
466.977	3500
467.004	3488
467.044	3191
467.083	2874
467.111	3227
467.163	3887
467.178	3969
467.242	4251
467.245	4247
467.312	4005
467.321	3966
467.379	4147
467.400	4198
467.446	3916
467.480	3698
467.559	4651
467.638	4405
467.717	4305
467.796	5211
467.875	5112
467.955	5149
468.034	5823
468.113	7166
468.192	8973
468.271	9753
468.350	15132
468.429	18101
468.508	18103
468.588	11411
468.667	8112
468.746	6334
468.825	6236
468.904	5012
468.983	5124
469.062	4334
469.141	4861
469.220	3980
469.299	4508
469.378	3644
469.456	4099
469.535	4020
469.614	3341
469.693	3268
469.772	4850
469.851	4462
469.930	4308
470.009	4084
470.088	3804
470.166	4118
470.245	5268
470.324	3597
470.403	4717
470.482	4385
470.560	4075
470.639	4146
470.718	4206
470.797	3670
470.875	4629
470.954	3176
471.033	3866
471.111	2999
471.190	3413
471.269	3822
471.347	3609
471.426	2909
471.505	4568
471.583	3505
471.662	4666
471.740	4116
471.819	3762
471.898	4372
471.976	3628
472.055	3299
472.133	3431
472.212	5289
472.290	3114
472.369	3727
472.447	4895
472.526	3675
472.604	4431
472.683	2740
472.761	3706
472.839	3152
472.918	4327
472.996	3338
473.075	4104
473.153	4120
473.231	4140
473.310	4732
473.388	3893
473.466	4058
473.545	4633
473.623	4710
473.701	4270
473.780	4559
473.858	3083
473.936	5657
474.014	4599
474.093	4538
474.171	4744
474.249	4965
474.327	4236
474.405	3939
474.484	3761
474.562	4267
474.640	4433
474.718	4026
474.796	5062
474.874	4761
474.952	4076
475.030	3904
475.108	4221
475.187	4600
475.265	4947
475.343	3937
475.421	4836
475.499	3752
475.577	4325
475.655	3649
475.733	4526
475.811	4469
475.889	3715
475.966	4842
476.044	4050
476.122	4927
476.200	3464
476.278	3385
476.356	3422
476.434	4605
476.512	4163
476.590	3612
476.667	3474
476.745	4100
476.823	3474
476.901	4530
476.979	3301
477.056	4490
477.134	3882
477.212	3901
477.290	3408
477.367	3951
477.445	4350
477.523	4192
477.601	3440
477.678	3182
477.756	4067
477.834	3722
477.911	3566
477.989	3665
478.066	4161
478.144	3673
478.222	3994
478.299	4392
478.377	4179
478.454	4573
478.532	4080
478.609	4062
478.687	4225
478.764	3306
478.842	3470
478.919	3790
478.997	3622
479.074	3725
479.152	3597
479.229	4448
479.307	3201
479.384	3046
479.461	4175
479.539	3696
479.616	2754
479.694	3550
479.771	4655
479.848	3595
479.926	2541
480.003	4777
480.080	4114
480.157	3801
480.235	3642
480.312	4091
480.389	3890
480.467	4686
480.544	5008
480.621	4865
480.698	5112
480.775	4317
480.853	4555
480.930	4652
481.007	4618
481.084	5133
481.161	6681
481.238	6053
481.315	4656
481.392	4091
481.470	4297
481.547	4249
481.624	4675
481.701	4844
481.778	4171
481.855	4810
481.932	5239
482.009	6185
482.086	5313
482.163	7630
482.240	8065
482.317	7277
482.393	7128
482.470	5945
482.547	6590
482.624	5476
482.701	6343
482.778	5646
482.855	5169
482.932	5723
483.009	6181
483.085	7584
483.162	8320
483.239	9213
483.316	8054
483.393	8687
483.469	6772
483.546	6075
483.623	5751
483.699	6034
483.776	4281
483.853	5501
483.930	5514
484.006	5058
484.083	7588
484.160	6152
484.236	7367
484.313	6384
484.389	6442
484.466	8748
484.543	9043
484.619	11388
484.696	13765
484.772	7775
484.849	6453
484.925	5900
485.002	6004
485.078	5681
485.155	5611
485.231	5083
485.308	4578
485.384	5434
485.461	5228
485.537	4964
485.614	5780
485.690	4595
485.766	5339
485.843	5400
485.919	4665
485.995	4682
486.072	4660
486.148	4139
486.224	4631
486.301	4774
486.377	5413
486.453	4426
486.530	5713
486.606	6331
486.682	5319
486.758	5614
486.835	6531
486.911	5363
486.987	8383
487.063	7479
487.139	10333
487.215	10366
487.292	12030
487.368	12413
487.444	14749
487.520	22302
487.596	36776
487.672	98381
487.748	253276
487.824	351294
487.900	137315
487.976	42440
488.052	22544
488.128	16345
488.204	10347
488.280	9764
488.356	8355
488.432	8393
488.508	8044
488.584	5276
488.660	5547
488.736	6078
488.812	5392
488.888	6175
488.964	5395
489.039	5092
489.115	6147
489.191	6518
489.267	5011
489.343	4532
489.418	5458
489.494	4662
489.570	4280
489.646	5904
489.722	5008
489.797	4462
489.873	5365
489.949	5752
490.024	4916
490.100	4420
490.176	5112
490.251	3865
490.327	4776
490.403	4176
490.478	4896
490.554	5150
490.629	4479
490.705	4588
490.781	4668
490.856	4689
490.932	5039
491.007	4795
491.083	3912
491.158	4029
491.234	4304
491.309	5288
491.385	3660
491.460	2466
491.536	4785
491.611	4406
491.686	4530
491.762	4833
491.837	4998
491.913	4453
491.988	6124
492.063	5376
492.139	4807
492.214	3752
492.289	4459
492.365	2682
492.440	4088
492.515	2678
492.590	4031
492.666	3177
492.741	4025
492.816	3944
492.891	3005
492.967	4072
493.042	3591
493.117	3082
493.192	4449
493.267	4944
493.342	8110
493.418	9228
493.493	3910
493.568	3373
493.643	3659
493.718	4144
493.793	3668
493.868	3980
493.943	3581
494.018	4125
494.093	3110
494.168	3345
494.243	2891
494.318	4137
494.393	4015
494.468	3577
494.543	4080
494.618	3193
494.693	3481
494.768	2991
494.842	2783
494.917	3777
494.992	3586
495.067	4159
495.142	3190
495.217	3193
495.292	2885
495.366	3246
495.441	2853
495.516	3461
495.591	3069
495.665	5719
495.740	6120
495.815	5002
495.890	3008
495.964	891
496.039	5242
496.114	5144
496.188	7207
496.263	5010
496.338	3578
496.412	2935
496.487	3766
496.561	3118
496.636	3703
496.710	3412
496.785	2729
496.860	3819
496.934	2682
497.009	3354
497.083	3800
497.158	2650
497.232	3523
497.307	3990
497.381	3447
497.455	2637
497.530	4483
497.604	3737
497.679	3712
497.753	4230
497.827	3032
497.902	2728
497.976	3870
498.050	7842
498.125	15462
498.199	14490
498.273	5032
498.348	3582
498.422	5173
498.496	2874
498.570	4162
498.645	4103
498.719	2021
498.793	3498
498.867	4185
498.941	4382
499.016	8555
499.090	15178
499.164	6765
499.238	3976
499.312	3783
499.386	3733
499.460	3559
499.534	3518
499.609	3796
499.683	3564
499.757	5064
499.831	5298
499.905	10972
499.979	8800
500.053	3177
500.127	3602
500.201	3116
500.275	3470
500.349	3769
500.422	3018
500.496	4174
500.570	4403
500.644	7231
500.718	9821
500.792	4787
500.866	4563
500.940	4591
501.013	4066
501.087	4001
501.161	4543
501.235	3177
501.309	6985
501.382	9276
501.456	8946
501.530	5114
501.603	4406
501.677	3853
501.751	3014
501.825	5096
501.898	4621
501.972	5589
502.046	4692
502.119	2528
502.193	5794
502.266	6097
502.340	4783
502.413	5232
502.487	4854
502.561	3496
502.634	4063
502.708	3984
502.781	3086
502.855	4817
502.928	3622
503.002	4317
503.075	3443
503.149	3985
503.222	4644
503.295	3865
503.369	5292
503.442	5452
503.516	7586
503.589	10415
503.662	9776
503.736	10775
503.809	13727
503.882	18001
503.956	29643
504.029	65140
504.102	160879
504.175	215617
504.249	94679
504.322	37694
504.395	20288
504.468	12730
504.542	9444
504.615	6173
504.688	6802
504.761	3749
504.834	6393
504.907	5164
504.980	4609
505.053	4286
505.127	2091
505.200	6361
505.273	3508
505.346	4115
505.419	2980
505.492	4333
505.565	2676
505.638	3825
505.711	2972
505.784	2448
505.857	2181
505.930	4427
506.003	1709
506.076	4655
506.149	1688
506.221	1551
506.294	4954
506.367	2315
506.440	5162
506.513	4328
506.586	2670
506.659	2823
506.731	2747
506.804	2252
506.877	1284
506.950	2960
507.022	4545
507.095	1739
507.168	3157
507.241	3463
507.313	1963
507.386	2212
507.459	2988
507.531	2029
507.604	2455
507.677	3310
507.749	809
507.822	3924
507.894	1771
507.967	4221
508.040	2051
508.112	3016
508.185	3325
508.257	1773
508.330	3943
508.402	2756
508.475	2989
508.547	3335
508.620	2417
508.692	3491
508.765	3567
508.837	2502
508.909	2884
508.982	1899
509.054	3269
509.127	1564
509.199	2701
509.271	2042
509.344	1652
509.416	2595
509.488	2733
509.560	3030
509.633	2109
509.705	2033
509.777	3120
509.849	3104
509.922	979
509.994	2451
510.066	3308
510.138	1436
510.210	5267
510.283	2156
510.355	3002
510.427	3353
510.499	3319
510.571	3054
510.643	2885
510.715	3648
510.787	848
510.859	4803
510.931	2172
511.003	3934
511.076	3893
511.148	2596
511.219	1806
511.291	3946
511.363	3156
511.435	2783
511.507	2144
511.579	2783
511.651	3438
511.723	2693
511.795	2944
511.867	2048
511.939	2970
512.010	2650
512.082	3285
512.154	2316
512.226	2658
512.298	3857
512.369	2226
512.441	3438
512.513	3038
512.585	1086
512.656	3628
512.728	3614
512.800	2196
512.871	3969
512.943	2400
513.015	1369
513.086	3034
513.158	2619
513.230	1681
513.301	2043
513.373	3315
513.444	2888
513.516	2921
513.588	2016
513.659	2525
513.731	3382
513.802	1516
513.874	4434
513.945	3090
514.016	2388
514.088	3117
514.159	1712
514.231	4216
514.302	3100
514.374	2750
514.445	1631
514.516	5116
514.588	3165
514.659	2845
514.730	2601
514.802	3828
514.873	1227
514.944	5244
515.016	2773
515.087	2036
515.158	2753
515.229	3897
515.301	1519
515.372	4092
515.443	2429
515.514	2928
515.585	2590
515.656	3681
515.728	3510
515.799	3088
515.870	3209
515.941	2996
516.012	1771
516.083	4880
516.154	2885
516.225	4696
516.296	4345
516.367	4079
516.438	3820
516.509	2587
516.580	6231
516.651	14017
516.722	31481
516.793	15106
516.864	4845
516.935	5065
517.006	5784
517.077	5683
517.148	15160
517.219	52284
517.289	69120
517.360	13030
517.431	6918
517.502	3660
517.573	6007
517.643	3983
517.714	4807
517.785	5029
517.856	5661
517.926	7222
517.997	8402
518.068	7900
518.138	11990
518.209	15539
518.280	48060
518.350	126291
518.421	54378
518.492	22338
518.562	25624
518.633	35798
518.703	59115
518.774	141388
518.845	303577
518.915	256292
518.986	86242
519.056	36756
519.127	23119
519.197	16071
519.268	14933
519.338	12164
519.408	7578
519.479	7709
519.549	5631
519.620	6735
519.690	4830
519.760	5365
519.831	4726
519.901	3723
519.971	4673
520.042	3122
520.112	3855
520.182	4906
520.253	3697
520.323	3486
520.393	2859
520.463	6921
520.534	1214
520.604	7483
520.674	4293
520.744	3693
520.814	3093
520.885	5203
520.955	4335
521.025	7092
521.095	4423
521.165	5137
521.235	3601
521.305	3070
521.375	4717
521.445	4619
521.515	2118
521.585	3468
521.655	1872
521.725	4077
521.795	4899
521.865	1415
521.935	5247
522.005	2956
522.075	3246
522.145	4412
522.215	3608
522.285	4129
522.355	3822
522.424	5432
522.494	3216
522.564	4533
522.634	4330
522.704	6636
522.774	3785
522.843	5103
522.913	4924
522.983	3318
523.053	3172
523.122	4731
523.192	4061
523.262	4219
523.331	3129
523.401	4125
523.471	4428
523.540	4793
523.610	3511
523.680	5117
523.749	3516
523.819	5685
523.888	4880
523.958	3934
524.027	4019
524.097	4169
524.166	4910
524.236	3634
524.305	6608
524.375	4263
524.444	3712
524.514	7055
524.583	3539
524.653	4571
524.722	5475
524.791	3855
524.861	6176
524.930	3984
524.999	5109
525.069	6624
525.138	6230
525.207	5239
525.277	7445
525.346	7002
525.415	9189
525.484	9300
525.554	10378
525.623	13337
525.692	16220
525.761	18381
525.830	23113
525.900	28173
525.969	50208
526.038	99941
526.107	217612
526.176	509107
526.245	362772
526.314	132258
526.383	279975
526.452	349327
526.522	461384
526.591	359060
526.660	79752
526.729	43850
526.797	47451
526.867	77164
526.935	230618
527.004	604769
527.073	352728
527.142	73734
527.211	31562
527.280	20857
527.349	14342
527.418	10517
527.487	10445
527.555	7436
527.624	7937
527.693	6919
527.762	8245
527.831	5640
527.899	6898
527.968	4913
528.037	4220
528.106	6793
528.174	5417
528.243	5958
528.312	5665
528.380	4182
528.449	4140
528.518	6138
528.586	4442
528.655	5290
528.723	4833
528.792	4967
528.861	4028
528.929	4519
528.998	5698
529.066	5354
529.135	6894
529.203	5964
529.272	6959
529.340	9643
529.409	9183
529.477	7180
529.545	6468
529.614	9719
529.682	7674
529.751	9626
529.819	12546
529.887	10905
529.956	10368
530.024	10201
530.092	9132
530.161	10050
530.229	9239
530.297	9555
530.365	10744
530.434	10974
530.502	10557
530.570	10582
530.638	8535
530.707	8852
530.775	9305
530.843	8881
530.911	10235
530.979	8823
531.047	10643
531.115	11044
531.183	9844
531.252	8810
531.320	8627
531.388	8817
531.456	10880
531.524	8999
531.592	11157
531.660	12744
531.728	10264
531.796	10099
531.864	10826
531.932	11337
532.000	10822
532.067	11070
532.135	12071
532.203	13941
532.271	12201
532.339	14784
532.407	13183
532.475	12544
532.542	12956
532.610	11993
532.678	11707
532.746	16695
532.814	18489
532.881	13777
532.949	13100
533.017	12086
533.084	12096
533.152	11148
533.220	11413
533.287	11290
533.355	12512
533.423	11877
533.490	11957
533.558	13094
533.625	12316
533.693	11399
533.761	11583
533.828	12697
533.896	11254
533.963	14769
534.031	13600
534.098	16726
534.166	16701
534.233	15761
534.300	19200
534.368	17378
534.435	16503
534.503	17485
534.570	19485
534.637	21086
534.705	23039
534.772	29674
534.840	66172
534.907	252868
534.974	246225
535.041	40084
535.109	20979
535.176	16948
535.243	17071
535.310	16151
535.378	14597
535.445	15162
535.512	15487
535.579	15640
535.646	13148
535.714	14555
535.781	16044
535.848	16245
535.915	15156
535.982	14643
536.049	14251
536.116	14597
536.183	13234
536.250	13755
536.317	13640
536.384	14581
536.451	14519
536.518	15614
536.585	14051
536.652	15945
536.719	16531
536.786	13138
536.853	14207
536.920	14923
536.987	13100
537.053	12573
537.120	18004
537.187	17714
537.254	15950
537.321	15451
537.388	16695
537.454	15021
537.521	15900
537.588	14699
537.654	16317
537.721	15308
537.788	17295
537.855	15249
537.921	15250
537.988	15354
538.055	15320
538.121	12820
538.188	13097
538.254	13179
538.321	13670
538.388	15214
538.454	16988
538.521	17090
538.587	16771
538.654	15916
538.720	16185
538.787	16779
538.853	15051
538.920	15265
538.986	12961
539.053	13392
539.119	14548
539.185	14838
539.252	16872
539.318	16238
539.385	18274
539.451	14281
539.517	16277
539.583	15498
539.650	16089
539.716	14829
539.782	15700
539.849	13875
539.915	15151
539.981	14150
540.047	14581
540.114	14536
540.180	16855
540.246	14998
540.312	16579
540.378	16642
540.444	17592
540.510	16795
540.576	18165
540.643	15009
540.709	14652
540.775	15032
540.841	14552
540.907	13911
540.973	15555
541.039	14196
541.105	16506
541.171	16510
541.237	16552
541.303	17220
541.369	18666
541.435	17122
541.500	15854
541.566	13827
541.632	14029
541.698	14963
541.764	17103
541.830	14845
541.896	14994
541.961	15694
542.027	15245
542.093	16445
542.159	17583
542.224	14837
542.290	17265
542.356	14689
542.421	16569
542.487	15634
542.553	13337
542.618	14467
542.684	14250
542.750	15778
542.815	15390
542.881	14810
542.947	17916
543.012	17759
543.078	15101
543.143	14433
543.209	15352
543.274	13846
543.340	16841
543.405	16101
543.471	16568
543.536	15859
543.602	16985
543.667	15274
543.732	17728
543.798	17094
543.863	16450
543.928	16083
543.994	15460
544.059	16472
544.124	17336
544.190	17667
544.255	18213
544.320	17442
544.386	17602
544.451	19485
544.516	17295
544.581	16311
544.646	18475
544.712	18995
544.777	18908
544.842	17815
544.907	17552
544.972	19150
545.037	19256
545.102	19682
545.168	19721
545.233	20601
545.298	21400
545.363	20061
545.428	22116
545.493	22120
545.558	20939
545.623	22031
545.688	21385
545.753	22786
545.818	23069
545.883	25852
545.947	24289
546.012	26471
546.077	25732
546.142	29378
546.207	29645
546.272	31342
546.337	31637
546.401	32838
546.466	34597
546.531	35824
546.596	38885
546.661	40345
546.725	42254
546.790	43708
546.855	49145
546.919	51842
546.984	59162
547.049	63105
547.113	71169
547.178	79783
547.243	89768
547.307	104771
547.372	113905
547.436	114486
547.501	120094
547.565	126465
547.630	115662
547.695	114048
547.759	115239
547.823	114865
547.888	117011
547.952	120069
548.017	125063
548.081	128816
548.146	124800
548.210	130741
548.274	142234
548.339	135956
548.403	124334
548.468	119686
548.532	117653
548.596	120391
548.660	120799
548.725	132356
548.789	141748
548.853	136748
548.917	131733
548.982	126370
549.046	113028
549.110	103660
549.174	109548
549.238	128677
549.303	139779
549.367	143260
549.431	135796
549.495	126615
549.559	129241
549.623	150426
549.687	157108
549.751	156008
549.815	186353
549.879	184676
549.943	181539
550.007	188865
550.071	183643
550.135	166999
550.199	161965
550.263	159281
550.327	150985
550.391	156668
550.455	171498
550.519	179681
550.582	190080
550.646	210849
550.710	215033
550.774	207224
550.838	215667
550.901	220630
550.965	231575
551.029	244524
551.093	260649
551.156	283267
551.220	311411
551.284	315632
551.347	261385
551.411	229390
551.475	223433
551.538	230728
551.602	216180
551.666	204942
551.729	192912
551.793	190385
551.856	187515
551.920	185626
551.983	184412
552.047	182167
552.110	186966
552.174	187528
552.237	190330
552.301	178459
552.364	169805
552.428	167233
552.491	172119
552.554	172642
552.618	174161
552.681	175839
552.745	167656
552.808	175799
552.871	182761
552.934	180233
552.998	174136
553.061	172053
553.124	167546
553.187	165893
553.251	170667
553.314	169852
553.377	173171
553.440	183354
553.503	190770
553.567	189904
553.630	185505
553.693	184325
553.756	185607
553.819	181235
553.882	176002
553.945	177371
554.008	177212
554.071	179720
554.134	180110
554.197	170322
554.260	166912
554.323	170527
554.386	173123
554.449	179818
554.512	178859
554.575	173125
554.638	172548
554.701	171188
554.764	170498
554.827	164049
554.889	158826
554.952	149245
555.015	149769
555.078	150213
555.141	152201
555.203	148580
555.266	150415
555.329	147876
555.391	142489
555.454	141124
555.517	136225
555.580	132214
555.642	127902
555.705	127501
555.768	125253
555.830	121408
555.893	116086
555.955	113040
556.018	113454
556.080	112897
556.143	115923
556.206	112515
556.268	110798
556.330	108707
556.393	105808
556.455	101971
556.518	101100
556.580	98823
556.643	93872
556.705	92281
556.767	89661
556.830	90307
556.892	87705
556.955	87141
557.017	84638
557.079	85348
557.142	82245
557.204	81216
557.266	80847
557.328	75633
557.391	71124
557.453	70097
557.515	69445
557.577	71967
557.639	71037
557.701	70348
557.764	69719
557.826	69589
557.888	71299
557.950	72155
558.012	77809
558.074	100293
558.136	212900
558.198	374071
558.260	139654
558.322	75200
558.384	72123
558.446	73795
558.508	77372
558.570	83314
558.632	93849
558.694	119502
558.756	205666
558.818	516168
558.880	762288
558.942	401331
559.003	412782
559.065	185833
559.127	92832
559.189	85132
559.251	93209
559.312	135210
559.374	310056
559.436	634436
559.498	309051
559.559	105722
559.621	83643
559.683	95276
559.744	158974
559.806	423837
559.868	460690
559.929	134451
559.991	97108
560.052	166440
560.114	375572
560.176	220035
560.237	254448
560.299	310787
560.360	80228
560.422	40977
560.483	36975
560.545	34414
560.606	33496
560.667	32326
560.729	30176
560.790	29133
560.852	28707
560.913	27602
560.974	27195
561.036	26805
561.097	26360
561.158	25540
561.220	26670
561.281	24831
561.342	24281
561.403	25198
561.465	23567
561.526	24265
561.587	24574
561.648	22371
561.709	22869
561.771	22059
561.832	22350
561.893	21128
561.954	21239
562.015	22067
562.076	21070
562.137	21081
562.198	20197
562.259	20574
562.320	21254
562.381	20718
562.442	20566
562.503	19675
562.564	19211
562.625	18897
562.686	19205
562.747	18178
562.808	18846
562.869	18152
562.930	17750
562.991	18382
563.051	17068
563.112	17627
563.173	16301
563.234	17435
563.294	17448
563.355	17125
563.416	17414
563.477	16720
563.537	16466
563.598	17170
563.659	16735
563.720	15807
563.780	16602
563.841	16199
563.901	17527
563.962	16375
564.023	16498
564.083	15861
564.144	16153
564.204	15031
564.265	14726
564.325	15030
564.386	15842
564.446	15329
564.507	14127
564.567	13847
564.628	15271
564.688	14822
564.749	15283
564.809	14984
564.869	15513
564.930	14360
564.990	15029
565.050	14259
565.111	13806
565.171	14508
565.231	14628
565.292	14711
565.352	14179
565.412	14702
565.472	14370
565.532	14915
565.593	14095
565.653	13659
565.713	14659
565.773	14383
565.833	15159
565.893	14917
565.953	13132
566.013	12765
566.074	12720
566.134	13625
566.194	13663
566.254	13815
566.314	13275
566.374	12780
566.434	13156
566.494	12689
566.554	12757
566.614	12681
566.673	14129
566.733	15086
566.793	14207
566.853	13862
566.913	14257
566.973	14081
567.033	14798
567.092	14048
567.152	13480
567.212	14120
567.272	14627
567.331	14652
567.391	14481
567.451	15023
567.511	16256
567.570	15135
567.630	14162
567.690	13921
567.749	13225
567.809	14386
567.868	13837
567.928	14129
567.988	13834
568.047	14611
568.107	14536
568.166	14555
568.226	16057
568.285	15912
568.345	16022
568.404	15645
568.464	15433
568.523	14640
568.582	15139
568.642	14536
568.701	15029
568.761	14062
568.820	15904
568.879	15522
568.939	16209
568.998	15341
569.057	14590
569.116	13848
569.176	14306
569.235	13910
569.294	14558
569.353	13164
569.413	12947
569.472	12887
569.531	13500
569.590	13088
569.649	13237
569.708	13374
569.767	13319
569.827	13072
569.886	13426
569.945	12381
570.004	12975
570.063	12733
570.122	13244
570.181	13513
570.240	13955
570.299	13721
570.358	13618
570.417	13801
570.475	14627
570.534	14068
570.593	14324
570.652	14478
570.711	14291
570.770	12935
570.829	13636
570.887	14165
570.946	14328
571.005	12998
571.064	14199
571.122	13267
571.181	13540
571.240	13852
571.299	14207
571.357	12033
571.416	12469
571.475	12030
571.533	14212
571.592	15237
571.650	15219
571.709	14042
571.768	17292
571.826	16938
571.885	16565
571.943	14665
572.002	14379
572.060	13313
572.119	14198
572.177	12758
572.236	13707
572.294	14024
572.352	14676
572.411	14331
572.469	14184
572.528	13917
572.586	13190
572.644	13277
572.703	13185
572.761	12731
572.819	12753
572.877	12024
572.936	12233
572.994	11396
573.052	12253
573.110	12275
573.169	13263
573.227	13547
573.285	13063
573.343	12964
573.401	12197
573.459	13071
573.517	13722
573.576	14136
573.634	13420
573.692	13098
573.750	12448
573.808	12467
573.866	12295
573.924	11643
573.982	11778
574.040	12513
574.098	11924
574.155	12765
574.213	12772
574.271	11927
574.329	12579
574.387	12536
574.445	11171
574.503	10332
574.560	11268
574.618	10727
574.676	10296
574.734	10764
574.792	11086
574.849	9615
574.907	9071
574.965	9472
575.022	9470
575.080	8297
575.138	9313
575.195	9077
575.253	9883
575.311	9248
575.368	8031
575.426	8779
575.483	9341
575.541	9801
575.598	9708
575.656	8768
575.713	10118
575.771	10313
575.828	9014
575.886	9578
575.943	9052
576.001	7600
576.058	8217
576.115	8959
576.173	9257
576.230	9548
576.287	9857
576.345	9214
576.402	9263
576.459	9371
576.517	8588
576.574	8579
576.631	9062
576.688	7760
576.746	7839
576.803	7710
576.860	7941
576.917	7595
576.974	8633
577.031	8457
577.089	8608
577.146	7560
577.203	7359
577.260	8364
577.317	7789
577.374	8643
577.431	7491
577.488	7305
577.545	7788
577.602	7933
577.659	8101
577.716	7738
577.773	8256
577.830	8088
577.886	7797
577.943	7146
578.000	7024
578.057	7182
578.114	7585
578.171	7762
578.227	7461
578.284	7882
578.341	8365
578.398	8031
578.454	7210
578.511	8012
578.568	7747
578.625	7414
578.681	8257
578.738	7722
578.794	7591
578.851	8390
578.908	7698
578.964	6520
579.021	9187
579.077	7311
579.134	7935
579.190	8490
579.247	7694
579.303	6905
579.360	6771
579.416	7408
579.473	8031
579.529	7293
579.586	7425
579.642	8134
579.698	8128
579.755	7663
579.811	8308
579.867	8608
579.924	7637
579.980	7319
580.036	8069
580.093	8469
580.149	9170
580.205	8831
580.261	9123
580.317	8859
580.374	9603
580.430	9705
580.486	9369
580.542	8354
580.598	9127
580.619	9032
580.654	8877
580.692	8143
580.710	7795
580.765	8984
580.767	9031
580.823	9182
580.838	9033
580.879	8683
580.911	9229
580.935	9656
580.984	8618
580.991	8489
581.047	9771
581.057	9638
581.103	9049
581.130	8924
581.159	8827
581.203	9422
581.215	9596
581.270	8887
581.276	8836
581.326	8376
581.349	8424
581.382	8518
581.422	8648
581.438	8721
581.494	8897
581.494	8888
581.550	8618
581.567	8640
581.606	8721
581.640	8655
581.661	8623
581.713	9106
581.717	9151
581.773	8878
581.786	8888
581.829	8909
581.859	8638
581.885	8457
581.932	8483
581.940	8481
581.996	9480
582.004	9395
582.052	8978
582.077	8586
582.107	8191
582.150	9149
582.163	9426
582.219	8811
582.223	8812
582.274	8866
582.296	8911
582.330	8991
582.368	8572
582.386	8406
582.441	8682
582.441	8684
582.497	8880
582.514	8800
582.552	8806
582.587	9113
582.608	9266
582.659	8738
582.663	8687
582.719	9537
582.732	9460
582.774	9404
582.805	9216
582.830	9007
582.877	9550
582.885	9659
582.941	9437
582.950	9531
582.996	9771
583.023	10243
583.052	10993
583.095	10275
583.107	10004
583.162	10139
583.168	10090
583.218	9692
583.240	9451
583.273	9093
583.313	8980
583.328	9002
583.384	9409
583.385	9388
583.439	8411
583.458	8419
583.494	8681
583.531	8833
583.549	8867
583.603	8853
583.605	8853
583.660	8886
583.676	9112
583.715	9546
583.748	8976
583.770	8632
583.820	8401
583.825	8368
583.881	8551
583.893	8455
583.936	8517
583.965	8802
583.991	8706
584.038	8426
584.046	8442
584.101	8595
584.110	8648
584.156	8789
584.183	8963
584.211	9218
584.255	8953
584.266	8869
584.321	9621
584.328	9547
584.376	8951
584.400	9440
584.431	10040
584.472	9773
584.486	9721
584.541	9769
584.545	9777
584.596	9768
584.617	10052
584.651	10749
584.689	11530
584.706	11608
584.761	11031
584.762	11035
584.816	11774
584.834	11998
584.871	12290
584.906	12651
584.926	12931
584.978	13340
584.980	13345
585.035	14473
585.051	14650
585.090	15387
585.123	16601
585.145	17283
585.195	18123
585.200	18265
585.254	20396
585.267	21150
585.309	23397
585.340	25444
585.364	27406
585.412	32112
585.419	32865
585.473	40651
585.484	43462
585.528	58109
585.556	73970
585.583	98114
585.628	161404
585.637	181904
585.692	366472
585.700	387137
585.747	451599
585.772	389056
585.801	254773
585.845	110128
585.856	89911
585.910	46125
585.917	42213
585.965	31082
585.989	27501
586.019	24286
586.061	20895
586.074	20265
586.128	18576
586.133	18577
586.183	17988
586.205	17268
586.237	16512
586.277	16108
586.292	15982
586.346	15842
586.349	15805
586.401	15416
586.421	15553
586.455	15343
586.493	15447
586.509	15688
586.564	15432
586.565	15455
586.618	16334
586.637	16992
586.672	18948
586.709	21290
586.727	22321
586.781	24571
586.781	24559
586.835	20409
586.853	19203
586.889	16994
586.925	15475
586.944	15075
586.996	15339
586.998	15347
587.052	15102
587.068	15128
587.106	14911
587.140	14706
587.161	14712
587.212	14610
587.215	14616
587.269	15477
587.284	15577
587.323	15363
587.356	15587
587.377	16101
587.427	17181
587.431	17170
587.485	16178
587.499	16164
587.539	16788
587.571	17348
587.593	17645
587.643	18391
587.648	18450
587.702	18481
587.715	18656
587.755	19321
587.786	19544
587.810	19308
587.858	18629
587.864	18602
587.917	19124
587.930	19166
587.971	19335
588.001	19346
588.025	19351
588.073	19992
588.079	20084
588.133	20212
588.145	20319
588.187	20540
588.217	20907
588.241	21402
588.288	22206
588.295	22213
588.348	22469
588.360	22480
588.402	23114
588.431	23896
588.456	24696
588.503	25876
588.510	26095
588.564	28529
588.575	29081
588.617	30928
588.646	32408
588.671	34125
588.718	38161
588.725	39177
588.778	49840
588.789	52895
588.832	79420
588.861	101428
588.886	141328
588.932	224747
588.939	232489
588.993	267471
589.004	267954
589.047	158795
589.075	91556
589.100	71001
589.147	42576
589.154	41386
589.207	35275
589.218	34299
589.261	34508
589.290	35334
589.314	36465
589.361	39695
589.368	41085
589.421	55181
589.433	59098
589.475	98905
589.504	131715
589.528	171841
589.576	241986
589.582	234022
589.635	130269
589.647	109571
589.689	63137
589.718	35283
589.742	31471
589.790	25517
589.795	25248
589.849	23415
589.861	23134
589.902	22659
589.932	22073
589.955	21504
590.004	20649
590.009	20642
590.062	21003
590.075	20966
590.115	20410
590.146	20195
590.168	19895
590.218	19212
590.222	19237
590.275	19841
590.289	20035
590.328	20622
590.360	20978
590.381	21061
590.431	21451
590.435	21433
590.488	21223
590.503	21110
590.541	21063
590.574	21153
590.594	21290
590.645	21840
590.647	21902
590.700	23745
590.716	24280
590.753	24416
590.787	24668
590.806	24389
590.859	23602
590.859	23607
590.912	24811
590.930	25293
590.965	25372
591.001	25290
591.018	25148
591.071	24744
591.072	24749
591.124	25024
591.143	25194
591.177	24534
591.214	23726
591.230	24105
591.283	25565
591.285	25626
591.336	24971
591.356	24732
591.389	25060
591.427	25437
591.442	25140
591.495	23979
591.498	23919
591.547	24907
591.569	25372
591.600	25408
591.640	25353
591.653	25421
591.706	25780
591.711	25830
591.759	26061
591.782	26249
591.811	27002
591.853	28038
591.864	28082
591.917	28425
591.924	28470
591.969	28681
591.995	28848
592.022	28465
592.066	27770
592.075	27950
592.127	29293
592.137	29546
592.180	29928
592.208	30160
592.233	30533
592.279	31309
592.285	31364
592.338	31941
592.350	32071
592.390	31848
592.421	31702
592.443	32032
592.491	32858
592.495	32827
592.548	32649
592.562	32626
592.600	32332
592.633	32123
592.653	32114
592.704	31985
592.705	32195
592.775	33683
592.846	34192
592.916	34645
592.987	33695
593.058	35130
593.128	35841
593.199	34938
593.270	36626
593.341	36120
593.411	37395
593.482	38761
593.553	41388
593.623	39516
593.694	42016
593.764	42288
593.835	43029
593.906	42056
593.976	43383
594.047	44232
594.117	47640
594.188	48418
594.258	48931
594.329	46867
594.399	50082
594.470	50042
594.540	52079
594.611	52943
594.681	53987
594.751	53368
594.822	56647
594.892	56372
594.963	58724
595.033	60732
595.103	62213
595.174	63370
595.244	64342
595.314	66941
595.384	68728
595.455	70075
595.525	72028
595.595	74216
595.665	75409
595.736	72072
595.806	73380
595.876	75102
595.946	76439
596.016	79994
596.087	81485
596.157	81458
596.227	80858
596.297	87456
596.367	93087
596.437	96830
596.507	97047
596.577	95854
596.647	100680
596.717	103231
596.787	106591
596.857	106221
596.927	107427
596.997	106470
597.067	107340
597.137	109353
597.207	110783
597.277	111409
597.347	108931
597.417	102904
597.487	105592
597.557	106851
597.626	108806
597.696	109892
597.766	110209
597.836	103834
597.906	98754
597.975	97089
598.045	100362
598.115	103404
598.185	111187
598.254	122715
598.324	133952
598.394	135588
598.464	130499
598.533	127414
598.603	122028
598.672	117289
598.742	120326
598.812	120496
598.881	124391
598.951	121590
599.020	125860
599.090	128703
599.159	130695
599.229	126155
599.299	124419
599.368	126813
599.437	125501
599.507	116521
599.576	112419
599.646	109375
599.715	109531
599.785	110226
599.854	106199
599.924	103918
599.993	104445
600.062	107057
600.132	110245
600.201	115747
600.270	133725
600.340	139657
600.409	137107
600.478	134677
600.547	139645
600.617	126367
600.686	103434
600.755	93382
600.824	90685
600.894	87701
600.963	90275
601.032	87267
601.101	85085
601.170	82521
601.239	78399
601.308	79262
601.378	80375
601.447	80408
601.516	81522
601.585	83113
601.654	84304
601.723	82997
601.792	86473
601.861	87707
601.930	91123
601.999	93721
602.068	91175
602.137	94473
602.206	94788
602.275	96516
602.343	96777
602.412	98208
602.481	98812
602.550	98923
602.619	102805
602.688	102481
602.756	103273
602.825	104976
602.894	107891
602.963	108524
603.032	110073
603.100	110273
603.169	111175
603.238	111134
603.307	111463
603.375	113038
603.444	115427
603.513	115473
603.581	117187
603.650	118613
603.719	116328
603.787	117176
603.856	121567
603.924	123091
603.993	127385
604.061	131267
604.130	137438
604.198	141156
604.267	142677
604.335	142628
604.404	145217
604.472	146454
604.541	148636
604.609	150337
604.678	151658
604.746	151488
604.815	157359
604.883	155950
604.951	157800
605.020	160285
605.088	161760
605.156	164877
605.225	166692
605.293	167264
605.361	167801
605.429	167798
605.498	172982
605.566	176341
605.634	184534
605.702	191238
605.771	195279
605.839	194215
605.907	191498
605.975	184866
606.043	182577
606.111	181187
606.180	182267
606.248	178967
606.316	177327
606.384	177239
606.452	177323
606.520	178721
606.588	184975
606.656	185786
606.724	182846
606.792	171367
606.860	157763
606.928	144143
606.996	138033
607.064	137547
607.132	140851
607.200	148721
607.267	153595
607.335	155898
607.403	160161
607.471	152540
607.539	149171
607.607	149568
607.674	133910
607.742	133131
607.810	132573
607.878	133139
607.946	136267
608.013	141357
608.081	144227
608.149	143480
608.216	150470
608.284	155039
608.352	154146
608.419	153246
608.487	151571
608.555	148093
608.622	153279
608.690	161753
608.757	176813
608.825	178730
608.893	176663
608.960	165820
609.028	159722
609.095	157434
609.163	158243
609.230	143149
609.298	132208
609.365	139306
609.432	152147
609.500	162289
609.567	182081
609.635	206628
609.702	214758
609.769	204683
609.837	163451
609.904	143089
609.971	147831
610.039	163790
610.106	196012
610.173	312129
610.241	593413
610.308	381962
610.375	184639
610.442	155596
610.509	148849
610.577	149796
610.644	149382
610.711	155986
610.778	159715
610.845	164554
610.912	175125
610.980	180174
611.047	179772
611.114	177308
611.181	174040
611.248	172037
611.315	181066
611.382	185524
611.449	190791
611.516	193790
611.583	192366
611.650	192235
611.717	195554
611.784	200267
611.851	207095
611.918	219212
611.984	246786
612.051	306914
612.118	484475
612.185	888250
612.252	652034
612.319	298053
612.386	253008
612.452	232158
612.519	220295
612.586	215098
612.653	217297
612.719	224282
612.786	217371
612.853	202625
612.919	200025
612.986	202245
613.053	193485
613.120	180433
613.186	174219
613.253	175018
613.319	176767
613.386	177749
613.453	180660
613.519	180240
613.586	175946
613.652	179989
613.719	178043
613.785	180359
613.852	183125
613.918	180131
613.985	184121
614.051	190605
614.118	188808
614.184	180082
614.250	181780
614.317	185459
614.383	181320
614.449	187551
614.516	184139
614.582	184813
614.648	183491
614.715	181616
614.781	178749
614.847	177599
614.914	178339
614.980	174512
615.046	174318
615.112	177974
615.179	179410
615.245	181180
615.311	179575
615.377	181589
615.443	183515
615.509	182851
615.575	191800
615.642	189062
615.708	196808
615.774	203056
615.840	213049
615.906	224470
615.972	258533
616.038	340200
616.104	562349
616.170	968732
616.236	850395
616.302	394827
616.368	311656
616.434	242938
616.500	223858
616.565	242096
616.631	289087
616.697	252907
616.763	254258
616.829	340520
616.895	536126
616.961	516253
617.026	275120
617.092	206048
617.158	193318
617.224	188107
617.289	176372
617.355	167083
617.421	165862
617.487	165728
617.552	159138
617.618	156640
617.684	156606
617.749	160249
617.815	152755
617.880	150184
617.946	150096
618.012	152167
618.077	155606
618.143	149784
618.208	150443
618.274	158522
618.339	159988
618.405	136426
618.470	137979
618.536	136259
618.601	134214
618.667	125328
618.732	123069
618.798	119546
618.863	120224
618.928	118519
618.994	121540
619.059	119581
619.124	122565
619.190	117852
619.255	118526
619.320	118983
619.386	120746
619.451	118165
619.516	115607
619.581	117323
619.647	119151
619.712	120723
619.777	116565
619.842	117176
619.907	118140
619.972	120530
620.038	118263
620.103	116514
620.168	116545
620.233	119309
620.298	119395
620.363	121611
620.428	123727
620.493	125304
620.558	128303
620.623	128955
620.688	129034
620.753	126613
620.818	129887
620.883	130454
620.948	130733
621.013	128658
621.078	127263
621.143	126737
621.207	130513
621.272	126240
621.337	125900
621.402	124366
621.467	122648
621.532	122565
621.596	123204
621.661	120745
621.726	121022
621.791	120301
621.855	121715
621.920	119828
621.985	121911
622.049	123703
622.114	123901
622.179	123237
622.243	126555
622.308	130977
622.373	136137
622.437	131276
622.502	127680
622.566	125163
622.631	124468
622.695	127328
622.760	126060
622.824	126468
622.889	126283
622.953	125568
623.018	132359
623.082	133516
623.147	131930
623.211	129552
623.276	129839
623.340	124361
623.404	124413
623.469	123525
623.533	124442
623.597	120193
623.662	120341
623.726	113757
623.790	107711
623.854	106010
623.919	106764
623.983	106999
624.047	109437
624.111	111163
624.176	111826
624.240	111705
624.304	114746
624.368	110839
624.432	112582
624.496	114054
624.560	119295
624.625	118778
624.689	118722
624.753	123508
624.817	118128
624.881	114811
624.945	106558
625.009	102563
625.073	105457
625.137	105696
625.201	110975
625.265	109850
625.329	105694
625.393	107965
625.456	106096
625.520	111478
625.584	111408
625.648	112405
625.712	114306
625.776	113212
625.839	109998
625.903	95159
625.967	89349
626.031	95567
626.095	107393
626.158	101450
626.222	82463
626.286	78424
626.349	74445
626.413	70328
626.477	71283
626.540	71837
626.604	69807
626.668	70350
626.731	67997
626.795	67833
626.858	67005
626.922	66507
626.986	65772
627.049	64632
627.113	68677
627.176	65033
627.240	64736
627.303	64084
627.366	62436
627.430	63358
627.493	62967
627.557	61264
627.620	63785
627.684	65624
627.747	65128
627.810	58814
627.874	55326
627.937	51945
628.000	56236
628.064	51890
628.127	47369
628.190	47399
628.253	46198
628.317	42769
628.380	42550
628.443	40466
628.506	40971
628.569	39104
628.632	37283
628.696	38120
628.759	37406
628.822	35933
628.885	34966
628.948	34343
629.011	33660
629.074	32112
629.137	32101
629.200	30222
629.263	31957
629.326	29438
629.389	30485
629.452	29883
629.515	29275
629.578	27778
629.641	29599
629.704	27711
629.767	28610
629.830	28197
629.892	27669
629.955	26443
630.018	28768
630.081	26526
630.144	28233
630.207	24929
630.269	27767
630.332	25078
630.395	25880
630.458	24673
630.520	22829
630.583	23893
630.646	25294
630.708	24154
630.771	24932
630.834	27587
630.896	26156
630.959	26020
631.021	25897
631.084	24895
631.146	25145
631.209	24595
631.272	24415
631.334	24712
631.397	26668
631.459	25470
631.522	27653
631.584	27142
631.646	29126
631.709	29530
631.771	29768
631.834	27817
631.896	27096
631.958	24978
632.021	26692
632.083	23754
632.145	24568
632.208	23080
632.270	24719
632.332	22367
632.395	23035
632.457	23962
632.519	22632
632.581	24295
632.643	22543
632.706	23222
632.768	22312
632.830	23010
632.892	23868
632.954	22961
633.016	23933
633.078	21312
633.141	23673
633.203	22954
633.265	23069
633.327	22871
633.389	23492
633.451	23415
633.513	23023
633.575	24467
633.637	23262
633.698	23914
633.760	25682
633.822	25952
633.884	27806
633.946	26757
634.008	27710
634.070	27465
634.132	30170
634.193	30818
634.255	34381
634.317	34046
634.379	34036
634.441	30287
634.502	26883
634.564	26202
634.626	24454
634.687	23821
634.749	22607
634.811	22903
634.873	22477
634.934	22164
634.996	23414
635.057	21798
635.119	22186
635.181	23265
635.242	24281
635.304	21732
635.365	25633
635.427	22610
635.488	23864
635.550	21807
635.611	24849
635.673	21909
635.734	25837
635.796	25945
635.857	30064
635.918	29997
635.980	33912
636.041	34109
636.102	36118
636.164	36202
636.225	36233
636.286	29326
636.348	29284
636.409	25684
636.470	24999
636.531	23196
636.593	23402
636.654	23105
636.715	21097
636.776	20392
636.838	20507
636.899	20431
636.960	20054
637.021	19022
637.082	20113
637.143	18503
637.204	18456
637.265	18529
637.326	20348
637.387	20390
637.448	17952
637.509	19199
637.570	19523
637.631	20199
637.692	18701
637.753	16344
637.814	18436
637.875	17559
637.936	19053
637.997	17683
638.058	17434
638.119	18175
638.179	18421
638.240	18263
638.301	17591
638.362	17162
638.423	16785
638.483	18938
638.544	16509
638.605	17351
638.666	16346
638.726	16687
638.787	17954
638.848	16372
638.908	16908
638.969	16586
639.030	16005
639.090	14272
639.151	15404
639.211	17267
639.272	17064
639.332	17664
639.393	18098
639.453	17301
639.514	18789
639.574	16632
639.635	15547
639.695	15918
639.756	15197
639.816	16006
639.877	15370
639.937	16263
639.997	15361
640.058	14863
640.118	15556
640.178	16277
640.239	15556
640.299	15279
640.359	16046
640.420	16737
640.480	18211
640.540	19635
640.600	20481
640.661	19257
640.721	17072
640.781	18332
640.841	15616
640.901	15971
640.961	16931
641.021	16674
641.082	17098
641.142	15662
641.202	17583
641.262	13381
641.322	15850
641.382	13984
641.442	15624
641.502	14283
641.562	15152
641.622	14868
641.682	16520
641.742	17876
641.802	17849
641.861	15090
641.921	14505
641.981	14061
642.041	14388
642.101	13334
642.161	13160
642.221	13366
642.280	14548
642.340	13717
642.400	13298
642.460	14714
642.519	13922
642.579	14432
642.639	14785
642.698	12558
642.758	16286
642.818	14542
642.877	13959
642.937	13583
642.997	15642
643.056	13941
643.116	12446
643.175	15151
643.235	14426
643.294	14953
643.354	17377
643.414	18350
643.473	21520
643.532	24891
643.592	33641
643.651	47858
643.711	75141
643.770	132681
643.830	283576
643.889	517735
643.948	180834
644.008	45991
644.067	28105
644.126	21540
644.186	19228
644.245	18010
644.304	15643
644.363	16471
644.423	14392
644.482	15658
644.541	17430
644.600	15522
644.659	22031
644.719	24587
644.778	35352
644.837	55005
644.896	106420
644.955	229785
645.014	88169
645.073	23771
645.132	18649
645.191	16983
645.250	16386
645.309	18690
645.368	20407
645.427	24139
645.486	37872
645.545	66300
645.604	23092
645.663	14996
645.722	15681
645.781	16566
645.840	18790
645.898	22133
645.957	31196
646.016	42280
646.075	70795
646.134	125489
646.192	293208
646.251	416260
646.310	97171
646.369	32666
646.427	26741
646.486	20223
646.545	15966
646.603	15512
646.662	14597
646.721	13982
646.779	14427
646.838	13800
646.896	18626
646.955	22605
647.014	33830
647.072	61153
647.131	159739
647.189	84945
647.248	17499
647.306	13157
647.365	12411
647.423	9760
647.481	12243
647.540	8938
647.598	10861
647.657	10301
647.715	10354
647.773	9207
647.832	10125
647.890	7758
647.948	8957
648.007	9275
648.065	8372
648.123	8332
648.181	8783
648.240	8203
648.298	8001
648.356	7808
648.414	9075
648.472	7344
648.531	8113
648.589	7705
648.647	8551
648.705	8360
648.763	7929
648.821	8510
648.879	9116
648.937	10183
648.995	12595
649.053	14625
649.111	23193
649.169	33461
649.227	57109
649.285	112953
649.343	291811
649.401	158946
649.459	27011
649.516	15556
649.574	11560
649.632	12164
649.690	14603
649.748	18094
649.806	23946
649.863	43113
649.921	117654
649.979	84374
650.037	14515
650.094	7222
650.152	8149
650.210	6231
650.268	7158
650.325	5346
650.383	7969
650.440	5083
650.498	6771
650.556	5305
650.613	4953
650.671	5858
650.728	5171
650.786	6046
650.843	8931
650.901	5292
650.958	6496
651.016	5229
651.073	4781
651.131	4519
651.188	4379
651.246	4763
651.303	4191
651.360	3821
651.418	4690
651.475	4171
651.532	3759
651.590	4758
651.647	3909
651.704	3340
651.762	5070
651.819	3315
651.876	4173
651.933	3218
651.990	4661
652.048	2296
652.105	3970
652.162	3260
652.219	2687
652.276	3929
652.333	3606
652.390	1728
652.448	3349
652.505	3047
652.562	3145
652.619	2315
652.676	4100
652.733	3233
652.790	3489
652.847	1931
652.904	3557
652.961	1972
653.017	2887
653.074	3283
653.131	3302
653.188	1955
653.245	3985
653.302	2360
653.359	2489
653.415	2910
653.472	2756
653.529	3278
653.586	2611
653.642	3116
653.699	3919
653.756	2254
653.813	2848
653.869	3889
653.926	3042
653.983	2185
654.039	3579
654.096	2312
654.152	4131
654.209	932
654.266	3397
654.322	1663
654.379	3179
654.435	3041
654.492	3291
654.548	2603
654.605	2525
654.661	2740
654.717	2635
654.774	3314
654.830	3164
654.887	3043
654.943	3052
655.000	3310
655.056	2929
655.112	3025
655.168	2241
655.225	2272
655.281	2605
655.337	2727
655.394	1967
655.450	2688
655.506	1430
655.562	1611
655.618	3304
655.675	1473
655.731	3361
655.787	2303
655.843	3415
655.899	874
655.955	3019
656.011	2536
656.067	1977
656.123	2183
656.179	3011
656.235	3343
656.291	1481
656.347	2600
656.403	2338
656.459	1260
656.515	2873
656.571	2579
656.627	2804
656.683	2700
656.739	3072
656.795	2461
656.850	2705
656.906	3204
656.962	2967
657.018	2132
657.074	3277
657.129	5214
657.185	9571
657.241	19590
657.297	12450
657.352	3515
657.408	1880
657.464	2607
657.519	2951
657.575	1382
657.630	2230
657.686	1412
657.742	1518
657.797	1760
657.853	2375
657.908	2018
657.964	2222
658.019	2056
658.075	1812
658.130	1777
658.186	1205
658.241	2382
658.297	1296
658.352	1384
658.407	2844
658.463	406
658.518	2705
658.573	737
658.629	2147
658.684	1504
658.739	2737
658.795	695
658.850	2122
658.905	824
658.960	2495
659.016	755
659.071	1338
659.126	1553
659.181	1877
659.236	1944
659.291	2967
659.346	716
659.401	2158
659.457	1897
659.512	1822
659.567	2764
659.622	2137
659.677	1407
659.732	1332
659.787	1082
659.842	1530
659.897	1178
659.952	3189
660.007	1381
660.061	1553
660.116	830
660.171	1607
660.226	1496
660.281	2099
660.336	1211
660.391	1973
660.445	845
660.500	1085
660.555	1034
660.610	1065
660.664	1863
660.719	1123
660.774	1219
660.828	2967
660.883	1660
660.938	2541
660.992	1172
661.047	1822
661.101	1463
661.156	1348
661.211	304
661.265	1482
661.320	1902
661.374	1619
661.429	766
661.483	2286
661.538	309
661.592	1752
661.647	1329
661.701	1709
661.755	1604
661.810	1853
661.864	539
661.919	1144
661.973	1991
662.027	1049
662.081	348
662.136	1669
662.190	1414
662.244	1873
662.299	447
662.353	1977
662.407	1049
662.461	1250
662.515	1185
662.569	838
662.624	1739
662.678	1331
662.732	1061
662.786	1137
662.840	1278
662.894	2003
662.948	1117
663.002	977
663.056	1811
663.110	1529
663.164	801
663.218	1781
663.272	1397
663.326	1367
663.380	982
663.434	1670
663.488	217
663.542	1694
663.595	979
663.649	1710
663.703	905
663.757	1814
663.811	1038
663.864	1467
663.918	872
663.972	907
664.026	1436
664.079	979
664.133	1397
664.187	1650
664.240	1691
664.294	1917
664.348	1457
664.401	1813
664.455	1449
664.508	1243
664.562	1116
664.615	1134
664.669	1007
664.722	1817
664.776	1090
664.829	1512
664.883	294
664.936	1340
664.990	513
665.043	1555
665.097	1297
665.150	2136
665.203	740
665.257	1398
665.310	1247
665.363	1193
665.417	1511
665.470	981
665.523	962
665.576	2309
665.630	1023
665.683	1529
665.736	1762
665.789	1770
665.842	413
665.895	964
665.949	973
666.002	1488
666.055	996
666.108	2541
666.161	1066
666.214	1844
666.267	1732
666.320	1810
666.373	1050
666.426	1720
666.479	1702
666.532	1640
666.585	978
666.638	2121
666.691	1120
666.744	1941
666.796	303
666.849	1550
666.902	754
666.955	1772
667.008	1113
667.060	1165
667.113	1940
667.166	1888
667.219	1257
667.271	1757
667.324	977
667.377	2565
667.430	1540
667.482	1531
667.535	1477
667.587	1973
667.640	1073
667.693	1661
667.745	605
667.798	1680
667.850	987
667.903	1828
667.955	2397
668.008	1179
668.060	1354
668.113	2344
668.165	1518
668.218	1924
668.270	1207
668.322	1918
668.375	1495
668.427	1928
668.479	1420
668.532	2229
668.584	1146
668.636	2217
668.689	959
668.741	2034
668.793	1507
668.845	1663
668.898	1225
668.950	1344
669.002	1177
669.054	1088
669.106	208
669.158	1279
669.211	413
669.263	1330
669.315	680
669.367	1149
669.419	852
669.471	2025
669.523	1296
669.575	1388
669.627	519
669.679	925
669.731	927
669.783	1866
669.835	1545
669.886	1289
669.938	881
669.990	1407
670.042	814
670.094	1694
670.146	1351
670.197	1660
670.249	1483
670.301	1663
670.353	2958
670.404	3333
670.456	4016
670.508	6769
670.560	8475
670.611	14414
670.663	23646
670.715	52727
670.766	90801
670.818	30868
670.869	4482
670.921	3596
670.972	1727
671.024	1525
671.075	2148
671.127	2211
671.178	1864
671.230	2520
671.281	2485
671.333	3881
671.384	2680
671.436	5775
671.487	8363
671.538	11809
671.590	17226
671.641	26978
671.692	48085
671.744	91951
671.795	72938
671.846	27769
671.897	11780
671.949	6977
672.000	4628
672.051	3654
672.102	2358
672.153	1990
672.204	1929
672.256	2189
672.307	1388
672.358	1523
672.409	1151
672.460	2434
672.511	291
672.562	483
672.613	453
672.664	948
672.715	1442
672.766	546
672.817	-349
672.868	866
672.919	763
672.970	211
673.021	670
673.071	102
673.122	372
673.173	711
673.224	-334
673.275	629
673.326	-36
673.376	472
673.427	-241
673.478	759
673.528	725
673.579	507
673.630	519
673.680	1331
673.731	318
673.782	900
673.832	40
673.883	600
673.934	572
673.984	697
674.035	-888
674.085	1407
674.136	277
674.186	1080
674.237	588
674.287	946
674.338	129
674.388	820
674.438	32
674.489	1477
674.539	645
674.589	998
674.640	876
674.690	871
674.740	195
674.791	1091
674.841	-48
674.891	342
674.942	700
674.992	577
675.042	491
675.092	524
675.142	-305
675.193	114
675.243	-455
675.293	617
675.343	452
675.393	358
675.443	392
675.493	39
675.543	-101
675.593	1009
675.643	-434
675.693	713
675.743	-8
675.793	495
675.843	-166
675.893	126
675.943	-822
675.993	936
676.043	-554
676.093	602
676.142	-32
676.192	105
676.242	-521
676.292	422
676.341	-348
676.391	317
676.441	-567
676.491	580
676.540	-678
676.590	1190
676.640	-862
676.689	114
676.739	-1298
676.789	701
676.838	-586
676.888	1136
676.937	-762
676.987	-111
677.037	-1264
677.086	31
677.136	-417
677.185	411
677.235	149
677.284	436
677.333	-2
677.383	-353
677.432	-432
677.482	93
677.531	-708
677.580	1
677.630	-1254
677.679	834
677.728	-493
677.778	-25
677.827	-581
677.876	482
677.925	-383
677.975	-17
678.024	-312
678.073	416
678.122	-299
678.171	310
678.220	-571
678.269	542
678.319	199
678.368	1536
678.417	-216
678.466	791
678.515	-193
678.564	98
678.613	-1000
678.662	394
678.711	-316
678.760	-667
678.809	169
678.857	142
678.906	-494
678.955	-100
679.004	199
679.053	21
679.102	-1217
679.151	-200
679.199	-643
679.248	289
679.297	-1476
679.346	-1166
679.394	-1576
679.443	282
679.492	-485
679.540	715
679.589	-656
679.638	67
679.686	-498
679.735	416
679.784	-209
679.832	1360
679.881	-378
679.929	643
679.978	-1318
680.026	-546
680.075	-588
680.123	-810
680.172	-616
680.220	-682
680.268	-53
680.317	-393
680.365	-877
680.414	-1080
680.462	-600
680.510	483
680.559	-1272
680.607	58
680.655	-801
680.703	-1
680.752	126
680.800	587
680.848	-597
680.896	-1049
680.945	-871
680.993	-497
681.041	-469
681.089	-465
681.137	-378
681.185	-217
681.233	-679
681.258	-574
681.281	-488
681.329	-765
681.377	-260
681.380	-280
681.425	-876
681.473	127
681.502	19
681.521	-77
681.569	290
681.617	-691
681.624	-584
681.665	4
681.713	-174
681.745	-11
681.761	55
681.809	-124
681.857	27
681.867	169
681.904	589
681.952	151
681.989	-375
682.000	-540
682.048	-485
682.096	-931
682.111	-436
682.143	564
682.191	-325
682.233	183
682.239	251
682.286	-457
682.334	-23
682.354	-109
682.382	-263
682.430	83
682.476	-606
682.477	-630
682.525	921
682.572	-104
682.598	-214
682.620	-323
682.667	622
682.715	492
682.720	489
682.763	300
682.810	543
682.841	-386
682.857	-863
682.905	536
682.952	740
682.963	615
683.000	80
683.047	-213
683.085	640
683.095	870
683.142	459
683.190	748
683.206	508
683.237	31
683.284	689
683.328	0
683.332	-66
683.379	961
683.426	133
683.449	-131
683.473	-418
683.521	-509
683.568	1404
683.571	1386
683.615	992
683.662	1154
683.693	979
683.709	889
683.757	228
683.804	872
683.814	977
683.851	1279
683.898	285
683.936	1073
683.945	1260
683.992	943
684.039	598
684.057	556
684.086	536
684.133	850
684.179	257
684.180	226
684.227	1247
684.274	974
684.300	1237
684.321	1418
684.368	985
684.415	1497
684.422	1343
684.462	462
684.509	697
684.543	911
684.556	976
684.603	1567
684.649	1306
684.665	1502
684.696	1920
684.743	1295
684.786	1449
684.790	1443
684.837	793
684.883	1375
684.908	969
684.930	670
684.977	1012
685.023	1597
685.029	1602
685.070	1526
685.117	802
685.150	858
685.164	887
685.210	1715
685.257	1779
685.272	1646
685.303	1319
685.350	1903
685.393	1434
685.396	1391
685.443	1881
685.490	1753
685.514	1931
685.536	2039
685.583	987
685.629	1641
685.636	1498
685.675	751
685.722	1421
685.757	1337
685.768	1292
685.815	1263
685.861	1280
685.878	1271
685.908	1318
685.954	1239
686.000	1720
686.000	1721
686.047	1560
686.093	2315
686.121	1726
686.139	1432
686.185	2281
686.232	1321
686.242	1467
686.278	1926
686.324	970
686.363	2088
686.370	2278
686.416	1660
686.463	1621
686.484	1900
686.509	2143
686.555	1834
686.601	1517
686.606	1533
686.647	1829
686.693	1787
686.727	2137
686.739	2258
686.785	1228
686.831	2193
686.848	2048
686.877	1728
686.923	2134
686.969	1384
686.969	1380
687.015	1922
687.061	1935
687.090	2222
687.107	2393
687.153	2290
687.199	2854
687.211	2514
687.245	1454
687.291	2415
687.332	2308
687.336	2323
687.382	2644
687.428	1853
687.453	2134
687.474	2295
687.520	2730
687.565	2687
687.574	2507
687.611	1946
687.657	2983
687.695	2928
687.702	2890
687.748	3242
687.794	3218
687.816	3199
687.839	3174
687.885	2965
687.931	2922
687.937	2854
687.976	2465
688.022	3375
688.058	3056
688.067	2950
688.113	2952
688.158	2214
688.179	2503
688.204	2907
688.249	2375
688.295	2367
688.300	2290
688.340	2018
688.386	3207
688.421	2455
688.431	2157
688.477	3089
688.522	2881
688.542	2728
688.567	2889
688.613	3128
688.658	3552
688.663	3554
688.703	3045
688.749	3607
688.784	3183
688.794	3116
688.839	3131
688.884	2910
688.905	2972
688.930	3015
688.975	2991
689.020	2908
689.026	2914
689.065	3126
689.110	3025
689.146	3055
689.155	3061
689.201	3096
689.246	3045
689.267	3196
689.291	3301
689.336	3464
689.381	3027
689.388	3022
689.426	3101
689.471	3285
689.509	3363
689.516	3387
689.561	3294
689.606	3219
689.630	3223
689.651	3226
689.696	3272
689.741	3505
689.750	3454
689.785	3276
689.830	3490
689.871	2992
689.875	2961
689.920	3782
689.965	3474
689.992	3800
690.010	3946
690.054	3779
690.099	3449
690.112	3478
690.144	3613
690.189	3526
690.233	3204
690.233	3210
690.278	3775
690.323	3424
690.354	3633
690.367	3685
690.412	3257
690.457	3608
690.474	3484
690.501	3302
690.546	3624
690.590	3126
690.595	3134
690.635	3562
690.680	3737
690.716	3719
690.724	3685
690.769	3463
690.813	4126
690.836	3851
690.857	3651
690.902	3887
690.946	4234
690.957	4166
690.991	4271
691.035	4938
691.077	5456
691.080	5454
691.124	4977
691.168	4961
691.198	4214
691.213	3928
691.257	4591
691.301	3854
691.318	3845
691.346	3814
691.390	3716
691.434	4086
691.439	4041
691.478	3920
691.522	3826
691.559	3603
691.567	3563
691.611	3742
691.655	3308
691.680	3526
691.699	3838
691.743	4060
691.787	4298
691.800	4275
691.831	4123
691.875	4551
691.919	4344
691.921	4339
691.964	4420
692.008	4145
692.041	4206
692.052	4220
692.096	3855
692.139	3975
692.162	3764
692.183	3577
692.227	3535
692.271	3568
692.282	3495
692.315	3573
692.359	3730
692.402	4430
692.403	4445
692.447	3985
692.490	4651
692.523	4463
692.534	4329
692.578	4227
692.622	4243
692.643	4124
692.666	4104
692.709	3956
692.753	4089
692.763	4032
692.797	3897
692.840	4290
692.884	3968
692.884	3976
692.928	4234
692.971	3661
693.004	3407
693.015	3384
693.059	3946
693.102	3867
693.124	3673
693.146	3531
693.189	3728
693.233	3756
693.245	3791
693.276	3838
693.320	3601
693.363	3667
693.365	3651
693.407	3903
693.450	4226
693.485	4419
693.493	4383
693.537	4330
693.580	4053
693.605	4097
693.624	4357
693.667	4391
693.710	5030
693.725	5052
693.753	5672
693.797	6801
693.840	8266
693.845	8374
693.883	7664
693.926	6843
693.966	6516
693.970	6504
694.013	5297
694.056	4781
694.086	4314
694.099	4270
694.142	4083
694.185	3959
694.206	3898
694.229	4026
694.272	3893
694.315	4238
694.326	4215
694.358	4177
694.401	4619
694.444	4610
694.446	4603
694.487	4558
694.530	4387
694.566	4445
694.573	4487
694.616	4342
694.659	4314
694.686	4440
694.702	4585
694.745	4765
694.787	4570
694.806	4743
694.830	5002
694.873	4999
694.916	5336
694.926	5313
694.959	5035
695.002	5026
695.044	4636
695.046	4621
695.087	5024
695.130	4960
695.166	5267
695.172	5293
695.215	5232
695.258	5052
695.286	4921
695.301	5032
695.343	5442
695.386	5833
695.406	6021
695.428	6338
695.471	6754
695.514	7153
695.526	7303
695.556	7852
695.599	8584
695.641	9156
695.646	9209
695.684	8676
695.726	7942
695.766	7401
695.769	7400
695.811	6803
695.854	6374
695.886	6176
695.896	6299
695.938	6486
695.981	6612
696.005	6751
696.023	7069
696.065	7918
696.108	8549
696.125	8793
696.150	8744
696.192	8694
696.235	8714
696.245	8685
696.277	8861
696.319	8935
696.361	9111
696.365	9100
696.404	8966
696.446	8797
696.485	8516
696.488	8541
696.530	8730
696.572	8684
696.604	8850
696.614	8878
696.656	8660
696.698	8584
696.724	8364
696.740	8424
696.783	8821
696.825	9062
696.844	9257
696.867	9339
696.909	9001
696.951	8970
696.964	8914
696.992	8956
697.034	8973
697.076	8873
697.083	8862
697.118	9236
697.160	9563
697.202	9946
697.203	9929
697.244	9865
697.286	9813
697.323	9571
697.327	9619
697.369	9948
697.411	10212
697.442	10451
697.453	10469
697.494	10220
697.536	10278
697.562	10127
697.578	10036
697.620	9862
697.661	9546
697.682	9469
697.703	9923
697.744	10522
697.786	11377
697.801	11590
697.828	11509
697.869	11355
697.911	11229
697.921	11167
697.952	11205
697.994	11212
698.035	11218
698.040	11185
698.077	11050
698.118	10897
698.160	10723
698.160	10693
698.201	11293
698.243	11848
698.279	12378
698.284	12449
698.325	12765
698.367	13071
698.399	13261
698.408	13281
698.449	13197
698.491	13163
698.518	13109
698.532	13205
698.573	13330
698.614	13499
698.638	13569
698.656	13656
698.697	13737
698.738	13833
698.757	13840
698.779	13817
698.820	13694
698.862	13583
698.877	13499
698.903	13558
698.944	13606
698.985	13650
698.996	13627
699.026	13644
699.067	13611
699.116	13538
699.235	13531
699.354	12456
699.474	11464
699.593	12453
699.713	12262
699.832	11484
699.951	13525
700.070	11927
700.190	12403
700.309	11422
700.428	10911
700.547	9964
700.667	11331
700.786	10524
700.905	11147
701.024	9662
701.143	9773
701.262	11416
701.381	11871
701.500	11028
701.619	10739
701.738	10854
701.857	11559
701.976	9879
702.095	10834
702.214	10997
702.333	10318
702.452	11009
702.571	10900
702.690	10800
702.809	10937
702.928	9540
703.047	9546
703.165	9726
703.284	9981
703.403	9730
703.522	8935
703.640	9244
703.759	9095
703.878	8616
703.997	9413
704.115	9158
704.234	9269
704.353	9434
704.471	9763
704.590	8219
704.708	8724
704.827	8355
704.946	8209
705.064	9060
705.183	8311
705.301	8243
705.420	8636
705.538	8927
705.656	7478
705.775	7050
705.893	8169
706.012	7899
706.130	7839
706.249	8510
706.367	6897
706.485	7502
706.604	7607
706.722	7424
706.840	8749
706.958	9904
707.077	7437
707.195	6903
707.313	7660
707.431	6715
707.549	7008
707.668	6215
707.786	7916
707.904	6555
708.022	7254
708.140	6565
708.258	6591
708.376	7377
708.494	6176
708.612	6486
708.730	7173
708.848	6928
708.966	7102
709.084	7178
709.202	7299
709.320	6268
709.438	6513
709.556	5978
709.674	5795
709.791	5901
709.909	5564
710.027	5937
710.145	5877
710.263	6048
710.380	5313
710.498	6542
710.616	5375
710.733	4664
710.851	5564
710.969	5396
711.086	5511
711.204	5208
711.322	6396
711.439	5387
711.557	4742
711.674	5334
711.792	5253
711.909	4611
712.027	5093
712.144	5048
712.262	4561
712.379	5349
712.497	5088
712.614	4821
712.732	6158
712.849	4789
712.966	5942
713.084	5550
713.201	4127
713.318	4356
713.436	5894
713.553	4932
713.670	6387
713.787	5911
713.905	4836
714.022	5941
714.139	7232
714.256	7497
714.373	11286
714.490	23236
714.608	66803
714.725	271556
714.842	223740
714.959	21585
715.076	8984
715.193	7319
715.310	6259
715.427	4280
715.544	4879
715.661	4573
715.778	4390
715.895	4809
716.011	5284
716.128	4248
716.245	5155
716.362	4960
716.479	4278
716.596	4049
716.713	4093
716.829	3888
716.946	4039
717.063	4025
717.180	3586
717.296	4371
717.413	3914
717.530	3835
717.646	3978
717.763	3040
717.880	3422
717.996	2929
718.113	3172
718.229	3941
718.346	3252
718.462	2883
718.579	3849
718.695	3253
718.812	3168
718.928	3243
719.045	3306
719.161	3809
719.277	4201
719.394	4853
719.510	4310
719.626	4101
719.743	6032
719.859	10333
719.975	24497
720.092	100118
720.208	186897
720.324	21755
720.440	5869
720.557	3920
720.673	5286
720.789	3562
720.905	3553
721.021	3784
721.137	2740
721.253	3264
721.369	2161
721.486	2917
721.602	2911
721.718	2688
721.834	3256
721.950	2430
722.066	2691
722.181	2749
722.297	2501
722.413	2336
722.529	2766
722.645	2655
722.761	3114
722.877	2907
722.993	3407
723.108	3810
723.224	3313
723.340	2574
723.456	2635
723.571	2753
723.687	1440
723.803	3224
723.918	2299
724.034	2658
724.150	2423
724.265	1694
724.381	2531
724.497	1886
724.612	1949
724.728	1974
724.843	1681
724.959	1504
725.074	2971
725.190	2481
725.305	2068
725.421	1600
725.536	3224
725.651	2605
725.767	3446
725.882	2036
725.997	2037
726.113	1665
726.228	1924
726.343	2216
726.459	2120
726.574	2427
726.689	1715
726.804	2392
726.920	2443
727.035	2454
727.150	1717
727.265	1792
727.380	2217
727.495	2480
727.610	2673
727.725	1199
727.841	2208
727.956	2422
728.071	3033
728.186	1518
728.301	2680
728.416	2793
728.531	3040
728.645	1604
728.760	1642
728.875	1618
728.990	2067
729.105	2012
729.220	2203
729.335	1789
729.449	2332
729.564	2510
729.679	1891
729.794	2342
729.908	2737
730.023	2270
730.138	2101
730.253	2307
730.367	2306
730.482	2610
730.596	2534
730.711	4035
730.826	5242
730.940	3571
731.055	3594
731.169	3779
731.284	3155
731.398	2881
731.513	4069
731.627	4417
731.742	5859
731.856	8153
731.970	6518
732.085	8624
732.199	12904
732.313	23873
732.428	66715
732.542	180098
732.656	88619
732.771	18323
732.885	10740
732.999	9468
733.113	9613
733.227	8872
733.342	8918
733.456	9094
733.570	8789
733.684	7432
733.798	7538
733.912	7648
734.026	8058
734.140	7279
734.254	7384
734.368	7537
734.482	7187
734.596	7316
734.710	7581
734.824	6952
734.938	7225
735.052	7563
735.166	6850
735.280	7055
735.393	6612
735.507	6688
735.621	7386
735.735	5643
735.849	6770
735.962	6076
736.076	5763
736.190	6153
736.303	5672
736.417	7194
736.531	6064
736.644	5990
736.758	5100
736.872	5660
736.985	6496
737.099	6689
737.212	5714
737.326	6246
737.439	6509
737.553	4317
737.666	5700
737.780	4413
737.893	6139
738.007	4709
738.120	6071
738.233	4860
738.347	5224
738.460	5029
738.573	5860
738.687	4926
738.800	5148
738.913	5780
739.026	4813
739.140	4453
739.253	5004
739.366	5059
739.479	5296
739.592	4406
739.705	5000
739.818	5669
739.932	4048
740.045	4318
740.158	4896
740.271	4863
740.384	4848
740.497	3922
740.610	5414
740.723	3254
740.836	4613
740.949	5155
741.062	5198
741.174	4287
741.287	4213
741.400	4271
741.513	3941
741.626	4180
741.739	4196
741.851	3965
741.964	4449
742.077	3771
742.189	3563
742.302	3704
742.415	4196
742.527	3561
742.640	4791
742.753	3220
742.865	4840
742.978	3657
743.090	3843
743.203	4827
743.316	3915
743.428	4000
743.541	4946
743.653	3007
743.766	3890
743.878	3520
743.990	3478
744.103	4286
744.215	3101
744.327	2507
744.440	4191
744.552	4236
744.664	3128
744.777	3126
744.889	3015
745.001	3339
745.113	4221
745.226	2699
745.338	3319
745.450	3933
745.562	3393
745.674	3042
745.786	4016
745.898	3046
746.010	3109
746.122	3055
746.234	4032
746.347	3235
746.459	3067
746.570	2479
746.682	4469
746.794	3262
746.906	2493
747.018	2326
747.130	3623
747.242	1762
747.354	3817
747.466	2934
747.577	2937
747.689	3163
747.801	2486
747.913	2891
748.024	2176
748.136	2098
748.248	1529
748.359	2530
748.471	3285
748.583	2250
748.694	2008
748.806	3269
748.918	2306
749.029	2472
749.141	3376
749.252	2296
749.364	2760
749.475	1914
749.587	2431
749.698	1824
749.809	2599
749.921	2536
750.032	2001
750.144	2517
750.255	2462
750.366	1447
750.478	3215
750.589	3333
750.700	2462
750.811	2575
750.923	1411
751.034	2692
751.145	2940
751.256	2245
751.367	2150
751.479	1641
751.590	2113
751.701	1817
751.812	1780
751.923	2131
752.034	2461
752.145	1497
752.256	2435
752.367	1740
752.478	3039
752.589	1713
752.700	1740
752.811	1973
752.922	2372
753.032	2010
753.143	3103
753.254	1823
753.365	2280
753.476	2229
753.586	2687
753.697	1923
753.808	1888
753.919	1454
754.029	2350
754.140	1922
754.251	1893
754.361	1609
754.472	2124
754.582	554
754.693	2026
754.804	1804
754.914	1238
755.025	1185
755.135	1522
755.246	2249
755.356	1801
755.466	2269
755.577	1960
755.687	1988
755.798	1460
755.908	1923
756.018	1734
756.129	1800
756.239	2335
756.349	1926
756.460	2479
756.570	1921
756.680	1595
756.790	1798
756.900	2102
757.011	1754
757.121	1367
757.231	1837
757.341	1904
757.451	1024
757.561	1402
757.671	2078
757.781	1198
757.891	2468
758.001	1553
758.111	1778
758.221	2467
758.331	1838
758.441	1586
758.551	1945
758.661	2440
758.771	2425
758.880	1989
758.990	901
759.100	1975
759.210	1252
759.320	2209
759.429	2246
759.539	2281
759.649	2276
759.758	2518
759.868	3152
759.978	2307
760.087	3127
760.197	3816
760.307	2633
760.416	2315
760.526	1669
760.635	2933
760.745	2868
760.854	3560
760.964	4097
761.073	3338
761.182	2942
761.292	2424
761.401	2226
761.511	2226
761.620	1894
761.729	2226
761.839	820
761.948	1765
762.057	1146
762.166	1668
762.276	336
762.385	2879
762.494	1858
762.603	2124
762.712	1203
762.822	1386
762.931	1388
763.040	758
763.149	1338
763.258	1459
763.367	1863
763.476	1206
763.585	667
763.694	1499
763.803	933
763.912	2096
764.021	1533
764.130	908
764.238	1735
764.347	1869
764.456	2135
764.565	2020
764.674	1402
764.783	1139
764.891	1535
765.000	2168
765.109	2343
765.217	2168
765.326	3091
765.435	3495
765.543	3871
765.652	4521
765.761	5432
765.869	8386
765.978	11415
766.086	22694
766.195	42566
766.303	107119
766.412	238275
766.520	176795
766.629	67710
766.737	28120
766.846	14930
766.954	10381
767.062	7882
767.171	6158
767.279	5180
767.387	3516
767.496	3123
767.604	3575
767.712	3010
767.820	2462
767.928	1934
768.037	2070
768.145	1652
768.253	3489
768.361	1741
768.469	2106
768.577	2423
768.685	2578
768.793	3260
768.901	2199
769.009	3430
769.117	3055
769.225	3278
769.333	6565
769.441	9043
769.549	17748
769.657	40872
769.765	118262
769.873	191738
769.981	76217
770.088	22733
770.196	10953
770.304	7016
770.412	6168
770.519	4179
770.627	4611
770.735	2520
770.842	2806
770.950	2851
771.058	3343
771.165	3911
771.273	3986
771.380	4497
771.488	5977
771.595	5446
771.703	5827
771.810	3759
771.918	4548
772.025	5680
772.133	7207
772.240	5485
772.348	7463
772.455	6406
772.562	6219
772.670	5432
772.777	6233
772.884	5177
772.991	5751
773.099	6237
773.206	5491
773.313	6029
773.420	6077
773.528	5216
773.635	4915
773.742	6109
773.849	5682
773.956	5177
774.063	5584
774.170	5053
774.277	5980
774.384	4314
774.491	4882
774.598	4438
774.705	4453
774.812	4438
774.919	4358
775.026	5038
775.133	4395
775.239	4909
775.346	4983
775.453	5349
775.560	3716
775.667	4499
775.773	3940
775.880	5440
775.987	4810
776.093	4783
776.200	5926
776.307	2921
776.413	3955
776.520	4694
776.627	4463
776.733	3649
776.840	3315
776.946	5809
777.053	3937
777.159	3255
777.266	2948
777.372	4476
777.478	3955
777.585	3150
777.691	3279
777.798	4433
777.904	3715
778.010	3913
778.117	3961
778.223	3585
778.329	3587
778.435	2996
778.542	3784
778.648	3342
778.754	4238
778.860	3699
778.966	3418
779.072	2731
779.178	3889
779.284	2971
779.391	3336
779.497	2745
779.603	4873
779.708	2800
779.815	4062
779.920	7935
780.026	10851
780.132	4065
780.238	4229
780.344	3597
780.450	3752
780.556	2607
780.661	1934
780.767	2680
780.873	1643
780.979	2636
781.085	2684
781.190	2828
781.296	3038
781.402	3350
781.507	3390
781.613	1934
781.719	2091
781.824	3489
781.930	3376
782.035	2257
782.141	3783
782.246	1817
782.352	2019
782.457	2302
782.563	2536
782.668	2187
782.773	1711
782.879	1611
782.984	3069
783.090	2545
783.195	3236
783.300	2993
783.405	2190
783.511	1644
783.616	2868
783.721	1739
783.826	2232
783.932	1165
784.037	2615
784.142	1658
784.247	1424
784.352	2137
784.457	1672
784.562	1990
784.667	2390
784.772	930
784.877	1125
784.982	2261
785.087	2481
785.192	2070
785.297	2282
785.402	2205
785.507	2221
785.611	999
785.716	1895
785.821	2193
785.926	2007
786.031	1578
786.135	1446
786.240	1580
786.345	834
786.450	2113
786.554	2427
786.659	1445
786.763	1568
786.868	2463
786.973	3481
787.077	1641
787.182	637
787.286	2280
787.391	2843
787.495	1010
787.600	1419
787.704	1115
787.809	2389
787.913	2016
788.017	1566
788.122	983
788.226	1840
788.330	248
788.435	1541
788.539	1740
788.643	1270
788.747	1026
788.852	2049
788.956	1236
789.060	2253
789.164	1137
789.268	480
789.372	1562
789.476	1576
789.580	974
789.684	1130
789.788	2194
789.892	1695
789.996	1389
790.100	647
790.204	1080
790.308	1957
790.412	951
790.516	728
790.620	807
790.724	1342
790.828	421
790.931	-240
791.035	2300
791.139	759
791.242	545
791.346	1033
791.450	1031
791.554	494
791.657	-762
791.761	2133
791.864	1371
791.968	748
792.072	1407
792.175	1271
792.279	376
792.382	1867
792.486	1442
792.589	816
792.693	1717
792.796	208
792.899	2663
793.003	1563
793.106	-774
793.209	761
793.313	1839
793.416	-1014
793.519	2136
793.623	2277
793.726	597
793.829	1597
793.932	364
794.035	-294
794.138	1818
794.242	2372
794.345	-51
794.448	432
794.551	63
794.654	3208
794.757	4582
794.860	562
794.963	1055
795.066	494
795.169	784
795.272	374
795.375	1741
795.477	68
795.580	1563
795.683	-212
795.786	922
795.889	-88
795.991	1302
796.094	1707
796.197	-626
796.300	1697
796.402	618
796.505	214
796.608	146
796.710	782
796.813	450
796.915	361
797.018	885
797.120	1393
797.223	-20
797.326	1434
797.428	163
797.530	847
797.633	14
797.735	1314
797.838	756
797.940	1881
798.042	-33
798.145	679
798.247	593
798.349	-665
798.452	655
798.554	277
798.656	-270
798.758	2404
798.860	336
798.962	336
799.065	-189
799.167	-143
799.269	1238
799.371	1981
799.473	2058
799.575	589
799.677	-161
799.779	943
799.881	-1009
799.983	1945
800.085	188
800.187	1151
800.289	-796
800.390	119
800.492	663
800.594	1094
800.696	193
800.798	606
800.899	-722
801.001	697
801.103	276
801.205	608
801.306	-16
801.408	-585
801.509	831
801.611	1180
801.713	994
801.814	-321
801.916	-45
802.017	107
802.119	-1123
802.220	690
802.322	-640
802.423	1088
802.525	-534
802.626	49
802.727	449
802.829	1320
802.930	-1671
803.031	1381
803.133	117
803.234	84
803.335	165
803.436	-212
803.538	210
803.639	-1053
803.740	938
803.841	472
803.942	334
804.043	-12
804.144	-548
804.245	481
804.346	-229
804.447	219
804.548	-360
804.649	897
804.750	-405
804.851	513
804.952	-128
805.053	710
805.154	-1337
805.255	832
805.355	724
805.456	41
805.557	31
805.658	-309
805.758	719
805.859	-56
805.960	321
806.061	-364
806.161	10
806.262	-442
806.362	-127
806.463	57
806.564	150
806.664	55
806.765	-456
806.865	374
806.966	-173
807.066	-327
807.166	838
807.267	515
807.367	91
807.468	194
807.568	-751
807.668	1100
807.769	-250
807.869	165
807.969	-261
808.069	-415
808.170	861
808.270	-401
808.370	615
808.470	699
808.570	-478
808.670	-317
808.770	377
808.870	-454
808.970	308
809.070	-90
809.170	-217
809.271	833
809.370	-163
809.470	410
809.570	-1199
809.670	-504
809.770	-485
809.870	953
809.970	485
810.070	876
810.169	634
810.269	-1101
810.369	727
810.469	-118
810.568	-17
810.668	-74
810.768	-368
810.867	-302
810.967	-829
811.066	-112
811.166	-268
811.265	493
811.365	-472
811.464	-497
811.564	344
811.663	843
811.763	-929
811.862	855
811.962	650
812.061	-238
812.160	-672
812.260	387
812.359	-2
812.458	-758
812.557	578
812.657	-258
812.756	-513
812.855	359
812.954	-633
813.053	327
813.153	518
813.252	-306
813.351	-409
813.450	-230
813.549	-675
813.648	71
813.747	-122
813.846	237
813.945	-19
814.044	647
814.143	428
814.242	397
814.341	-954
814.439	209
814.538	585
814.637	420
814.736	-438
814.835	364
814.933	250
815.032	1093
815.131	1298
815.229	3882
815.328	5252
815.427	3159
815.525	1887
815.624	3490
815.722	2836
815.821	3338
815.919	3423
816.018	2286
816.116	3605
816.215	2991
816.313	3220
816.412	4410
816.510	3534
816.609	5695
816.707	5089
816.805	3774
816.904	4150
817.002	4439
817.100	5339
817.198	5019
817.296	3251
817.395	2816
817.493	4206
817.591	3045
817.689	3024
817.787	2644
817.885	3916
817.983	3083
818.081	3868
818.179	5178
818.277	8872
818.375	5970
818.473	4211
818.571	3511
818.669	3584
818.767	4939
818.865	2742
818.963	3144
819.061	3626
819.158	4570
819.256	6406
819.354	7217
819.452	13193
819.549	6903
819.647	4200
819.745	2930
819.842	4301
819.940	3906
820.038	2592
820.135	2363
820.233	3863
820.330	2984
820.428	2274
820.525	3606
820.623	2600
820.720	1719
820.818	3333
820.915	3410
821.012	2714
821.110	1390
821.207	3170
821.304	1714
821.402	2587
821.499	3103
821.596	2848
821.693	1393
821.791	2684
821.888	3297
821.985	2687
822.082	2032
822.179	2679
822.276	2554
822.373	2600
822.470	1790
822.567	3258
822.664	2063
822.761	2345
822.858	2849
822.955	2276
823.052	2840
823.149	2286
823.246	3567
823.343	1085
823.440	2450
823.536	2314
823.633	2313
823.730	1723
823.827	2518
823.923	1496
824.020	3141
824.117	2655
824.213	1194
824.310	1809
824.407	1457
824.503	2417
824.600	2935
824.696	1763
824.793	2953
824.889	1476
824.986	1865
825.082	1718
825.179	2661
825.275	2222
825.371	1933
825.468	1630
825.564	198
825.660	2156
825.757	2272
825.853	2214
825.949	922
826.045	1106
826.142	1358
826.238	2126
826.334	1188
826.430	733
826.526	1324
826.622	160
826.718	2340
826.814	1075
826.910	2230
827.006	190
827.102	322
827.198	1950
827.294	1581
827.390	2230
827.486	1517
827.582	-638
827.678	826
827.774	1720
827.869	542
827.965	1505
828.061	136
828.157	2677
828.252	1410
828.348	23
828.444	1950
828.539	-446
828.635	1608
828.731	1923
828.826	937
828.922	1560
829.017	2148
829.113	1251
829.208	97
829.304	893
829.399	2489
829.495	767
829.590	1359
829.685	1006
829.781	1320
829.876	620
829.971	-188
830.066	784
830.162	1524
830.257	1638
830.352	423
830.447	1284
830.543	1013
830.638	-707
830.733	2775
830.828	400
830.923	1143
831.018	1363
831.113	1459
831.208	-173
831.303	59
831.398	-6
831.493	1262
831.588	2059
831.683	386
831.778	560
831.873	575
831.967	1820
832.062	470
832.157	223
832.252	1312
832.346	-349
832.441	1415
832.536	301
832.631	1123
832.725	83
832.820	805
832.914	-184
833.009	-400
833.104	-503
833.198	493
833.293	345
833.387	1740
833.482	936
833.576	-11
833.670	1319
833.765	586
833.859	495
833.954	1080
834.048	1197
834.142	386
834.237	193
834.331	572
834.425	846
834.519	560
834.613	928
834.708	698
834.802	267
834.896	442
834.990	552
835.084	19
835.178	361
835.272	535
835.366	184
835.460	1605
835.554	-190
835.648	-298
835.742	40
835.836	1228
835.930	-675
836.024	1217
836.117	668
836.211	243
836.305	378
836.399	-63
836.493	-757
836.586	1385
836.680	55
836.774	-186
836.867	794
836.961	-846
837.055	-1199
837.148	-648
837.242	806
837.335	319
837.429	422
837.522	-472
837.616	-760
837.709	514
837.803	-826
837.896	70
837.989	-330
838.083	-75
838.176	-823
838.269	-70
838.363	798
838.456	-531
838.549	-297
838.642	-451
838.735	61
838.829	403
838.922	-576
839.015	45
839.108	-756
839.201	212
839.294	127
839.387	58
839.480	-773
839.573	702
839.666	-510
839.759	524
839.852	-353
839.945	646
840.038	-409
840.131	-1111
840.223	-528
840.316	794
840.409	-132
840.502	-196
840.594	1052
840.687	-1313
840.780	-727
840.873	-114
840.965	-480
841.058	-672
841.150	384
841.243	-432
841.336	-339
841.428	-88
841.521	-724
841.613	-301
841.706	-35
841.798	-497
841.890	-514
841.983	-1000
842.075	588
842.167	4
842.260	-593
842.352	339
842.444	-238
842.537	-206
842.629	237
842.721	97
842.813	-20
842.905	-1564
842.997	-138
843.090	9
843.182	-567
843.274	-732
843.366	-14
843.458	372
843.550	611
843.642	182
843.734	-750
843.826	-245
843.918	-348
844.009	-331
844.101	-1008
844.193	226
844.285	-774
844.377	755
844.469	321
844.560	-629
844.652	259
844.744	137
844.835	-255
844.927	-47
845.019	-748
845.110	-347
845.202	520
845.293	-460
845.385	-990
845.476	-383
845.568	538
845.659	-762
845.751	-481
845.842	-934
845.934	-447
846.025	-273
846.116	-936
846.208	546
846.299	-272
846.390	143
846.482	-200
846.573	-279
846.664	-585
846.755	-734
846.846	19
846.937	-1222
847.029	-804
847.120	-448
847.211	-906
847.302	-202
847.393	-758
847.484	445
847.575	-1419
847.666	-572
847.757	-731
847.847	-68
847.938	76
848.029	178
848.120	-1179
848.211	-419
848.302	-1320
848.392	-303
848.483	475
848.574	179
848.664	-691
848.755	-380
848.846	-451
848.936	-711
849.027	-333
849.118	717
849.208	-63
849.299	1254
849.389	1471
849.480	4501
849.570	8638
849.661	16936
849.751	25141
849.841	7191
849.932	1573
850.022	179
850.112	-700
850.203	-379
850.293	-455
850.383	-166
850.474	-913
850.564	-227
850.654	-797
850.744	241
850.834	-891
850.924	-340
851.014	-16
851.104	-46
851.194	-1017
851.284	-537
851.374	-681
851.464	-222
851.554	-713
851.644	-153
851.734	-579
851.824	-225
851.914	-1752
852.004	-202
852.094	-1112
852.183	-164
852.273	105
852.363	-572
852.452	-429
852.542	-418
852.632	-794
852.721	-120
852.811	-1253
852.901	589
852.990	-866
853.080	-239
853.169	-746
853.259	959
853.348	-302
853.438	931
853.527	1029
853.617	2366
853.706	5306
853.795	10054
853.885	20712
853.974	36319
854.063	65138
854.152	79556
854.242	30832
854.331	7418
854.420	2888
854.509	2137
854.598	1073
854.687	1165
854.777	-228
854.866	-159
854.955	-181
855.044	-338
855.133	-658
855.222	415
855.311	-672
855.400	449
855.488	-421
855.577	-360
855.666	-756
855.755	9
855.844	-347
855.933	-531
856.021	-621
856.110	-808
856.199	-1352
856.288	-158
856.376	-1347
856.465	-395
856.554	76
856.642	3
856.731	194
856.819	-244
856.908	-459
856.996	-230
857.085	-1006
857.173	-816
857.262	-1049
857.350	-625
857.438	-1047
857.527	-970
857.615	-168
857.703	-104
857.792	-646
857.880	-541
857.968	-1075
858.056	-869
858.145	-648
858.233	-563
858.321	190
858.409	-205
858.497	-723
858.585	-948
858.673	144
858.761	-748
858.849	-1121
858.937	-530
859.025	-365
859.113	-339
859.201	-1234
859.289	-259
859.377	-392
859.465	-379
859.552	-576
859.640	-455
859.728	-713
859.816	-681
859.903	-668
859.991	-351
860.079	-1294
860.166	-644
860.254	-540
860.342	-471
860.429	-651
860.517	-710
860.604	-210
860.692	-301
860.779	-962
860.867	-420
860.954	-602
861.042	-198
861.129	-877
861.216	-54
861.304	-166
861.391	-447
861.478	-422
861.565	143
861.653	-39
861.740	-509
861.827	-996
861.914	-38
862.001	-1804
862.089	-496
862.176	-784
862.263	-491
862.350	-686
862.437	356
862.524	-958
862.611	-370
862.698	-767
862.785	-134
862.871	18
862.958	-8
863.045	202
863.132	-240
863.219	189
863.306	-1306
863.392	-185
863.479	-663
863.566	-391
863.652	-103
863.739	-794
863.826	421
863.912	-848
863.999	-612
864.086	43
864.172	-59
864.259	77
864.345	58
864.432	396
864.518	-478
864.604	-884
864.691	-582
864.777	-489
864.863	1213
864.950	1811
865.036	2684
865.122	4952
865.209	5544
865.295	3698
865.381	4578
865.467	3538
865.553	5324
865.639	5144
865.726	7932
865.812	13568
865.898	22524
865.984	30339
866.070	55199
866.156	49458
866.242	15609
866.328	6862
866.414	4895
866.499	4437
866.585	3800
866.671	3790
866.757	3047
866.843	2498
866.928	3111
867.014	2832
867.100	3363
867.186	2151
867.271	2658
867.357	3097
867.442	3370
867.528	3123
867.614	3456
867.699	2413
867.785	3450
867.870	2306
867.956	2867
868.041	2569
868.127	1958
868.212	2780
868.297	2983
868.383	2907
868.468	3290
868.553	3454
868.639	2798
868.724	2745
868.809	2457
868.894	2250
868.979	2757
869.065	2821
869.150	1578
869.235	2455
869.320	2703
869.405	2032
869.490	3123
869.575	2406
869.660	1943
869.745	2123
869.830	3080
869.915	1778
870.000	1986
870.085	2122
870.169	2548
870.254	3016
870.339	824
870.424	1890
870.509	1925
870.593	2404
870.678	2425
870.763	2135
870.847	1748
870.932	1989
871.016	3030
871.101	1099
871.186	2984
871.270	3151
871.355	1444
871.439	1694
871.523	1967
871.608	1677
871.692	1966
871.777	2522
871.861	2789
871.945	1429
872.030	2828
872.114	1235
872.198	1144
872.282	1123
872.367	1989
872.451	1801
872.535	1507
872.619	1799
872.703	2436
872.787	2321
872.871	2797
872.955	762
873.039	1317
873.123	1576
873.207	2335
873.291	787
873.375	642
873.459	2218
873.543	2070
873.627	1068
873.711	844
873.794	1992
873.878	944
873.962	753
874.045	1215
874.129	1502
874.137	1530
874.213	1809
874.245	1398
874.296	736
874.352	870
874.380	930
874.460	1095
874.464	1102
874.547	1702
874.568	1600
874.631	1255
874.676	1368
874.714	1463
874.784	1892
874.798	1975
874.881	2618
874.892	2307
874.965	250
874.999	1056
875.048	2059
875.107	1283
875.131	988
875.215	1540
875.215	1539
875.298	496
875.323	782
875.381	1483
875.430	1897
875.465	2112
875.538	1870
875.548	1836
875.631	421
875.646	450
875.714	731
875.753	1062
875.798	1432
875.861	1770
875.881	1843
875.964	1581
875.968	1592
876.047	1944
876.076	1856
876.130	1650
876.183	1428
876.213	1340
876.291	2439
876.296	2494
876.379	1408
876.398	1275
876.462	1026
876.506	785
876.545	594
876.613	965
876.628	1037
876.711	1119
876.721	1229
876.794	2144
876.828	2402
876.877	2562
876.935	1403
876.960	997
877.043	1132
877.043	1132
877.125	1625
877.150	1978
877.208	2542
877.258	1583
877.291	931
877.365	678
877.374	655
877.456	1468
877.472	1324
877.539	1003
877.579	1537
877.622	1985
877.687	1887
877.704	1853
877.787	1840
877.794	1881
877.869	2488
877.901	2386
877.952	1942
878.008	1635
878.034	1575
878.115	1335
878.117	1336
878.199	2083
878.222	2016
878.282	2179
878.329	2623
878.364	2609
878.437	2378
878.447	2322
878.529	1412
878.544	1313
878.611	1291
878.651	1506
878.694	2003
878.758	2561
878.776	2617
878.858	2740
878.865	2617
878.941	609
878.972	736
879.023	1563
879.078	1577
879.105	1664
879.185	2850
879.187	2872
879.269	2717
879.292	2660
879.351	1981
879.399	1610
879.433	1631
879.506	1993
879.516	2026
879.598	1849
879.613	1876
879.680	2283
879.720	2315
879.762	2184
879.827	2071
879.844	2067
879.926	1807
879.933	1832
880.007	2246
880.040	2113
880.089	1789
880.147	1849
880.171	2100
880.253	3267
880.254	3261
880.335	2422
880.360	2430
880.417	3264
880.467	3624
880.499	3611
880.574	3672
880.580	3659
880.662	3325
880.680	3116
880.744	2022
880.787	1914
880.825	2265
880.893	2249
880.907	2227
880.989	2327
881.000	2289
881.070	2607
881.106	3151
881.152	3174
881.213	2141
881.233	1980
881.315	2459
881.319	2444
881.396	2525
881.426	2508
881.478	2495
881.532	3001
881.559	3100
881.639	2760
881.641	2762
881.722	2442
881.745	2372
881.803	2833
881.852	3272
881.885	3052
881.958	2340
881.966	2373
882.047	2998
882.064	3016
882.129	2222
882.171	1627
882.210	1344
882.277	1392
882.291	1609
882.372	2643
882.383	2824
882.454	4063
882.489	4204
882.535	3815
882.596	3975
882.616	4114
882.697	3498
882.702	3494
882.778	2521
882.808	2090
882.859	2051
882.914	2144
882.940	2364
883.020	2781
883.021	2797
883.102	3857
883.127	4031
883.183	4465
883.233	4593
883.264	3878
883.339	2292
883.345	2259
883.426	1705
883.445	1747
883.507	2699
883.551	3035
883.587	3431
883.657	3936
883.668	3975
883.749	4681
883.763	4658
883.830	2963
883.869	2207
883.910	2410
883.975	2988
883.991	3083
884.072	3021
884.081	3010
884.152	4412
884.187	5076
884.233	5245
884.292	5333
884.314	4691
884.394	1986
884.398	1856
884.475	1940
884.504	2039
884.555	2228
884.610	2179
884.636	2331
884.716	3199
884.716	3222
884.797	4692
884.821	5205
884.877	4677
884.927	4196
884.958	3799
885.033	2587
885.038	2570
885.118	2436
885.139	2293
885.199	2345
885.244	2630
885.279	3118
885.350	4144
885.359	4380
885.439	5844
885.456	6169
885.520	5096
885.561	4222
885.600	3725
885.667	3250
885.680	3368
885.760	3528
885.773	3596
885.840	2980
885.878	2577
885.920	2509
885.984	2434
886.000	2730
886.080	3983
886.089	4120
886.160	4665
886.195	4840
886.240	4400
886.300	3745
886.320	3847
886.400	4292
886.406	4308
886.480	3668
886.511	3383
886.560	3576
886.616	3781
886.640	3701
886.720	3073
886.722	3054
886.800	2949
886.827	2801
886.879	3637
886.932	4624
886.959	4998
887.038	5805
887.039	5812
887.119	4788
887.143	4424
887.198	4134
887.248	3847
887.278	3824
887.354	3757
887.358	3767
887.437	3642
887.459	3589
887.517	4334
887.564	4960
887.596	4481
887.669	3031
887.676	2978
887.755	2513
887.774	2350
887.835	2399
887.880	2557
887.914	3144
887.985	4018
887.994	4123
888.073	5095
888.090	5269
888.153	6494
888.195	7244
888.232	5998
888.300	3770
888.311	3709
888.391	3007
888.405	2897
888.470	2802
888.510	2665
888.549	2838
888.615	3204
888.628	3559
888.708	5506
888.720	5800
888.787	5677
888.825	5576
888.866	4450
888.930	2645
888.945	2904
889.024	4233
889.035	4390
889.103	5084
889.140	5447
889.182	5064
889.245	4456
889.261	4579
889.340	5125
889.349	5163
889.419	4448
889.454	4092
889.498	3707
889.559	3144
889.577	3446
889.656	4727
889.664	4841
889.735	4625
889.768	4502
889.814	4616
889.873	4733
889.978	3738
890.083	4581
890.187	4622
890.292	5969
890.397	3960
890.501	3955
890.606	2948
890.710	4707
890.815	5405
890.919	4783
891.024	3912
891.128	3510
891.233	3289
891.337	5419
891.442	5498
891.546	4459
891.650	3660
891.755	4010
891.859	4816
891.963	6406
892.068	4753
892.172	3598
892.276	3172
892.380	4275
892.484	6112
892.589	6656
892.693	3860
892.797	3292
892.901	3028
893.005	4658
893.109	5163
893.213	5822
893.317	3906
893.421	3220
893.525	2599
893.629	3798
893.733	6083
893.837	3765
893.941	3744
894.045	3019
894.148	1974
894.252	3451
894.356	5550
894.460	6351
894.564	3179
894.667	2951
894.771	2153
894.875	1993
894.978	3006
895.082	4579
895.186	4891
895.289	4307
895.393	2844
895.496	5755
895.600	3103
895.703	2434
895.807	3626
895.910	3593
896.014	3594
896.117	3243
896.221	5065
896.324	4533
896.427	3010
896.531	3064
896.634	2882
896.737	2360
896.840	3595
896.944	5460
897.047	5307
897.150	4619
897.253	2804
897.356	3159
897.460	1541
897.563	2128
897.666	4542
897.769	5251
897.872	2851
897.975	3311
898.078	3730
898.181	2215
898.284	3351
898.387	5460
898.490	4113
898.593	2922
898.695	2454
898.798	3180
898.901	1900
899.004	2943
899.107	3168
899.209	3287
899.312	4802
899.415	3577
899.518	1707
899.620	1567
899.723	2015
899.826	2643
899.928	2276
900.031	3405
900.133	5298
900.236	3516
900.338	1890
900.441	2791
900.543	3415
900.646	3377
900.748	2773
900.851	5028
900.953	2179
901.055	2260
901.158	2021
901.260	2488
901.362	1943
901.465	2194
901.567	3456
901.669	4156
901.771	2771
901.873	2904
901.976	2597
902.078	2711
902.180	2144
902.282	2625
902.384	2976
902.486	5685
902.588	3132
902.690	2310
902.792	2218
902.894	2740
902.996	4201
903.098	3218
903.200	2793
903.302	2516
903.404	2420
903.505	2258
903.607	2140
903.709	5606
903.811	3817
903.913	3228
904.014	1564
904.116	1907
904.218	1640
904.319	3051
904.421	5055
904.523	3227
904.624	3134
904.726	2384
904.827	1636
904.929	1995
905.030	1842
905.132	5519
905.233	3360
905.335	2607
905.436	1664
905.537	2434
905.639	2285
905.740	2690
905.841	3545
905.943	2589
906.044	2678
906.145	2191
906.247	2415
906.348	2163
906.449	2095
906.550	2658
906.651	2019
906.752	2126
906.854	2046
906.955	1792
907.056	3176
907.157	3900
907.258	3567
907.359	2022
907.460	1902
907.561	1958
907.662	1138
907.762	2759
907.863	2703
907.964	2823
908.065	2418
908.166	2779
908.267	2177
908.367	2005
908.468	1561
908.569	2514
908.670	3635
908.770	2652
908.871	2745
908.971	1884
909.072	1611
909.173	2228
909.273	1587
909.374	3169
909.474	1982
909.575	2185
909.675	1351
909.776	3138
909.876	2327
909.977	1848
910.077	2924
910.177	3434
910.278	2918
910.378	2485
910.478	1755
910.579	2724
910.679	2799
910.779	2844
910.879	2871
910.980	2756
911.080	3394
911.180	1212
911.280	1784
911.380	1932
911.480	2136
911.580	2455
911.680	2423
911.780	3021
911.880	2039
911.980	1409
912.080	1341
912.180	3020
912.280	2507
912.380	2354
912.480	1145
912.580	1862
912.679	2234
912.779	2959
912.879	2437
912.979	2378
913.078	2062
913.178	1842
913.278	1325
913.377	1906
913.477	1911
913.577	2199
913.676	3381
913.776	2546
913.875	1852
913.975	2062
914.074	2573
914.174	3295
914.273	1089
914.373	3632
914.472	2343
914.572	1282
914.671	1604
914.770	2570
914.870	1597
914.969	1745
915.068	3460
915.167	3313
915.267	1378
915.366	2700
915.465	2678
915.564	2465
915.663	2054
915.763	3111
915.862	4038
915.961	3364
916.060	2464
916.159	1946
916.258	1392
916.357	1974
916.456	2456
916.555	2682
916.654	1687
916.752	4294
916.851	3087
916.950	2086
917.049	1660
917.148	2524
917.247	1871
917.345	2503
917.444	1700
917.543	2275
917.642	2090
917.740	3324
917.839	4037
917.937	4698
918.036	3154
918.135	2141
918.233	1742
918.332	2391
918.430	2331
918.529	2331
918.627	2025
918.726	4111
918.824	2816
918.923	2219
919.021	2852
919.119	1394
919.218	2125
919.316	2798
919.414	3466
919.512	3796
919.611	3053
919.709	2685
919.807	4340
919.905	5509
920.003	3275
920.102	4177
920.200	2897
920.298	4043
920.396	3261
920.494	4544
920.592	3013
920.690	3986
920.788	3377
920.886	3969
920.984	4268
921.082	5973
921.180	4630
921.277	5405
921.375	5685
921.473	8719
921.571	7303
921.669	7566
921.766	7488
921.864	7294
921.962	6321
922.060	7391
922.157	7407
922.255	7820
922.352	7277
922.450	8419
922.548	7495
922.645	10022
922.743	12143
922.840	20626
922.938	21632
923.035	19427
923.133	19369
923.230	22651
923.327	26910
923.425	23124
923.522	23037
923.619	21712
923.717	19813
923.814	19368
923.911	18704
924.008	20010
924.106	17528
924.203	18416
924.300	19642
924.397	19502
924.494	19131
924.591	18719
924.688	17308
924.786	19050
924.883	19229
924.979	19512
925.077	17601
925.173	17627
925.270	17954
925.367	19202
925.464	18748
925.561	19418
925.658	19133
925.755	16537
925.852	19034
925.948	18074
926.045	16567
926.142	17846
926.239	17763
926.335	14627
926.432	17255
926.529	18701
926.625	19058
926.722	15370
926.818	15073
926.915	17966
927.011	16069
927.108	17361
927.204	16058
927.301	14195
927.397	18401
927.494	19016
927.590	12398
927.687	15139
927.783	19238
927.879	17680
927.976	15243
928.072	14562
928.168	15809
928.264	16703
928.361	15418
928.457	17135
928.553	13780
928.649	15609
928.745	15530
928.841	14484
928.937	15497
929.033	15281
929.129	13834
929.225	17953
929.321	14671
929.417	13577
929.513	16121
929.609	14457
929.705	13632
929.801	15885
929.897	13223
929.993	14219
930.089	14213
930.184	13737
930.280	15132
930.376	17185
930.471	13497
930.567	11689
930.663	13250
930.758	12788
930.854	13282
930.950	13079
931.045	12379
931.141	12978
931.236	16489
931.332	12431
931.427	11087
931.523	15754
931.618	13983
931.714	10065
931.809	11908
931.905	14357
932.000	9265
932.095	9890
932.191	15333
932.286	16969
932.381	12136
932.476	10393
932.572	11461
932.667	10326
932.762	10696
932.857	13040
932.952	14538
933.047	11722
933.142	9518
933.237	12657
933.332	12677
933.427	13333
933.522	11560
933.617	10108
933.712	10991
933.807	14491
933.902	14937
933.997	14427
934.092	9333
934.187	11133
934.282	11069
934.376	12833
934.471	11273
934.566	9745
934.661	10483
934.755	12137
934.850	12964
934.945	10420
935.039	10267
935.134	8447
935.228	12051
935.323	15590
935.417	9236
935.512	7180
935.606	8484
935.701	11026
935.795	12591
935.890	10926
935.984	8528
936.079	8013
936.173	10407
936.267	9731
936.362	7517
936.456	11923
936.550	13349
936.644	10161
936.738	7611
936.833	7959
936.927	7000
937.021	9668
937.115	10261
937.209	11018
937.303	9042
937.397	7316
937.491	9516
937.585	10810
937.679	9815
937.773	7949
937.867	6824
937.961	8695
938.055	11367
938.149	9663
938.243	6196
938.337	6500
938.430	8291
938.524	12593
938.618	7163
938.712	6709
938.805	7837
938.899	10681
938.993	11488
939.086	7670
939.180	5409
939.274	6727
939.367	9989
939.461	11546
939.554	7201
939.648	7253
939.741	7602
939.835	10602
939.928	10941
940.022	10667
940.115	8111
940.208	9610
940.302	11376
940.395	11218
940.488	7785
940.582	8186
940.675	6752
940.768	7315
940.861	9821
940.954	10069
941.048	5818
941.141	6428
941.234	6817
941.327	7650
941.420	8486
941.513	9314
941.606	7505
941.699	7157
941.792	9409
941.885	8554
941.978	9073
942.071	8930
942.164	5216
942.257	6218
942.349	7384
942.442	9104
942.535	5120
942.628	7021
942.721	7613
942.813	6937
942.906	7572
942.999	6820
943.091	5606
943.184	7674
943.277	7585
943.369	4345
943.462	4269
943.554	6878
943.647	6908
943.739	9122
943.832	7880
943.924	3710
944.017	4709
944.109	5392
944.201	6299
944.294	6246
944.386	6313
944.478	5677
944.571	5837
944.663	5580
944.755	6262
944.847	7818
944.940	6598
945.032	4184
945.124	3638
945.216	7321
945.308	6316
945.400	6538
945.492	6026
945.584	7804
945.676	8044
945.768	6852
945.860	6911
945.952	7819
946.044	6236
946.136	5293
946.228	5464
946.320	5442
946.412	6922
946.503	7549
946.595	7366
946.687	5346
946.779	3988
946.870	5314
946.962	4157
947.054	5461
947.145	6661
947.237	5510
947.329	5349
947.420	6509
947.512	5758
947.603	3417
947.695	4015
947.786	4899
947.878	5336
947.969	6318
948.061	6357
948.152	5723
948.243	3206
948.335	3655
948.426	3636
948.517	6794
948.609	6635
948.700	5973
948.791	4954
948.882	3897
948.973	3334
949.065	5438
949.156	4576
949.247	3768
949.338	5055
949.429	3155
949.520	3845
949.611	4485
949.702	6223
949.793	4854
949.884	5228
949.975	4476
950.066	2627
950.157	3670
950.247	4515
950.338	3443
950.429	3854
950.520	4817
950.611	3217
950.701	5174
950.792	6133
950.883	5707
950.973	4650
951.064	5335
951.155	5250
951.245	6675
951.336	5066
951.427	5596
951.517	7094
951.608	5621
951.698	3879
951.788	3468
951.879	2524
951.969	3922
952.060	3436
952.150	5491
952.240	5568
952.331	4405
952.421	4761
952.511	3997
952.602	1727
952.692	3083
952.782	3165
952.872	3795
952.962	4071
953.052	3335
953.143	2520
953.233	4788
953.323	4382
953.413	4495
953.503	4510
953.593	4772
953.683	3960
953.773	2415
953.863	2346
953.953	2102
954.042	3381
954.132	5326
954.222	3395
954.312	2960
954.402	3115
954.492	3812
954.581	3869
954.671	4375
954.761	3003
954.850	4433
954.940	1821
955.030	2699
955.119	1988
955.209	3780
955.298	2568
955.388	5198
955.477	4177
955.567	2819
955.656	3300
955.746	3692
955.835	2359
955.925	2851
956.014	4203
956.103	5721
956.193	5722
956.282	4686
956.371	4204
956.461	3084
956.550	3822
956.639	3623
956.728	3634
956.817	3343
956.906	3473
956.995	3867
957.085	2834
957.174	2840
957.263	2854
957.352	3671
957.441	3688
957.530	3470
957.619	2835
957.708	2976
957.796	3279
957.885	3032
957.974	2862
958.063	3861
958.152	1550
958.241	2842
958.329	2260
958.418	2797
958.507	1757
958.596	4530
958.684	2283
958.773	3924
958.861	1245
958.950	2242
959.039	1782
959.127	3266
959.216	3082
959.304	1844
959.393	3165
959.481	3371
959.570	2123
959.658	1985
959.746	2346
959.835	2908
959.923	1639
960.011	1597
960.100	3227
960.188	3133
960.276	2292
960.365	2710
960.453	1550
960.541	1629
960.629	2359
960.717	1340
960.805	762
960.893	2400
960.981	2657
961.069	4988
961.158	4055
961.245	5841
961.333	3420
961.421	3338
961.509	3834
961.597	3827
961.685	2936
961.773	2642
961.861	3139
961.949	4104
962.036	1690
962.124	2075
962.212	1856
962.299	2598
962.387	1714
962.475	2938
962.562	1282
962.650	3107
962.738	2094
962.825	1704
962.913	1578
963.000	2377
963.088	2736
963.175	3037
963.263	2031
963.350	2734
963.438	2066
963.525	1614
963.612	2209
963.700	1549
963.787	3671
963.874	2453
963.962	1687
964.049	2343
964.136	571
964.223	2137
964.310	1744
964.398	1581
964.485	1477
964.572	2562
964.659	2241
964.746	1983
964.833	1710
964.920	2130
965.007	2335
965.094	2662
965.181	1511
965.268	3473
965.355	2280
965.441	2492
965.528	1556
965.615	2856
965.702	2364
965.789	1957
965.875	2253
965.962	2973
966.049	1383
966.136	4005
966.222	3190
966.309	3191
966.395	1791
966.482	3677
966.569	1835
966.655	3489
966.742	1837
966.828	2962
966.915	1085
967.001	1857
967.087	628
967.174	2021
967.260	2269
967.347	2506
967.433	2442
967.519	2843
967.605	1597
967.692	2976
967.778	1458
967.864	1586
967.950	1721
968.036	1871
968.123	2758
968.209	1927
968.295	717
968.381	3272
968.467	2007
968.553	1163
968.639	2849
968.725	1088
968.811	3265
968.897	3395
968.983	1915
969.069	1449
969.154	2083
969.240	2515
969.326	84
969.412	1525
969.497	1100
969.583	1577
969.669	2632
969.755	2010
969.840	2102
969.926	5968
970.012	6049
970.097	7437
970.183	5023
970.268	3083
970.354	2519
970.439	683
970.525	2548
970.610	1948
970.696	2409
970.781	2047
970.866	1618
970.952	1601
971.037	1181
971.122	2053
971.208	2436
971.293	2005
971.378	1372
971.463	2310
971.549	1380
971.634	1879
971.719	1740
971.804	1787
971.889	2846
971.974	1984
972.059	1814
972.144	2625
972.229	1199
972.314	1881
972.399	1350
972.484	1442
972.569	945
972.654	1054
972.739	2647
972.824	1731
972.908	1669
972.993	1696
973.078	1322
973.163	1351
973.247	1902
973.332	1623
973.417	2782
973.501	1180
973.586	2197
973.671	2634
973.755	1390
973.840	2723
973.924	2882
974.009	4386
974.093	3374
974.178	4092
974.262	2258
974.346	2840
974.431	2207
974.515	2473
974.600	2402
974.684	1879
974.768	2366
974.852	2586
974.937	1268
975.021	2429
975.105	1657
975.189	1504
975.273	1598
975.358	1167
975.442	979
975.526	1655
975.610	1817
975.694	1937
975.778	1703
975.862	2137
975.946	-80
976.030	3585
976.114	1211
976.198	2127
976.281	1702
976.365	2612
976.449	1089
976.533	2283
976.617	1310
976.700	1377
976.784	810
976.868	684
976.951	2154
977.035	1121
977.119	1698
977.202	2583
977.286	2052
977.369	3204
977.453	5465
977.536	4987
977.620	2991
977.703	3299
977.787	1996
977.870	3211
977.953	2857
978.037	1482
978.120	1512
978.203	2228
978.287	2651
978.370	2422
978.453	1357
978.536	1187
978.620	2448
978.703	2501
978.786	1418
978.869	2026
978.952	957
979.035	3100
979.118	2464
979.201	2509
979.284	2993
979.367	2106
979.450	2136
979.533	1431
979.616	1610
979.699	2397
979.782	1927
979.865	2673
979.948	1638
980.030	1648
980.113	1100
980.196	1331
980.279	1906
980.361	2373
980.444	2041
980.526	3067
980.609	4418
980.692	4983
980.774	4391
980.857	3133
980.939	4095
981.022	3467
981.104	2892
981.187	3171
981.269	3114
981.352	2557
981.434	1457
981.516	2608
981.599	3525
981.681	2432
981.763	2952
981.846	2288
981.928	2728
982.010	2726
982.092	1349
982.174	3280
982.256	1419
982.339	2190
982.421	1918
982.503	2611
982.585	1803
982.667	2558
982.749	1865
982.831	2897
982.913	1516
982.995	3267
983.077	2274
983.158	4226
983.240	1657
983.322	3893
983.404	6157
983.486	5790
983.568	4679
983.649	3860
983.731	4137
983.813	3761
983.894	3758
983.976	3865
984.058	2568
984.139	3238
984.221	2601
984.302	4007
984.384	3176
984.465	3063
984.547	3015
984.628	3327
984.710	3731
984.791	3239
984.872	3328
984.954	3329
985.035	3073
985.116	3234
985.198	2680
985.279	4132
985.360	3433
985.441	3466
985.522	3936
985.604	3761
985.685	1259
985.766	3933
985.847	5300
985.928	3329
986.009	2799
986.090	3452
986.171	3655
986.252	2843
986.333	3027
986.414	3256
986.495	3835
986.576	3351
986.656	3072
986.737	4151
986.818	3913
986.899	3543
986.980	3454
987.060	4178
987.141	4592
987.222	5123
987.302	6429
987.383	6205
987.464	4894
987.544	5888
987.625	4766
987.705	6025
987.786	5265
987.866	5539
987.947	4819
988.027	5635
988.108	4160
988.188	5252
988.268	4699
988.349	5673
988.429	4397
988.509	5803
988.589	4585
988.670	3712
988.750	4658
988.830	3936
988.910	4274
988.990	4406
989.070	4212
989.151	4150
989.231	2966
989.311	4288
989.391	3754
989.471	4850
989.551	3980
989.631	3590
989.711	3823
989.791	3457
989.870	2766
989.950	4386
990.030	3441
990.110	4286
990.190	2818
990.269	3673
990.349	3091
990.429	3936
990.509	3374
990.588	2742
990.668	3697
990.747	3457
990.827	2975
990.907	4149
990.986	3435
991.066	2891
991.145	1931
991.225	3297
991.304	2693
991.383	3165
991.463	1974
991.542	3904
991.622	2359
991.701	2456
991.780	2309
991.859	2337
991.939	2469
992.018	3875
992.097	2932
992.176	2453
992.256	1774
992.335	2658
992.414	3160
992.493	2050
992.572	1376
992.651	3863
992.730	2693
992.809	2281
992.888	1975
992.967	2587
993.046	2667
993.125	2045
993.203	1776
993.282	2598
993.361	1207
993.440	2017
993.519	1146
993.597	1753
993.676	1752
993.755	3221
993.834	2048
993.912	821
993.991	2054
994.069	1941
994.148	1772
994.226	1535
994.305	2621
994.384	2058
994.462	2988
994.540	1318
994.619	1021
994.697	1495
994.776	1025
994.854	2849
994.932	1096
995.011	2040
995.089	855
995.167	1360
995.245	1551
995.324	1177
995.402	2242
995.480	1642
995.558	1262
995.636	820
995.714	752
995.792	1906
995.870	138
995.948	1204
996.026	941
996.104	-11
996.182	2050
996.260	724
996.338	1378
996.416	268
996.494	938
996.572	2279
996.649	240
996.727	972
996.805	1251
996.883	1637
996.960	104
997.038	2131
997.116	1553
997.193	944
997.271	144
997.348	453
997.426	1135
997.504	791
997.581	1003
997.658	661
997.736	-520
997.813	396
997.891	731
997.968	314
998.046	586
998.123	1299
998.200	179
998.277	970
998.355	731
998.432	-431
998.509	199
998.586	876
998.663	351
998.741	411
998.818	57
998.895	-101
998.972	964
999.049	1225
999.126	36
999.203	546
999.280	-239
999.357	589
999.434	102
999.511	532
999.587	251
999.664	-1111
999.741	825
999.818	1393
999.895	266
999.971	723
1000.048	-1023
1000.125	929
1000.202	-330
1000.278	262
1000.355	553
1000.431	-169
1000.508	-1180
1000.584	417
1000.661	438
1000.738	89
1000.814	250
1000.890	369
1000.967	-61
1001.043	-36
1001.120	-929
1001.196	514
1001.272	-1083
1001.349	602
1001.425	-4
1001.501	239
1001.577	-706
1001.654	-465
1001.730	-801
1001.806	126
1001.882	-712
1001.958	1098
1002.034	-9
1002.110	-166
1002.186	-275
1002.262	-241
1002.338	-1058
1002.414	1260
1002.490	110
1002.566	-912
1002.642	-601
1002.718	689
1002.794	-977
1002.870	394
1002.945	-780
1003.021	-302
1003.097	-119
1003.173	369
1003.248	-1201
1003.324	-320
1003.400	-337
1003.475	-689
1003.551	-494
1003.626	-822
1003.702	-536
1003.777	-551
1003.853	-754
1003.928	-945
1004.004	-973
1004.079	888
1004.155	-686
1004.230	-727
1004.305	302
1004.381	-1452
1004.456	-1634
1004.531	-984
1004.607	-920
1004.682	-216
1004.757	-1118
1004.832	-882
1004.907	-1214
1004.982	210
1005.057	-557
1005.133	-303
1005.208	-1043
1005.283	-894
1005.358	-1086
1005.433	-730
1005.508	-1495
1005.583	-472
1005.657	-993
1005.732	11
1005.807	-1226
1005.882	-909
1005.957	-739
1006.032	-743
1006.106	-920
1006.181	-1303
1006.256	17
1006.331	-1415
1006.405	-1385
1006.480	-651
1006.554	-991
1006.629	-549
1006.704	-1128
1006.778	-54
1006.853	-364
1006.927	-1420
1007.002	-1120
1007.076	-1168
1007.150	-818
1007.225	-795
1007.299	-1460
1007.373	-1049
1007.448	-1783
1007.522	-109
1007.596	-951
1007.671	-1016
1007.745	-100
1007.819	-1775
1007.893	-561
1007.967	-706
1008.041	-2009
1008.115	-147
1008.190	-1169
1008.264	-859
1008.338	-2172
1008.412	-712
1008.486	-1456
1008.560	-1091
1008.633	-1517
1008.707	-837
1008.781	141
1008.855	-312
1008.929	-1399
1009.003	-1840
1009.076	-1289
1009.150	-1276
1009.224	-1437
1009.298	-1304
1009.371	-2090
1009.445	-821
1009.519	-674
1009.592	-1337
1009.666	-845
1009.739	-1079
1009.813	-2144
1009.886	-423
1009.960	-2272
1010.033	-1096
1010.107	-1366
1010.180	-2566
1010.253	-1962
1010.327	-1624
1010.400	-1105
1010.473	-1514
1010.547	-685
1010.620	-1644
1010.693	-1704
1010.766	-1196
1010.840	-1366
1010.913	-1498
1010.986	-1587
1011.059	-1421
1011.132	-1927
1011.205	-424
1011.278	-961
1011.351	-868
1011.424	-1134
1011.497	-1927
1011.570	-1322
1011.643	-1319
1011.716	-1606
1011.789	-1997
1011.862	-2033
1011.934	-1175
1012.007	-2524
1012.080	-617
1012.153	-234
1012.225	-1150
1012.298	-1653
1012.371	-1060
1012.443	-1079
1012.516	-1503
1012.588	-1514
1012.661	-1344
1012.733	-2326
1012.806	-1576
1012.879	-1661
1012.951	-1328
1013.023	-2293
1013.096	-1385
1013.168	-1525
1013.241	-746
1013.313	-1630
1013.385	-1770
1013.458	-1913
1013.530	-1562
1013.602	-2954
1013.674	-1203
1013.746	-2172
1013.819	-1497
1013.891	-901
1013.963	-1191
1014.035	-1868
1014.107	-1347
1014.179	-1175
1014.251	-2270
1014.323	-1988
1014.395	-881
1014.467	-1902
1014.539	-1283
1014.611	-2194
1014.683	-1239
1014.754	-1616
1014.826	-2000
1014.898	-982
1014.970	-2244
1015.042	-384
1015.113	-1259
1015.185	-755
1015.257	-2277
1015.328	-1865
1015.400	-1644
1015.471	-1993
1015.543	-2110
1015.615	-1114
1015.686	-1167
1015.757	-2377
1015.829	-1561
1015.901	-1504
1015.972	-1165
1016.043	-2379
1016.115	-604
1016.186	-1852
1016.257	-1372
1016.328	-1248
1016.400	-1225
1016.471	-2208
1016.542	-1303
1016.613	-2293
1016.685	-1262
1016.756	-1190
1016.827	-1618
1016.898	-2837
1016.969	-1140
1017.040	-2219
1017.111	-1958
1017.182	-1733
1017.253	-1003
1017.324	-1878
1017.395	-1548
1017.466	-1888
1017.537	-875
1017.608	-2403
1017.678	-1335
1017.749	-1402
1017.820	-1932
1017.891	-1899
1017.961	-1526
1018.032	-1813
1018.103	-916
1018.173	-1917
1018.244	-2493
1018.315	-2268
1018.385	-1668
1018.456	-2802
1018.526	-2265
1018.597	-2030
1018.667	-1636
1018.738	-1902
1018.808	-1295
1018.878	-2199
1018.949	-1122
1019.019	-2036
1019.089	-2684
1019.160	-1608
1019.230	-2282
1019.300	-1676
1019.371	-1926
1019.441	-1957
1019.511	-1429
1019.581	-2570
1019.651	-1658
1019.721	-1902
1019.791	-1421
1019.861	-1525
1019.931	-1714
1020.001	-2754
1020.071	-1722
1020.141	-1931
1020.211	-1809
1020.281	-1538
1020.351	-1646
1020.421	-2038
1020.491	-671
1020.560	-2186
1020.630	-1542
1020.700	-1409
1020.770	-1951
1020.839	-2213
1020.909	-1739
1020.979	-2622
1021.048	-1862
1021.118	-1773
1021.187	-1584
1021.257	-1820
1021.326	-1098
1021.396	-2082
1021.465	-2031
1021.535	-2984
1021.604	-2300
1021.674	-1618
1021.743	-1530
1021.812	-1975
1021.882	-1060
1021.951	-1848
1022.020	-1360
1022.089	-1787
1022.159	-1723
1022.228	-2061
1022.297	-1328
1022.366	-1684
1022.435	-1359
1022.504	-1546
1022.573	-2666
1022.642	-1603
1022.711	-1713
1022.781	-2275
1022.849	-1948
1022.918	-2637
1022.987	-2008
1023.056	-2853
1023.125	-1977
1023.194	-1474
1023.263	-2255
1023.331	-1998
1023.400	-1609
1023.469	-2165
1023.538	-1904
1023.606	-2830
1023.675	-556
1023.744	-2362
1023.812	-1450
1023.881	-2336
1023.949	-1881
1024.018	-1435
1024.086	-1971
1024.155	-2019
1024.223	-1162
1024.292	-1490
1024.360	-1140
1024.429	-2125
1024.497	-1498
1024.565	-2096
1024.634	-1639
1024.702	-2329
1024.770	-1695
1024.838	-3374
1024.907	-2000
1024.975	-2489
1025.043	-1733
1025.111	-2746
1025.179	-1046
1025.247	-2471
1025.315	-2095
1025.383	-3061
1025.451	-2210
1025.519	-2844
1025.587	-1514
1025.655	-1951
1025.723	-1792
1025.791	-2566
1025.859	-1986
1025.927	-2220
1025.995	-1829
1026.062	-1639
1026.130	-1551
1026.198	-2150
1026.266	-1562
1026.333	-2028
1026.401	-1098
1026.469	-2819
1026.536	-1602
1026.604	-1889
1026.671	-1968
1026.739	-1929
1026.806	-2212
1026.874	-2596
1026.941	-740
1027.009	-2760
1027.076	-3174
1027.144	-2670
1027.211	-1083
1027.278	-2127
1027.345	-1066
1027.413	-1725
1027.480	-2370
1027.547	-2932
1027.614	-2412
1027.682	-2304
1027.749	-2318
1027.816	-2782
1027.883	-2377
1027.950	-2110
1028.017	-2759
1028.084	-1880
1028.151	-1442
1028.218	-2106
1028.285	-2136
1028.352	-2155
1028.419	-1972
1028.486	-2601
1028.553	-1417
1028.619	-2763
1028.686	-1440
1028.753	-1866
1028.820	-2209
1028.886	-2103
1028.953	-1442
1029.020	-2421
1029.086	-1750
1029.153	-2527
1029.220	-2121
1029.286	-2449
1029.353	-1458
1029.419	-2819
1029.486	-1286
1029.552	-2794
1029.619	-1777
1029.685	-3174
1029.751	-1869
1029.818	-1382
1029.884	-1613
1029.951	-1134
1030.017	-1941
1030.083	-1520
1030.149	-1782
1030.216	-2002
1030.282	-1485
1030.348	-2374
1030.414	-1821
1030.480	-2677
1030.546	-2352
1030.612	-2118
1030.678	-2021
1030.744	-2172
1030.810	-2084
1030.876	-2187
1030.942	-2360
1031.008	-2677
1031.074	-2303
1031.140	-2171
1031.206	-1136
1031.272	-3066
1031.337	-2210
1031.403	-2452
1031.469	-2116
1031.534	-1768
1031.600	-1629
1031.666	-2676
1031.731	-2042
1031.797	-1781
1031.863	-1500
1031.928	-2279
1031.994	-1915
1032.059	-2844
1032.125	-2325
1032.190	-2095
1032.256	-2441
1032.321	-2169
1032.386	-1177
1032.452	-2118
1032.517	-2161
1032.582	-1460
1032.647	-1686
1032.713	-2332
1032.778	-1876
1032.843	-1887
1032.908	-1797
1032.974	-2645
1033.039	-1816
1033.104	-1849
1033.169	-3059
1033.234	-1761
1033.299	-1239
1033.364	-2544
1033.429	-1105
1033.494	-2891
1033.559	-2327
1033.624	-1543
1033.688	-1072
1033.753	-2005
1033.818	-1719
1033.883	-1736
1033.948	-1561
1034.013	-1350
1034.077	-229
1034.142	-434
1034.207	443
1034.271	1328
1034.336	2092
1034.400	1496
1034.465	-520
1034.530	-2399
1034.594	-1835
1034.658	-2080
1034.723	-1523
1034.787	-2554
1034.852	-1989
1034.916	-2087
1034.981	-2162
1035.045	-2227
1035.109	-1660
1035.173	-2181
1035.238	-2511
1035.302	-2103
1035.366	-2061
1035.430	-2260
1035.495	-2142
1035.559	-1790
1035.623	-1238
1035.687	-2696
1035.751	-2563
1035.815	-2898
1035.879	-2469
1035.943	-2976
1036.007	-1572
1036.071	-2637
1036.135	-2221
1036.198	-1750
1036.262	-1990
1036.326	-1969
1036.390	-2127
1036.454	-2623
1036.517	-1742
1036.581	-2200
1036.645	-2123
1036.709	-2078
1036.772	-2439
1036.836	-2392
1036.900	-2440
1036.963	-2408
1037.026	-1727
1037.090	-2889
1037.154	-2598
1037.217	-2551
1037.280	-2210
1037.344	-2442
1037.407	-2131
1037.471	-2523
1037.534	-2288
1037.597	-2727
1037.661	-1542
1037.724	-2471
1037.787	-2294
1037.850	-2190
1037.913	-2200
1037.977	-1646
1038.040	-2633
1038.103	-2711
1038.166	-2082
1038.229	-1952
1038.292	-2187
1038.355	-2258
1038.418	-2190
1038.481	-2244
1038.544	-2131
1038.607	-3109
1038.670	-2576
1038.732	-2719
1038.795	-2219
1038.858	-2858
1038.921	-1925
1038.984	-2017
1039.046	-2404
1039.109	-2276
1039.172	-2036
1039.234	-2875
1039.297	-2580
1039.360	-2747
1039.422	-2280
1039.485	-1918
1039.547	-2019
1039.610	-1896
1039.672	-2613
1039.734	-3241
1039.797	-2241
1039.859	-2124
1039.922	-2406
1039.984	-1730
1040.046	-2745
1040.109	-2493
1040.171	-1787
1040.233	-2453
1040.295	-1791
1040.358	-2555
1040.420	-2201
1040.482	-2802
1040.544	-2962
1040.606	-2254
1040.668	-2605
1040.730	-2576
1040.792	-1778
1040.854	-2787
1040.916	-2595
1040.978	-3675
1041.040	-2078
1041.102	-1761
1041.164	-2424
1041.225	-3090
1041.287	-2924
1041.349	-2822
1041.411	-2732
1041.472	-2986
1041.534	-2422
1041.596	-2995
1041.657	-1963
1041.719	-2089
1041.781	-3699
1041.842	-2678
1041.904	-2426
1041.965	-2226
1042.027	-1956
1042.088	-2485
1042.150	-1993
1042.211	-2191
1042.272	-2020
1042.334	-1810
1042.395	-2350
1042.456	-3265
1042.518	-1684
1042.579	-2231
1042.640	-2826
1042.701	-3171
1042.763	-2061
1042.824	-2695
1042.885	-2371
1042.946	-2454
1043.007	-2532
1043.068	-2236
1043.129	-2485
1043.190	-2360
1043.251	-1482
1043.312	-2334
1043.373	-2775
1043.434	-2516
1043.495	-2504
1043.556	-1728
1043.616	-2026
1043.677	-2074
1043.738	-2422
1043.799	-2326
1043.859	-2381
1043.920	-2776
1043.981	-2420
1044.041	-2732
1044.102	-2319
1044.162	-2272
1044.223	-3535
1044.284	-2582
1044.344	-2588
1044.405	-3142
1044.465	-2456
1044.525	-3449
1044.586	-1579
1044.646	-2266
1044.707	-1452
1044.767	-1997
1044.827	-2377
1044.887	-2918
1044.948	-1731
1045.008	-2481
1045.068	-2281
1045.128	-2755
1045.188	-2338
1045.249	-1887
1045.309	-1937
1045.369	-2626
1045.429	-2372
1045.489	-2757
1045.549	-2308
1045.609	-2664
1045.669	-1893
1045.729	-2426
1045.789	-2445
1045.848	-2336
1045.908	-2148
1045.968	-2561
1046.028	-1922
1046.088	-1659
1046.147	-1942
1046.207	-2443
1046.267	-1687
1046.326	-1147
1046.386	-1708
1046.446	-1089
1046.505	-1672
1046.565	-1879
1046.624	-1077
1046.684	-1805
1046.743	-976
1046.803	-1515
1046.862	-1595
1046.922	0
