'Start Wavelength	183.907
'End Wavelength	1046.922
'Gate Delay	5.000
'Gate Width (ms)	1.050
'Laser Output Level	0.000
'X Position	0.000
'Y Position	0.000
'Z Position	0.000
'Grid Point Number	1.000
'Shot Number	100.000
183.907	787.000
183.977	255.000
184.047	-220
184.116	802
184.186	8
184.256	279
184.325	-90
184.395	114
184.465	1283
184.534	204
184.604	-495
184.674	842
184.743	-98
184.813	13
184.883	571
184.952	-25
185.022	684
185.092	415
185.161	-59
185.231	187
185.301	-665
185.370	186
185.440	-374
185.509	397
185.579	20
185.649	1070
185.718	574
185.788	692
185.857	-333
185.927	565
185.996	63
186.066	457
186.136	-208
186.205	-396
186.275	709
186.344	61
186.414	72
186.483	-874
186.553	282
186.622	585
186.692	105
186.761	438
186.831	1
186.900	-372
186.970	450
187.039	933
187.109	675
187.178	373
187.248	732
187.317	773
187.387	146
187.456	504
187.526	172
187.595	549
187.664	-182
187.734	118
187.803	-313
187.873	992
187.942	-499
188.012	420
188.081	-346
188.150	418
188.220	48
188.289	215
188.358	-479
188.428	478
188.497	203
188.567	447
188.636	496
188.705	-124
188.775	-284
188.844	7
188.913	636
188.983	267
189.052	258
189.121	270
189.191	281
189.260	553
189.329	-405
189.399	131
189.468	338
189.537	-310
189.606	581
189.676	-216
189.745	125
189.814	172
189.883	-160
189.953	243
190.022	839
190.091	1055
190.161	69
190.230	400
190.299	120
190.368	434
190.437	39
190.507	-338
190.576	-164
190.645	133
190.714	17
190.783	-300
190.853	684
190.922	737
190.991	-942
191.060	454
191.129	-1249
191.198	897
191.268	-442
191.337	178
191.406	369
191.475	681
191.544	-320
191.613	1248
191.682	225
191.752	376
191.821	-486
191.890	162
191.959	22
192.028	433
192.097	485
192.166	679
192.235	-268
192.304	593
192.373	-158
192.442	427
192.511	-539
192.580	57
192.650	37
192.719	-64
192.788	-231
192.857	-828
192.926	407
192.995	86
193.064	-363
193.133	542
193.202	-143
193.271	259
193.340	-181
193.409	452
193.478	327
193.547	136
193.615	502
193.684	826
193.753	-184
193.822	631
193.891	-258
193.960	424
194.029	283
194.098	-112
194.167	-111
194.236	642
194.305	-359
194.374	488
194.443	34
194.512	130
194.580	-302
194.649	32
194.718	460
194.787	381
194.856	-596
194.925	804
194.994	423
195.062	508
195.131	73
195.200	226
195.269	31
195.338	256
195.407	253
195.475	669
195.544	559
195.613	51
195.682	540
195.751	44
195.819	-496
195.888	260
195.957	1153
196.026	-12
196.094	347
196.163	-171
196.232	699
196.301	436
196.369	111
196.438	-149
196.507	631
196.576	889
196.644	96
196.713	-80
196.782	-118
196.850	656
196.919	180
196.988	499
197.056	-58
197.125	689
197.194	-102
197.262	-266
197.331	-200
197.400	495
197.468	-324
197.537	-97
197.606	476
197.674	297
197.743	626
197.812	-92
197.880	-331
197.949	721
198.017	322
198.086	873
198.155	-244
198.223	802
198.292	-364
198.360	49
198.429	-93
198.497	554
198.566	597
198.635	520
198.703	588
198.772	887
198.840	364
198.909	646
198.977	77
199.046	482
199.114	-18
199.183	106
199.251	454
199.320	313
199.388	69
199.457	-224
199.525	-121
199.594	627
199.662	296
199.731	653
199.799	-126
199.867	254
199.936	-14
200.004	837
200.073	429
200.141	56
200.210	269
200.278	-85
200.346	475
200.415	805
200.483	-275
200.552	235
200.620	513
200.688	36
200.757	405
200.825	590
200.893	208
200.962	947
201.030	-391
201.098	321
201.167	469
201.235	741
201.303	66
201.372	407
201.440	-50
201.508	94
201.577	-204
201.645	501
201.713	31
201.781	-555
201.850	742
201.918	-25
201.986	65
202.055	347
202.123	93
202.191	262
202.259	-129
202.327	394
202.396	537
202.464	425
202.532	250
202.600	248
202.669	229
202.737	-101
202.805	-218
202.873	819
202.941	-212
203.009	113
203.078	332
203.146	428
203.214	76
203.282	-494
203.350	1932
203.418	779
203.487	615
203.555	-36
203.623	1145
203.691	166
203.759	-149
203.827	72
203.895	86
203.963	-191
204.031	411
204.099	882
204.168	601
204.236	856
204.304	27
204.372	-233
204.440	-140
204.508	-182
204.576	-30
204.644	279
204.712	428
204.780	105
204.848	123
204.916	474
204.984	0
205.052	451
205.120	513
205.188	182
205.256	332
205.324	568
205.392	269
205.460	1019
205.528	250
205.596	203
205.664	203
205.732	-380
205.799	-118
205.867	-209
205.935	53
206.003	576
206.071	-278
206.139	-202
206.207	161
206.275	44
206.343	-275
206.411	383
206.478	318
206.546	455
206.614	666
206.682	661
206.750	192
206.818	588
206.885	900
206.953	-808
207.021	1895
207.089	79
207.157	-259
207.225	359
207.292	-222
207.360	639
207.428	234
207.496	-293
207.563	1062
207.631	384
207.699	-180
207.767	1111
207.834	-86
207.902	429
207.970	-23
208.038	471
208.105	-338
208.173	1010
208.241	-432
208.309	521
208.376	126
208.444	1067
208.512	84
208.579	-130
208.647	198
208.715	417
208.782	-278
208.850	295
208.918	-92
208.985	124
209.053	210
209.120	523
209.188	-506
209.256	62
209.323	281
209.391	-216
209.459	371
209.526	368
209.594	-688
209.661	70
209.729	-400
209.796	288
209.864	529
209.932	-748
209.999	1198
210.067	323
210.134	36
210.202	804
210.269	927
210.337	208
210.404	708
210.472	-17
210.539	638
210.607	312
210.674	129
210.742	311
210.809	55
210.877	967
210.944	556
211.012	-820
211.079	1871
211.146	436
211.214	231
211.281	701
211.349	1222
211.416	315
211.484	-403
211.551	331
211.618	415
211.686	-305
211.753	-483
211.821	921
211.888	433
211.955	663
212.023	667
212.090	481
212.157	-341
212.225	376
212.292	46
212.359	751
212.427	1716
212.494	360
212.561	693
212.629	-203
212.696	396
212.763	1175
212.831	689
212.898	1019
212.965	413
213.032	1008
213.100	127
213.167	-211
213.234	669
213.301	257
213.369	211
213.436	375
213.503	517
213.570	1051
213.638	223
213.705	530
213.772	-782
213.839	155
213.906	113
213.973	323
214.041	459
214.108	338
214.175	711
214.242	511
214.309	35
214.376	1278
214.444	-749
214.511	996
214.578	71
214.645	277
214.712	294
214.779	425
214.846	-777
214.913	991
214.980	595
215.048	53
215.115	259
215.182	498
215.249	-260
215.316	-223
215.383	466
215.450	198
215.517	-13
215.584	278
215.651	-153
215.718	511
215.785	1364
215.852	-48
215.919	649
215.986	586
216.053	428
216.120	-411
216.187	-17
216.254	785
216.321	205
216.388	260
216.455	357
216.522	727
216.589	439
216.656	568
216.722	722
216.789	871
216.856	-75
216.923	551
216.990	143
217.057	459
217.124	798
217.191	505
217.258	1271
217.324	998
217.391	961
217.458	627
217.525	449
217.592	571
217.659	-202
217.725	766
217.792	327
217.859	746
217.926	-445
217.993	-163
218.059	930
218.126	102
218.193	402
218.260	141
218.327	-736
218.393	-186
218.460	17
218.527	-535
218.594	786
218.660	-117
218.727	399
218.794	-663
218.860	517
218.927	-439
218.994	262
219.061	-347
219.127	116
219.194	296
219.261	-341
219.327	27
219.394	-2
219.461	-537
219.527	453
219.594	580
219.661	-1048
219.727	-304
219.794	1161
219.860	-47
219.927	-251
219.994	-162
220.060	1731
220.127	1185
220.193	1303
220.260	518
220.326	1143
220.393	1285
220.460	1196
220.526	535
220.593	-66
220.659	2167
220.726	345
220.792	1408
220.859	1365
220.925	2371
220.992	2383
221.058	2403
221.125	1480
221.191	1736
221.258	-172
221.324	1652
221.391	174
221.457	254
221.524	233
221.590	653
221.657	968
221.723	404
221.789	1021
221.856	869
221.922	57
221.989	823
222.055	-266
222.121	-814
222.188	1257
222.254	565
222.321	-283
222.387	161
222.453	-336
222.520	-727
222.586	-692
222.652	492
222.719	88
222.785	331
222.851	185
222.918	307
222.984	-148
223.050	-238
223.116	-1275
223.183	1088
223.249	-327
223.315	136
223.382	-356
223.448	-709
223.514	-714
223.580	498
223.647	-263
223.713	-178
223.779	-424
223.845	341
223.911	166
223.978	-733
224.044	-102
224.110	143
224.176	138
224.242	-100
224.309	-1162
224.375	116
224.441	-152
224.507	-328
224.573	-689
224.639	-13
224.705	-650
224.772	294
224.838	-515
224.904	381
224.970	221
225.036	111
225.102	-793
225.168	597
225.234	647
225.300	199
225.366	215
225.432	562
225.499	-332
225.565	-254
225.631	-576
225.697	69
225.763	288
225.829	335
225.895	-133
225.961	1061
226.027	458
226.093	-108
226.159	683
226.225	1306
226.291	2309
226.357	4952
226.423	2090
226.489	1921
226.554	577
226.620	605
226.686	985
226.752	1515
226.818	2429
226.884	6024
226.950	4908
227.016	2042
227.082	1789
227.148	1212
227.214	689
227.279	642
227.345	-101
227.411	574
227.477	780
227.543	2362
227.609	1613
227.674	675
227.740	744
227.806	906
227.872	-51
227.938	31
228.003	1148
228.069	-788
228.135	-125
228.201	429
228.267	251
228.332	488
228.398	-1226
228.464	304
228.530	124
228.595	-23
228.661	-798
228.727	-1082
228.792	134
228.858	-356
228.924	-2049
228.990	1332
229.055	-736
229.121	36
229.187	349
229.252	6
229.318	-929
229.384	104
229.449	143
229.515	-1910
229.581	-617
229.646	844
229.712	74
229.777	396
229.843	-128
229.909	138
229.974	63
230.040	360
230.105	-261
230.171	-93
230.236	42
230.302	631
230.368	-314
230.433	311
230.499	811
230.564	748
230.630	-268
230.695	115
230.761	1576
230.826	-792
230.892	1468
230.957	-1102
231.023	-82
231.088	102
231.154	101
231.219	764
231.284	-161
231.350	857
231.415	-334
231.481	463
231.546	-290
231.612	-159
231.677	-599
231.742	-701
231.808	1004
231.873	-178
231.939	-1259
232.004	1423
232.069	184
232.135	-349
232.200	-83
232.265	81
232.331	-570
232.396	-53
232.461	-459
232.527	-385
232.592	-686
232.657	283
232.723	-836
232.788	-619
232.853	221
232.918	189
232.984	-520
233.049	-1254
233.114	-833
233.179	212
233.245	802
233.310	726
233.375	-757
233.440	16
233.506	-1019
233.571	79
233.636	-221
233.701	-332
233.766	-166
233.832	243
233.897	-707
233.962	-646
234.027	798
234.092	295
234.157	-74
234.222	-260
234.288	487
234.353	1288
234.418	1204
234.483	1078
234.548	621
234.613	-401
234.678	-323
234.743	-660
234.808	1250
234.873	-685
234.938	1330
235.004	137
235.069	-342
235.134	-408
235.199	-156
235.264	815
235.329	-904
235.394	607
235.459	556
235.524	365
235.589	331
235.654	-29
235.719	-1967
235.784	307
235.849	161
235.913	62
235.978	182
236.043	992
236.108	-92
236.173	-524
236.238	114
236.303	-169
236.368	21
236.433	798
236.498	16
236.563	1009
236.627	1808
236.692	6502
236.757	6131
236.822	2244
236.887	1180
236.952	1258
237.017	453
237.081	2346
237.146	427
237.211	3817
237.276	6815
237.341	10058
237.405	4648
237.470	1838
237.535	925
237.600	667
237.664	559
237.729	-182
237.794	72
237.859	2995
237.923	1326
237.988	-181
238.053	1087
238.118	-131
238.182	999
238.247	2585
238.312	-195
238.376	916
238.441	-1006
238.506	1367
238.570	-1118
238.635	1713
238.700	424
238.764	-402
238.829	800
238.893	-590
238.958	580
239.023	130
239.087	336
239.152	230
239.216	-110
239.281	157
239.346	133
239.410	-146
239.475	-393
239.539	2056
239.604	-171
239.668	1135
239.733	565
239.797	1336
239.862	4326
239.926	2807
239.991	679
240.055	746
240.120	-30
240.184	1535
240.249	-664
240.313	213
240.378	447
240.442	933
240.507	1089
240.571	255
240.635	53
240.700	808
240.764	470
240.829	517
240.893	-625
240.957	732
241.022	814
241.086	1663
241.151	-636
241.215	-10
241.279	902
241.344	-97
241.408	1428
241.472	-805
241.537	932
241.601	719
241.665	-1263
241.730	-726
241.794	1319
241.858	234
241.922	453
241.987	431
242.051	-121
242.115	-1494
242.179	606
242.244	-663
242.308	328
242.372	-163
242.436	-508
242.501	367
242.565	-577
242.629	207
242.693	66
242.757	-646
242.822	87
242.886	1666
242.950	724
243.014	66
243.078	25
243.142	-349
243.206	229
243.271	766
243.335	-144
243.399	1587
243.463	1982
243.527	8226
243.591	2406
243.655	453
243.719	-475
243.783	1390
243.847	458
243.911	1802
243.975	909
244.040	6
244.104	2308
244.168	258
244.232	-163
244.296	1465
244.360	1025
244.424	-830
244.488	392
244.552	702
244.615	-1440
244.679	354
244.743	-532
244.807	-709
244.871	71
244.935	441
244.999	-466
245.063	-254
245.127	372
245.191	547
245.255	-228
245.319	484
245.383	-1118
245.446	1155
245.510	-687
245.574	260
245.638	598
245.702	-836
245.766	960
245.829	1518
245.893	-534
245.957	-642
246.021	649
246.085	-531
246.149	-3
246.212	2614
246.276	1894
246.340	374
246.404	862
246.467	1518
246.531	-762
246.595	1662
246.659	1175
246.722	-1043
246.786	228
246.850	544
246.913	394
246.977	-101
247.041	724
247.104	-542
247.168	-37
247.232	1695
247.295	2313
247.359	1611
247.423	350
247.486	1198
247.550	1126
247.614	274
247.677	442
247.741	592
247.804	233
247.868	1975
247.932	873
247.995	3505
248.059	440
248.122	62
248.186	1589
248.249	242
248.313	5282
248.376	6078
248.440	3015
248.503	147
248.567	1955
248.630	198
248.694	1144
248.757	2795
248.821	5680
248.884	3692
248.948	2314
249.011	4297
249.075	5735
249.138	5383
249.202	1674
249.265	782
249.328	2126
249.392	1117
249.455	1110
249.519	1198
249.582	641
249.645	2077
249.709	575
249.772	1208
249.835	844
249.899	592
249.962	1216
250.025	402
250.089	1980
250.152	2635
250.215	1093
250.279	593
250.342	1170
250.405	1106
250.468	-162
250.532	1432
250.595	2366
250.658	7242
250.721	14196
250.785	3926
250.848	3059
250.911	-81
250.974	561
251.038	1718
251.101	3398
251.164	1808
251.227	2088
251.290	1624
251.354	2469
251.417	11661
251.480	11485
251.543	6848
251.606	22384
251.669	16322
251.732	6008
251.795	5556
251.859	5444
251.922	13247
251.985	8017
252.048	3959
252.111	1491
252.174	895
252.237	3412
252.300	8404
252.363	7402
252.426	18030
252.489	6348
252.552	3078
252.615	1439
252.678	2621
252.741	5116
252.804	6882
252.867	18744
252.930	9620
252.993	4718
253.056	3484
253.119	1489
253.182	401
253.245	1627
253.308	1790
253.371	648
253.434	1564
253.497	1487
253.559	3925
253.622	1948
253.685	1772
253.748	1680
253.811	1159
253.874	2203
253.937	721
254.000	282
254.062	2176
254.125	2993
254.188	4074
254.251	1416
254.314	427
254.376	1461
254.439	2665
254.502	2050
254.565	1586
254.628	4012
254.690	1780
254.753	174
254.816	812
254.878	732
254.941	2524
255.004	1423
255.067	1346
255.129	158
255.192	154
255.255	-312
255.317	512
255.380	420
255.443	234
255.505	351
255.568	-491
255.631	-623
255.693	107
255.756	-612
255.819	300
255.881	-96
255.944	904
256.006	-52
256.069	129
256.132	-593
256.194	259
256.257	111
256.319	263
256.382	-468
256.444	1075
256.507	307
256.569	-72
256.632	-19
256.694	831
256.757	3905
256.819	12639
256.882	4500
256.944	1496
257.007	1074
257.069	707
257.132	636
257.194	698
257.257	124
257.319	-457
257.381	509
257.444	3926
257.506	13962
257.569	15902
257.631	4585
257.693	2559
257.756	1038
257.818	-113
257.880	115
257.943	1243
258.005	-1035
258.067	585
258.130	-62
258.192	531
258.254	930
258.317	730
258.379	708
258.441	1332
258.503	2195
258.566	1829
258.628	2758
258.690	-288
258.753	1070
258.815	1697
258.877	-38
258.939	914
259.001	528
259.064	168
259.126	-711
259.188	909
259.250	955
259.312	806
259.375	199
259.437	217
259.499	-182
259.561	295
259.623	1244
259.685	-213
259.747	792
259.809	2071
259.872	2502
259.934	5664
259.996	6199
260.058	2994
260.120	476
260.182	444
260.244	105
260.306	119
260.368	162
260.430	-251
260.492	1342
260.554	3520
260.616	674
260.678	2178
260.740	2585
260.802	381
260.864	603
260.926	-501
260.988	1684
261.050	432
261.112	3102
261.174	7064
261.236	2824
261.298	445
261.359	1029
261.421	2119
261.483	11
261.545	1306
261.607	-1202
261.669	538
261.731	91
261.793	1825
261.854	-594
261.916	1251
261.978	-80
262.040	787
262.102	670
262.164	-390
262.225	58
262.287	537
262.349	-94
262.411	-378
262.472	696
262.534	-553
262.596	691
262.658	926
262.719	-354
262.781	1064
262.843	-255
262.904	564
262.966	-842
263.028	1426
263.090	3910
263.151	11198
263.213	4015
263.275	1691
263.336	238
263.398	922
263.459	-1200
263.521	131
263.583	1086
263.644	1398
263.706	-365
263.767	-725
263.829	-90
263.891	120
263.952	42
264.014	-363
264.075	1364
264.137	4334
264.198	1350
264.260	-477
264.321	75
264.383	1826
264.444	6077
264.506	1331
264.567	168
264.629	2668
264.690	4213
264.752	1948
264.813	1020
264.875	282
264.936	895
264.998	789
265.059	-165
265.120	698
265.182	561
265.243	6292
265.305	7406
265.366	2566
265.427	65
265.489	1145
265.550	-826
265.611	56
265.673	256
265.734	517
265.795	277
265.857	-93
265.918	-849
265.979	1630
266.040	11029
266.102	9859
266.163	2827
266.224	2360
266.286	884
266.347	460
266.408	-206
266.469	168
266.530	259
266.592	-566
266.653	713
266.714	1268
266.775	-4
266.836	256
266.898	-331
266.959	1352
267.020	108
267.081	1278
267.142	70
267.203	-18
267.264	-1253
267.326	1066
267.387	-191
267.448	-1375
267.509	-450
267.570	-238
267.631	-1148
267.692	-1442
267.753	395
267.814	-251
267.875	418
267.936	1769
267.997	662
268.058	542
268.119	-303
268.180	-128
268.241	-1082
268.302	-219
268.363	-499
268.424	-96
268.485	155
268.546	-297
268.607	-518
268.668	-423
268.729	-566
268.790	633
268.851	633
268.912	1326
268.972	1346
269.033	-477
269.094	-930
269.155	-164
269.216	-1031
269.277	277
269.338	56
269.398	265
269.459	37
269.520	189
269.581	-455
269.642	17
269.702	-688
269.763	139
269.824	563
269.885	815
269.945	347
270.006	49
270.067	-854
270.128	-550
270.188	-165
270.249	-479
270.310	-508
270.370	243
270.431	-1051
270.492	-499
270.553	-311
270.613	558
270.674	1551
270.734	257
270.795	177
270.856	12
270.916	-209
270.977	463
271.038	384
271.098	-201
271.159	-393
271.219	444
271.280	-495
271.340	125
271.401	-1130
271.462	8
271.522	203
271.583	-640
271.643	-99
271.704	-157
271.764	-569
271.825	1098
271.885	5241
271.946	6996
272.006	2163
272.066	3495
272.127	5384
272.187	2758
272.248	1379
272.308	583
272.369	3993
272.429	1769
272.489	483
272.550	1503
272.610	1137
272.671	161
272.731	737
272.791	956
272.852	-59
272.912	639
272.972	-294
273.033	203
273.093	-232
273.153	1166
273.214	-217
273.274	266
273.334	3232
273.394	5789
273.455	1137
273.515	2524
273.575	3823
273.635	1568
273.696	1878
273.756	4599
273.816	751
273.876	603
273.936	1383
273.997	2423
274.057	327
274.117	628
274.177	161
274.237	7051
274.297	5543
274.358	2281
274.418	3614
274.478	2471
274.538	749
274.598	-607
274.658	2335
274.718	2571
274.778	392
274.838	285
274.898	547
274.958	3120
275.018	4263
275.078	3191
275.138	928
275.198	60
275.258	-83
275.318	139
275.378	717
275.438	704
275.498	43
275.558	1295
275.618	3368
275.678	3157
275.738	2430
275.798	1689
275.858	657
275.918	194
275.978	-65
276.038	1035
276.098	-310
276.157	333
276.217	3193
276.277	1175
276.337	561
276.397	151
276.457	-367
276.517	-226
276.576	-669
276.636	-472
276.696	-208
276.756	1992
276.815	723
276.875	471
276.935	-403
276.995	797
277.055	-348
277.114	1122
277.174	417
277.234	3191
277.293	1321
277.353	567
277.413	-15
277.472	27
277.532	279
277.592	982
277.651	2193
277.711	4389
277.771	1299
277.830	5768
277.890	4507
277.950	3708
278.009	9817
278.069	3630
278.128	3784
278.188	4454
278.248	1482
278.307	5243
278.367	3424
278.426	384
278.486	-549
278.545	192
278.605	204
278.664	29
278.724	361
278.783	1641
278.843	5169
278.902	1582
278.962	-701
279.021	517
279.081	742
279.140	974
279.199	547
279.259	260
279.318	918
279.378	1372
279.437	1985
279.496	7064
279.556	32365
279.615	22680
279.675	5189
279.734	2691
279.793	2839
279.853	4151
279.912	1291
279.971	2423
280.031	714
280.090	1906
280.149	3181
280.208	3334
280.268	23153
280.327	21043
280.386	4261
280.445	3064
280.505	1903
280.564	1561
280.623	1109
280.682	1576
280.742	2458
280.801	247
280.860	-172
280.919	-344
280.978	-152
281.037	199
281.097	-400
281.156	569
281.215	-575
281.274	749
281.333	3042
281.392	2372
281.451	609
281.510	-45
281.569	-298
281.628	271
281.688	-50
281.747	692
281.806	-365
281.865	75
281.924	-126
281.983	260
282.042	-108
282.101	-387
282.160	-395
282.219	-103
282.278	-104
282.337	1644
282.396	-295
282.454	-674
282.513	213
282.572	2590
282.631	676
282.690	-76
282.749	-1265
282.808	228
282.867	-681
282.926	661
282.985	458
283.043	-175
283.102	-169
283.161	-564
283.220	953
283.279	3500
283.338	622
283.396	228
283.455	210
283.514	92
283.573	-72
283.631	396
283.690	343
283.749	265
283.808	298
283.866	1006
283.925	-413
283.984	518
284.043	514
284.101	293
284.160	-274
284.219	63
284.277	1105
284.336	593
284.395	3825
284.453	2845
284.512	949
284.570	1534
284.629	763
284.688	32
284.746	885
284.805	2119
284.863	1763
284.922	2571
284.981	3518
285.039	5680
285.098	9045
285.156	20540
285.215	34059
285.273	31499
285.332	22107
285.390	13059
285.449	7031
285.507	5504
285.566	2949
285.624	2654
285.683	2257
285.741	1717
285.799	595
285.858	90
285.916	493
285.975	-196
286.033	166
286.091	1053
286.150	160
286.208	443
286.267	512
286.325	432
286.383	363
286.442	1083
286.500	-238
286.558	223
286.616	-128
286.675	573
286.733	-147
286.791	-332
286.850	-311
286.908	346
286.966	944
287.024	239
287.083	-192
287.141	-336
287.199	425
287.257	312
287.315	415
287.374	501
287.432	1295
287.490	482
287.548	-256
287.606	249
287.664	-101
287.723	376
287.781	619
287.839	427
287.897	-150
287.955	66
288.013	1215
288.071	4067
288.129	16141
288.187	46756
288.245	21185
288.303	6025
288.361	3535
288.419	2121
288.477	889
288.535	1095
288.593	520
288.651	485
288.709	-110
288.767	-168
288.825	-110
288.883	667
288.941	294
288.999	-263
289.057	15
289.115	-43
289.173	-79
289.231	256
289.289	-417
289.346	-342
289.404	-196
289.462	1078
289.520	-7
289.578	-433
289.636	-492
289.694	291
289.751	-1301
289.809	-255
289.867	20
289.925	469
289.983	-324
290.040	-279
290.098	10
290.156	-482
290.214	-103
290.271	-222
290.329	-345
290.387	106
290.444	29
290.502	482
290.560	-13
290.617	304
290.675	-767
290.733	-446
290.790	148
290.848	-284
290.906	-193
290.963	529
291.021	-227
291.078	-102
291.136	-284
291.194	2303
291.251	5750
291.309	1066
291.366	-570
291.424	-177
291.481	-489
291.539	-851
291.596	-348
291.654	-438
291.711	-84
291.769	10
291.826	534
291.884	924
291.941	-384
291.999	-450
292.056	-283
292.114	-324
292.171	-308
292.228	104
292.286	230
292.343	382
292.401	550
292.458	305
292.515	283
292.573	999
292.630	302
292.687	-92
292.745	-112
292.802	842
292.859	2924
292.917	3618
292.974	2490
293.031	-89
293.089	399
293.146	-295
293.203	287
293.260	75
293.318	-306
293.375	1773
293.432	249
293.489	132
293.546	389
293.604	881
293.661	1919
293.718	6952
293.775	4260
293.832	1606
293.889	302
293.947	1282
294.004	428
294.061	471
294.118	801
294.175	4701
294.232	8807
294.289	3142
294.346	534
294.403	1128
294.460	491
294.517	579
294.574	196
294.631	521
294.688	41
294.745	2305
294.802	8399
294.859	12651
294.916	3550
294.973	1776
295.030	30
295.087	216
295.144	515
295.201	553
295.258	875
295.315	168
295.372	2652
295.429	4526
295.486	2089
295.542	1064
295.599	5288
295.656	11434
295.713	5888
295.770	5992
295.827	1003
295.883	1109
295.940	-271
295.997	1102
296.054	903
296.111	1141
296.167	452
296.224	414
296.281	-148
296.338	-271
296.394	576
296.451	652
296.508	1894
296.564	5120
296.621	3410
296.678	6178
296.734	8882
296.791	4087
296.848	603
296.904	1176
296.961	2743
297.018	6601
297.074	5106
297.131	1776
297.187	158
297.244	1370
297.301	5141
297.357	9747
297.414	2981
297.470	1294
297.527	450
297.583	184
297.640	57
297.696	397
297.753	-314
297.809	-425
297.866	-835
297.922	691
297.979	271
298.035	-266
298.092	708
298.148	2769
298.204	2603
298.261	967
298.317	2641
298.374	7660
298.430	4002
298.486	1491
298.543	128
298.599	1078
298.656	908
298.712	1320
298.768	5428
298.824	3252
298.881	766
298.937	474
298.993	155
299.050	673
299.106	395
299.162	264
299.218	-209
299.275	1202
299.331	-52
299.387	833
299.443	5904
299.500	10104
299.556	5179
299.612	2880
299.668	1690
299.724	4711
299.780	6119
299.837	2643
299.893	1400
299.949	7967
300.005	9385
300.061	7191
300.117	11821
300.173	5435
300.229	1018
300.285	2080
300.341	3062
300.397	1708
300.453	429
300.510	1216
300.566	1335
300.622	2521
300.678	8821
300.734	13797
300.790	6993
300.845	6911
300.901	5849
300.957	11153
301.013	5974
301.069	504
301.125	1162
301.181	1821
301.237	613
301.293	110
301.349	343
301.405	127
301.461	312
301.516	1514
301.572	1380
301.628	1263
301.684	1408
301.740	1851
301.796	4180
301.851	2265
301.907	4198
301.963	3909
302.019	5651
302.074	17065
302.130	16141
302.186	6875
302.242	3182
302.297	1710
302.353	1428
302.409	3652
302.464	3224
302.520	2429
302.576	5347
302.631	7065
302.687	2957
302.743	2080
302.798	638
302.854	630
302.910	1525
302.965	986
303.021	2076
303.076	2362
303.132	1584
303.187	2194
303.243	1139
303.299	158
303.354	161
303.410	601
303.465	-300
303.521	84
303.576	320
303.632	251
303.687	1809
303.743	6236
303.798	4256
303.853	1648
303.909	737
303.964	1142
304.020	1232
304.075	1194
304.130	904
304.186	2945
304.241	3197
304.297	3040
304.352	1325
304.358	1298
304.407	1077
304.449	715
304.463	596
304.518	1068
304.539	625
304.573	-99
304.629	923
304.630	927
304.684	1198
304.720	3153
304.739	4111
304.794	5986
304.811	5277
304.850	3615
304.902	1454
304.905	1310
304.960	1335
304.992	923
305.015	633
305.071	1132
305.083	1043
305.126	686
305.173	474
305.181	444
305.236	563
305.264	664
305.292	755
305.347	1120
305.354	1068
305.402	856
305.445	824
305.457	787
305.512	1264
305.535	1230
305.567	1214
305.622	1191
305.626	1268
305.678	2815
305.716	5135
305.733	5936
305.788	5892
305.807	5147
305.843	4017
305.897	5552
305.898	5567
305.953	5119
305.988	3628
306.008	2819
306.063	846
306.078	895
306.118	1226
306.168	578
306.173	502
306.228	374
306.259	424
306.283	585
306.338	621
306.349	701
306.393	757
306.440	432
306.448	441
306.503	1180
306.530	1460
306.558	1752
306.613	2926
306.620	3237
306.668	5307
306.711	5969
306.723	5880
306.778	4232
306.801	3174
306.833	2237
306.888	1050
306.892	1064
306.943	1227
306.982	1235
306.997	1243
307.052	960
307.072	913
307.107	1061
307.162	1936
307.163	1935
307.217	1866
307.253	2971
307.272	3333
307.327	2190
307.343	1955
307.381	1805
307.434	2036
307.436	2081
307.491	3598
307.524	4766
307.546	4982
307.600	5758
307.614	4983
307.655	2509
307.704	1400
307.710	1419
307.765	1925
307.795	2568
307.819	3006
307.874	5440
307.885	5409
307.929	4431
307.975	3713
307.984	3806
308.038	5405
308.065	6374
308.093	10174
308.148	20990
308.156	23585
308.202	34525
308.246	39350
308.257	38568
308.312	22254
308.336	16076
308.366	12063
308.421	7099
308.426	6754
308.475	4395
308.517	3372
308.530	3114
308.585	2304
308.607	2051
308.639	2068
308.694	2644
308.697	2696
308.748	4454
308.787	6647
308.803	6796
308.857	4585
308.877	3979
308.912	3724
308.967	3473
308.967	3486
309.021	5110
309.058	6344
309.076	7866
309.130	13363
309.148	15651
309.185	27246
309.238	48666
309.239	48734
309.293	48959
309.328	42372
309.348	37116
309.402	19590
309.418	15376
309.457	10685
309.508	6221
309.511	6080
309.566	5202
309.598	5241
309.620	5317
309.674	5752
309.688	6002
309.729	6082
309.778	5383
309.783	5269
309.837	3964
309.868	3124
309.892	3372
309.946	5169
309.959	5639
310.001	6761
310.049	7607
310.055	7423
310.109	5029
310.139	3680
310.163	3086
310.218	1973
310.229	1828
310.272	1999
310.319	2230
310.326	2118
310.381	1158
310.409	813
310.435	991
310.489	1173
310.499	1243
310.543	1229
310.589	1174
310.598	1284
310.652	1969
310.679	2154
310.706	1775
310.760	1322
310.769	1225
310.814	1293
310.859	1437
310.868	1447
310.923	1244
310.948	1268
310.977	1328
311.031	1359
311.038	1377
311.085	1330
311.128	1101
311.139	1083
311.193	1085
311.218	1080
311.247	1137
311.301	1270
311.308	1285
311.356	1272
311.398	1220
311.410	1225
311.464	1187
311.488	1218
311.518	1193
311.572	1090
311.578	1078
311.626	1563
311.668	2032
311.680	2018
311.734	1870
311.758	1845
311.788	1824
311.842	1673
311.847	1663
311.896	2694
311.937	3602
311.950	3468
312.004	2855
312.027	2574
312.058	2347
312.112	1954
312.117	1915
312.165	1722
312.207	1561
312.297	1713
312.386	1071
312.476	2177
312.566	1744
312.656	1662
312.745	1552
312.835	1424
312.925	2055
313.015	1792
313.104	1128
313.194	1139
313.284	1585
313.374	1679
313.463	1667
313.553	1681
313.643	873
313.732	1630
313.822	1265
313.912	2627
314.001	1797
314.091	2748
314.180	2518
314.270	2186
314.360	2083
314.449	2864
314.539	1906
314.628	2535
314.718	1990
314.808	2142
314.897	1852
314.987	2372
315.076	1369
315.166	2598
315.255	2884
315.345	2761
315.434	2191
315.524	2476
315.613	1835
315.703	3241
315.792	6733
315.881	17820
315.971	4730
316.060	3869
316.150	4062
316.239	4617
316.328	2086
316.418	1986
316.507	1607
316.597	2878
316.686	2179
316.775	3520
316.865	4824
316.954	2004
317.043	1028
317.133	1982
317.222	1525
317.311	1118
317.400	38
317.490	1964
317.579	1763
317.668	1874
317.757	2818
317.847	9581
317.936	28232
318.025	8216
318.114	6235
318.203	3433
318.293	3214
318.382	5108
318.471	4377
318.560	6870
318.649	14204
318.738	3611
318.828	2113
318.917	1589
319.006	2143
319.095	6370
319.184	15966
319.273	6448
319.362	3199
319.451	1199
319.540	1220
319.629	3032
319.718	2529
319.807	2986
319.896	5291
319.985	18900
320.074	5395
320.163	2149
320.252	2563
320.341	3075
320.430	2985
320.519	3486
320.608	1659
320.697	2680
320.786	1670
320.875	3393
320.964	3175
321.053	3327
321.142	3956
321.230	5201
321.319	4708
321.408	8731
321.497	5023
321.586	4891
321.675	5785
321.764	5276
321.852	4350
321.941	5449
322.030	3078
322.119	4328
322.207	7878
322.296	8330
322.385	5595
322.474	6125
322.562	9039
322.651	5625
322.740	4303
322.829	5360
322.917	5970
323.006	3169
323.095	2696
323.183	3068
323.272	3148
323.361	5369
323.449	16009
323.538	4957
323.626	11289
323.715	6947
323.804	3710
323.892	8900
323.981	4371
324.069	2324
324.158	6086
324.246	5024
324.335	1972
324.424	2857
324.512	2288
324.601	2008
324.689	2321
324.778	4271
324.866	3034
324.954	1456
325.043	789
325.131	2470
325.220	5020
325.308	4151
325.397	3342
325.485	1857
325.574	729
325.662	1112
325.750	1184
325.839	1377
325.927	897
326.015	1652
326.104	2595
326.192	2603
326.280	1971
326.369	1231
326.457	1421
326.545	2784
326.634	913
326.722	1807
326.810	1019
326.898	967
326.987	1825
327.075	2302
327.163	3047
327.251	1776
327.340	3217
327.428	3143
327.516	1843
327.604	1402
327.692	1340
327.781	1750
327.869	2568
327.957	1724
328.045	1041
328.133	1750
328.221	1234
328.309	1426
328.397	997
328.485	1259
328.574	2179
328.662	4614
328.750	2008
328.838	2050
328.926	1827
329.014	1457
329.102	1251
329.190	4141
329.278	1524
329.366	1698
329.454	936
329.542	627
329.630	1180
329.718	1611
329.806	1141
329.893	1834
329.981	890
330.069	1594
330.157	1357
330.245	1861
330.333	610
330.421	689
330.509	1126
330.597	3769
330.684	1736
330.772	2499
330.860	2134
330.948	3499
331.036	1470
331.123	1228
331.211	144
331.299	1331
331.387	4070
331.475	5289
331.562	819
331.650	1097
331.738	1165
331.825	1360
331.913	1044
332.001	1455
332.089	1028
332.176	2941
332.264	5047
332.352	3472
332.439	1530
332.527	1179
332.614	526
332.702	1725
332.790	996
332.877	2677
332.965	3382
333.052	1760
333.140	1366
333.228	2103
333.315	1111
333.403	2411
333.490	2241
333.578	2207
333.665	2869
333.753	2105
333.840	1156
333.928	1764
334.015	3999
334.103	8481
334.190	19903
334.278	7476
334.365	6840
334.452	6104
334.540	3647
334.627	4005
334.715	5498
334.802	9407
334.889	27134
334.977	24820
335.064	8976
335.151	4461
335.239	3984
335.326	3825
335.413	13447
335.501	12972
335.588	3319
335.675	3618
335.762	5436
335.850	7935
335.937	8131
336.024	16427
336.111	35646
336.199	21633
336.286	7134
336.373	5075
336.460	2384
336.547	3307
336.635	2633
336.722	2594
336.809	1718
336.896	2410
336.983	7220
337.070	16279
337.157	19495
337.245	12995
337.332	7343
337.419	2558
337.506	1695
337.593	2305
337.680	6421
337.767	15326
337.854	3436
337.941	4421
338.028	3952
338.115	1564
338.202	2526
338.289	5235
338.376	11442
338.463	3823
338.550	10583
338.637	8502
338.724	3152
338.811	3757
338.898	1777
338.984	1587
339.071	1656
339.158	1401
339.245	2525
339.332	1677
339.419	2899
339.506	2840
339.593	48
339.679	1183
339.766	770
339.853	1744
339.940	1285
340.027	1932
340.113	722
340.200	1359
340.287	611
340.374	1101
340.460	1863
340.547	82
340.634	1370
340.720	3716
340.807	1222
340.894	1895
340.980	1304
341.067	420
341.154	1799
341.240	1549
341.327	1371
341.414	1823
341.500	-174
341.587	1752
341.674	1311
341.760	1892
341.847	881
341.933	1418
342.020	-473
342.106	1622
342.193	412
342.279	1027
342.366	589
342.452	1631
342.539	314
342.625	1641
342.712	2935
342.798	1903
342.885	419
342.971	288
343.058	-359
343.144	881
343.230	1390
343.317	1698
343.403	396
343.490	927
343.576	249
343.662	1218
343.749	896
343.835	1137
343.921	1744
344.008	13271
344.094	21419
344.180	4068
344.267	1728
344.353	6579
344.439	5972
344.525	1350
344.612	2701
344.698	2085
344.784	615
344.870	1085
344.957	63
345.043	2038
345.129	813
345.215	1517
345.301	498
345.387	2103
345.474	730
345.560	1230
345.646	406
345.732	516
345.818	605
345.904	1103
345.990	1279
346.076	874
346.162	1402
346.249	1670
346.335	217
346.421	1554
346.507	2903
346.593	8887
346.679	806
346.765	1690
346.851	1907
346.937	623
347.023	1627
347.108	700
347.194	993
347.280	1948
347.366	748
347.452	5654
347.538	12192
347.624	9182
347.710	6056
347.796	1771
347.882	488
347.967	1367
348.053	976
348.139	1319
348.225	544
348.311	156
348.397	430
348.482	2188
348.568	1129
348.654	1569
348.740	3953
348.825	4749
348.911	3552
348.997	6439
349.083	9735
349.168	1619
349.254	1045
349.340	957
349.425	561
349.511	566
349.597	1025
349.682	1967
349.768	6193
349.854	1655
349.939	1114
350.025	1003
350.110	518
350.196	786
350.282	218
350.367	1600
350.453	864
350.538	1757
350.624	-128
350.709	2020
350.795	38
350.880	242
350.966	1913
351.051	2027
351.137	1315
351.222	634
351.308	1449
351.393	4077
351.479	381
351.564	424
351.649	1298
351.735	1280
351.820	598
351.906	1132
351.991	-44
352.076	2538
352.162	3228
352.247	758
352.332	935
352.418	1485
352.503	1539
352.588	5678
352.673	3872
352.759	1618
352.844	86
352.929	1061
353.014	536
353.100	1867
353.185	65
353.270	606
353.355	1756
353.441	1111
353.526	252
353.611	1043
353.696	377
353.781	2084
353.866	-151
353.952	1720
354.037	359
354.122	3110
354.207	1196
354.292	1193
354.377	178
354.462	853
354.547	910
354.632	2011
354.717	797
354.802	99
354.887	99
354.972	1395
355.057	461
355.142	248
355.227	688
355.312	800
355.397	1527
355.482	4025
355.567	903
355.652	2886
355.737	1265
355.822	6469
355.907	3938
355.991	1949
356.076	-173
356.161	1734
356.246	801
356.331	1219
356.416	1530
356.501	14683
356.585	9907
356.670	819
356.755	2121
356.840	1902
356.924	8595
357.009	24457
357.094	7302
357.179	1731
357.263	648
357.348	2237
357.433	1752
357.517	1887
357.602	445
357.687	1292
357.771	2499
357.856	6674
357.941	3539
358.025	8844
358.110	26213
358.195	10166
358.279	1759
358.364	1906
358.448	4591
358.533	11109
358.617	6087
358.702	7359
358.787	2553
358.871	1488
358.956	1181
359.040	770
359.125	382
359.209	1415
359.294	3680
359.378	5771
359.462	2463
359.547	1254
359.631	1013
359.716	501
359.800	964
359.885	3013
359.969	362
360.053	1853
360.138	348
360.222	933
360.306	1250
360.391	2016
360.475	3036
360.559	6010
360.644	3673
360.728	1755
360.812	7779
360.896	16855
360.981	5671
361.065	2758
361.149	1963
361.233	1199
361.318	-91
361.402	1318
361.486	1975
361.570	1166
361.654	1167
361.739	2740
361.823	12510
361.907	16229
361.991	3600
362.075	3159
362.159	3466
362.243	7898
362.327	14208
362.411	21626
362.495	8326
362.580	4229
362.664	3430
362.748	3584
362.832	6635
362.916	13087
363.000	40155
363.084	59198
363.168	32372
363.252	8445
363.336	5417
363.420	5549
363.503	16432
363.587	16527
363.671	2617
363.755	2956
363.839	4521
363.923	3213
364.007	4068
364.091	5830
364.175	11926
364.258	37694
364.342	50179
364.426	78397
364.510	39079
364.594	14172
364.677	9509
364.761	17419
364.845	10648
364.929	3895
365.013	2340
365.096	2990
365.180	2328
365.264	8325
365.347	23260
365.431	9452
365.515	2171
365.598	886
365.682	2201
365.766	2864
365.849	3167
365.933	1315
366.017	3014
366.100	1788
366.184	362
366.267	2279
366.351	1472
366.435	1043
366.518	453
366.602	656
366.685	961
366.769	1114
366.852	1986
366.936	3748
367.019	972
367.103	2153
367.186	4395
367.270	2308
367.353	715
367.436	1902
367.520	52
367.603	1773
367.687	698
367.770	2224
367.853	1881
367.937	6093
368.020	6184
368.104	1243
368.187	1689
368.270	1835
368.353	1667
368.437	3764
368.520	7155
368.603	3701
368.687	4475
368.770	8105
368.853	1425
368.936	3847
369.020	3564
369.103	1326
369.186	383
369.269	1139
369.352	2003
369.436	1724
369.519	1357
369.602	-590
369.685	2701
369.768	101
369.851	1841
369.934	162
370.018	639
370.101	567
370.184	2547
370.267	1663
370.350	2039
370.433	3478
370.516	9954
370.599	14246
370.682	2793
370.765	5584
370.848	6662
370.931	10013
371.014	5087
371.097	325
371.180	1522
371.263	1275
371.346	-799
371.429	1189
371.511	-412
371.594	742
371.677	2748
371.760	4289
371.843	2283
371.926	11822
372.009	20732
372.091	8030
372.174	4801
372.257	12555
372.340	3126
372.423	3763
372.505	5930
372.588	2076
372.671	4545
372.754	9534
372.836	4448
372.919	8429
373.002	13220
373.085	2566
373.167	1743
373.250	4741
373.332	10670
373.415	18073
373.498	28766
373.580	12513
373.663	23946
373.746	24704
373.828	3740
373.911	3143
373.993	3560
374.076	13987
374.159	10907
374.241	4488
374.324	8340
374.406	6778
374.489	10719
374.571	25158
374.654	8197
374.736	5494
374.819	17295
374.901	24526
374.983	20973
375.066	4687
375.148	2833
375.231	12726
375.313	19490
375.395	6351
375.478	1750
375.560	2820
375.643	2482
375.725	6575
375.807	19853
375.890	16195
375.972	5281
376.054	4814
376.136	6476
376.219	3151
376.301	6734
376.383	15116
376.465	5260
376.548	2611
376.630	5046
376.712	13273
376.794	4254
376.877	974
376.959	248
377.041	1765
377.123	2884
377.205	3798
377.287	547
377.369	1518
377.452	1164
377.534	717
377.616	560
377.698	1257
377.780	-197
377.862	1311
377.944	1446
378.026	-332
378.108	817
378.190	418
378.272	1380
378.354	97
378.436	281
378.518	1267
378.600	4530
378.682	3978
378.764	5064
378.846	3881
378.928	1281
379.010	1692
379.091	1169
379.173	1152
379.255	141
379.337	1616
379.419	2959
379.501	8115
379.583	3005
379.664	1883
379.746	1026
379.828	6559
379.910	5785
379.991	6832
380.073	1583
380.155	1412
380.237	848
380.318	931
380.400	442
380.482	1665
380.564	1152
380.645	1131
380.727	1334
380.809	1410
380.890	261
380.972	67
381.053	1016
381.135	1563
381.217	1610
381.298	6750
381.380	2102
381.461	2636
381.543	13202
381.624	13922
381.706	2423
381.787	1852
381.869	2405
381.951	7939
382.032	22705
382.113	15364
382.195	1101
382.276	2503
382.358	4120
382.439	11931
382.521	16022
382.602	21248
382.684	10029
382.765	15735
382.846	14759
382.928	18496
383.009	8398
383.090	9520
383.172	29924
383.253	38088
383.334	16047
383.416	18192
383.497	8162
383.578	4044
383.659	7936
383.741	29266
383.822	60078
383.903	27551
383.984	12199
384.066	20670
384.147	11105
384.228	3668
384.309	2782
384.390	2170
384.471	2269
384.553	2287
384.634	2070
384.715	2969
384.796	1156
384.877	1569
384.958	6019
385.039	5628
385.120	2160
385.201	3258
385.282	2651
385.363	3423
385.444	1179
385.525	4434
385.606	10961
385.687	9031
385.768	3080
385.849	3756
385.930	12997
386.011	20065
386.092	5045
386.173	3249
386.254	2002
386.335	3231
386.416	2535
386.496	4454
386.577	6940
386.658	3613
386.739	2181
386.820	4044
386.901	2336
386.981	3681
387.062	2464
387.143	3773
387.224	7492
387.304	7915
387.385	5169
387.466	2992
387.547	4273
387.627	2977
387.708	6167
387.789	14047
387.869	13128
387.950	6230
388.031	2884
388.111	1634
388.192	5809
388.273	7362
388.353	4066
388.434	2754
388.514	4004
388.595	14174
388.676	13546
388.756	6450
388.837	4505
388.917	3617
388.998	252
389.078	3003
389.159	1705
389.239	200
389.320	2887
389.400	392
389.480	4338
389.561	6620
389.641	4448
389.722	2475
389.802	2334
389.883	5674
389.963	10260
390.043	5794
390.124	2179
390.204	3777
390.284	6389
390.365	4838
390.445	9495
390.525	14092
390.605	8868
390.686	2645
390.766	2411
390.846	2998
390.927	925
391.007	868
391.087	2263
391.167	1043
391.247	-7
391.328	3261
391.408	3415
391.488	3179
391.568	549
391.648	1958
391.728	2814
391.808	3518
391.888	1548
391.969	5719
392.049	5854
392.129	5705
392.209	5099
392.289	10225
392.369	7185
392.449	7908
392.529	5874
392.609	6018
392.689	7067
392.769	11397
392.849	11666
392.929	14386
393.009	22798
393.089	23382
393.169	38587
393.248	105984
393.328	239447
393.408	228617
393.488	94782
393.568	36383
393.648	17585
393.728	11961
393.807	7701
393.887	6773
393.967	5235
394.047	5079
394.127	4733
394.206	6579
394.286	21652
394.366	73307
394.446	69432
394.525	16685
394.605	4795
394.685	6057
394.764	11008
394.844	17426
394.924	14216
395.003	5304
395.083	2618
395.163	2494
395.242	1859
395.322	3076
395.402	865
395.481	4627
395.561	7869
395.640	21942
395.720	26417
395.799	23802
395.879	14719
395.958	9252
396.038	31546
396.117	94898
396.197	90730
396.276	31217
396.356	12119
396.435	11679
396.515	10884
396.594	14147
396.673	30608
396.753	101198
396.832	213263
396.912	150874
396.991	44270
397.070	18024
397.150	8682
397.229	9168
397.308	15020
397.388	27277
397.467	13515
397.546	4677
397.625	1084
397.705	4765
397.784	2791
397.863	2895
397.942	1981
398.022	2875
398.101	7072
398.180	16279
398.259	7972
398.338	2982
398.417	1266
398.497	1078
398.576	2283
398.655	364
398.734	1833
398.813	1639
398.892	6205
398.971	17250
399.050	7515
399.129	1299
399.208	1342
399.287	1867
399.366	702
399.445	1082
399.524	977
399.603	815
399.682	1731
399.761	5034
399.840	17860
399.919	12786
399.998	1906
400.077	750
400.156	110
400.235	3502
400.313	-198
400.392	784
400.471	3020
400.550	4304
400.629	310
400.708	1695
400.786	1055
400.865	3746
400.944	2765
401.023	3856
401.102	-360
401.180	1412
401.259	1073
401.338	1207
401.416	1196
401.495	41
401.574	1856
401.652	87
401.731	2121
401.810	124
401.888	-199
401.967	286
402.046	345
402.124	1542
402.203	-237
402.281	730
402.360	1107
402.438	5507
402.517	1294
402.596	1316
402.674	1515
402.753	293
402.831	987
402.910	1597
402.988	198
403.066	1875
403.145	1725
403.223	2030
403.302	646
403.380	1589
403.459	1259
403.537	106
403.615	-15
403.694	499
403.772	1100
403.850	973
403.929	386
404.007	-311
404.085	1404
404.164	-326
404.242	773
404.320	4835
404.398	11737
404.477	12521
404.555	19630
404.633	16724
404.711	9786
404.789	5356
404.868	513
404.946	742
405.024	624
405.102	542
405.180	-536
405.258	-868
405.336	903
405.415	50
405.493	1835
405.571	1268
405.649	-34
405.727	-309
405.805	1300
405.883	764
405.961	1201
406.039	999
406.117	-294
406.195	1428
406.273	2444
406.351	13291
406.429	8048
406.507	1448
406.585	-412
406.663	1438
406.740	653
406.818	-73
406.896	-237
406.974	1224
407.052	294
407.130	8380
407.208	8360
407.285	3025
407.363	-405
407.441	210
407.519	571
407.596	1078
407.674	3627
407.752	11863
407.830	10033
407.907	2863
407.985	-750
408.063	253
408.141	-339
408.218	1974
408.296	310
408.373	302
408.451	876
408.529	655
408.606	54
408.684	477
408.762	384
408.839	423
408.917	323
408.994	1319
409.072	-592
409.149	1678
409.227	2981
409.304	4287
409.382	4686
409.459	5430
409.537	6142
409.614	5804
409.692	4778
409.769	4362
409.846	6683
409.924	9494
410.001	4418
410.079	4789
410.156	3399
410.233	2771
410.311	745
410.388	1407
410.465	902
410.543	901
410.620	2123
410.697	1547
410.775	1102
410.852	437
410.929	2041
411.006	1829
411.083	1209
411.161	1067
411.238	1626
411.315	1862
411.392	661
411.469	1842
411.547	774
411.624	92
411.701	51
411.778	1226
411.855	478
411.932	199
412.009	265
412.086	1300
412.163	1296
412.240	618
412.317	907
412.394	205
412.471	1006
412.548	180
412.625	255
412.702	577
412.779	713
412.856	396
412.933	-838
413.010	847
413.087	981
413.164	2574
413.241	3033
413.318	-337
413.395	844
413.471	318
413.548	167
413.625	1038
413.702	-210
413.779	436
413.855	330
413.932	-81
414.009	-1336
414.086	631
414.162	147
414.239	1351
414.316	2269
414.393	6199
414.469	320
414.546	203
414.623	712
414.699	-200
414.776	-392
414.853	10
414.929	157
415.006	372
415.082	857
415.159	321
415.236	695
415.312	-62
415.389	-5
415.465	-73
415.542	-475
415.618	-1041
415.695	407
415.771	-473
415.848	-267
415.924	293
416.000	-5
416.077	1552
416.153	-882
416.230	-760
416.306	-284
416.383	-246
416.459	318
416.535	-36
416.612	-200
416.688	302
416.764	-310
416.841	-916
416.917	184
416.993	671
417.069	427
417.146	200
417.222	-736
417.298	646
417.374	-853
417.451	630
417.527	-291
417.603	212
417.679	-501
417.755	-183
417.831	-538
417.908	417
417.984	-485
418.060	-336
418.136	69
418.212	734
418.288	645
418.364	956
418.440	39
418.516	1052
418.592	889
418.668	995
418.744	724
418.820	1036
418.896	-326
418.972	-129
419.048	436
419.124	1228
419.200	-940
419.276	-107
419.352	-754
419.428	310
419.504	161
419.579	462
419.655	315
419.731	492
419.807	921
419.883	1621
419.959	-6
420.034	1515
420.110	962
420.186	2703
420.262	3040
420.337	1288
420.413	1055
420.489	1421
420.565	1468
420.640	1365
420.716	1197
420.792	180
420.867	2156
420.943	553
421.019	1681
421.094	2006
421.170	1225
421.245	1654
421.321	1008
421.397	2521
421.472	5044
421.548	7938
421.623	6853
421.699	4864
421.774	4866
421.850	4691
421.925	6352
422.001	7932
422.076	9797
422.152	12313
422.227	16971
422.302	24930
422.378	35157
422.453	53850
422.529	88310
422.604	118440
422.679	112552
422.755	108742
422.830	87497
422.905	56887
422.981	37301
423.056	26124
423.131	19105
423.207	14970
423.282	11059
423.357	9894
423.432	7237
423.508	7268
423.583	5215
423.658	5734
423.733	3849
423.808	4549
423.883	3716
423.959	4421
424.034	3753
424.109	4593
424.184	2039
424.259	1543
424.334	1905
424.409	1882
424.484	916
424.559	739
424.634	950
424.709	1427
424.784	857
424.859	969
424.934	482
425.009	3085
425.084	3720
425.159	1197
425.234	646
425.309	861
425.384	2632
425.459	2282
425.534	1333
425.609	396
425.683	-53
425.758	895
425.833	-289
425.908	834
425.983	659
426.058	3871
426.132	924
426.207	394
426.282	2577
426.357	421
426.431	19
426.506	1219
426.581	-990
426.655	962
426.730	478
426.805	-13
426.879	502
426.954	29
427.029	58
427.103	4764
427.178	9651
427.253	4424
427.327	948
427.402	1420
427.476	3146
427.551	1093
427.625	51
427.700	1450
427.774	-399
427.849	599
427.923	-689
427.998	723
428.072	208
428.147	3598
428.221	15574
428.296	42229
428.370	22630
428.444	3703
428.519	1489
428.593	3519
428.667	2826
428.742	4228
428.816	7101
428.890	29724
428.965	41257
429.039	11929
429.113	3919
429.188	765
429.262	616
429.336	1650
429.410	1959
429.485	2114
429.559	2502
429.633	2988
429.707	1102
429.781	5719
429.855	29194
429.930	38839
430.004	16753
430.078	19435
430.152	25227
430.226	58309
430.300	53336
430.374	11447
430.448	4045
430.522	6692
430.596	15620
430.670	14492
430.744	37714
430.818	39158
430.892	6782
430.966	1339
431.040	1041
431.114	-468
431.188	63
431.262	-327
431.336	-101
431.410	2655
431.484	2551
431.557	1791
431.631	75
431.705	1641
431.779	11699
431.853	39758
431.927	26236
432.000	3738
432.074	255
432.148	882
432.222	-100
432.295	131
432.369	-835
432.443	-100
432.516	5515
432.590	10585
432.664	3262
432.737	252
432.811	-2031
432.885	-114
432.958	606
433.032	-90
433.106	-941
433.179	-622
433.253	-493
433.326	-324
433.400	-1269
433.473	575
433.547	-1068
433.620	-605
433.694	-882
433.767	38
433.841	-987
433.914	-424
433.988	-1522
434.061	-654
434.134	-521
434.208	-230
434.281	-1247
434.355	-503
434.428	-661
434.501	-692
434.575	-975
434.648	-381
434.721	-1140
434.795	-404
434.868	-1504
434.941	-653
435.014	-1224
435.088	22
435.161	-275
435.234	-584
435.307	-548
435.381	528
435.454	709
435.527	2892
435.600	2739
435.673	2601
435.746	1746
435.819	598
435.892	380
435.966	392
436.039	58
436.112	237
436.185	-387
436.258	-176
436.331	-1223
436.404	-281
436.477	-1236
436.550	-879
436.623	-297
436.696	-438
436.769	-353
436.842	302
436.915	-773
436.987	-341
437.060	0
437.133	-248
437.206	-1378
437.279	-600
437.352	-811
437.425	-817
437.498	-836
437.570	-130
437.643	-761
437.716	-667
437.789	-1034
437.861	-298
437.934	-913
438.007	300
438.080	-1151
438.152	-166
438.225	209
438.298	6988
438.370	14525
438.443	4981
438.516	-114
438.588	-174
438.661	-803
438.734	-303
438.806	-1010
438.879	-16
438.951	-640
439.024	-59
439.096	-995
439.169	123
439.241	-433
439.314	-1099
439.386	-329
439.459	-55
439.531	-125
439.604	78
439.676	-522
439.749	-163
439.821	-1118
439.893	-599
439.966	-1140
440.038	-644
440.110	-619
440.183	-749
440.255	-1175
440.327	135
440.400	2887
440.472	8887
440.544	4134
440.617	-9
440.689	700
440.761	519
440.833	-311
440.905	-472
440.978	-735
441.050	-684
441.122	-181
441.194	-953
441.266	-358
441.338	-826
441.411	135
441.483	2009
441.555	2164
441.627	288
441.699	-141
441.771	515
441.843	-204
441.915	-302
441.987	-621
442.059	-448
442.131	404
442.203	1082
442.275	408
442.347	2325
442.419	6851
442.491	31328
442.563	60407
442.635	25203
442.706	6874
442.778	3770
442.850	1141
442.922	365
442.994	401
443.066	935
443.137	1317
443.209	1631
443.281	2997
443.353	10413
443.425	36013
443.496	96751
443.568	94903
443.640	38546
443.711	7729
443.783	2811
443.855	1817
443.926	1195
443.998	438
444.070	826
444.141	-259
444.213	590
444.285	191
444.356	719
444.428	-545
444.499	77
444.571	260
444.642	108
444.714	-259
444.785	176
444.857	739
444.928	2788
445.000	1775
445.071	2916
445.143	3319
445.214	3903
445.285	7881
445.357	23530
445.428	69314
445.500	116300
445.571	87950
445.642	56001
445.714	20593
445.785	9256
445.856	1746
445.928	1898
445.999	430
446.070	40
446.141	-588
446.213	175
446.284	-363
446.355	342
446.426	-730
446.497	-259
446.569	-378
446.640	15
446.711	-824
446.782	-972
446.853	-182
446.924	133
446.995	-402
447.066	-241
447.138	295
447.209	683
447.280	-1616
447.351	-744
447.422	-838
447.493	147
447.564	-979
447.635	-398
447.706	-1449
447.777	-1347
447.847	-1312
447.918	-1346
447.989	-142
448.060	-430
448.131	1469
448.202	-135
448.273	-632
448.344	12
448.414	-606
448.485	-545
448.556	-509
448.627	-1225
448.698	-663
448.768	-1163
448.839	-896
448.910	-7
448.981	-950
449.051	-971
449.122	-1198
449.193	-660
449.263	-1151
449.334	-618
449.405	-609
449.475	-843
449.546	-806
449.616	1134
449.687	116
449.758	-743
449.828	-563
449.899	-1039
449.969	-860
450.040	-771
450.110	-1088
450.181	-189
450.251	-1353
450.322	-776
450.392	-514
450.463	-194
450.533	-692
450.604	-715
450.674	-542
450.744	230
450.815	-907
450.885	-522
450.955	-554
451.026	-1070
451.096	-559
451.166	359
451.237	632
451.307	2947
451.377	510
451.447	-919
451.518	-1194
451.588	-338
451.658	-428
451.728	159
451.799	2347
451.869	2548
451.939	-888
452.009	-823
452.079	-1089
452.149	185
452.219	451
452.289	3140
452.360	1291
452.430	-550
452.500	-271
452.570	1601
452.640	3500
452.710	9159
452.780	10311
452.850	5250
452.920	1160
452.990	-9
453.060	86
453.129	74
453.199	20
453.269	5175
453.339	8359
453.409	11574
453.479	14208
453.549	19890
453.619	18650
453.688	4635
453.758	163
453.828	-1151
453.898	-1167
453.968	-623
454.037	-66
454.087	-486
454.107	-670
454.168	-1580
454.177	-1735
454.247	-662
454.249	-640
454.316	-662
454.330	-709
454.386	-1055
454.411	-429
454.456	414
454.492	818
454.525	1189
454.574	-136
454.595	-716
454.655	-790
454.665	-803
454.734	-114
454.736	-54
454.804	583
454.817	1056
454.873	2520
454.898	2966
454.943	3751
454.979	1797
455.013	115
455.060	238
455.082	331
455.141	861
455.152	893
455.221	3210
455.222	3281
455.291	4110
455.303	3900
455.360	3065
455.384	3698
455.430	4293
455.465	3787
455.499	3311
455.546	3098
455.569	2817
455.627	1588
455.638	1429
455.707	-222
455.708	-205
455.777	-736
455.789	-580
455.846	181
455.869	26
455.916	-444
455.950	-121
455.985	313
456.031	586
456.054	653
456.112	-62
456.124	-233
456.193	-27
456.193	-45
456.262	276
456.274	402
456.332	970
456.355	732
456.401	106
456.436	212
456.470	249
456.516	-95
456.540	-254
456.597	93
456.609	155
456.678	870
456.678	862
456.747	296
456.759	205
456.817	-243
456.840	105
456.886	641
456.920	312
456.955	100
457.001	309
457.024	329
457.082	819
457.093	922
457.162	582
457.163	601
457.232	1246
457.243	1231
457.301	915
457.324	805
457.370	707
457.405	892
457.439	1047
457.485	963
457.508	964
457.566	1315
457.577	1472
457.646	1962
457.647	1999
457.715	5085
457.727	5512
457.784	7701
457.808	10693
457.853	14300
457.889	16334
457.922	17499
457.969	12845
457.991	12209
458.050	13171
458.060	13458
458.129	24288
458.130	24571
458.198	24469
458.211	21811
458.267	13123
458.292	9534
458.336	5956
458.372	6004
458.405	8188
458.453	12177
458.474	14172
458.533	23575
458.543	24204
458.611	37712
458.614	37791
458.680	25810
458.694	20775
458.749	9112
458.775	7020
458.818	4554
458.855	3981
458.887	3537
458.936	2275
458.955	1852
459.016	2227
459.024	2288
459.093	2674
459.097	2649
459.162	1616
459.177	1616
459.230	2195
459.257	2380
459.299	2321
459.338	2688
459.368	3027
459.418	2658
459.437	2330
459.499	1828
459.505	1861
459.574	2350
459.579	2417
459.643	2237
459.659	2000
459.711	1864
459.740	2111
459.780	2289
459.820	2062
459.849	1999
459.900	2667
459.917	2809
459.981	2933
459.986	2927
460.054	2668
460.061	2652
460.123	2483
460.141	2632
460.191	3219
460.222	2992
460.260	2647
460.302	2937
460.328	3035
460.382	2914
460.397	2851
460.462	2949
460.465	3083
460.534	6440
460.543	6833
460.602	12707
460.623	15097
460.671	22150
460.703	28981
460.739	24830
460.783	16440
460.808	14354
460.864	5504
460.876	4639
460.944	3001
460.945	2978
461.013	3556
461.024	3493
461.081	3323
461.104	3379
461.150	2904
461.184	2553
461.218	2754
461.264	2871
461.286	2709
461.345	2475
461.355	2479
461.423	2990
461.425	2989
461.491	3721
461.505	3949
461.559	6168
461.585	7018
461.628	8610
461.665	10724
461.696	11081
461.745	11409
461.764	9804
461.825	3372
461.832	3342
461.901	3060
461.905	3130
461.969	3076
461.985	2911
462.037	3404
462.065	3813
462.105	4149
462.145	4331
462.173	5339
462.225	7312
462.241	7652
462.305	9046
462.310	8742
462.378	4243
462.385	3640
462.446	3252
462.465	3265
462.514	3462
462.545	3641
462.582	3534
462.625	3427
462.650	3362
462.705	3081
462.718	3118
462.785	3599
462.786	3624
462.854	4534
462.865	4753
462.922	5526
462.945	5811
462.990	4707
463.025	3697
463.058	3850
463.104	4120
463.126	3951
463.184	3556
463.194	3564
463.262	3201
463.264	3213
463.330	4231
463.344	4281
463.398	4585
463.424	4919
463.466	4355
463.504	3616
463.533	3801
463.583	4520
463.601	4625
463.663	4370
463.669	4455
463.737	5944
463.743	6034
463.805	7979
463.823	8665
463.873	11980
463.903	13815
463.940	13620
463.982	13739
464.008	11278
464.062	5327
464.076	5200
464.142	4690
464.144	4689
464.211	4460
464.221	4494
464.279	4345
464.301	4065
464.347	4091
464.381	4462
464.414	5315
464.461	6186
464.482	6077
464.540	5897
464.550	5754
464.617	4353
464.620	4309
464.685	6161
464.699	6506
464.753	7194
464.779	7580
464.820	7843
464.859	8121
464.888	7695
464.938	7016
464.956	7442
465.018	8540
465.023	8417
465.091	6704
465.098	6534
465.158	6497
465.177	6472
465.226	6971
465.257	7214
465.293	7122
465.336	7001
465.361	7236
465.416	7652
465.428	8223
465.495	11491
465.496	11541
465.563	15822
465.575	16610
465.631	17752
465.654	18148
465.698	11610
465.734	5973
465.765	5861
465.813	5742
465.833	6051
465.893	7096
465.900	6994
465.968	5808
465.972	5735
466.035	6056
466.052	6067
466.102	6440
466.131	6654
466.170	6472
466.210	6216
466.237	6429
466.290	6916
466.304	6828
466.369	6199
466.372	6223
466.439	6643
466.449	6678
466.506	7004
466.528	7133
466.573	10681
466.607	13283
466.641	16515
466.687	20979
466.708	21920
466.766	24421
466.775	22579
466.842	8291
466.845	7595
466.909	7520
466.925	7501
466.977	7586
467.004	7620
467.044	8047
467.083	8452
467.111	9100
467.163	10234
467.178	10459
467.242	11297
467.245	11243
467.312	9633
467.321	9400
467.379	10698
467.400	11137
467.446	11206
467.480	11217
467.559	9917
467.638	8541
467.717	9115
467.796	9631
467.875	9691
467.955	9978
468.034	15871
468.113	26750
468.192	33995
468.271	11974
468.350	11392
468.429	11935
468.508	12885
468.588	11084
468.667	9667
468.746	9696
468.825	9261
468.904	8275
468.983	9195
469.062	13403
469.141	13943
469.220	7902
469.299	8969
469.378	8621
469.456	11674
469.535	9509
469.614	9200
469.693	9202
469.772	11448
469.851	13596
469.930	9553
470.009	9088
470.088	8296
470.166	8915
470.245	9701
470.324	10175
470.403	9374
470.482	8586
470.560	8051
470.639	8019
470.718	8613
470.797	8295
470.875	9394
470.954	10622
471.033	11316
471.111	7159
471.190	8660
471.269	7345
471.347	8077
471.426	8649
471.505	9439
471.583	9279
471.662	9381
471.740	7951
471.819	9098
471.898	7789
471.976	8671
472.055	7720
472.133	9167
472.212	11406
472.290	10376
472.369	8176
472.447	9023
472.526	6781
472.604	8103
472.683	7656
472.761	7387
472.839	7736
472.918	7778
472.996	9044
473.075	8496
473.153	8670
473.231	7428
473.310	8893
473.388	8552
473.466	8665
473.545	8621
473.623	8963
473.701	8494
473.780	8283
473.858	6558
473.936	8410
474.014	8190
474.093	8418
474.171	10977
474.249	13732
474.327	8585
474.405	7020
474.484	8110
474.562	6122
474.640	7004
474.718	7616
474.796	7000
474.874	7335
474.952	6700
475.030	6548
475.108	6966
475.187	7216
475.265	7194
475.343	8276
475.421	7441
475.499	7895
475.577	6903
475.655	10547
475.733	15611
475.811	23263
475.889	19939
475.966	12397
476.044	7637
476.122	7500
476.200	7552
476.278	7180
476.356	7116
476.434	8107
476.512	7576
476.590	8534
476.667	7070
476.745	7311
476.823	8623
476.901	8001
476.979	7658
477.056	8251
477.134	8013
477.212	7712
477.290	7559
477.367	7323
477.445	7328
477.523	7515
477.601	7320
477.678	7951
477.756	8366
477.834	8830
477.911	7001
477.989	7292
478.066	7580
478.144	7986
478.222	7048
478.299	7049
478.377	6851
478.454	6848
478.532	7139
478.609	6702
478.687	8185
478.764	7547
478.842	6436
478.919	5733
478.997	6802
479.074	6559
479.152	8008
479.229	9331
479.307	6193
479.384	7016
479.461	7311
479.539	7153
479.616	8422
479.694	6385
479.771	7702
479.848	7602
479.926	8140
480.003	9732
480.080	6815
480.157	7441
480.235	6186
480.312	7252
480.389	7347
480.467	9877
480.544	11062
480.621	7655
480.698	7533
480.775	8104
480.853	7785
480.930	7028
481.007	7058
481.084	8477
481.161	9540
481.238	7779
481.315	5818
481.392	6271
481.470	6501
481.547	6867
481.624	5573
481.701	7253
481.778	7677
481.855	7388
481.932	10874
482.009	14646
482.086	9102
482.163	7128
482.240	8116
482.317	8081
482.393	6678
482.470	7187
482.547	6850
482.624	7136
482.701	6748
482.778	6253
482.855	5814
482.932	6910
483.009	6011
483.085	7812
483.162	8550
483.239	8458
483.316	6652
483.393	8007
483.469	7334
483.546	8786
483.623	8265
483.699	7024
483.776	7410
483.853	6727
483.930	11934
484.006	22788
484.083	33874
484.160	21054
484.236	29773
484.313	21411
484.389	16703
484.466	16004
484.543	16278
484.619	16275
484.696	18378
484.772	16465
484.849	16894
484.925	14948
485.002	14918
485.078	15322
485.155	14230
485.231	13201
485.308	13748
485.384	14869
485.461	17176
485.537	21689
485.614	23202
485.690	13645
485.766	13101
485.843	13729
485.919	15739
485.995	13642
486.072	13203
486.148	13042
486.224	11931
486.301	13157
486.377	15158
486.453	13530
486.530	14839
486.606	19157
486.682	19219
486.758	21403
486.835	22426
486.911	20148
486.987	26738
487.063	21880
487.139	21313
487.215	18584
487.292	16065
487.368	15012
487.444	15680
487.520	18278
487.596	21058
487.672	40892
487.748	92460
487.824	117176
487.900	38881
487.976	19473
488.052	16142
488.128	16696
488.204	13180
488.280	14164
488.356	16397
488.432	26763
488.508	31403
488.584	12366
488.660	11249
488.736	11551
488.812	12591
488.888	14355
488.964	14499
489.039	19694
489.115	24796
489.191	15624
489.267	12176
489.343	11565
489.418	9924
489.494	10669
489.570	10215
489.646	12166
489.722	10718
489.797	12196
489.873	17291
489.949	27747
490.024	19003
490.100	10260
490.176	9665
490.251	10376
490.327	11694
490.403	8235
490.478	10209
490.554	8751
490.629	9884
490.705	8784
490.781	10369
490.856	9384
490.932	9692
491.007	8968
491.083	9042
491.158	8878
491.234	13452
491.309	21995
491.385	18451
491.460	8608
491.536	10103
491.611	8516
491.686	8405
491.762	9952
491.837	13824
491.913	19978
491.988	24796
492.063	24097
492.139	14667
492.214	11016
492.289	8549
492.365	7434
492.440	9524
492.515	8403
492.590	9022
492.666	8330
492.741	10212
492.816	12857
492.891	7568
492.967	8360
493.042	7459
493.117	8299
493.192	8464
493.267	12118
493.342	20985
493.418	22780
493.493	8198
493.568	7492
493.643	8136
493.718	8582
493.793	10289
493.868	9595
493.943	7028
494.018	7780
494.093	7054
494.168	8035
494.243	6092
494.318	6505
494.393	7299
494.468	5922
494.543	6922
494.618	6821
494.693	6160
494.768	7536
494.842	6936
494.917	6226
494.992	7672
495.067	6767
495.142	5922
495.217	6944
495.292	6544
495.366	8143
495.441	8371
495.516	10796
495.591	12128
495.665	24510
495.740	40473
495.815	15396
495.890	9452
495.964	6890
496.039	11186
496.114	9411
496.188	10397
496.263	10057
496.338	7434
496.412	9437
496.487	10343
496.561	9433
496.636	9528
496.710	8272
496.785	9848
496.860	10067
496.934	7545
497.009	8784
497.083	8193
497.158	8769
497.232	9849
497.307	10718
497.381	8299
497.455	10867
497.530	12352
497.604	9004
497.679	10306
497.753	13428
497.827	13779
497.902	11016
497.976	16271
498.050	51475
498.125	147620
498.199	104742
498.273	12807
498.348	10100
498.422	9683
498.496	9316
498.570	9115
498.645	8437
498.719	8688
498.793	11863
498.867	16929
498.941	24946
499.016	75798
499.090	146577
499.164	35014
499.238	9198
499.312	8781
499.386	9603
499.460	8983
499.534	9637
499.609	12249
499.683	14097
499.757	14270
499.831	39692
499.905	111828
499.979	73887
500.053	16643
500.127	14880
500.201	10435
500.275	8323
500.349	9318
500.422	9485
500.496	11958
500.570	24265
500.644	68255
500.718	98151
500.792	17610
500.866	10167
500.940	12180
501.013	9568
501.087	8929
501.161	12417
501.235	18708
501.309	48139
501.382	107001
501.456	65954
501.530	22271
501.603	33014
501.677	11777
501.751	6495
501.825	11360
501.898	20399
501.972	43166
502.046	21003
502.119	9773
502.193	23950
502.266	44054
502.340	18918
502.413	25789
502.487	38813
502.561	18859
502.634	8461
502.708	7140
502.781	6528
502.855	7182
502.928	6033
503.002	5546
503.075	6329
503.149	7220
503.222	7324
503.295	7009
503.369	9937
503.442	13340
503.516	41251
503.589	75895
503.662	41264
503.736	19842
503.809	40165
503.882	30121
503.956	50654
504.029	43291
504.102	51986
504.175	62203
504.249	23047
504.322	14997
504.395	9552
504.468	8561
504.542	7888
504.615	5502
504.688	6762
504.761	4415
504.834	7471
504.907	5880
504.980	7296
505.053	6768
505.127	3859
505.200	10212
505.273	8843
505.346	6533
505.419	4795
505.492	6873
505.565	4663
505.638	5836
505.711	4360
505.784	4273
505.857	4735
505.930	6369
506.003	3818
506.076	7564
506.149	7254
506.221	6672
506.294	10352
506.367	22611
506.440	57864
506.513	21170
506.586	8680
506.659	5771
506.731	5814
506.804	6390
506.877	5284
506.950	5452
507.022	6292
507.095	5710
507.168	7109
507.241	5437
507.313	4494
507.386	4834
507.459	5672
507.531	4299
507.604	4154
507.677	4911
507.749	3222
507.822	7212
507.894	9809
507.967	11661
508.040	6969
508.112	7692
508.185	6950
508.257	5805
508.330	8733
508.402	6666
508.475	7402
508.547	7352
508.620	8337
508.692	9888
508.765	7426
508.837	5609
508.909	5821
508.982	5653
509.054	7920
509.127	6325
509.199	6501
509.271	4755
509.344	6000
509.416	6418
509.488	6043
509.560	6989
509.633	6638
509.705	7857
509.777	6924
509.849	8212
509.922	6722
509.994	8046
510.066	8280
510.138	7813
510.210	14068
510.283	9752
510.355	9289
510.427	8690
510.499	7398
510.571	8413
510.643	7486
510.715	9428
510.787	6287
510.859	8869
510.931	8458
511.003	10421
511.076	9553
511.148	7105
511.219	8405
511.291	13420
511.363	12030
511.435	8314
511.507	6994
511.579	7098
511.651	8223
511.723	7669
511.795	6613
511.867	6704
511.939	8527
512.010	12472
512.082	9791
512.154	5814
512.226	6523
512.298	11162
512.369	11591
512.441	8909
512.513	7797
512.585	5222
512.656	9025
512.728	7493
512.800	6837
512.871	8339
512.943	7178
513.015	5909
513.086	7585
513.158	6814
513.230	6132
513.301	7107
513.373	8226
513.444	6441
513.516	5715
513.588	6235
513.659	6700
513.731	7061
513.802	5122
513.874	10687
513.945	10412
514.016	7164
514.088	7074
514.159	5703
514.231	8511
514.302	9018
514.374	8800
514.445	8664
514.516	15854
514.588	8904
514.659	9095
514.730	13224
514.802	8810
514.873	4880
514.944	8869
515.016	7429
515.087	7439
515.158	10823
515.229	12680
515.301	5512
515.372	7878
515.443	6099
515.514	5978
515.585	5156
515.656	6140
515.728	7045
515.799	5944
515.870	6720
515.941	7194
516.012	7491
516.083	9423
516.154	7368
516.225	8758
516.296	9458
516.367	6555
516.438	7537
516.509	9010
516.580	13431
516.651	34224
516.722	72824
516.793	26208
516.864	12625
516.935	12700
517.006	13705
517.077	16731
517.148	33776
517.219	97960
517.289	110859
517.360	59907
517.431	19252
517.502	9096
517.573	9829
517.643	9944
517.714	10848
517.785	10872
517.856	9913
517.926	11634
517.997	11821
518.068	11473
518.138	15068
518.209	21842
518.280	79480
518.350	185340
518.421	50861
518.492	14851
518.562	14763
518.633	16581
518.703	18440
518.774	41986
518.845	90132
518.915	69058
518.986	23090
519.056	15536
519.127	17606
519.197	27853
519.268	63054
519.338	30244
519.408	12623
519.479	10637
519.549	8461
519.620	8617
519.690	6800
519.760	7778
519.831	6687
519.901	7505
519.971	7845
520.042	6956
520.112	7867
520.182	9001
520.253	8345
520.323	7572
520.393	11101
520.463	14357
520.534	10362
520.604	20367
520.674	11220
520.744	11236
520.814	21436
520.885	15567
520.955	30082
521.025	71612
521.095	19309
521.165	8325
521.235	7653
521.305	6294
521.375	6562
521.445	6758
521.515	6597
521.585	8340
521.655	4986
521.725	8215
521.795	8363
521.865	5386
521.935	11802
522.005	7513
522.075	5688
522.145	8045
522.215	6565
522.285	9761
522.355	12623
522.424	21622
522.494	14880
522.564	7987
522.634	12662
522.704	23666
522.774	8253
522.843	6868
522.913	5947
522.983	6586
523.053	4813
523.122	7339
523.192	6884
523.262	12779
523.331	9433
523.401	5867
523.471	6315
523.540	5233
523.610	5032
523.680	5620
523.749	6974
523.819	7774
523.888	6368
523.958	5394
524.027	6119
524.097	6305
524.166	6126
524.236	4811
524.305	7620
524.375	5441
524.444	5579
524.514	8012
524.583	6197
524.653	7511
524.722	7284
524.791	5411
524.861	8534
524.930	5498
524.999	5470
525.069	8173
525.138	7311
525.207	8166
525.277	7561
525.346	5343
525.415	7486
525.484	8029
525.554	7283
525.623	8370
525.692	9222
525.761	9321
525.830	11089
525.900	12780
525.969	19826
526.038	32831
526.107	76430
526.176	177807
526.245	111772
526.314	43471
526.383	99899
526.452	113979
526.522	203227
526.591	137676
526.660	26831
526.729	17723
526.797	23222
526.867	44595
526.935	151956
527.004	325579
527.073	138574
527.142	18687
527.211	11231
527.280	10153
527.349	8353
527.418	5945
527.487	8205
527.555	6297
527.624	5670
527.693	4538
527.762	7089
527.831	5450
527.899	5996
527.968	5242
528.037	4640
528.106	6960
528.174	7426
528.243	8491
528.312	9886
528.380	8199
528.449	4457
528.518	7838
528.586	4193
528.655	6566
528.723	5740
528.792	5512
528.861	4760
528.929	4733
528.998	7330
529.066	7917
529.135	10111
529.203	9740
529.272	12678
529.340	15009
529.409	13300
529.477	12270
529.545	13272
529.614	16157
529.682	17026
529.751	17200
529.819	22546
529.887	19054
529.956	16420
530.024	17583
530.092	15144
530.161	16892
530.229	16946
530.297	17550
530.365	18294
530.434	19548
530.502	17420
530.570	16928
530.638	12936
530.707	14747
530.775	15425
530.843	14271
530.911	14944
530.979	16561
531.047	17419
531.115	17556
531.183	15286
531.252	16379
531.320	14601
531.388	14209
531.456	17218
531.524	14970
531.592	18446
531.660	21069
531.728	17273
531.796	17161
531.864	17462
531.932	17209
532.000	17432
532.067	18961
532.135	19406
532.203	21554
532.271	21699
532.339	24770
532.407	26975
532.475	21543
532.542	20104
532.610	20925
532.678	22129
532.746	44019
532.814	55993
532.881	24664
532.949	19815
533.017	18884
533.084	18487
533.152	17276
533.220	18021
533.287	17702
533.355	18073
533.423	19931
533.490	18919
533.558	18078
533.625	17675
533.693	16347
533.761	17410
533.828	17979
533.896	17565
533.963	24417
534.031	22892
534.098	24983
534.166	20326
534.233	18990
534.300	21032
534.368	19794
534.435	17338
534.503	17822
534.570	18553
534.637	16878
534.705	19209
534.772	20514
534.840	31531
534.907	102211
534.974	84949
535.041	18706
535.109	15792
535.176	13669
535.243	15590
535.310	14681
535.378	13142
535.445	14394
535.512	13169
535.579	13279
535.646	11355
535.714	14115
535.781	14207
535.848	15297
535.915	16546
535.982	16519
536.049	15393
536.116	16573
536.183	13797
536.250	13034
536.317	12757
536.384	12661
536.451	13187
536.518	12618
536.585	11199
536.652	15421
536.719	14414
536.786	10260
536.853	11453
536.920	13251
536.987	14190
537.053	15390
537.120	34687
537.187	21133
537.254	10828
537.321	10375
537.388	11243
537.454	9867
537.521	10176
537.588	9468
537.654	11582
537.721	10588
537.788	11348
537.855	9581
537.921	10183
537.988	9302
538.055	9772
538.121	8387
538.188	9534
538.254	10712
538.321	11382
538.388	9650
538.454	10076
538.521	10632
538.587	9914
538.654	8904
538.720	9822
538.787	9897
538.853	10316
538.920	10186
538.986	10095
539.053	9088
539.119	9403
539.185	9357
539.252	11078
539.318	10454
539.385	11531
539.451	8945
539.517	11215
539.583	11161
539.650	16410
539.716	21331
539.782	9647
539.849	7047
539.915	9314
539.981	7749
540.047	9360
540.114	9687
540.180	9688
540.246	8118
540.312	10408
540.378	11051
540.444	12674
540.510	16743
540.576	23013
540.643	10063
540.709	7912
540.775	8476
540.841	8880
540.907	11508
540.973	13777
541.039	10733
541.105	10403
541.171	8323
541.237	7910
541.303	9892
541.369	10811
541.435	10505
541.500	9959
541.566	7250
541.632	9029
541.698	8133
541.764	8987
541.830	7380
541.896	8226
541.961	8004
542.027	8130
542.093	8402
542.159	9637
542.224	8528
542.290	10415
542.356	10331
542.421	11681
542.487	10124
542.553	8807
542.618	9439
542.684	8009
542.750	8082
542.815	9652
542.881	12628
542.947	23953
543.012	13474
543.078	7670
543.143	7339
543.209	9277
543.274	6970
543.340	9143
543.405	14316
543.471	12832
543.536	9285
543.602	8535
543.667	7697
543.732	9613
543.798	7833
543.863	8965
543.928	7610
543.994	7596
544.059	8049
544.124	8613
544.190	8212
544.255	8233
544.320	9374
544.386	8569
544.451	10085
544.516	10552
544.581	10645
544.646	19459
544.712	19275
544.777	10794
544.842	10390
544.907	10142
544.972	10573
545.037	9465
545.102	11036
545.168	9794
545.233	11343
545.298	11812
545.363	11682
545.428	12757
545.493	17129
545.558	18855
545.623	12629
545.688	10808
545.753	11586
545.818	10643
545.883	12023
545.947	12242
546.012	13541
546.077	12696
546.142	14294
546.207	12373
546.272	14486
546.337	13961
546.401	15530
546.466	14425
546.531	13735
546.596	15705
546.661	16161
546.725	17400
546.790	16057
546.855	17780
546.919	18876
546.984	21019
547.049	21561
547.113	26121
547.178	26156
547.243	31354
547.307	33904
547.372	39206
547.436	36275
547.501	38967
547.565	41003
547.630	37566
547.695	37015
547.759	38025
547.823	36674
547.888	37719
547.952	38259
548.017	40163
548.081	41249
548.146	42925
548.210	42141
548.274	44151
548.339	41361
548.403	39288
548.468	36476
548.532	36459
548.596	37344
548.660	38419
548.725	43960
548.789	45160
548.853	44102
548.917	42353
548.982	43260
549.046	38865
549.110	33633
549.174	36878
549.238	41365
549.303	43636
549.367	44835
549.431	41701
549.495	39897
549.559	40172
549.623	47215
549.687	50742
549.751	52659
549.815	60561
549.879	58684
549.943	56740
550.007	60291
550.071	57117
550.135	53850
550.199	51872
550.263	50490
550.327	49997
550.391	51277
550.455	55079
550.519	57267
550.582	62998
550.646	70885
550.710	69311
550.774	68436
550.838	69236
550.901	71480
550.965	75515
551.029	77763
551.093	83411
551.156	90482
551.220	105236
551.284	104223
551.347	85571
551.411	89767
551.475	85015
551.538	74595
551.602	69011
551.666	65362
551.729	62241
551.793	63342
551.856	61819
551.920	61349
551.983	61169
552.047	59429
552.110	61172
552.174	61047
552.237	62463
552.301	58858
552.364	57253
552.428	55606
552.491	57369
552.554	58622
552.618	57555
552.681	58541
552.745	57139
552.808	61518
552.871	63312
552.934	60533
552.998	58298
553.061	58360
553.124	55660
553.187	56476
553.251	57535
553.314	58177
553.377	60195
553.440	66395
553.503	86341
553.567	83193
553.630	65010
553.693	63921
553.756	63938
553.819	62674
553.882	61587
553.945	62048
554.008	61953
554.071	61659
554.134	62517
554.197	60310
554.260	59847
554.323	61075
554.386	60668
554.449	63299
554.512	62681
554.575	60097
554.638	60881
554.701	60160
554.764	58553
554.827	56615
554.889	54260
554.952	54227
555.015	51437
555.078	53467
555.141	54359
555.203	51811
555.266	50788
555.329	50951
555.391	49081
555.454	49163
555.517	45923
555.580	45884
555.642	43860
555.705	43379
555.768	43286
555.830	40837
555.893	38710
555.955	39030
556.018	38020
556.080	38358
556.143	39518
556.206	38637
556.268	38088
556.330	37277
556.393	35692
556.455	35768
556.518	37962
556.580	35593
556.643	32903
556.705	32625
556.767	31066
556.830	32226
556.892	30478
556.955	31450
557.017	29721
557.079	30001
557.142	28152
557.204	27568
557.266	29381
557.328	26663
557.391	25385
557.453	25059
557.515	25212
557.577	26186
557.639	25254
557.701	25038
557.764	23477
557.826	24587
557.888	25025
557.950	24472
558.012	27807
558.074	35634
558.136	77865
558.198	126682
558.260	41237
558.322	26179
558.384	26979
558.446	27898
558.508	29142
558.570	32362
558.632	36830
558.694	46588
558.756	82849
558.818	252239
558.880	395371
558.942	131902
559.003	138077
559.065	54851
559.127	30403
559.189	29412
559.251	33725
559.312	50164
559.374	136124
559.436	308912
559.498	108333
559.559	31114
559.621	28653
559.683	34999
559.744	64625
559.806	194484
559.868	185627
559.929	38738
559.991	32322
560.052	60173
560.114	131795
560.176	67356
560.237	90447
560.299	99816
560.360	24208
560.422	15543
560.483	16157
560.545	14038
560.606	14238
560.667	13296
560.729	12702
560.790	12666
560.852	12811
560.913	12637
560.974	11945
561.036	11725
561.097	12511
561.158	11982
561.220	13718
561.281	10914
561.342	11540
561.403	12979
561.465	11417
561.526	16511
561.587	16670
561.648	11216
561.709	11226
561.771	11657
561.832	11343
561.893	11741
561.954	10071
562.015	10366
562.076	10618
562.137	11005
562.198	10301
562.259	10488
562.320	11039
562.381	10729
562.442	11704
562.503	10700
562.564	10885
562.625	10110
562.686	10302
562.747	10428
562.808	10475
562.869	11108
562.930	12155
562.991	12008
563.051	10465
563.112	10202
563.173	10141
563.234	9558
563.294	10506
563.355	9754
563.416	10335
563.477	9761
563.537	10067
563.598	10149
563.659	9992
563.720	9365
563.780	10382
563.841	9854
563.901	11134
563.962	9375
564.023	9510
564.083	9872
564.144	9759
564.204	9533
564.265	10541
564.325	11712
564.386	15891
564.446	11750
564.507	9207
564.567	8892
564.628	9182
564.688	8900
564.749	8243
564.809	9812
564.869	10641
564.930	8879
564.990	9685
565.050	8743
565.111	9115
565.171	8583
565.231	8649
565.292	9300
565.352	8834
565.412	9753
565.472	9548
565.532	8794
565.593	8427
565.653	8150
565.713	9268
565.773	8934
565.833	9353
565.893	9850
565.953	8472
566.013	8856
566.074	9395
566.134	11235
566.194	14051
566.254	11197
566.314	9997
566.374	8745
566.434	9128
566.494	9139
566.554	8142
566.614	8240
566.673	8689
566.733	9953
566.793	8974
566.853	8857
566.913	9138
566.973	9107
567.033	9408
567.092	8840
567.152	8859
567.212	9139
567.272	9712
567.331	10364
567.391	10521
567.451	10676
567.511	12353
567.570	11067
567.630	9058
567.690	8449
567.749	8213
567.809	8707
567.868	9269
567.928	8807
567.988	8796
568.047	8860
568.107	9250
568.166	9103
568.226	8967
568.285	9418
568.345	9759
568.404	8687
568.464	9176
568.523	8656
568.582	9022
568.642	8484
568.701	9354
568.761	9471
568.820	9117
568.879	9801
568.939	11076
568.998	9085
569.057	8890
569.116	8664
569.176	8382
569.235	8169
569.294	8527
569.353	8778
569.413	9351
569.472	7748
569.531	8437
569.590	8081
569.649	8870
569.708	8469
569.767	9012
569.827	8736
569.886	8523
569.945	7435
570.004	8050
570.063	8344
570.122	8403
570.181	9208
570.240	9439
570.299	9487
570.358	9525
570.417	8837
570.475	8819
570.534	8588
570.593	9561
570.652	8249
570.711	8632
570.770	8152
570.829	9411
570.887	8151
570.946	8152
571.005	8523
571.064	9207
571.122	8445
571.181	8924
571.240	8206
571.299	8134
571.357	8984
571.416	8864
571.475	9139
571.533	8951
571.592	8839
571.650	9259
571.709	7785
571.768	8786
571.826	8992
571.885	8520
571.943	8435
572.002	8206
572.060	7804
572.119	8798
572.177	8412
572.236	7824
572.294	7639
572.352	9110
572.411	8780
572.469	8575
572.528	6662
572.586	8179
572.644	8391
572.703	8364
572.761	8244
572.819	7537
572.877	8380
572.936	7166
572.994	8047
573.052	7069
573.110	7360
573.169	7405
573.227	7854
573.285	7348
573.343	8121
573.401	7889
573.459	7667
573.517	6512
573.576	7090
573.634	7206
573.692	8329
573.750	6996
573.808	7183
573.866	7161
573.924	8951
573.982	8480
574.040	6886
574.098	7162
574.155	6777
574.213	6694
574.271	6985
574.329	8039
574.387	7243
574.445	6572
574.503	7196
574.560	6900
574.618	6339
574.676	6507
574.734	7160
574.792	6999
574.849	6642
574.907	6389
574.965	6236
575.022	5340
575.080	6190
575.138	6740
575.195	6026
575.253	5299
575.311	6090
575.368	6211
575.426	5298
575.483	7210
575.541	6410
575.598	6222
575.656	6672
575.713	5951
575.771	5906
575.828	6227
575.886	5760
575.943	7191
576.001	6645
576.058	6214
576.115	6128
576.173	7487
576.230	6714
576.287	7254
576.345	6522
576.402	6052
576.459	5913
576.517	6449
576.574	7623
576.631	6333
576.688	5628
576.746	5896
576.803	6350
576.860	6370
576.917	6643
576.974	5579
577.031	6735
577.089	6457
577.146	6248
577.203	7395
577.260	6433
577.317	5926
577.374	7034
577.431	6470
577.488	6427
577.545	5062
577.602	6614
577.659	6234
577.716	6528
577.773	6937
577.830	5934
577.886	7212
577.943	6214
578.000	6101
578.057	7126
578.114	8668
578.171	10058
578.227	12401
578.284	11124
578.341	8756
578.398	7186
578.454	7460
578.511	7713
578.568	8116
578.625	6344
578.681	6567
578.738	6048
578.794	6620
578.851	5813
578.908	6959
578.964	6177
579.021	6743
579.077	6243
579.134	5966
579.190	6130
579.247	6293
579.303	5873
579.360	5864
579.416	5798
579.473	6821
579.529	6469
579.586	6234
579.642	7412
579.698	7578
579.755	6378
579.811	6620
579.867	6605
579.924	7334
579.980	7581
580.036	10394
580.093	12245
580.149	17387
580.205	17428
580.261	12296
580.317	11433
580.374	9399
580.430	9844
580.486	8456
580.542	7074
580.598	7146
580.619	7465
580.654	8029
580.692	7165
580.710	6747
580.765	7147
580.767	7168
580.823	7554
580.838	7519
580.879	7417
580.911	7655
580.935	7862
580.984	7365
580.991	7308
581.047	8556
581.057	8501
581.103	8290
581.130	8961
581.159	9648
581.203	9393
581.215	9350
581.270	9575
581.276	9515
581.326	8998
581.349	8679
581.382	8268
581.422	7947
581.438	7781
581.494	7946
581.494	7934
581.550	7442
581.567	7693
581.606	8212
581.640	7716
581.661	7415
581.713	8404
581.717	8494
581.773	8015
581.786	8070
581.829	8183
581.859	8264
581.885	8395
581.932	8309
581.940	8292
581.996	8301
582.004	8175
582.052	7345
582.077	7324
582.107	7452
582.150	7886
582.163	7990
582.219	8190
582.223	8151
582.274	7825
582.296	8138
582.330	8557
582.368	8207
582.386	8130
582.441	8336
582.441	8338
582.497	8797
582.514	8804
582.552	8945
582.587	8654
582.608	8422
582.659	8457
582.663	8483
582.719	8852
582.732	8949
582.774	8954
582.805	9158
582.830	9527
582.877	9627
582.885	9610
582.941	10503
582.950	10585
582.996	11067
583.023	11955
583.052	13061
583.095	13178
583.107	13169
583.162	14903
583.168	14841
583.218	14025
583.240	13126
583.273	11908
583.313	10655
583.328	10234
583.384	10295
583.385	10246
583.439	8623
583.458	8785
583.494	9064
583.531	8509
583.549	8319
583.603	9171
583.605	9188
583.660	8070
583.676	8253
583.715	8844
583.748	8662
583.770	8496
583.820	8457
583.825	8472
583.881	8949
583.893	8762
583.936	8091
583.965	8193
583.991	8173
584.038	8707
584.046	8801
584.101	7517
584.110	7651
584.156	8403
584.183	8375
584.211	8322
584.255	8147
584.266	8170
584.321	9272
584.328	9226
584.376	8572
584.400	8944
584.431	9491
584.472	9109
584.486	8864
584.541	9050
584.545	9015
584.596	8899
584.617	8889
584.651	8981
584.689	9685
584.706	9851
584.761	9983
584.762	9977
584.816	8978
584.834	9289
584.871	10326
584.906	9968
584.926	9575
584.978	9831
584.980	9858
585.035	11440
585.051	11306
585.090	10852
585.123	11581
585.145	12116
585.195	11980
585.200	11984
585.254	13619
585.267	13901
585.309	14868
585.340	15746
585.364	16581
585.412	17953
585.419	18278
585.473	21981
585.484	23168
585.528	29134
585.556	35704
585.583	48471
585.628	78175
585.637	88635
585.692	178762
585.700	188796
585.747	216854
585.772	189772
585.801	118936
585.845	48158
585.856	40787
585.910	23110
585.917	21170
585.965	16970
585.989	15456
586.019	14735
586.061	13873
586.074	13650
586.128	13003
586.133	12905
586.183	12133
586.205	12249
586.237	12397
586.277	12018
586.292	11964
586.346	11650
586.349	11649
586.401	11651
586.421	11767
586.455	11966
586.493	12184
586.509	12372
586.564	13271
586.565	13338
586.618	17408
586.637	17263
586.672	15544
586.709	14465
586.727	14288
586.781	15042
586.781	15044
586.835	12571
586.853	12030
586.889	11640
586.925	11310
586.944	11148
586.996	10836
586.998	10833
587.052	10681
587.068	10568
587.106	10499
587.140	10467
587.161	10630
587.212	11102
587.215	11083
587.269	10994
587.284	10901
587.323	11197
587.356	11440
587.377	11522
587.427	11811
587.431	11847
587.485	12157
587.499	12189
587.539	12036
587.571	12071
587.593	12269
587.643	12834
587.648	12861
587.702	12762
587.715	12760
587.755	12739
587.786	12844
587.810	12854
587.858	12620
587.864	12661
587.917	12805
587.930	12959
587.971	13341
588.001	13583
588.025	13771
588.073	14077
588.079	14088
588.133	13832
588.145	13864
588.187	14335
588.217	14613
588.241	14528
588.288	14224
588.295	14343
588.348	16012
588.360	16129
588.402	16041
588.431	16408
588.456	16776
588.503	18017
588.510	18199
588.564	19058
588.575	19333
588.617	20447
588.646	21581
588.671	22544
588.718	25116
588.725	25851
588.778	34254
588.789	36903
588.832	52956
588.861	67709
588.886	94389
588.932	157818
588.939	164683
588.993	191251
589.004	187560
589.047	96899
589.075	51526
589.100	38732
589.147	24259
589.154	23761
589.207	21920
589.218	21571
589.261	21699
589.290	22614
589.314	23273
589.361	25439
589.368	26335
589.421	36619
589.433	39674
589.475	64280
589.504	87382
589.528	114762
589.576	161047
589.582	156509
589.635	77112
589.647	64157
589.689	36139
589.718	20990
589.742	19347
589.790	17110
589.795	17122
589.849	17433
589.861	17667
589.902	18584
589.932	18428
589.955	17199
590.004	15044
590.009	15061
590.062	15630
590.075	15721
590.115	14842
590.146	14154
590.168	14375
590.218	14913
590.222	14927
590.275	15036
590.289	15003
590.328	15520
590.360	15928
590.381	15739
590.431	15142
590.435	15190
590.488	15856
590.503	16067
590.541	16016
590.574	16004
590.594	16341
590.645	16867
590.647	16884
590.700	16898
590.716	16913
590.753	17228
590.787	17454
590.806	17462
590.859	17541
590.859	17561
590.912	17583
590.930	17651
590.965	18271
591.001	18601
591.018	18398
591.071	17917
591.072	17892
591.124	17732
591.143	17696
591.177	18398
591.214	18985
591.230	18920
591.283	18773
591.285	18740
591.336	18980
591.356	19070
591.389	18958
591.427	18736
591.442	18716
591.495	18580
591.498	18540
591.547	18153
591.569	18014
591.600	18272
591.640	18477
591.653	18615
591.706	19206
591.711	19242
591.759	19929
591.782	20244
591.811	20657
591.853	21223
591.864	21227
591.917	21021
591.924	20969
591.969	20636
591.995	20411
592.022	20700
592.066	21126
592.075	21285
592.127	22116
592.137	22249
592.180	22811
592.208	23080
592.233	22986
592.279	22754
592.285	22782
592.338	22812
592.350	22769
592.390	22377
592.421	22084
592.443	22723
592.491	24008
592.495	24033
592.548	23939
592.562	23882
592.600	24303
592.633	24615
592.653	24318
592.704	23331
592.705	23505
592.775	25646
592.846	24669
592.916	24837
592.987	25114
593.058	26583
593.128	25785
593.199	26581
593.270	25333
593.341	27370
593.411	27456
593.482	27491
593.553	29431
593.623	27635
593.694	30114
593.764	31380
593.835	29749
593.906	30245
593.976	31460
594.047	33213
594.117	33404
594.188	36364
594.258	33345
594.329	34330
594.399	34967
594.470	36302
594.540	36995
594.611	38645
594.681	37483
594.751	38808
594.822	39251
594.892	41530
594.963	40368
595.033	42033
595.103	42746
595.174	44266
595.244	46036
595.314	48910
595.384	46573
595.455	48832
595.525	49333
595.595	51229
595.665	50892
595.736	50159
595.806	50471
595.876	52295
595.946	52416
596.016	54980
596.087	56222
596.157	56311
596.227	56910
596.297	60258
596.367	62523
596.437	67426
596.507	68059
596.577	68619
596.647	69509
596.717	71063
596.787	72622
596.857	72069
596.927	72682
596.997	72545
597.067	74012
597.137	75769
597.207	74367
597.277	76521
597.347	74487
597.417	71772
597.487	71970
597.557	73736
597.626	74092
597.696	77824
597.766	76055
597.836	73897
597.906	69361
597.975	68437
598.045	68414
598.115	72495
598.185	75846
598.254	85161
598.324	91142
598.394	92961
598.464	90510
598.533	89848
598.603	83380
598.672	82028
598.742	83859
598.812	83568
598.881	85459
598.951	86550
599.020	85962
599.090	88868
599.159	91413
599.229	88737
599.299	86268
599.368	89322
599.437	89062
599.507	82047
599.576	78942
599.646	80151
599.715	78284
599.785	77640
599.854	75330
599.924	76946
599.993	75922
600.062	77783
600.132	80116
600.201	83859
600.270	95742
600.340	99723
600.409	96852
600.478	98252
600.547	98067
600.617	92918
600.686	76588
600.755	71318
600.824	67459
600.894	69012
600.963	68494
601.032	67564
601.101	66571
601.170	64748
601.239	63528
601.308	63691
601.378	63900
601.447	64221
601.516	65247
601.585	66814
601.654	67673
601.723	68190
601.792	69956
601.861	73178
601.930	76278
601.999	77155
602.068	75319
602.137	77581
602.206	77025
602.275	78380
602.343	78668
602.412	78805
602.481	80461
602.550	81974
602.619	83656
602.688	83779
602.756	85543
602.825	84843
602.894	86003
602.963	86770
603.032	89691
603.100	89535
603.169	89103
603.238	89912
603.307	89987
603.375	90488
603.444	93157
603.513	91506
603.581	92692
603.650	95846
603.719	89135
603.787	89764
603.856	92432
603.924	92705
603.993	95356
604.061	100015
604.130	102682
604.198	105881
604.267	106790
604.335	109156
604.404	110097
604.472	112728
604.541	112773
604.609	115247
604.678	115464
604.746	117210
604.815	117793
604.883	120520
604.951	118668
605.020	121366
605.088	120885
605.156	121182
605.225	122404
605.293	121065
605.361	122947
605.429	124477
605.498	127153
605.566	127920
605.634	132976
605.702	138482
605.771	139766
605.839	140907
605.907	137437
605.975	134473
606.043	132126
606.111	130787
606.180	133441
606.248	128798
606.316	126719
606.384	128495
606.452	123787
606.520	123820
606.588	126816
606.656	128529
606.724	124935
606.792	118373
606.860	107590
606.928	98492
606.996	94449
607.064	94604
607.132	96292
607.200	102074
607.267	104981
607.335	107644
607.403	109784
607.471	106112
607.539	102736
607.607	105109
607.674	91789
607.742	92299
607.810	89877
607.878	91375
607.946	93170
608.013	97626
608.081	98368
608.149	99137
608.216	101672
608.284	107766
608.352	104004
608.419	104710
608.487	103855
608.555	100025
608.622	103669
608.690	109512
608.757	120490
608.825	122507
608.893	119709
608.960	112696
609.028	108789
609.095	112186
609.163	109288
609.230	97370
609.298	89127
609.365	95561
609.432	101868
609.500	110088
609.567	124242
609.635	139644
609.702	146125
609.769	139351
609.837	110500
609.904	97531
609.971	98828
610.039	109084
610.106	130386
610.173	212274
610.241	416356
610.308	272341
610.375	129192
610.442	108913
610.509	101295
610.577	102768
610.644	103289
610.711	105762
610.778	107386
610.845	112838
610.912	119147
610.980	123730
611.047	124082
611.114	121003
611.181	116458
611.248	117274
611.315	124171
611.382	126845
611.449	130242
611.516	133373
611.583	132034
611.650	131159
611.717	132875
611.784	136154
611.851	140519
611.918	146942
611.984	161411
612.051	207301
612.118	331225
612.185	618950
612.252	456749
612.319	205498
612.386	172564
612.452	156993
612.519	148529
612.586	146821
612.653	149225
612.719	154713
612.786	148269
612.853	137890
612.919	135807
612.986	138917
613.053	129852
613.120	122364
613.186	117757
613.253	120977
613.319	120503
613.386	120204
613.453	123208
613.519	122931
613.586	120172
613.652	122516
613.719	120233
613.785	123150
613.852	124129
613.918	123155
613.985	125072
614.051	129488
614.118	127801
614.184	125009
614.250	123037
614.317	124826
614.383	125307
614.449	127123
614.516	125983
614.582	127618
614.648	124375
614.715	123646
614.781	120346
614.847	121190
614.914	120932
614.980	117829
615.046	118631
615.112	121729
615.179	120857
615.245	122989
615.311	121168
615.377	122859
615.443	124451
615.509	125456
615.575	128227
615.642	127736
615.708	130244
615.774	134978
615.840	140501
615.906	149011
615.972	167548
616.038	223164
616.104	382173
616.170	679102
616.236	598687
616.302	270822
616.368	212213
616.434	166222
616.500	152614
616.565	162476
616.631	192815
616.697	167383
616.763	170584
616.829	228561
616.895	365219
616.961	353655
617.026	186595
617.092	138524
617.158	131179
617.224	127302
617.289	119572
617.355	114664
617.421	113295
617.487	114558
617.552	107199
617.618	106923
617.684	105336
617.749	109316
617.815	102328
617.880	101332
617.946	100367
618.012	103122
618.077	104142
618.143	101098
618.208	101263
618.274	109647
618.339	109837
618.405	92638
618.470	93567
618.536	91746
618.601	91533
618.667	87706
618.732	82725
618.798	81048
618.863	80444
618.928	80899
618.994	81794
619.059	81383
619.124	81445
619.190	81486
619.255	81154
619.320	78809
619.386	80326
619.451	80001
619.516	78239
619.581	78942
619.647	79942
619.712	80642
619.777	77350
619.842	79428
619.907	80119
619.972	80606
620.038	80652
620.103	78576
620.168	78814
620.233	81046
620.298	79031
620.363	82117
620.428	82705
620.493	85580
620.558	85825
620.623	87425
620.688	86740
620.753	86965
620.818	87513
620.883	87638
620.948	87807
621.013	86721
621.078	86418
621.143	87286
621.207	89457
621.272	87091
621.337	84702
621.402	84543
621.467	84317
621.532	84040
621.596	83509
621.661	81787
621.726	81502
621.791	81694
621.855	82736
621.920	81942
621.985	81837
622.049	84585
622.114	84681
622.179	86167
622.243	86279
622.308	89475
622.373	93161
622.437	90083
622.502	84705
622.566	84986
622.631	84269
622.695	86796
622.760	86075
622.824	86937
622.889	85829
622.953	85583
623.018	90571
623.082	91105
623.147	90121
623.211	87888
623.276	87960
623.340	83785
623.404	82752
623.469	82274
623.533	83722
623.597	81907
623.662	82471
623.726	77631
623.790	73583
623.854	71217
623.919	72175
623.983	72994
624.047	73827
624.111	75486
624.176	75992
624.240	76445
624.304	78992
624.368	75697
624.432	75287
624.496	77011
624.560	80471
624.625	80518
624.689	80524
624.753	83335
624.817	79781
624.881	77655
624.945	71906
625.009	70138
625.073	71466
625.137	72188
625.201	75177
625.265	75603
625.329	71431
625.393	73398
625.456	74647
625.520	76120
625.584	74353
625.648	78723
625.712	80777
625.776	87918
625.839	85365
625.903	68476
625.967	60229
626.031	67956
626.095	79846
626.158	69345
626.222	55640
626.286	53850
626.349	50710
626.413	47030
626.477	48966
626.540	47767
626.604	48600
626.668	48586
626.731	46168
626.795	47232
626.858	45675
626.922	45566
626.986	46274
627.049	44439
627.113	47616
627.176	45784
627.240	43761
627.303	44450
627.366	42970
627.430	44760
627.493	43509
627.557	42519
627.620	44031
627.684	44783
627.747	44810
627.810	41813
627.874	38291
627.937	35194
628.000	38671
628.064	37479
628.127	32434
628.190	33571
628.253	32318
628.317	31419
628.380	29663
628.443	29299
628.506	29143
628.569	28449
628.632	26009
628.696	27353
628.759	25951
628.822	26278
628.885	24854
628.948	24520
629.011	24302
629.074	24655
629.137	23190
629.200	22943
629.263	22193
629.326	21845
629.389	21005
629.452	22119
629.515	21565
629.578	21035
629.641	22182
629.704	21558
629.767	21291
629.830	21244
629.892	20133
629.955	19989
630.018	21871
630.081	19359
630.144	20333
630.207	17944
630.269	21350
630.332	19386
630.395	19257
630.458	18850
630.520	17217
630.583	18970
630.646	18485
630.708	19298
630.771	18403
630.834	20073
630.896	19875
630.959	19437
631.021	18830
631.084	17670
631.146	18651
631.209	20207
631.272	18178
631.334	19831
631.397	18728
631.459	19957
631.522	19659
631.584	20222
631.646	20550
631.709	21214
631.771	21480
631.834	20943
631.896	19870
631.958	18952
632.021	18690
632.083	17272
632.145	18454
632.208	17955
632.270	17866
632.332	17301
632.395	16524
632.457	18806
632.519	16821
632.581	18704
632.643	16181
632.706	17775
632.768	15856
632.830	17452
632.892	16917
632.954	18051
633.016	16742
633.078	17304
633.141	16261
633.203	16786
633.265	18049
633.327	16529
633.389	16782
633.451	18321
633.513	16523
633.575	17868
633.637	16707
633.698	17384
633.760	18838
633.822	19303
633.884	18797
633.946	19575
634.008	18950
634.070	19867
634.132	20553
634.193	22160
634.255	24163
634.317	22618
634.379	23823
634.441	21722
634.502	18949
634.564	19345
634.626	17278
634.687	17237
634.749	16039
634.811	16757
634.873	15577
634.934	16803
634.996	17443
635.057	15718
635.119	15661
635.181	17849
635.242	17498
635.304	15292
635.365	19226
635.427	15575
635.488	16373
635.550	16641
635.611	16299
635.673	15538
635.734	18504
635.796	18842
635.857	20198
635.918	19973
635.980	22799
636.041	22725
636.102	25089
636.164	25100
636.225	25459
636.286	21073
636.348	19655
636.409	17516
636.470	16243
636.531	16933
636.593	15823
636.654	16960
636.715	15858
636.776	15030
636.838	13342
636.899	15364
636.960	13605
637.021	14384
637.082	14252
637.143	14802
637.204	12473
637.265	13980
637.326	13724
637.387	15452
637.448	12827
637.509	14644
637.570	14057
637.631	15321
637.692	12358
637.753	11878
637.814	13327
637.875	13249
637.936	14090
637.997	13088
638.058	12552
638.119	14184
638.179	13457
638.240	13493
638.301	13650
638.362	12529
638.423	12391
638.483	13708
638.544	11270
638.605	13207
638.666	11357
638.726	13604
638.787	12568
638.848	12729
638.908	12000
638.969	13031
639.030	11983
639.090	11414
639.151	10919
639.211	12488
639.272	12181
639.332	11866
639.393	12356
639.453	12641
639.514	12586
639.574	13066
639.635	10571
639.695	11441
639.756	10119
639.816	11263
639.877	10506
639.937	11751
639.997	11174
640.058	9501
640.118	9920
640.178	12521
640.239	11009
640.299	11402
640.359	10741
640.420	12741
640.480	12689
640.540	14172
640.600	12980
640.661	12922
640.721	11433
640.781	14453
640.841	11057
640.901	11515
640.961	10899
641.021	11568
641.082	11362
641.142	12129
641.202	10526
641.262	8987
641.322	11618
641.382	10220
641.442	9580
641.502	10784
641.562	11139
641.622	10819
641.682	10459
641.742	12449
641.802	11512
641.861	11294
641.921	9758
641.981	10548
642.041	9588
642.101	10130
642.161	9112
642.221	9951
642.280	9543
642.340	10028
642.400	8658
642.460	10863
642.519	9239
642.579	10620
642.639	10996
642.698	8077
642.758	12166
642.818	11157
642.877	9030
642.937	10752
642.997	9672
643.056	10119
643.116	9128
643.175	12370
643.235	9336
643.294	10833
643.354	11031
643.414	12923
643.473	13493
643.532	15566
643.592	18964
643.651	31257
643.711	48276
643.770	90785
643.830	200188
643.889	362583
643.948	117014
644.008	30297
644.067	18557
644.126	13724
644.186	12194
644.245	12519
644.304	9076
644.363	12660
644.423	8727
644.482	10021
644.541	11130
644.600	9974
644.659	13540
644.719	15214
644.778	22409
644.837	37392
644.896	73018
644.955	159071
645.014	56587
645.073	15354
645.132	12152
645.191	12398
645.250	9668
645.309	12644
645.368	12105
645.427	17465
645.486	25602
645.545	44275
645.604	15077
645.663	11337
645.722	9625
645.781	10858
645.840	10899
645.898	14174
645.957	19330
646.016	26559
646.075	46114
646.134	85219
646.192	208637
646.251	282519
646.310	60768
646.369	21621
646.427	17488
646.486	12990
646.545	11175
646.603	10527
646.662	10172
646.721	9824
646.779	8309
646.838	8125
646.896	12035
646.955	16144
647.014	23511
647.072	42742
647.131	110997
647.189	54338
647.248	9893
647.306	8757
647.365	9387
647.423	5832
647.481	8509
647.540	6866
647.598	7406
647.657	6381
647.715	7382
647.773	6435
647.832	7467
647.890	5442
647.948	5965
648.007	7168
648.065	4549
648.123	5814
648.181	6720
648.240	6502
648.298	4745
648.356	5312
648.414	6530
648.472	6102
648.531	5628
648.589	5681
648.647	5800
648.705	6254
648.763	5133
648.821	5810
648.879	5985
648.937	6269
648.995	7719
649.053	9574
649.111	12677
649.169	21577
649.227	38269
649.285	79116
649.343	201974
649.401	101906
649.459	17353
649.516	10836
649.574	6502
649.632	8903
649.690	9433
649.748	11862
649.806	15531
649.863	30438
649.921	81929
649.979	52723
650.037	8437
650.094	4797
650.152	5262
650.210	4891
650.268	5340
650.325	4352
650.383	4907
650.440	4355
650.498	4376
650.556	4334
650.613	3806
650.671	5054
650.728	3848
650.786	4427
650.843	6267
650.901	3625
650.958	4662
651.016	3601
651.073	3497
651.131	4176
651.188	2502
651.246	3373
651.303	1890
651.360	4363
651.418	2912
651.475	4341
651.532	2610
651.590	3615
651.647	2145
651.704	3138
651.762	2837
651.819	3112
651.876	2838
651.933	3335
651.990	3579
652.048	2386
652.105	1556
652.162	3686
652.219	2608
652.276	3983
652.333	2771
652.390	2189
652.448	2812
652.505	3461
652.562	1933
652.619	2486
652.676	3214
652.733	3670
652.790	2266
652.847	1668
652.904	2687
652.961	1675
653.017	1217
653.074	2800
653.131	2293
653.188	1643
653.245	2564
653.302	2515
653.359	2046
653.415	2630
653.472	1969
653.529	3404
653.586	1618
653.642	2026
653.699	2308
653.756	1655
653.813	2347
653.869	3281
653.926	1790
653.983	1662
654.039	2207
654.096	1519
654.152	3574
654.209	804
654.266	2078
654.322	1554
654.379	2485
654.435	2321
654.492	827
654.548	2359
654.605	1724
654.661	3225
654.717	2471
654.774	2051
654.830	2335
654.887	2646
654.943	1733
655.000	2550
655.056	1972
655.112	2368
655.168	956
655.225	2382
655.281	2033
655.337	1608
655.394	2105
655.450	3134
655.506	2394
655.562	3441
655.618	2918
655.675	1712
655.731	2402
655.787	2131
655.843	2042
655.899	1367
655.955	2523
656.011	2238
656.067	1297
656.123	2788
656.179	1791
656.235	3570
656.291	825
656.347	2822
656.403	1883
656.459	2255
656.515	1616
656.571	1879
656.627	1496
656.683	1736
656.739	2595
656.795	2695
656.850	2041
656.906	1621
656.962	2296
657.018	1902
657.074	2119
657.129	3904
657.185	6741
657.241	15763
657.297	7467
657.352	3540
657.408	2034
657.464	2824
657.519	1352
657.575	1660
657.630	1140
657.686	1529
657.742	1381
657.797	2811
657.853	810
657.908	2873
657.964	1107
658.019	2122
658.075	1914
658.130	2227
658.186	1134
658.241	1940
658.297	845
658.352	1749
658.407	2600
658.463	1419
658.518	1858
658.573	1486
658.629	596
658.684	2004
658.739	1957
658.795	657
658.850	1757
658.905	1304
658.960	1456
659.016	1052
659.071	1100
659.126	2181
659.181	1389
659.236	2023
659.291	2352
659.346	1839
659.401	1445
659.457	1821
659.512	1123
659.567	2470
659.622	1865
659.677	1693
659.732	882
659.787	1329
659.842	648
659.897	2327
659.952	1816
660.007	1530
660.061	1252
660.116	842
660.171	508
660.226	1738
660.281	1583
660.336	1086
660.391	1922
660.445	1214
660.500	1648
660.555	1573
660.610	289
660.664	1898
660.719	1237
660.774	1352
660.828	1527
660.883	1219
660.938	2105
660.992	701
661.047	1270
661.101	1690
661.156	664
661.211	645
661.265	1146
661.320	1421
661.374	1361
661.429	1479
661.483	1330
661.538	633
661.592	1599
661.647	1682
661.701	2889
661.755	1694
661.810	788
661.864	983
661.919	1045
661.973	1592
662.027	856
662.081	877
662.136	1566
662.190	1717
662.244	1032
662.299	1384
662.353	1608
662.407	1402
662.461	1423
662.515	2204
662.569	413
662.624	1824
662.678	1318
662.732	813
662.786	1769
662.840	627
662.894	1525
662.948	1254
663.002	911
663.056	1597
663.110	266
663.164	1227
663.218	290
663.272	1457
663.326	1663
663.380	1246
663.434	214
663.488	163
663.542	1028
663.595	973
663.649	1088
663.703	1693
663.757	1174
663.811	938
663.864	1063
663.918	817
663.972	934
664.026	848
664.079	683
664.133	2642
664.187	809
664.240	1373
664.294	1463
664.348	1631
664.401	994
664.455	2366
664.508	203
664.562	1267
664.615	1388
664.669	525
664.722	1137
664.776	626
664.829	570
664.883	860
664.936	996
664.990	2313
665.043	939
665.097	890
665.150	2543
665.203	750
665.257	735
665.310	1957
665.363	1128
665.417	1743
665.470	1074
665.523	1407
665.576	1400
665.630	1678
665.683	1683
665.736	1502
665.789	981
665.842	1355
665.895	1335
665.949	2317
666.002	2064
666.055	2126
666.108	777
666.161	1808
666.214	2190
666.267	1371
666.320	1671
666.373	1814
666.426	1452
666.479	1897
666.532	1281
666.585	1639
666.638	1178
666.691	1278
666.744	1790
666.796	1597
666.849	745
666.902	1333
666.955	1454
667.008	1415
667.060	804
667.113	935
667.166	1214
667.219	1748
667.271	987
667.324	1791
667.377	1505
667.430	1943
667.482	1146
667.535	2099
667.587	2028
667.640	901
667.693	828
667.745	1282
667.798	2030
667.850	1206
667.903	742
667.955	990
668.008	840
668.060	1234
668.113	1614
668.165	1507
668.218	866
668.270	2256
668.322	1244
668.375	1479
668.427	2011
668.479	934
668.532	1062
668.584	1549
668.636	1058
668.689	1995
668.741	772
668.793	1556
668.845	1430
668.898	1501
668.950	690
669.002	1373
669.054	1005
669.106	1813
669.158	1079
669.211	2047
669.263	1675
669.315	2160
669.367	1241
669.419	1361
669.471	1672
669.523	580
669.575	1776
669.627	1299
669.679	764
669.731	1505
669.783	1823
669.835	1552
669.886	1290
669.938	1345
669.990	942
670.042	950
670.094	1223
670.146	1576
670.197	1359
670.249	2092
670.301	2747
670.353	3665
670.404	3959
670.456	5534
670.508	7469
670.560	12451
670.611	20245
670.663	34824
670.715	80714
670.766	127678
670.818	49011
670.869	9848
670.921	4361
670.972	4469
671.024	2282
671.075	3201
671.127	2317
671.178	2049
671.230	2233
671.281	1559
671.333	2624
671.384	2160
671.436	3278
671.487	4855
671.538	6674
671.590	11324
671.641	17701
671.692	31491
671.744	57560
671.795	40794
671.846	14758
671.897	7022
671.949	3796
672.000	3209
672.051	2048
672.102	2343
672.153	1309
672.204	2145
672.256	1729
672.307	1310
672.358	1355
672.409	1213
672.460	1284
672.511	1302
672.562	782
672.613	918
672.664	1267
672.715	1485
672.766	783
672.817	346
672.868	531
672.919	1638
672.970	658
673.021	759
673.071	905
673.122	922
673.173	903
673.224	1452
673.275	731
673.326	1346
673.376	1197
673.427	236
673.478	369
673.528	2385
673.579	609
673.630	1528
673.680	784
673.731	657
673.782	578
673.832	1090
673.883	1122
673.934	1288
673.984	555
674.035	1138
674.085	689
674.136	1373
674.186	370
674.237	551
674.287	1503
674.338	816
674.388	628
674.438	746
674.489	208
674.539	1780
674.589	564
674.640	937
674.690	416
674.740	952
674.791	1304
674.841	1373
674.891	743
674.942	699
674.992	1078
675.042	19
675.092	320
675.142	835
675.193	572
675.243	921
675.293	745
675.343	685
675.393	1
675.443	1411
675.493	936
675.543	894
675.593	439
675.643	1099
675.693	1085
675.743	1072
675.793	-115
675.843	355
675.893	-236
675.943	560
675.993	266
676.043	156
676.093	-36
676.142	-101
676.192	880
676.242	1020
676.292	330
676.341	822
676.391	-267
676.441	416
676.491	41
676.540	343
676.590	18
676.640	1286
676.689	441
676.739	-124
676.789	-616
676.838	966
676.888	465
676.937	167
676.987	131
677.037	-8
677.086	-280
677.136	63
677.185	641
677.235	894
677.284	-187
677.333	563
677.383	-114
677.432	-85
677.482	-682
677.531	943
677.580	-838
677.630	-91
677.679	-497
677.728	748
677.778	477
677.827	903
677.876	199
677.925	682
677.975	312
678.024	1356
678.073	684
678.122	962
678.171	148
678.220	39
678.269	332
678.319	1283
678.368	-63
678.417	151
678.466	1009
678.515	439
678.564	24
678.613	522
678.662	460
678.711	830
678.760	529
678.809	275
678.857	-645
678.906	961
678.955	538
679.004	962
679.053	538
679.102	336
679.151	173
679.199	295
679.248	459
679.297	388
679.346	-21
679.394	452
679.443	-167
679.492	564
679.540	-357
679.589	435
679.638	-158
679.686	1198
679.735	542
679.784	377
679.832	1298
679.881	-170
679.929	294
679.978	-505
680.026	-1180
680.075	464
680.123	-450
680.172	-131
680.220	-236
680.268	432
680.317	-148
680.365	10
680.414	-649
680.462	-456
680.510	84
680.559	964
680.607	-20
680.655	-539
680.703	-641
680.752	508
680.800	-844
680.848	134
680.896	-301
680.945	125
680.993	-518
681.041	-506
681.089	5
681.137	77
681.185	-348
681.233	188
681.258	-112
681.281	-418
681.329	859
681.377	454
681.380	500
681.425	922
681.473	-105
681.502	358
681.521	631
681.569	18
681.617	539
681.624	506
681.665	122
681.713	1328
681.745	1078
681.761	914
681.809	223
681.857	1180
681.867	1267
681.904	1490
681.952	335
681.989	944
682.000	1095
682.048	416
682.096	1551
682.111	1311
682.143	727
682.191	665
682.233	1218
682.239	1277
682.286	1173
682.334	731
682.354	1194
682.382	1779
682.430	1470
682.476	1507
682.477	1487
682.525	432
682.572	1364
682.598	1125
682.620	904
682.667	1080
682.715	1126
682.720	1204
682.763	1672
682.810	1593
682.841	1223
682.857	1019
682.905	850
682.952	1803
682.963	1885
683.000	2033
683.047	2190
683.085	2276
683.095	2287
683.142	2157
683.190	1780
683.206	1860
683.237	1969
683.284	1723
683.328	1899
683.332	1887
683.379	1592
683.426	2882
683.449	2293
683.473	1714
683.521	2569
683.568	2385
683.571	2416
683.615	2540
683.662	2344
683.693	2319
683.709	2269
683.757	2368
683.804	2675
683.814	2479
683.851	1714
683.898	2826
683.936	2483
683.945	2401
683.992	3043
684.039	2405
684.057	2814
684.086	3380
684.133	2761
684.179	2818
684.180	2804
684.227	2863
684.274	2768
684.300	2614
684.321	2539
684.368	2653
684.415	2816
684.422	2785
684.462	2464
684.509	2376
684.543	3053
684.556	3290
684.603	2709
684.649	3136
684.665	3204
684.696	3275
684.743	3592
684.786	3355
684.790	3325
684.837	3363
684.883	3445
684.908	3549
684.930	3641
684.977	3818
685.023	3824
685.029	3832
685.070	3617
685.117	3702
685.150	3390
685.164	3340
685.210	3757
685.257	3952
685.272	4137
685.303	4318
685.350	3886
685.393	4172
685.396	4191
685.443	3575
685.490	4174
685.514	4295
685.536	4340
685.583	4158
685.629	4751
685.636	4660
685.675	4247
685.722	3679
685.757	4348
685.768	4537
685.815	4889
685.861	4924
685.878	4576
685.908	3971
685.954	4820
686.000	4544
686.000	4533
686.047	4906
686.093	4045
686.121	4799
686.139	5309
686.185	4794
686.232	5109
686.242	5154
686.278	5133
686.324	4471
686.363	4097
686.370	4056
686.416	4644
686.463	4415
686.484	4912
686.509	5429
686.555	4939
686.601	4846
686.606	4819
686.647	4497
686.693	5197
686.727	4745
686.739	4602
686.785	4881
686.831	5525
686.848	5589
686.877	5679
686.923	5108
686.969	5241
686.969	5242
687.015	5495
687.061	5947
687.090	5987
687.107	5825
687.153	5753
687.199	5348
687.211	5309
687.245	5304
687.291	5335
687.332	5496
687.336	5524
687.382	5506
687.428	6147
687.453	6096
687.474	6038
687.520	5976
687.565	6182
687.574	6229
687.611	6596
687.657	6102
687.695	6923
687.702	7083
687.748	6711
687.794	7891
687.816	7799
687.839	7308
687.885	6974
687.931	6114
687.937	6060
687.976	6211
688.022	5882
688.058	6346
688.067	6475
688.113	6182
688.158	6350
688.179	6413
688.204	6496
688.249	6786
688.295	6489
688.300	6512
688.340	6486
688.386	6355
688.421	6096
688.431	6124
688.477	6524
688.522	6794
688.542	6833
688.567	6821
688.613	7350
688.658	7053
688.663	7076
688.703	7092
688.749	6630
688.784	7263
688.794	7489
688.839	6619
688.884	7493
688.905	7291
688.930	7095
688.975	7514
689.020	7085
689.026	7136
689.065	7430
689.110	7238
689.146	7632
689.155	7738
689.201	7420
689.246	7392
689.267	7188
689.291	6953
689.336	7653
689.381	7212
689.388	7265
689.426	7796
689.471	7615
689.509	7527
689.516	7486
689.561	7338
689.606	7637
689.630	7297
689.651	7013
689.696	7069
689.741	7167
689.750	7141
689.785	7255
689.830	7190
689.871	7527
689.875	7565
689.920	7451
689.965	7644
689.992	7351
690.010	7111
690.054	7208
690.099	6960
690.112	7088
690.144	7679
690.189	7787
690.233	7576
690.233	7586
690.278	7741
690.323	8147
690.354	7705
690.367	7495
690.412	7712
690.457	7705
690.474	7860
690.501	8214
690.546	7878
690.590	8030
690.595	7994
690.635	7799
690.680	8071
690.716	8136
690.724	8211
690.769	8794
690.813	9269
690.836	9275
690.857	9863
690.902	11119
690.946	13003
690.957	13405
690.991	16193
691.035	20194
691.077	23921
691.080	23896
691.124	21349
691.168	19244
691.198	17628
691.213	16663
691.257	14380
691.301	11552
691.318	10659
691.346	10501
691.390	9653
691.434	9588
691.439	9496
691.478	9124
691.522	8984
691.559	8690
691.567	8710
691.611	8936
691.655	9004
691.680	9147
691.699	9213
691.743	9028
691.787	8990
691.800	8954
691.831	8997
691.875	9118
691.919	9359
691.921	9335
691.964	9177
692.008	9400
692.041	9285
692.052	9225
692.096	9145
692.139	9290
692.162	9129
692.183	9046
692.227	8732
692.271	8759
692.282	8695
692.315	8589
692.359	8585
692.402	8469
692.403	8488
692.447	8568
692.490	8479
692.523	8905
692.534	9127
692.578	9285
692.622	9013
692.643	9230
692.666	9307
692.709	9248
692.753	8778
692.763	8792
692.797	9178
692.840	9055
692.884	9791
692.884	9817
692.928	9412
692.971	9885
693.004	9636
693.015	9544
693.059	9632
693.102	9370
693.124	9338
693.146	9495
693.189	9727
693.233	9714
693.245	9732
693.276	9811
693.320	10238
693.363	10224
693.365	10208
693.407	10605
693.450	10854
693.485	11200
693.493	11437
693.537	12244
693.580	13231
693.605	13760
693.624	14952
693.667	18090
693.710	20555
693.725	21704
693.753	27217
693.797	35691
693.840	44236
693.845	45092
693.883	41351
693.926	36493
693.966	32060
693.970	31450
694.013	25094
694.056	18678
694.086	14124
694.099	13785
694.142	12615
694.185	11706
694.206	11145
694.229	11040
694.272	11022
694.315	10827
694.326	10799
694.358	10834
694.401	10760
694.444	10466
694.446	10421
694.487	10088
694.530	10161
694.566	9932
694.573	9972
694.616	10323
694.659	10494
694.686	10561
694.702	10519
694.745	10396
694.787	10406
694.806	10225
694.830	10071
694.873	10230
694.916	9944
694.926	9899
694.959	9973
695.002	9995
695.044	10047
695.046	10016
695.087	10118
695.130	10439
695.166	10771
695.172	10841
695.215	10793
695.258	10902
695.286	11029
695.301	11128
695.343	11161
695.386	11334
695.406	11238
695.428	11477
695.471	12288
695.514	12907
695.526	13093
695.556	13748
695.599	14469
695.641	15218
695.646	15256
695.684	14771
695.726	14267
695.766	13679
695.769	13690
695.811	13468
695.854	13144
695.886	12883
695.896	12917
695.938	12846
695.981	12909
696.005	12821
696.023	13174
696.065	14128
696.108	14886
696.125	15261
696.150	15514
696.192	15657
696.235	15873
696.245	15869
696.277	15992
696.319	16302
696.361	16418
696.365	16395
696.404	16352
696.446	16084
696.485	16054
696.488	16097
696.530	15804
696.572	15760
696.604	15528
696.614	15564
696.656	15603
696.698	15718
696.724	15800
696.740	15926
696.783	15788
696.825	16034
696.844	16011
696.867	15868
696.909	15606
696.951	15175
696.964	15093
696.992	15542
697.034	15766
697.076	16256
697.083	16266
697.118	16430
697.160	16818
697.202	16978
697.203	16939
697.244	16702
697.286	16327
697.323	16019
697.327	16081
697.369	16225
697.411	16455
697.442	16361
697.453	16399
697.494	16595
697.536	16719
697.562	16799
697.578	16875
697.620	16833
697.661	16931
697.682	16855
697.703	17169
697.744	17837
697.786	18554
697.801	18719
697.828	18519
697.869	18080
697.911	17735
697.921	17596
697.952	17782
697.994	18018
698.035	18153
698.040	18135
698.077	18473
698.118	18618
698.160	18916
698.160	18865
698.201	19098
698.243	19301
698.279	19404
698.284	19514
698.325	20068
698.367	20610
698.399	20959
698.408	21025
698.449	21084
698.491	21152
698.518	21119
698.532	21247
698.573	21478
698.614	21698
698.638	21777
698.656	21733
698.697	21467
698.738	21221
698.757	21037
698.779	21097
698.820	21113
698.862	21117
698.877	21065
698.903	21054
698.944	20933
698.985	20816
698.996	20726
699.026	20748
699.067	20703
699.116	20592
699.235	21718
699.354	20644
699.474	19333
699.593	19589
699.713	20050
699.832	19453
699.951	20381
700.070	20605
700.190	18500
700.309	18681
700.428	17816
700.547	18100
700.667	17111
700.786	17624
700.905	17380
701.024	17903
701.143	16368
701.262	18436
701.381	18910
701.500	18381
701.619	16983
701.738	17660
701.857	17740
701.976	16674
702.095	17374
702.214	18294
702.333	16801
702.452	18435
702.571	18089
702.690	17498
702.809	17926
702.928	16877
703.047	16334
703.165	16441
703.284	15467
703.403	15439
703.522	15695
703.640	14779
703.759	15195
703.878	16159
703.997	14770
704.115	15278
704.234	14258
704.353	15793
704.471	14306
704.590	14032
704.708	14527
704.827	14403
704.946	13158
705.064	14062
705.183	12938
705.301	14372
705.420	15760
705.538	15379
705.656	14077
705.775	13182
705.893	15397
706.012	15140
706.130	14743
706.249	14765
706.367	14081
706.485	14087
706.604	12060
706.722	14120
706.840	14290
706.958	18124
707.077	15241
707.195	12885
707.313	12833
707.431	12022
707.549	12683
707.668	11710
707.786	13238
707.904	11991
708.022	12665
708.140	12566
708.258	12046
708.376	13501
708.494	10661
708.612	12742
708.730	13826
708.848	12523
708.966	13510
709.084	13091
709.202	13200
709.320	11840
709.438	12886
709.556	11963
709.674	11916
709.791	11780
709.909	11448
710.027	12858
710.145	11951
710.263	12396
710.380	11447
710.498	11737
710.616	11386
710.733	10125
710.851	11052
710.969	11409
711.086	10504
711.204	10795
711.322	10962
711.439	10795
711.557	9951
711.674	10832
711.792	11366
711.909	10455
712.027	10246
712.144	10284
712.262	10047
712.379	11331
712.497	12432
712.614	12797
712.732	11284
712.849	10917
712.966	10984
713.084	11549
713.201	11361
713.318	11201
713.436	11898
713.553	10966
713.670	11486
713.787	11828
713.905	10534
714.022	11358
714.139	11067
714.256	13085
714.373	17058
714.490	26703
714.608	62013
714.725	230869
714.842	232637
714.959	29836
715.076	13957
715.193	12535
715.310	10732
715.427	10086
715.544	10678
715.661	10166
715.778	9391
715.895	10240
716.011	9830
716.128	10076
716.245	9790
716.362	9363
716.479	9099
716.596	9553
716.713	8752
716.829	9564
716.946	9037
717.063	8045
717.180	8705
717.296	8050
717.413	8903
717.530	8514
717.646	8163
717.763	8325
717.880	8299
717.996	7984
718.113	7356
718.229	7963
718.346	6440
718.462	7363
718.579	8597
718.695	8410
718.812	8703
718.928	8284
719.045	7634
719.161	7744
719.277	7846
719.394	8108
719.510	7451
719.626	7908
719.743	10532
719.859	13766
719.975	23565
720.092	83584
720.208	184524
720.324	27983
720.440	9800
720.557	9030
720.673	8454
720.789	9181
720.905	14235
721.021	8748
721.137	7007
721.253	7651
721.369	6621
721.486	7576
721.602	8375
721.718	6642
721.834	6083
721.950	5805
722.066	6372
722.181	6399
722.297	6477
722.413	6566
722.529	7436
722.645	6797
722.761	6631
722.877	6299
722.993	7257
723.108	8005
723.224	7532
723.340	6678
723.456	6204
723.571	5433
723.687	5831
723.803	6523
723.918	5930
724.034	5346
724.150	5809
724.265	6436
724.381	6844
724.497	8053
724.612	5331
724.728	6381
724.843	5281
724.959	5207
725.074	7372
725.190	7985
725.305	5732
725.421	5072
725.536	5553
725.651	5869
725.767	4926
725.882	6894
725.997	6208
726.113	5828
726.228	5456
726.343	4656
726.459	4876
726.574	5072
726.689	5327
726.804	5567
726.920	5433
727.035	5369
727.150	5230
727.265	5800
727.380	5155
727.495	5525
727.610	5310
727.725	5435
727.841	5186
727.956	5899
728.071	5717
728.186	5362
728.301	4781
728.416	5238
728.531	5742
728.645	4689
728.760	5415
728.875	4663
728.990	4911
729.105	5321
729.220	4842
729.335	4970
729.449	5064
729.564	4777
729.679	4372
729.794	5106
729.908	5059
730.023	4864
730.138	4947
730.253	4967
730.367	5002
730.482	4186
730.596	4247
730.711	5987
730.826	6859
730.940	7516
731.055	5721
731.169	6109
731.284	6816
731.398	6784
731.513	5961
731.627	6909
731.742	8498
731.856	10700
731.970	9210
732.085	11008
732.199	14821
732.313	24427
732.428	57593
732.542	161651
732.656	100110
732.771	22551
732.885	14243
732.999	13258
733.113	14121
733.227	13082
733.342	11688
733.456	12362
733.570	11595
733.684	11409
733.798	11427
733.912	10520
734.026	11267
734.140	11640
734.254	10923
734.368	11266
734.482	11242
734.596	10771
734.710	9532
734.824	10556
734.938	10566
735.052	10465
735.166	10386
735.280	10805
735.393	10109
735.507	10101
735.621	9445
735.735	10402
735.849	10737
735.962	9434
736.076	9536
736.190	9214
736.303	9380
736.417	10578
736.531	8395
736.644	8684
736.758	9074
736.872	9322
736.985	7615
737.099	8699
737.212	6967
737.326	9137
737.439	9212
737.553	8342
737.666	8809
737.780	8538
737.893	7673
738.007	7852
738.120	8279
738.233	8136
738.347	9365
738.460	7446
738.573	9067
738.687	7808
738.800	7489
738.913	8239
739.026	7972
739.140	7357
739.253	7961
739.366	8250
739.479	7452
739.592	7070
739.705	6834
739.818	8517
739.932	7196
740.045	7354
740.158	7313
740.271	7795
740.384	7488
740.497	6318
740.610	7702
740.723	6888
740.836	7084
740.949	6416
741.062	7868
741.174	6664
741.287	6614
741.400	7251
741.513	6081
741.626	6421
741.739	6521
741.851	7331
741.964	6924
742.077	7332
742.189	5973
742.302	6748
742.415	7405
742.527	5365
742.640	6265
742.753	6424
742.865	6653
742.978	5988
743.090	6012
743.203	5925
743.316	5959
743.428	6061
743.541	5995
743.653	4735
743.766	6433
743.878	6366
743.990	5588
744.103	6712
744.215	5855
744.327	5223
744.440	5764
744.552	6398
744.664	4705
744.777	6365
744.889	5468
745.001	6233
745.113	4588
745.226	6198
745.338	4583
745.450	5862
745.562	6081
745.674	4967
745.786	6106
745.898	6144
746.010	5751
746.122	5807
746.234	5313
746.347	5810
746.459	5152
746.570	4644
746.682	5634
746.794	5722
746.906	5191
747.018	4392
747.130	5053
747.242	4724
747.354	4805
747.466	6431
747.577	5286
747.689	5301
747.801	5889
747.913	4857
748.024	4432
748.136	4925
748.248	4671
748.359	5634
748.471	5051
748.583	4142
748.694	3966
748.806	6308
748.918	4282
749.029	5422
749.141	4661
749.252	5117
749.364	3662
749.475	4461
749.587	4398
749.698	4394
749.809	5134
749.921	4383
750.032	3757
750.144	4403
750.255	4903
750.366	4404
750.478	4016
750.589	4711
750.700	3739
750.811	5517
750.923	4395
751.034	4482
751.145	5037
751.256	3704
751.367	4397
751.479	5047
751.590	3852
751.701	4334
751.812	4035
751.923	4777
752.034	4862
752.145	4259
752.256	4756
752.367	4034
752.478	5570
752.589	4496
752.700	3751
752.811	3470
752.922	4370
753.032	4257
753.143	4718
753.254	4050
753.365	5163
753.476	4998
753.586	3879
753.697	3830
753.808	4220
753.919	4255
754.029	3925
754.140	4270
754.251	3987
754.361	4824
754.472	4579
754.582	4395
754.693	3644
754.804	4181
754.914	4156
755.025	3691
755.135	3780
755.246	5191
755.356	4551
755.466	3969
755.577	4063
755.687	3077
755.798	4523
755.908	3893
756.018	3762
756.129	3788
756.239	4135
756.349	4727
756.460	4904
756.570	4747
756.680	3805
756.790	3958
756.900	5030
757.011	4277
757.121	4715
757.231	3645
757.341	4818
757.451	4164
757.561	4060
757.671	3916
757.781	4293
757.891	4772
758.001	3849
758.111	5067
758.221	5225
758.331	4699
758.441	4130
758.551	4066
758.661	5007
758.771	5666
758.880	4271
758.990	5167
759.100	4051
759.210	4715
759.320	4606
759.429	5091
759.539	5712
759.649	5566
759.758	5740
759.868	5742
759.978	5416
760.087	6133
760.197	7128
760.307	6545
760.416	5970
760.526	5593
760.635	6366
760.745	6623
760.854	6278
760.964	7250
761.073	6907
761.182	7245
761.292	6318
761.401	6437
761.511	5958
761.620	5645
761.729	5994
761.839	6195
761.948	6478
762.057	6201
762.166	5602
762.276	5991
762.385	7711
762.494	6928
762.603	7123
762.712	7606
762.822	7246
762.931	7490
763.040	6648
763.149	7262
763.258	7262
763.367	8209
763.476	8639
763.585	8240
763.694	9283
763.803	9197
763.912	10288
764.021	9934
764.130	11060
764.238	11754
764.347	12392
764.456	12624
764.565	14546
764.674	13602
764.783	15825
764.891	17165
765.000	20605
765.109	21380
765.217	24587
765.326	27964
765.435	33901
765.543	40639
765.652	48387
765.761	60132
765.869	80782
765.978	110501
766.086	156543
766.195	228721
766.303	315293
766.412	307926
766.520	275346
766.629	272979
766.737	204399
766.846	145483
766.954	103159
767.062	78787
767.171	60282
767.279	48658
767.387	39236
767.496	33262
767.604	29929
767.712	25364
767.820	23604
767.928	22581
768.037	20266
768.145	19020
768.253	18386
768.361	16997
768.469	17674
768.577	17016
768.685	18831
768.793	19480
768.901	20708
769.009	24929
769.117	29244
769.225	36452
769.333	49195
769.441	72027
769.549	112842
769.657	190164
769.765	293404
769.873	266589
769.981	239898
770.088	169927
770.196	106471
770.304	73565
770.412	53565
770.519	41871
770.627	34360
770.735	28168
770.842	24577
770.950	21435
771.058	18829
771.165	18423
771.273	17197
771.380	16007
771.488	16155
771.595	16931
771.703	14763
771.810	13638
771.918	12605
772.025	14108
772.133	14756
772.240	12460
772.348	14889
772.455	15092
772.562	12987
772.670	11554
772.777	12265
772.884	11539
772.991	10534
773.099	11902
773.206	11059
773.313	11696
773.420	11512
773.528	10451
773.635	9297
773.742	10985
773.849	10165
773.956	9599
774.063	9683
774.170	9550
774.277	9293
774.384	8448
774.491	8775
774.598	9138
774.705	8386
774.812	9429
774.919	9270
775.026	9372
775.133	8518
775.239	8565
775.346	7487
775.453	7924
775.560	8363
775.667	8233
775.773	7227
775.880	8611
775.987	8158
776.093	8196
776.200	7725
776.307	6121
776.413	7337
776.520	8420
776.627	8007
776.733	6454
776.840	5426
776.946	9082
777.053	7217
777.159	6643
777.266	5323
777.372	7367
777.478	6654
777.585	7112
777.691	6336
777.798	7241
777.904	6849
778.010	6201
778.117	6698
778.223	5725
778.329	6022
778.435	5666
778.542	6635
778.648	5860
778.754	5574
778.860	5558
778.966	6067
779.072	5856
779.178	6413
779.284	5352
779.391	5590
779.497	5972
779.603	8238
779.708	7145
779.815	12134
779.920	33954
780.026	57978
780.132	12828
780.238	6998
780.344	5886
780.450	6960
780.556	4593
780.661	4666
780.767	5699
780.873	4493
780.979	5645
781.085	5975
781.190	5692
781.296	4432
781.402	5121
781.507	4712
781.613	3924
781.719	4597
781.824	5098
781.930	4875
782.035	4042
782.141	5361
782.246	3393
782.352	3448
782.457	4621
782.563	4563
782.668	4487
782.773	3889
782.879	4090
782.984	4463
783.090	4174
783.195	3893
783.300	5326
783.405	3549
783.511	3156
783.616	4010
783.721	4495
783.826	3535
783.932	3637
784.037	4115
784.142	4677
784.247	3492
784.352	4362
784.457	3594
784.562	3105
784.667	3737
784.772	3521
784.877	2323
784.982	3820
785.087	4581
785.192	3282
785.297	2185
785.402	3244
785.507	4296
785.611	4280
785.716	3070
785.821	3742
785.926	3079
786.031	3319
786.135	3638
786.240	4022
786.345	1751
786.450	2949
786.554	3448
786.659	2246
786.763	1910
786.868	3490
786.973	3824
787.077	2248
787.182	2413
787.286	2984
787.391	3891
787.495	1812
787.600	3052
787.704	2688
787.809	3447
787.913	2386
788.017	2775
788.122	4447
788.226	2862
788.330	2074
788.435	2757
788.539	3858
788.643	2417
788.747	2138
788.852	2951
788.956	3128
789.060	3128
789.164	2755
789.268	2075
789.372	2555
789.476	2798
789.580	1957
789.684	2374
789.788	4068
789.892	2753
789.996	2548
790.100	1720
790.204	2875
790.308	2872
790.412	1943
790.516	2069
790.620	3082
790.724	3355
790.828	2869
790.931	806
791.035	3046
791.139	1976
791.242	1874
791.346	2959
791.450	2225
791.554	1550
791.657	1308
791.761	2574
791.864	3157
791.968	2204
792.072	2425
792.175	1493
792.279	2855
792.382	1963
792.486	1417
792.589	2095
792.693	2844
792.796	1269
792.899	2849
793.003	2221
793.106	-145
793.209	1439
793.313	2892
793.416	392
793.519	3073
793.623	2140
793.726	2614
793.829	1771
793.932	1266
794.035	774
794.138	3438
794.242	3475
794.345	2666
794.448	3267
794.551	4250
794.654	18135
794.757	34563
794.860	6399
794.963	2584
795.066	2359
795.169	3325
795.272	1656
795.375	2531
795.477	905
795.580	1850
795.683	540
795.786	2217
795.889	1019
795.991	1947
796.094	1965
796.197	475
796.300	1621
796.402	1918
796.505	816
796.608	1035
796.710	1254
796.813	2096
796.915	1484
797.018	2343
797.120	2096
797.223	746
797.326	3045
797.428	1639
797.530	1611
797.633	829
797.735	2585
797.838	1661
797.940	2508
798.042	1041
798.145	2034
798.247	1922
798.349	113
798.452	2483
798.554	695
798.656	1320
798.758	3098
798.860	917
798.962	1645
799.065	815
799.167	1082
799.269	1662
799.371	1905
799.473	2653
799.575	2801
799.677	2258
799.779	2156
799.881	183
799.983	1945
800.085	789
800.187	1902
800.289	1259
800.390	1974
800.492	2277
800.594	1883
800.696	1040
800.798	778
800.899	1044
801.001	1834
801.103	1349
801.205	902
801.306	1132
801.408	620
801.509	1222
801.611	1951
801.713	1028
801.814	1332
801.916	982
802.017	1128
802.119	629
802.220	1600
802.322	238
802.423	2954
802.525	3
802.626	486
802.727	1512
802.829	1023
802.930	-857
803.031	2232
803.133	528
803.234	1393
803.335	1602
803.436	95
803.538	1015
803.639	322
803.740	1315
803.841	-336
803.942	861
804.043	1311
804.144	754
804.245	453
804.346	688
804.447	13
804.548	749
804.649	1628
804.750	430
804.851	805
804.952	303
805.053	867
805.154	316
805.255	1995
805.355	982
805.456	807
805.557	481
805.658	-200
805.758	1273
805.859	969
805.960	1037
806.061	232
806.161	1260
806.262	1121
806.362	687
806.463	1089
806.564	1476
806.664	612
806.765	665
806.865	473
806.966	4
807.066	-563
807.166	1470
807.267	1242
807.367	662
807.468	1907
807.568	-538
807.668	966
807.769	1393
807.869	637
807.969	369
808.069	447
808.170	356
808.270	630
808.370	726
808.470	649
808.570	-690
808.670	650
808.770	284
808.870	474
808.970	933
809.070	1016
809.170	653
809.271	1409
809.370	500
809.470	1757
809.570	250
809.670	-564
809.770	287
809.870	1491
809.970	821
810.070	530
810.169	1058
810.269	-1297
810.369	1250
810.469	918
810.568	596
810.668	580
810.768	279
810.867	949
810.967	500
811.066	1147
811.166	754
811.265	1369
811.365	-384
811.464	39
811.564	1409
811.663	87
811.763	-980
811.862	799
811.962	669
812.061	-178
812.160	120
812.260	450
812.359	498
812.458	1147
812.557	1761
812.657	1211
812.756	1834
812.855	1339
812.954	-330
813.053	-260
813.153	1189
813.252	301
813.351	1586
813.450	1696
813.549	448
813.648	996
813.747	-269
813.846	758
813.945	516
814.044	661
814.143	637
814.242	1567
814.341	274
814.439	726
814.538	1117
814.637	476
814.736	1016
814.835	1128
814.933	124
815.032	1349
815.131	2480
815.229	3753
815.328	7225
815.427	4666
815.525	4075
815.624	4026
815.722	3128
815.821	3795
815.919	4158
816.018	3763
816.116	4407
816.215	4083
816.313	4136
816.412	5138
816.510	4622
816.609	6144
816.707	5935
816.805	5875
816.904	4527
817.002	5148
817.100	5833
817.198	5936
817.296	4237
817.395	4858
817.493	5093
817.591	4205
817.689	5237
817.787	3848
817.885	4145
817.983	4403
818.081	4791
818.179	5174
818.277	8077
818.375	5406
818.473	4174
818.571	4946
818.669	4506
818.767	5057
818.865	4732
818.963	3134
819.061	3344
819.158	4106
819.256	5597
819.354	5922
819.452	8964
819.549	5626
819.647	6198
819.745	4269
819.842	4004
819.940	4030
820.038	3289
820.135	2207
820.233	4756
820.330	4222
820.428	3381
820.525	4962
820.623	3487
820.720	2858
820.818	4067
820.915	4192
821.012	3807
821.110	2423
821.207	3850
821.304	3177
821.402	3590
821.499	4335
821.596	3633
821.693	3658
821.791	3985
821.888	3248
821.985	3817
822.082	2103
822.179	3651
822.276	3040
822.373	2525
822.470	2188
822.567	3777
822.664	2921
822.761	4136
822.858	2692
822.955	2552
823.052	1642
823.149	3350
823.246	3447
823.343	2093
823.440	2145
823.536	2802
823.633	3034
823.730	3063
823.827	2363
823.923	2735
824.020	3280
824.117	3512
824.213	3179
824.310	2960
824.407	2378
824.503	3473
824.600	3320
824.696	1772
824.793	3423
824.889	3057
824.986	2804
825.082	1902
825.179	2883
825.275	2623
825.371	2902
825.468	2130
825.564	362
825.660	3202
825.757	4560
825.853	3193
825.949	1212
826.045	2082
826.142	2004
826.238	3182
826.334	3195
826.430	1357
826.526	1543
826.622	535
826.718	2521
826.814	2675
826.910	3081
827.006	1436
827.102	1473
827.198	2516
827.294	2641
827.390	2556
827.486	2055
827.582	628
827.678	696
827.774	3557
827.869	597
827.965	3438
828.061	1467
828.157	3139
828.252	2006
828.348	1445
828.444	2966
828.539	358
828.635	1558
828.731	2973
828.826	95
828.922	2721
829.017	1455
829.113	2408
829.208	561
829.304	1418
829.399	3356
829.495	1704
829.590	878
829.685	704
829.781	2871
829.876	2459
829.971	1254
830.066	375
830.162	815
830.257	2803
830.352	1531
830.447	1319
830.543	1096
830.638	781
830.733	2332
830.828	1246
830.923	1968
831.018	1922
831.113	2407
831.208	776
831.303	773
831.398	1152
831.493	1855
831.588	2564
831.683	565
831.778	909
831.873	842
831.967	1850
832.062	1357
832.157	1239
832.252	2421
832.346	1202
832.441	2489
832.536	1873
832.631	2084
832.725	811
832.820	326
832.914	1475
833.009	416
833.104	1409
833.198	318
833.293	1059
833.387	1716
833.482	1366
833.576	808
833.670	1024
833.765	1868
833.859	1817
833.954	1461
834.048	1552
834.142	1649
834.237	804
834.331	1434
834.425	1080
834.519	487
834.613	1439
834.708	679
834.802	1491
834.896	996
834.990	1472
835.084	1314
835.178	-372
835.272	534
835.366	1430
835.460	2080
835.554	725
835.648	396
835.742	-285
835.836	773
835.930	296
836.024	1028
836.117	1481
836.211	1341
836.305	578
836.399	1141
836.493	-506
836.586	1960
836.680	778
836.774	-66
836.867	1651
836.961	-168
837.055	220
837.148	-286
837.242	527
837.335	1303
837.429	429
837.522	-611
837.616	550
837.709	1639
837.803	706
837.896	1825
837.989	609
838.083	-370
838.176	517
838.269	-206
838.363	537
838.456	-49
838.549	1320
838.642	893
838.735	702
838.829	1073
838.922	416
839.015	751
839.108	-25
839.201	264
839.294	1154
839.387	1360
839.480	-212
839.573	613
839.666	94
839.759	1013
839.852	-74
839.945	398
840.038	-73
840.131	-239
840.223	431
840.316	560
840.409	588
840.502	867
840.594	1675
840.687	-559
840.780	700
840.873	432
840.965	714
841.058	818
841.150	1007
841.243	-451
841.336	530
841.428	536
841.521	135
841.613	-810
841.706	171
841.798	-514
841.890	504
841.983	-537
842.075	1115
842.167	-508
842.260	174
842.352	1382
842.444	914
842.537	809
842.629	718
842.721	-538
842.813	864
842.905	-834
842.997	922
843.090	291
843.182	252
843.274	282
843.366	1145
843.458	3258
843.550	2339
843.642	-187
843.734	560
843.826	-404
843.918	1113
844.009	789
844.101	202
844.193	757
844.285	158
844.377	1720
844.469	737
844.560	-774
844.652	479
844.744	-13
844.835	404
844.927	-37
845.019	1207
845.110	-478
845.202	1291
845.293	-13
845.385	55
845.476	-219
845.568	664
845.659	367
845.751	513
845.842	112
845.934	265
846.025	66
846.116	443
846.208	193
846.299	606
846.390	-139
846.482	995
846.573	509
846.664	674
846.755	99
846.846	491
846.937	-703
847.029	-35
847.120	-569
847.211	37
847.302	1409
847.393	-892
847.484	495
847.575	-610
847.666	-247
847.757	-533
847.847	169
847.938	585
848.029	-18
848.120	-686
848.211	-609
848.302	-315
848.392	-777
848.483	-161
848.574	-906
848.664	92
848.755	515
848.846	229
848.936	-264
849.027	477
849.118	-83
849.208	-75
849.299	159
849.389	1178
849.480	2587
849.570	5132
849.661	10560
849.751	19237
849.841	6768
849.932	903
850.022	-272
850.112	1276
850.203	-153
850.293	-404
850.383	112
850.474	-531
850.564	-318
850.654	152
850.744	15
850.834	88
850.924	-703
851.014	887
851.104	-241
851.194	-688
851.284	45
851.374	484
851.464	-773
851.554	-638
851.644	-919
851.734	451
851.824	-341
851.914	322
852.004	1986
852.094	1527
852.183	-413
852.273	629
852.363	57
852.452	-533
852.542	475
852.632	-117
852.721	137
852.811	-235
852.901	74
852.990	361
853.080	536
853.169	-84
853.259	741
853.348	-160
853.438	-238
853.527	1194
853.617	986
853.706	3363
853.795	5418
853.885	13214
853.974	24620
854.063	43623
854.152	63400
854.242	26484
854.331	5725
854.420	2211
854.509	1431
854.598	895
854.687	963
854.777	1047
854.866	-218
854.955	679
855.044	424
855.133	313
855.222	-421
855.311	-15
855.400	-345
855.488	18
855.577	-61
855.666	694
855.755	91
855.844	-19
855.933	-816
856.021	-1102
856.110	457
856.199	-405
856.288	-481
856.376	-730
856.465	-782
856.554	-111
856.642	-497
856.731	503
856.819	162
856.908	-319
856.996	-558
857.085	-292
857.173	-43
857.262	-760
857.350	-485
857.438	346
857.527	-21
857.615	-464
857.703	-64
857.792	-135
857.880	-375
857.968	-250
858.056	-627
858.145	240
858.233	-338
858.321	-1392
858.409	142
858.497	-421
858.585	-138
858.673	96
858.761	-768
858.849	-551
858.937	-1374
859.025	-287
859.113	-741
859.201	-717
859.289	-58
859.377	-306
859.465	-114
859.552	-402
859.640	-903
859.728	-767
859.816	-440
859.903	215
859.991	-747
860.079	504
860.166	-963
860.254	288
860.342	151
860.429	-316
860.517	-911
860.604	-897
860.692	-650
860.779	-508
860.867	-537
860.954	-656
861.042	-185
861.129	-174
861.216	-370
861.304	-534
861.391	-64
861.478	-317
861.565	730
861.653	730
861.740	-275
861.827	-473
861.914	-187
862.001	-105
862.089	345
862.176	-202
862.263	-520
862.350	196
862.437	-36
862.524	-539
862.611	109
862.698	-270
862.785	-621
862.871	681
862.958	300
863.045	6
863.132	-211
863.219	-550
863.306	-767
863.392	-496
863.479	-147
863.566	-577
863.652	57
863.739	-412
863.826	246
863.912	375
863.999	-81
864.086	-292
864.172	-86
864.259	-444
864.345	467
864.432	846
864.518	-68
864.604	-47
864.691	123
864.777	143
864.863	635
864.950	2400
865.036	2149
865.122	5251
865.209	6368
865.295	4374
865.381	4450
865.467	4357
865.553	3840
865.639	4710
865.726	7290
865.812	10263
865.898	16932
865.984	23245
866.070	38350
866.156	40314
866.242	14036
866.328	6275
866.414	4465
866.499	4145
866.585	4394
866.671	4192
866.757	3645
866.843	4332
866.928	3407
867.014	3373
867.100	3585
867.186	4114
867.271	3532
867.357	3564
867.442	3303
867.528	3685
867.614	3068
867.699	3872
867.785	3701
867.870	3174
867.956	3262
868.041	4469
868.127	3388
868.212	3848
868.297	3182
868.383	2194
868.468	3484
868.553	3836
868.639	3011
868.724	3153
868.809	3246
868.894	3089
868.979	2946
869.065	3434
869.150	2038
869.235	2484
869.320	2426
869.405	2426
869.490	2451
869.575	2912
869.660	1935
869.745	2855
869.830	2825
869.915	3053
870.000	2227
870.085	3497
870.169	3294
870.254	4361
870.339	1417
870.424	1923
870.509	2892
870.593	3406
870.678	3285
870.763	1849
870.847	1098
870.932	2859
871.016	3552
871.101	2209
871.186	1897
871.270	3149
871.355	1586
871.439	2081
871.523	3334
871.608	2457
871.692	996
871.777	2533
871.861	2991
871.945	1917
872.030	2226
872.114	2259
872.198	1245
872.282	1632
872.367	2414
872.451	2068
872.535	2381
872.619	3188
872.703	2405
872.787	2403
872.871	1912
872.955	2166
873.039	1119
873.123	2326
873.207	2612
873.291	985
873.375	916
873.459	1070
873.543	1608
873.627	1818
873.711	1511
873.794	2372
873.878	1388
873.962	955
874.045	1367
874.129	2025
874.137	1934
874.213	1030
874.245	1042
874.296	1059
874.352	892
874.380	808
874.460	1197
874.464	1213
874.547	1839
874.568	1624
874.631	994
874.676	1195
874.714	1359
874.784	2155
874.798	2315
874.881	2252
874.892	2053
874.965	659
874.999	1134
875.048	1793
875.107	1785
875.131	1791
875.215	1449
875.215	1448
875.298	699
875.323	820
875.381	1111
875.430	1845
875.465	2396
875.538	1621
875.548	1504
875.631	1035
875.646	1003
875.714	880
875.753	952
875.798	1061
875.861	1072
875.881	1058
875.964	1084
875.968	1035
876.047	191
876.076	744
876.130	1813
876.183	1092
876.213	662
876.291	2527
876.296	2656
876.379	1010
876.398	1084
876.462	1255
876.506	1073
876.545	982
876.613	1097
876.628	1112
876.711	1226
876.721	1229
876.794	1311
876.828	1192
876.877	913
876.935	845
876.960	849
877.043	747
877.043	750
877.125	1503
877.150	1568
877.208	1577
877.258	795
877.291	374
877.365	824
877.374	865
877.456	1364
877.472	1209
877.539	619
877.579	859
877.622	1121
877.687	1222
877.704	1229
877.787	1254
877.794	1257
877.869	1360
877.901	1408
877.952	1418
878.008	1056
878.034	891
878.115	930
878.117	930
878.199	751
878.222	894
878.282	1368
878.329	1284
878.364	1206
878.437	907
878.447	856
878.529	607
878.544	672
878.611	1033
878.651	796
878.694	513
878.758	681
878.776	780
878.858	1091
878.865	1105
878.941	1050
878.972	793
879.023	230
879.078	12
879.105	150
879.185	1304
879.187	1314
879.269	1047
879.292	893
879.351	817
879.399	789
879.433	636
879.506	305
879.516	288
879.598	774
879.613	734
879.680	672
879.720	988
879.762	1142
879.827	313
879.844	118
879.926	490
879.933	504
880.007	956
880.040	816
880.089	349
880.147	779
880.171	1034
880.253	624
880.254	623
880.335	329
880.360	597
880.417	1865
880.467	1879
880.499	1489
880.574	1528
880.580	1554
880.662	1540
880.680	1431
880.744	871
880.787	482
880.825	318
880.893	796
880.907	890
880.989	973
881.000	980
881.070	1038
881.106	1111
881.152	971
881.213	700
881.233	626
881.315	50
881.319	57
881.396	780
881.426	776
881.478	473
881.532	681
881.559	859
881.639	511
881.641	506
881.722	704
881.745	815
881.803	1003
881.852	950
881.885	795
881.958	353
881.966	343
882.047	693
882.064	715
882.129	507
882.171	184
882.210	74
882.277	499
882.291	621
882.372	966
882.383	1032
882.454	1025
882.489	915
882.535	877
882.596	866
882.616	979
882.697	896
882.702	913
882.778	598
882.808	676
882.859	875
882.914	830
882.940	930
883.020	851
883.021	849
883.102	856
883.127	948
883.183	1540
883.233	1390
883.264	1182
883.339	1223
883.345	1197
883.426	131
883.445	125
883.507	417
883.551	440
883.587	555
883.657	630
883.668	662
883.749	1031
883.763	1018
883.830	802
883.869	906
883.910	879
883.975	1024
883.991	1034
884.072	695
884.081	636
884.152	644
884.187	764
884.233	912
884.292	937
884.314	910
884.394	798
884.398	798
884.475	524
884.504	329
884.555	636
884.610	1227
884.636	1132
884.716	811
884.716	813
884.797	807
884.821	847
884.877	950
884.927	887
884.958	889
885.033	742
885.038	721
885.118	645
885.139	638
885.199	572
885.244	630
885.279	735
885.350	490
885.359	540
885.439	1394
885.456	1462
885.520	1006
885.561	969
885.600	828
885.667	408
885.680	490
885.760	890
885.773	919
885.840	647
885.878	708
885.920	1079
885.984	1410
886.000	1301
886.080	1037
886.089	964
886.160	912
886.195	1003
886.240	1130
886.300	1150
886.320	1211
886.400	1547
886.406	1560
886.480	1069
886.511	872
886.560	784
886.616	620
886.640	689
886.720	976
886.722	979
886.800	946
886.827	895
886.879	918
886.932	994
886.959	1184
887.038	1797
887.039	1799
887.119	1332
887.143	1137
887.198	944
887.248	866
887.278	688
887.354	231
887.358	268
887.437	738
887.459	976
887.517	1175
887.564	1151
887.596	1110
887.669	1087
887.676	1090
887.755	1037
887.774	1029
887.835	934
887.880	879
887.914	931
887.985	1013
887.994	1031
888.073	1110
888.090	1127
888.153	1553
888.195	1791
888.232	1626
888.300	1413
888.311	1391
888.391	1116
888.405	1059
888.470	631
888.510	434
888.549	725
888.615	1161
888.628	1222
888.708	1529
888.720	1581
888.787	1384
888.825	1227
888.866	1029
888.930	773
888.945	855
889.024	1237
889.035	1298
889.103	1394
889.140	1355
889.182	1235
889.245	1169
889.261	1279
889.340	1754
889.349	1803
889.419	1329
889.454	1096
889.498	1211
889.559	1374
889.577	1407
889.656	1542
889.664	1556
889.735	1227
889.768	1069
889.814	799
889.873	442
889.978	1315
890.083	1173
890.187	1771
890.292	1464
890.397	1343
890.501	1120
890.606	459
890.710	1077
890.815	2238
890.919	1416
891.024	296
891.128	1142
891.233	1198
891.337	1286
891.442	1545
891.546	1434
891.650	1540
891.755	1102
891.859	2153
891.963	1632
892.068	1469
892.172	845
892.276	644
892.380	653
892.484	1002
892.589	1788
892.693	1357
892.797	560
892.901	1864
893.005	803
893.109	659
893.213	988
893.317	1460
893.421	1229
893.525	973
893.629	1367
893.733	1020
893.837	603
893.941	1029
894.045	876
894.148	1680
894.252	2915
894.356	2880
894.460	2043
894.564	653
894.667	1115
894.771	558
894.875	885
894.978	957
895.082	395
895.186	1027
895.289	1061
895.393	1820
895.496	791
895.600	628
895.703	547
895.807	1554
895.910	1252
896.014	1438
896.117	1037
896.221	1107
896.324	439
896.427	998
896.531	1533
896.634	357
896.737	1850
896.840	475
896.944	608
897.047	1128
897.150	999
897.253	1175
897.356	892
897.460	305
897.563	115
897.666	1492
897.769	1191
897.872	1160
897.975	1026
898.078	610
898.181	677
898.284	1152
898.387	1384
898.490	1460
898.593	814
898.695	746
898.798	1293
898.901	1085
899.004	1363
899.107	435
899.209	488
899.312	1467
899.415	1507
899.518	346
899.620	-83
899.723	865
899.826	55
899.928	239
900.031	453
900.133	262
900.236	1191
900.338	158
900.441	962
900.543	825
900.646	313
900.748	372
900.851	753
900.953	539
901.055	726
901.158	566
901.260	392
901.362	957
901.465	444
901.567	757
901.669	847
901.771	643
901.873	1251
901.976	829
902.078	878
902.180	551
902.282	697
902.384	1254
902.486	1199
902.588	2064
902.690	509
902.792	847
902.894	504
902.996	445
903.098	497
903.200	771
903.302	1155
903.404	692
903.505	754
903.607	368
903.709	1787
903.811	610
903.913	597
904.014	532
904.116	747
904.218	435
904.319	206
904.421	1275
904.523	601
904.624	375
904.726	1087
904.827	494
904.929	100
905.030	493
905.132	1077
905.233	675
905.335	91
905.436	764
905.537	827
905.639	1284
905.740	762
905.841	180
905.943	838
906.044	309
906.145	754
906.247	1226
906.348	442
906.449	1107
906.550	633
906.651	31
906.752	685
906.854	412
906.955	691
907.056	446
907.157	776
907.258	397
907.359	594
907.460	-54
907.561	539
907.662	478
907.762	867
907.863	1076
907.964	271
908.065	634
908.166	275
908.267	702
908.367	1233
908.468	555
908.569	1124
908.670	836
908.770	1180
908.871	686
908.971	857
909.072	32
909.173	-79
909.273	88
909.374	757
909.474	151
909.575	483
909.675	381
909.776	121
909.876	409
909.977	654
910.077	694
910.177	116
910.278	842
910.378	532
910.478	22
910.579	320
910.679	275
910.779	-77
910.879	420
910.980	556
911.080	447
911.180	-184
911.280	345
911.380	-104
911.480	296
911.580	364
911.680	311
911.780	528
911.880	383
911.980	-235
912.080	413
912.180	850
912.280	150
912.380	-342
912.480	1005
912.580	617
912.679	31
912.779	137
912.879	350
912.979	1296
913.078	145
913.178	1152
913.278	401
913.377	469
913.477	770
913.577	-116
913.676	1117
913.776	224
913.875	814
913.975	337
914.074	858
914.174	735
914.273	198
914.373	898
914.472	874
914.572	-502
914.671	866
914.770	600
914.870	432
914.969	-115
915.068	2
915.167	84
915.267	-315
915.366	401
915.465	822
915.564	673
915.663	755
915.763	454
915.862	661
915.961	1347
916.060	-115
916.159	457
916.258	-455
916.357	394
916.456	188
916.555	1203
916.654	-332
916.752	573
916.851	399
916.950	249
917.049	401
917.148	-52
917.247	719
917.345	431
917.444	-213
917.543	938
917.642	459
917.740	351
917.839	193
917.937	813
918.036	375
918.135	683
918.233	666
918.332	57
918.430	85
918.529	728
918.627	428
918.726	747
918.824	13
918.923	70
919.021	361
919.119	162
919.218	-347
919.316	342
919.414	125
919.512	707
919.611	582
919.709	-116
919.807	683
919.905	543
920.003	976
920.102	831
920.200	741
920.298	901
920.396	466
920.494	769
920.592	163
920.690	567
920.788	518
920.886	341
920.984	1072
921.082	-107
921.180	271
921.277	402
921.375	296
921.473	818
921.571	1164
921.669	491
921.766	809
921.864	926
921.962	999
922.060	1006
922.157	859
922.255	959
922.352	355
922.450	1444
922.548	714
922.645	1011
922.743	1135
922.840	2932
922.938	3084
923.035	2737
923.133	1756
923.230	3092
923.327	3003
923.425	3439
923.522	3100
923.619	2440
923.717	2197
923.814	2524
923.911	2384
924.008	3007
924.106	2339
924.203	2154
924.300	2438
924.397	2641
924.494	1966
924.591	2174
924.688	1928
924.786	1983
924.883	2792
924.979	2147
925.077	2286
925.173	2485
925.270	2125
925.367	2537
925.464	2881
925.561	2760
925.658	2433
925.755	1562
925.852	2119
925.948	2357
926.045	2505
926.142	1947
926.239	2248
926.335	1501
926.432	2646
926.529	2423
926.625	2181
926.722	1437
926.818	2408
926.915	2094
927.011	2123
927.108	2094
927.204	3126
927.301	1632
927.397	1943
927.494	2774
927.590	519
927.687	1928
927.783	1889
927.879	1802
927.976	2840
928.072	1001
928.168	1390
928.264	1797
928.361	1696
928.457	2211
928.553	1892
928.649	1610
928.745	2369
928.841	2068
928.937	1794
929.033	2390
929.129	1563
929.225	2655
929.321	2469
929.417	1080
929.513	1574
929.609	1491
929.705	1144
929.801	1632
929.897	1664
929.993	1410
930.089	1847
930.184	1245
930.280	1511
930.376	1634
930.471	1604
930.567	1466
930.663	1508
930.758	1233
930.854	1861
930.950	1329
931.045	1787
931.141	1274
931.236	2680
931.332	2154
931.427	1062
931.523	2134
931.618	2264
931.714	1331
931.809	1277
931.905	1749
932.000	954
932.095	769
932.191	1646
932.286	2096
932.381	1664
932.476	346
932.572	1216
932.667	1168
932.762	1435
932.857	2108
932.952	1802
933.047	1304
933.142	1253
933.237	1384
933.332	1672
933.427	2242
933.522	1623
933.617	1567
933.712	877
933.807	1428
933.902	1890
933.997	988
934.092	1252
934.187	721
934.282	1196
934.376	1787
934.471	1498
934.566	813
934.661	1039
934.755	1447
934.850	2054
934.945	1775
935.039	915
935.134	394
935.228	332
935.323	1517
935.417	1819
935.512	1236
935.606	572
935.701	1446
935.795	1870
935.890	1902
935.984	932
936.079	106
936.173	1191
936.267	1218
936.362	329
936.456	1322
936.550	1822
936.644	990
936.738	-43
936.833	1130
936.927	1076
937.021	569
937.115	1545
937.209	229
937.303	1212
937.397	881
937.491	630
937.585	1169
937.679	566
937.773	1640
937.867	129
937.961	1075
938.055	489
938.149	1281
938.243	264
938.337	889
938.430	692
938.524	1300
938.618	1347
938.712	854
938.805	1130
938.899	1147
938.993	909
939.086	1095
939.180	318
939.274	268
939.367	1454
939.461	827
939.554	970
939.648	518
939.741	962
939.835	1039
939.928	1371
940.022	1392
940.115	898
940.208	1141
940.302	724
940.395	1155
940.488	788
940.582	1799
940.675	117
940.768	749
940.861	813
940.954	1213
941.048	774
941.141	736
941.234	338
941.327	204
941.420	1276
941.513	1698
941.606	475
941.699	925
941.792	482
941.885	550
941.978	1176
942.071	1265
942.164	286
942.257	1037
942.349	509
942.442	832
942.535	260
942.628	792
942.721	743
942.813	-370
942.906	901
942.999	629
943.091	520
943.184	838
943.277	-66
943.369	1451
943.462	967
943.554	785
943.647	682
943.739	638
943.832	521
943.924	-178
944.017	124
944.109	-20
944.201	963
944.294	1118
944.386	585
944.478	477
944.571	230
944.663	586
944.755	410
944.847	959
944.940	948
945.032	-131
945.124	685
945.216	966
945.308	206
945.400	1284
945.492	374
945.584	706
945.676	1064
945.768	980
945.860	1283
945.952	1019
946.044	983
946.136	446
946.228	946
946.320	-37
946.412	414
946.503	837
946.595	1535
946.687	594
946.779	582
946.870	344
946.962	-19
947.054	602
947.145	601
947.237	-47
947.329	624
947.420	272
947.512	1071
947.603	291
947.695	-25
947.786	-175
947.878	-134
947.969	144
948.061	132
948.152	644
948.243	424
948.335	1075
948.426	171
948.517	314
948.609	-23
948.700	-243
948.791	66
948.882	782
948.973	884
949.065	485
949.156	866
949.247	-307
949.338	77
949.429	416
949.520	355
949.611	62
949.702	402
949.793	627
949.884	1094
949.975	766
950.066	290
950.157	-323
950.247	247
950.338	342
950.429	-556
950.520	501
950.611	249
950.701	183
950.792	735
950.883	838
950.973	362
951.064	706
951.155	377
951.245	656
951.336	-547
951.427	723
951.517	1217
951.608	1068
951.698	-261
951.788	925
951.879	43
951.969	167
952.060	172
952.150	980
952.240	1186
952.331	-765
952.421	980
952.511	461
952.602	516
952.692	700
952.782	267
952.872	56
952.962	16
953.052	528
953.143	-6
953.233	887
953.323	648
953.413	379
953.503	622
953.593	-298
953.683	881
953.773	-509
953.863	672
953.953	-477
954.042	260
954.132	358
954.222	1038
954.312	-198
954.402	169
954.492	976
954.581	1010
954.671	189
954.761	875
954.850	951
954.940	-417
955.030	438
955.119	429
955.209	1070
955.298	323
955.388	574
955.477	1208
955.567	209
955.656	593
955.746	242
955.835	521
955.925	1079
956.014	642
956.103	141
956.193	992
956.282	841
956.371	230
956.461	323
956.550	461
956.639	775
956.728	-136
956.817	1126
956.906	1007
956.995	340
957.085	-343
957.174	850
957.263	-176
957.352	494
957.441	499
957.530	931
957.619	420
957.708	345
957.796	439
957.885	201
957.974	495
958.063	639
958.152	158
958.241	930
958.329	658
958.418	882
958.507	361
958.596	1498
958.684	-580
958.773	1008
958.861	945
958.950	115
959.039	686
959.127	1438
959.216	1063
959.304	1052
959.393	908
959.481	960
959.570	1129
959.658	313
959.746	957
959.835	1320
959.923	1319
960.011	763
960.100	974
960.188	986
960.276	204
960.365	313
960.453	464
960.541	-315
960.629	1041
960.717	476
960.805	-22
960.893	868
960.981	-691
961.069	1560
961.158	987
961.245	1273
961.333	1373
961.421	-2
961.509	576
961.597	-84
961.685	250
961.773	-72
961.861	93
961.949	867
962.036	-217
962.124	1136
962.212	144
962.299	-220
962.387	-839
962.475	-372
962.562	-101
962.650	325
962.738	392
962.825	556
962.913	198
963.000	647
963.088	792
963.175	-221
963.263	530
963.350	-832
963.438	704
963.525	518
963.612	1443
963.700	927
963.787	4570
963.874	1402
963.962	350
964.049	182
964.136	1320
964.223	-54
964.310	586
964.398	97
964.485	-102
964.572	217
964.659	655
964.746	364
964.833	114
964.920	-34
965.007	-349
965.094	554
965.181	-232
965.268	731
965.355	-280
965.441	511
965.528	-368
965.615	584
965.702	367
965.789	82
965.875	-464
965.962	55
966.049	-143
966.136	9
966.222	-495
966.309	616
966.395	331
966.482	348
966.569	-1073
966.655	1097
966.742	-108
966.828	158
966.915	84
967.001	519
967.087	-487
967.174	-827
967.260	55
967.347	90
967.433	1110
967.519	2361
967.605	393
967.692	-85
967.778	-133
967.864	9
967.950	-58
968.036	310
968.123	-89
968.209	-422
968.295	-533
968.381	590
968.467	-488
968.553	-1687
968.639	211
968.725	-586
968.811	476
968.897	596
968.983	168
969.069	-726
969.154	349
969.240	206
969.326	-758
969.412	-135
969.497	-800
969.583	-264
969.669	167
969.755	329
969.840	48
969.926	572
970.012	-229
970.097	477
970.183	718
970.268	-386
970.354	419
970.439	-207
970.525	1970
970.610	-697
970.696	766
970.781	-30
970.866	-903
970.952	449
971.037	-666
971.122	-143
971.208	-103
971.293	-35
971.378	-1101
971.463	-705
971.549	311
971.634	-570
971.719	-235
971.804	-462
971.889	303
971.974	-48
972.059	-101
972.144	-374
972.229	-399
972.314	-336
972.399	-505
972.484	-919
972.569	-214
972.654	-921
972.739	913
972.824	708
972.908	299
972.993	-1655
973.078	-473
973.163	-1138
973.247	-341
973.332	-1383
973.417	739
973.501	-914
973.586	21
973.671	182
973.755	-140
973.840	708
973.924	484
974.009	688
974.093	98
974.178	664
974.262	174
974.346	-655
974.431	-311
974.515	-815
974.600	-313
974.684	-185
974.768	-1435
974.852	529
974.937	-1320
975.021	28
975.105	-371
975.189	-31
975.273	-162
975.358	-1052
975.442	-1301
975.526	410
975.610	-745
975.694	-1100
975.778	949
975.862	-659
975.946	-2431
976.030	699
976.114	-889
976.198	-102
976.281	-986
976.365	406
976.449	-773
976.533	115
976.617	-623
976.700	-47
976.784	-512
976.868	-36
976.951	113
977.035	-164
977.119	-99
977.202	-16
977.286	871
977.369	-371
977.453	-404
977.536	126
977.620	-256
977.703	157
977.787	-1300
977.870	603
977.953	-3
978.037	-1096
978.120	692
978.203	-340
978.287	730
978.370	-168
978.453	-98
978.536	-725
978.620	36
978.703	-544
978.786	-765
978.869	-1273
978.952	-1176
979.035	878
979.118	370
979.201	-415
979.284	-183
979.367	-1134
979.450	-258
979.533	-852
979.616	-707
979.699	-640
979.782	-467
979.865	-83
979.948	-512
980.030	-1252
980.113	-143
980.196	-1189
980.279	345
980.361	-948
980.444	-535
980.526	-811
980.609	343
980.692	-412
980.774	113
980.857	-770
980.939	796
981.022	-420
981.104	-526
981.187	-1017
981.269	196
981.352	-488
981.434	-1430
981.516	-561
981.599	464
981.681	-1373
981.763	-223
981.846	-156
981.928	-705
982.010	-212
982.092	-1202
982.174	14
982.256	-851
982.339	-357
982.421	-952
982.503	-232
982.585	-857
982.667	-220
982.749	-273
982.831	-1138
982.913	-725
982.995	36
983.077	-117
983.158	649
983.240	-1346
983.322	650
983.404	223
983.486	-486
983.568	-273
983.649	-695
983.731	43
983.813	-778
983.894	-803
983.976	-324
984.058	-550
984.139	902
984.221	-1007
984.302	40
984.384	-1117
984.465	-815
984.547	-964
984.628	-732
984.710	76
984.791	-1130
984.872	-982
984.954	-737
985.035	-429
985.116	-224
985.198	-1163
985.279	779
985.360	-806
985.441	-315
985.522	-390
985.604	-718
985.685	-2125
985.766	390
985.847	1497
985.928	-568
986.009	-856
986.090	-845
986.171	-202
986.252	-543
986.333	-803
986.414	-356
986.495	98
986.576	-1
986.656	-597
986.737	-712
986.818	-596
986.899	-363
986.980	-357
987.060	425
987.141	-455
987.222	219
987.302	-618
987.383	195
987.464	-49
987.544	-617
987.625	-306
987.705	238
987.786	-493
987.866	-1463
987.947	-177
988.027	-248
988.108	-571
988.188	-69
988.268	-774
988.349	-679
988.429	-430
988.509	-435
988.589	-78
988.670	-1547
988.750	196
988.830	-606
988.910	-309
988.990	-571
989.070	-492
989.151	-695
989.231	-479
989.311	262
989.391	-436
989.471	-1280
989.551	-665
989.631	-914
989.711	308
989.791	-576
989.870	-423
989.950	241
990.030	-363
990.110	341
990.190	-804
990.269	-394
990.349	-572
990.429	-694
990.509	490
990.588	-1119
990.668	-833
990.747	-992
990.827	-871
990.907	-395
990.986	-681
991.066	-343
991.145	-1140
991.225	-8
991.304	-388
991.383	125
991.463	-445
991.542	302
991.622	-994
991.701	-1350
991.780	-830
991.859	-89
991.939	-1008
992.018	-262
992.097	30
992.176	-557
992.256	-119
992.335	-838
992.414	-446
992.493	-1121
992.572	-1129
992.651	219
992.730	-576
992.809	-611
992.888	-1724
992.967	-1562
993.046	-532
993.125	-1546
993.203	-244
993.282	-391
993.361	-1160
993.440	-622
993.519	-1561
993.597	-124
993.676	-913
993.755	-849
993.834	-950
993.912	-1412
993.991	-166
994.069	-1615
994.148	-1226
994.226	-1387
994.305	-418
994.384	-1280
994.462	196
994.540	-1215
994.619	-878
994.697	-739
994.776	-1294
994.854	-269
994.932	-443
995.011	-1046
995.089	-1371
995.167	-811
995.245	-1191
995.324	-1023
995.402	122
995.480	-609
995.558	-1359
995.636	-1150
995.714	-992
995.792	348
995.870	-1475
995.948	-1160
996.026	-870
996.104	-1813
996.182	-282
996.260	-1040
996.338	-1013
996.416	-1568
996.494	-368
996.572	-34
996.649	-319
996.727	-1437
996.805	-881
996.883	-1491
996.960	-1424
997.038	19
997.116	-968
997.193	-1361
997.271	-861
997.348	-1281
997.426	-1360
997.504	-1306
997.581	-656
997.658	-217
997.736	-1389
997.813	-1245
997.891	111
997.968	-1729
998.046	-1025
998.123	-1595
998.200	-817
998.277	-1400
998.355	-892
998.432	-2430
998.509	-1012
998.586	-621
998.663	-1142
998.741	-1147
998.818	-1350
998.895	-1788
998.972	-839
999.049	-812
999.126	-1464
999.203	-252
999.280	-906
999.357	-1430
999.434	-986
999.511	-1164
999.587	-1239
999.664	-1231
999.741	-1331
999.818	-707
999.895	-1389
999.971	-522
1000.048	-2020
1000.125	-798
1000.202	-1549
1000.278	-2114
1000.355	-893
1000.431	-1220
1000.508	-1764
1000.584	309
1000.661	-781
1000.738	-2263
1000.814	-1289
1000.890	-504
1000.967	-793
1001.043	-1015
1001.120	-2245
1001.196	-1621
1001.272	-1468
1001.349	-748
1001.425	-1120
1001.501	-883
1001.577	-1415
1001.654	-1476
1001.730	-1086
1001.806	-696
1001.882	-1630
1001.958	71
1002.034	-896
1002.110	-586
1002.186	-1723
1002.262	-1095
1002.338	-1672
1002.414	-646
1002.490	-885
1002.566	-976
1002.642	-1905
1002.718	-907
1002.794	-1536
1002.870	-1225
1002.945	-1572
1003.021	-984
1003.097	-1830
1003.173	-280
1003.248	-1550
1003.324	-903
1003.400	-1114
1003.475	-1688
1003.551	-1097
1003.626	-992
1003.702	-1143
1003.777	-1125
1003.853	-1507
1003.928	-2180
1004.004	-1721
1004.079	-994
1004.155	-1225
1004.230	-1397
1004.305	-482
1004.381	-1561
1004.456	-471
1004.531	-1163
1004.607	-1548
1004.682	-1227
1004.757	-898
1004.832	-1485
1004.907	-1055
1004.982	-1266
1005.057	-1201
1005.133	-699
1005.208	-1753
1005.283	-1553
1005.358	-932
1005.433	-2091
1005.508	-1252
1005.583	-1950
1005.657	-1667
1005.732	-824
1005.807	-976
1005.882	-1563
1005.957	-1513
1006.032	-853
1006.106	-1579
1006.181	-1368
1006.256	-1174
1006.331	-859
1006.405	-1622
1006.480	-1314
1006.554	-1295
1006.629	-1967
1006.704	-1035
1006.778	-999
1006.853	-1228
1006.927	-1227
1007.002	-1988
1007.076	-515
1007.150	-592
1007.225	-1323
1007.299	-1857
1007.373	-2277
1007.448	-1335
1007.522	-493
1007.596	-1170
1007.671	-1438
1007.745	-1365
1007.819	-1788
1007.893	-1162
1007.967	-803
1008.041	-1745
1008.115	-611
1008.190	-1555
1008.264	-1100
1008.338	-2182
1008.412	-1395
1008.486	-1950
1008.560	-1331
1008.633	-1228
1008.707	-1742
1008.781	-1036
1008.855	-1522
1008.929	-881
1009.003	-1264
1009.076	-1933
1009.150	-1135
1009.224	-1060
1009.298	-1316
1009.371	-2191
1009.445	-1379
1009.519	-791
1009.592	-1993
1009.666	-1742
1009.739	-1544
1009.813	-2833
1009.886	-740
1009.960	-1480
1010.033	-1529
1010.107	-1479
1010.180	-2692
1010.253	-1500
1010.327	-2097
1010.400	-1448
1010.473	-1625
1010.547	-798
1010.620	-1055
1010.693	-1512
1010.766	-1211
1010.840	-1271
1010.913	-1556
1010.986	-1251
1011.059	-882
1011.132	-2386
1011.205	-1605
1011.278	-1434
1011.351	-1212
1011.424	-1687
1011.497	-1717
1011.570	-1919
1011.643	-1201
1011.716	-1914
1011.789	-1717
1011.862	-1136
1011.934	-899
1012.007	-2743
1012.080	-994
1012.153	-848
1012.225	-714
1012.298	-1856
1012.371	-1440
1012.443	-1363
1012.516	-1743
1012.588	-987
1012.661	-1118
1012.733	-2407
1012.806	-1049
1012.879	-1631
1012.951	-1095
1013.023	-1581
1013.096	-1496
1013.168	-2052
1013.241	-1239
1013.313	-1332
1013.385	-1295
1013.458	-930
1013.530	-548
1013.602	-1679
1013.674	-1155
1013.746	-1958
1013.819	-2268
1013.891	-1117
1013.963	-1735
1014.035	-1754
1014.107	-1680
1014.179	-1310
1014.251	-2462
1014.323	-1789
1014.395	-1853
1014.467	-1568
1014.539	-1161
1014.611	-1731
1014.683	-2238
1014.754	-1508
1014.826	-1171
1014.898	-845
1014.970	-1974
1015.042	-416
1015.113	-1025
1015.185	-1745
1015.257	-1570
1015.328	-1369
1015.400	-2022
1015.471	-1561
1015.543	-1826
1015.615	-1051
1015.686	-1474
1015.757	-964
1015.829	-2057
1015.901	-2618
1015.972	-1542
1016.043	-2613
1016.115	-1487
1016.186	-1781
1016.257	-2591
1016.328	-1216
1016.400	-499
1016.471	-1968
1016.542	-1677
1016.613	-1162
1016.685	-1657
1016.756	-1588
1016.827	-1383
1016.898	-2317
1016.969	-1292
1017.040	-1792
1017.111	-2062
1017.182	-1200
1017.253	-988
1017.324	-2535
1017.395	-2121
1017.466	-1031
1017.537	-1545
1017.608	-2189
1017.678	-2182
1017.749	-1868
1017.820	-645
1017.891	-2040
1017.961	-1599
1018.032	-1532
1018.103	-1300
1018.173	-1060
1018.244	-2736
1018.315	-1212
1018.385	-808
1018.456	-1981
1018.526	-1237
1018.597	-1556
1018.667	-1766
1018.738	-1823
1018.808	-1575
1018.878	-1412
1018.949	-1464
1019.019	-1934
1019.089	-1731
1019.160	-1599
1019.230	-2390
1019.300	-1828
1019.371	-2793
1019.441	-1545
1019.511	-1664
1019.581	-1890
1019.651	-1601
1019.721	-2048
1019.791	-1323
1019.861	-1469
1019.931	-1775
1020.001	-1940
1020.071	-1448
1020.141	-2365
1020.211	-1304
1020.281	-1859
1020.351	-2086
1020.421	-1771
1020.491	-1640
1020.560	-2172
1020.630	-1320
1020.700	-1064
1020.770	-1779
1020.839	-2176
1020.909	-1473
1020.979	-2068
1021.048	-2101
1021.118	-1244
1021.187	-1275
1021.257	-1097
1021.326	-1458
1021.396	-2493
1021.465	-2164
1021.535	-1652
1021.604	-2212
1021.674	-2215
1021.743	-2355
1021.812	-2360
1021.882	-2206
1021.951	-1876
1022.020	-1718
1022.089	-1339
1022.159	-1346
1022.228	-1387
1022.297	-2016
1022.366	-1833
1022.435	-1684
1022.504	-2132
1022.573	-2748
1022.642	-1280
1022.711	-1746
1022.781	-1081
1022.849	-2125
1022.918	-2181
1022.987	-1706
1023.056	-1385
1023.125	-1578
1023.194	-810
1023.263	-2042
1023.331	-1345
1023.400	-2422
1023.469	-2172
1023.538	-749
1023.606	-1904
1023.675	-1347
1023.744	-1758
1023.812	-2392
1023.881	-1558
1023.949	-1758
1024.018	-2407
1024.086	-970
1024.155	-2401
1024.223	-1405
1024.292	-1258
1024.360	-1904
1024.429	-1732
1024.497	-2046
1024.565	-2025
1024.634	-1530
1024.702	-1135
1024.770	-2154
1024.838	-2428
1024.907	-1569
1024.975	-2135
1025.043	-1905
1025.111	-2763
1025.179	-1816
1025.247	-1154
1025.315	-1525
1025.383	-1560
1025.451	-1951
1025.519	-1852
1025.587	-1569
1025.655	-1852
1025.723	-1431
1025.791	-1707
1025.859	-1954
1025.927	-940
1025.995	-1803
1026.062	-1514
1026.130	-1781
1026.198	-1730
1026.266	-1980
1026.333	-1305
1026.401	-1311
1026.469	-2000
1026.536	-1860
1026.604	-1863
1026.671	-1948
1026.739	-1270
1026.806	-2407
1026.874	-1377
1026.941	-1674
1027.009	-1682
1027.076	-1676
1027.144	-1302
1027.211	-1478
1027.278	-1245
1027.345	-1763
1027.413	-1754
1027.480	-1761
1027.547	-1617
1027.614	-1796
1027.682	-1624
1027.749	-2821
1027.816	-1571
1027.883	-1910
1027.950	-1525
1028.017	-2658
1028.084	-1569
1028.151	-2587
1028.218	-1811
1028.285	-1205
1028.352	-2250
1028.419	-2513
1028.486	-2226
1028.553	-2058
1028.619	-1561
1028.686	-1693
1028.753	-2220
1028.820	-1728
1028.886	-1469
1028.953	-2059
1029.020	-1835
1029.086	-1107
1029.153	-2510
1029.220	-2019
1029.286	-1324
1029.353	-1997
1029.419	-2269
1029.486	-994
1029.552	-2288
1029.619	-1939
1029.685	-1752
1029.751	-1845
1029.818	-446
1029.884	-2389
1029.951	-1190
1030.017	-1899
1030.083	-2403
1030.149	-1652
1030.216	-1895
1030.282	-1634
1030.348	-2009
1030.414	-1960
1030.480	-932
1030.546	-2435
1030.612	-894
1030.678	-2095
1030.744	-1654
1030.810	-2000
1030.876	-1749
1030.942	-1321
1031.008	-2456
1031.074	-2951
1031.140	-1915
1031.206	-1124
1031.272	-2434
1031.337	-1686
1031.403	-748
1031.469	-758
1031.534	-1895
1031.600	-1959
1031.666	-1881
1031.731	-2316
1031.797	-1636
1031.863	-1616
1031.928	-2019
1031.994	-2015
1032.059	-1435
1032.125	-1510
1032.190	-2234
1032.256	-1703
1032.321	-1663
1032.386	-2466
1032.452	-1221
1032.517	-1773
1032.582	-1509
1032.647	-1631
1032.713	-1914
1032.778	-1498
1032.843	-2149
1032.908	-2089
1032.974	-2010
1033.039	-2090
1033.104	-1444
1033.169	-1984
1033.234	-2052
1033.299	-1292
1033.364	-2312
1033.429	-1878
1033.494	-2034
1033.559	-2280
1033.624	-1886
1033.688	-1403
1033.753	-2014
1033.818	-1217
1033.883	-1315
1033.948	-1769
1034.013	-1326
1034.077	-2165
1034.142	-1356
1034.207	-1552
1034.271	-1473
1034.336	-636
1034.400	-1263
1034.465	-908
1034.530	-1856
1034.594	-1763
1034.658	-2045
1034.723	-1489
1034.787	-1951
1034.852	-1455
1034.916	-2131
1034.981	-2499
1035.045	-2129
1035.109	-1526
1035.173	-1463
1035.238	-2362
1035.302	-1789
1035.366	-1934
1035.430	-2620
1035.495	-2473
1035.559	-1700
1035.623	-2379
1035.687	-681
1035.751	-2283
1035.815	-1678
1035.879	-1626
1035.943	-2319
1036.007	-2073
1036.071	-2040
1036.135	-2780
1036.198	-2057
1036.262	-2199
1036.326	-1369
1036.390	-1685
1036.454	-2437
1036.517	-1430
1036.581	-2589
1036.645	-882
1036.709	-2084
1036.772	-2174
1036.836	-1169
1036.900	-1715
1036.963	-1289
1037.026	-1598
1037.090	-2333
1037.154	-1580
1037.217	-1918
1037.280	-2716
1037.344	-2093
1037.407	-2974
1037.471	-2377
1037.534	-1762
1037.597	-1727
1037.661	-2092
1037.724	-1610
1037.787	-2437
1037.850	-1773
1037.913	-2926
1037.977	-1599
1038.040	-1852
1038.103	-2115
1038.166	-2684
1038.229	-2162
1038.292	-2240
1038.355	-1868
1038.418	-1858
1038.481	-897
1038.544	-1546
1038.607	-3019
1038.670	-2170
1038.732	-1910
1038.795	-2739
1038.858	-2154
1038.921	-1934
1038.984	-1904
1039.046	-1666
1039.109	-1419
1039.172	-2425
1039.234	-2320
1039.297	-1963
1039.360	-2001
1039.422	-1484
1039.485	-1818
1039.547	-2612
1039.610	-1713
1039.672	-2510
1039.734	-2035
1039.797	-1919
1039.859	-1870
1039.922	-2061
1039.984	-1830
1040.046	-2306
1040.109	-1419
1040.171	-2251
1040.233	-1849
1040.295	-2461
1040.358	-2200
1040.420	-1811
1040.482	-1470
1040.544	-2184
1040.606	-1723
1040.668	-2437
1040.730	-2351
1040.792	-2015
1040.854	-2700
1040.916	-1778
1040.978	-2556
1041.040	-1961
1041.102	-1860
1041.164	-1211
1041.225	-2679
1041.287	-2097
1041.349	-2190
1041.411	-2445
1041.472	-2013
1041.534	-2300
1041.596	-1844
1041.657	-1889
1041.719	-2370
1041.781	-1807
1041.842	-2468
1041.904	-3131
1041.965	-2707
1042.027	-1482
1042.088	-1950
1042.150	-1849
1042.211	-1880
1042.272	-1606
1042.334	-2238
1042.395	-2540
1042.456	-2061
1042.518	-1150
1042.579	-705
1042.640	-2398
1042.701	-2586
1042.763	-2581
1042.824	-2051
1042.885	-1477
1042.946	-2050
1043.007	-1621
1043.068	-1895
1043.129	-2596
1043.190	-1874
1043.251	-2356
1043.312	-2197
1043.373	-1535
1043.434	-1962
1043.495	-1919
1043.556	-2703
1043.616	-1949
1043.677	-2908
1043.738	-1943
1043.799	-2856
1043.859	-1409
1043.920	-2444
1043.981	-2508
1044.041	-1561
1044.102	-2475
1044.162	-2020
1044.223	-2188
1044.284	-1908
1044.344	-1775
1044.405	-1595
1044.465	-1773
1044.525	-2324
1044.586	-1824
1044.646	-1708
1044.707	-1530
1044.767	-1997
1044.827	-1403
1044.887	-1733
1044.948	-1466
1045.008	-1814
1045.068	-2179
1045.128	-2138
1045.188	-2032
1045.249	-1956
1045.309	-2779
1045.369	-2005
1045.429	-2162
1045.489	-2077
1045.549	-2104
1045.609	-1768
1045.669	-1906
1045.729	-1974
1045.789	-2108
1045.848	-1712
1045.908	-1856
1045.968	-816
1046.028	-1717
1046.088	-1524
1046.147	-1678
1046.207	-2814
1046.267	-2008
1046.326	-1250
1046.386	-2337
1046.446	-1323
1046.505	-1287
1046.565	-1146
1046.624	-1158
1046.684	-350
1046.743	-1803
1046.803	-705
1046.862	-840
1046.922	0
