'Start Wavelength	183.907
'End Wavelength	1046.922
'Gate Delay	5.000
'Gate Width (ms)	1.050
'Laser Output Level	0.000
'X Position	0.000
'Y Position	0.000
'Z Position	0.000
'Grid Point Number	1.000
'Shot Number	100.000
183.907	311.000
183.977	319.000
184.047	-30
184.116	1259
184.186	49
184.256	561
184.325	309
184.395	-647
184.465	1351
184.534	521
184.604	-528
184.674	468
184.743	368
184.813	711
184.883	565
184.952	513
185.022	328
185.092	827
185.161	82
185.231	-117
185.301	367
185.370	470
185.440	-327
185.509	-264
185.579	-600
185.649	728
185.718	187
185.788	485
185.857	209
185.927	-446
185.996	57
186.066	336
186.136	-728
186.205	259
186.275	-206
186.344	477
186.414	736
186.483	479
186.553	1054
186.622	1606
186.692	676
186.761	379
186.831	741
186.900	-30
186.970	709
187.039	1111
187.109	991
187.178	519
187.248	-42
187.317	1433
187.387	-412
187.456	959
187.526	387
187.595	869
187.664	479
187.734	732
187.803	339
187.873	1101
187.942	260
188.012	213
188.081	-52
188.150	764
188.220	1510
188.289	1347
188.358	978
188.428	1090
188.497	7
188.567	1128
188.636	40
188.705	354
188.775	1052
188.844	396
188.913	1218
188.983	829
189.052	595
189.121	623
189.191	-79
189.260	391
189.329	457
189.399	1082
189.468	239
189.537	518
189.606	714
189.676	698
189.745	340
189.814	1225
189.883	725
189.953	742
190.022	807
190.091	816
190.161	1663
190.230	1055
190.299	173
190.368	488
190.437	-11
190.507	335
190.576	442
190.645	815
190.714	685
190.783	444
190.853	1067
190.922	1035
190.991	903
191.060	827
191.129	-523
191.198	785
191.268	439
191.337	651
191.406	784
191.475	1046
191.544	207
191.613	739
191.682	1476
191.752	468
191.821	94
191.890	319
191.959	893
192.028	928
192.097	237
192.166	898
192.235	-441
192.304	1052
192.373	511
192.442	902
192.511	962
192.580	-364
192.650	981
192.719	1090
192.788	837
192.857	1200
192.926	62
192.995	1231
193.064	3441
193.133	2099
193.202	755
193.271	1853
193.340	1122
193.409	1401
193.478	1214
193.547	1622
193.615	1637
193.684	1659
193.753	662
193.822	1307
193.891	-176
193.960	1443
194.029	-405
194.098	983
194.167	730
194.236	1328
194.305	630
194.374	581
194.443	-35
194.512	-6
194.580	-170
194.649	933
194.718	877
194.787	692
194.856	212
194.925	1614
194.994	806
195.062	1432
195.131	373
195.200	665
195.269	1185
195.338	592
195.407	954
195.475	401
195.544	725
195.613	925
195.682	1054
195.751	777
195.819	660
195.888	895
195.957	590
196.026	458
196.094	684
196.163	554
196.232	856
196.301	1278
196.369	470
196.438	189
196.507	69
196.576	-80
196.644	468
196.713	851
196.782	454
196.850	1281
196.919	290
196.988	1044
197.056	482
197.125	257
197.194	54
197.262	892
197.331	258
197.400	1049
197.468	-202
197.537	806
197.606	-140
197.674	1112
197.743	1365
197.812	744
197.880	1457
197.949	1155
198.017	1630
198.086	970
198.155	556
198.223	938
198.292	1797
198.360	505
198.429	736
198.497	1352
198.566	736
198.635	2313
198.703	1511
198.772	698
198.840	2120
198.909	2199
198.977	763
199.046	1480
199.114	654
199.183	994
199.251	776
199.320	1166
199.388	1202
199.457	72
199.525	423
199.594	1147
199.662	454
199.731	504
199.799	424
199.867	1445
199.936	1001
200.004	1781
200.073	1158
200.141	715
200.210	90
200.278	1312
200.346	1578
200.415	1630
200.483	1510
200.552	1812
200.620	508
200.688	1319
200.757	1393
200.825	1110
200.893	627
200.962	946
201.030	228
201.098	531
201.167	1617
201.235	857
201.303	1368
201.372	973
201.440	456
201.508	1659
201.577	1520
201.645	720
201.713	1048
201.781	1652
201.850	1672
201.918	878
201.986	337
202.055	920
202.123	743
202.191	893
202.259	678
202.327	704
202.396	1825
202.464	1205
202.532	1617
202.600	5156
202.669	2792
202.737	1315
202.805	1050
202.873	376
202.941	228
203.009	1143
203.078	456
203.146	1356
203.214	714
203.282	344
203.350	1191
203.418	1068
203.487	1066
203.555	362
203.623	708
203.691	460
203.759	369
203.827	-117
203.895	985
203.963	1171
204.031	1174
204.099	949
204.168	994
204.236	1202
204.304	1947
204.372	874
204.440	782
204.508	713
204.576	515
204.644	946
204.712	4
204.780	1058
204.848	1740
204.916	1108
204.984	383
205.052	1033
205.120	821
205.188	724
205.256	890
205.324	887
205.392	962
205.460	936
205.528	716
205.596	1144
205.664	758
205.732	216
205.799	2091
205.867	3400
205.935	1023
206.003	834
206.071	528
206.139	988
206.207	432
206.275	1721
206.343	741
206.411	1078
206.478	306
206.546	507
206.614	1094
206.682	847
206.750	664
206.818	2786
206.885	2677
206.953	470
207.021	1570
207.089	1090
207.157	755
207.225	1404
207.292	380
207.360	936
207.428	722
207.496	711
207.563	945
207.631	475
207.699	839
207.767	849
207.834	-166
207.902	406
207.970	1150
208.038	2080
208.105	949
208.173	1137
208.241	1378
208.309	1902
208.376	1663
208.444	1270
208.512	1673
208.579	743
208.647	1936
208.715	3086
208.782	821
208.850	1251
208.918	1349
208.985	1109
209.053	1366
209.120	987
209.188	565
209.256	1146
209.323	496
209.391	679
209.459	2302
209.526	768
209.594	1102
209.661	777
209.729	217
209.796	759
209.864	1863
209.932	1030
209.999	1300
210.067	1192
210.134	1289
210.202	661
210.269	2735
210.337	3455
210.404	1214
210.472	1254
210.539	1260
210.607	870
210.674	1149
210.742	1824
210.809	992
210.877	1516
210.944	1975
211.012	422
211.079	2492
211.146	1673
211.214	1534
211.281	3643
211.349	3333
211.416	2689
211.484	1632
211.551	1281
211.618	1392
211.686	1607
211.753	712
211.821	1172
211.888	1776
211.955	1683
212.023	1522
212.090	1524
212.157	1196
212.225	1668
212.292	3133
212.359	3567
212.427	12922
212.494	5066
212.561	2381
212.629	1660
212.696	999
212.763	1049
212.831	773
212.898	1799
212.965	1106
213.032	1120
213.100	1192
213.167	1723
213.234	2466
213.301	1600
213.369	1004
213.436	1321
213.503	1621
213.570	1786
213.638	1214
213.705	1206
213.772	632
213.839	1015
213.906	2411
213.973	1023
214.041	1041
214.108	1852
214.175	1516
214.242	1354
214.309	1308
214.376	1882
214.444	1172
214.511	1957
214.578	1606
214.645	1855
214.712	1665
214.779	1714
214.846	1208
214.913	2417
214.980	1826
215.048	3434
215.115	2908
215.182	2033
215.249	2371
215.316	1873
215.383	1824
215.450	2293
215.517	1627
215.584	1971
215.651	1030
215.718	1459
215.785	1317
215.852	416
215.919	1385
215.986	1827
216.053	1273
216.120	1057
216.187	1229
216.254	1076
216.321	1198
216.388	1238
216.455	1543
216.522	1854
216.589	1644
216.656	2487
216.722	2878
216.789	1811
216.856	1752
216.923	1512
216.990	2019
217.057	1563
217.124	1734
217.191	2352
217.258	2111
217.324	2728
217.391	3003
217.458	1726
217.525	2338
217.592	1462
217.659	625
217.725	2449
217.792	1232
217.859	2797
217.926	1352
217.993	1182
218.059	1403
218.126	1990
218.193	1581
218.260	1829
218.327	820
218.393	1196
218.460	1387
218.527	929
218.594	1355
218.660	2237
218.727	2421
218.794	856
218.860	1242
218.927	1249
218.994	927
219.061	765
219.127	1584
219.194	2413
219.261	1817
219.327	1080
219.394	1272
219.461	314
219.527	1267
219.594	2464
219.661	1882
219.727	878
219.794	2769
219.860	2307
219.927	1643
219.994	4281
220.060	6156
220.127	7386
220.193	4547
220.260	2739
220.326	3286
220.393	4050
220.460	4732
220.526	3407
220.593	2206
220.659	4506
220.726	3097
220.792	7866
220.859	6304
220.925	7059
220.992	7704
221.058	8276
221.125	8787
221.191	6329
221.258	2360
221.324	2595
221.391	1512
221.457	1416
221.524	2654
221.590	3063
221.657	8281
221.723	6239
221.789	4551
221.856	4453
221.922	2170
221.989	2287
222.055	1707
222.121	1606
222.188	3699
222.254	2596
222.321	2267
222.387	1636
222.453	1069
222.520	1200
222.586	371
222.652	2077
222.719	711
222.785	1380
222.851	614
222.918	1282
222.984	1954
223.050	743
223.116	-460
223.183	2015
223.249	377
223.315	1106
223.382	780
223.448	1740
223.514	303
223.580	1260
223.647	1099
223.713	1215
223.779	564
223.845	1299
223.911	458
223.978	-529
224.044	1396
224.110	1002
224.176	1108
224.242	1475
224.309	-156
224.375	1725
224.441	917
224.507	413
224.573	247
224.639	711
224.705	301
224.772	1290
224.838	640
224.904	1093
224.970	292
225.036	798
225.102	286
225.168	1560
225.234	2199
225.300	1682
225.366	1034
225.432	2141
225.499	2326
225.565	1834
225.631	930
225.697	2575
225.763	1223
225.829	2355
225.895	1487
225.961	3063
226.027	2953
226.093	2382
226.159	3683
226.225	5391
226.291	8604
226.357	14116
226.423	7391
226.489	5280
226.554	3236
226.620	3524
226.686	3612
226.752	5814
226.818	8489
226.884	17804
226.950	15429
227.016	6710
227.082	4876
227.148	3153
227.214	3582
227.279	3243
227.345	3095
227.411	3842
227.477	7017
227.543	14215
227.609	14965
227.674	8954
227.740	4407
227.806	3607
227.872	2769
227.938	1936
228.003	2787
228.069	1597
228.135	1371
228.201	1480
228.267	844
228.332	1680
228.398	552
228.464	1515
228.530	1025
228.595	2286
228.661	409
228.727	1529
228.792	1701
228.858	982
228.924	-781
228.990	2990
229.055	598
229.121	1783
229.187	383
229.252	924
229.318	768
229.384	1445
229.449	1131
229.515	-98
229.581	336
229.646	2603
229.712	1476
229.777	2337
229.843	1753
229.909	2619
229.974	2420
230.040	2994
230.105	1083
230.171	1654
230.236	1736
230.302	2845
230.368	1699
230.433	1553
230.499	1399
230.564	2828
230.630	920
230.695	1256
230.761	3292
230.826	630
230.892	2614
230.957	636
231.023	1278
231.088	2176
231.154	1641
231.219	2723
231.284	1481
231.350	2753
231.415	920
231.481	1591
231.546	675
231.612	2382
231.677	549
231.742	520
231.808	2108
231.873	1133
231.939	-293
232.004	3011
232.069	2186
232.135	1815
232.200	921
232.265	2160
232.331	939
232.396	1342
232.461	649
232.527	1426
232.592	208
232.657	1217
232.723	1624
232.788	790
232.853	1218
232.918	2086
232.984	337
233.049	1026
233.114	783
233.179	3239
233.245	3369
233.310	3222
233.375	180
233.440	1875
233.506	1370
233.571	856
233.636	1083
233.701	1214
233.766	1559
233.832	2623
233.897	270
233.962	171
234.027	1425
234.092	1508
234.157	357
234.222	1804
234.288	2652
234.353	4366
234.418	4124
234.483	3172
234.548	1718
234.613	2452
234.678	2668
234.743	2041
234.808	4776
234.873	2462
234.938	3247
235.004	1782
235.069	1043
235.134	520
235.199	1760
235.264	1994
235.329	999
235.394	2160
235.459	2297
235.524	1440
235.589	1947
235.654	1763
235.719	465
235.784	2221
235.849	1983
235.913	2940
235.978	1705
236.043	3542
236.108	1995
236.173	1143
236.238	2817
236.303	1860
236.368	1483
236.433	3908
236.498	3586
236.563	3799
236.627	7455
236.692	25047
236.757	22398
236.822	8742
236.887	5158
236.952	4933
237.017	2210
237.081	5156
237.146	4734
237.211	11878
237.276	25301
237.341	42119
237.405	19297
237.470	8059
237.535	5346
237.600	3916
237.664	3864
237.729	2465
237.794	2465
237.859	7389
237.923	4151
237.988	2612
238.053	3740
238.118	2535
238.182	9072
238.247	9241
238.312	1932
238.376	3551
238.441	1309
238.506	2924
238.570	806
238.635	3622
238.700	1890
238.764	1555
238.829	3168
238.893	3976
238.958	2672
239.023	2979
239.087	2168
239.152	2071
239.216	1972
239.281	2499
239.346	2231
239.410	2755
239.475	1846
239.539	8476
239.604	6657
239.668	5477
239.733	5106
239.797	13301
239.862	27913
239.926	22392
239.991	8806
240.055	5077
240.120	2999
240.184	3041
240.249	1365
240.313	2066
240.378	2252
240.442	3857
240.507	6663
240.571	2247
240.635	2116
240.700	3765
240.764	1325
240.829	2017
240.893	774
240.957	2411
241.022	4365
241.086	6049
241.151	2083
241.215	840
241.279	2555
241.344	2310
241.408	2366
241.472	972
241.537	3048
241.601	3119
241.665	1435
241.730	1347
241.794	2322
241.858	2036
241.922	2024
241.987	3129
242.051	2294
242.115	1424
242.179	1607
242.244	1677
242.308	2372
242.372	2402
242.436	1433
242.501	2445
242.565	559
242.629	1255
242.693	2841
242.757	1667
242.822	1233
242.886	2467
242.950	2451
243.014	1909
243.078	2016
243.142	2259
243.206	2044
243.271	2863
243.335	2082
243.399	4603
243.463	11727
243.527	35028
243.591	9255
243.655	4191
243.719	2005
243.783	2973
243.847	4141
243.911	5023
243.975	3274
244.040	1772
244.104	4139
244.168	2204
244.232	1937
244.296	2356
244.360	4309
244.424	2020
244.488	2394
244.552	2250
244.615	318
244.679	1947
244.743	1816
244.807	1053
244.871	1873
244.935	2302
244.999	445
245.063	2542
245.127	1540
245.191	3700
245.255	2473
245.319	3304
245.383	1172
245.446	2987
245.510	899
245.574	1724
245.638	1546
245.702	1039
245.766	4076
245.829	3963
245.893	2107
245.957	2075
246.021	2221
246.085	2299
246.149	2595
246.212	6121
246.276	8673
246.340	3708
246.404	3275
246.467	4037
246.531	2093
246.595	4195
246.659	3754
246.722	1766
246.786	2511
246.850	2732
246.913	3370
246.977	1464
247.041	1856
247.104	2376
247.168	2463
247.232	4339
247.295	12319
247.359	6005
247.423	2457
247.486	4288
247.550	3381
247.614	2722
247.677	2761
247.741	2731
247.804	3383
247.868	7898
247.932	4634
247.995	12428
248.059	3892
248.122	1921
248.186	4603
248.249	5402
248.313	20729
248.376	21323
248.440	11901
248.503	3536
248.567	4750
248.630	3707
248.694	5680
248.757	9064
248.821	22909
248.884	12287
248.948	9201
249.011	15625
249.075	24282
249.138	20976
249.202	7224
249.265	4359
249.328	6036
249.392	4045
249.455	4789
249.519	4027
249.582	4236
249.645	7018
249.709	6205
249.772	5282
249.835	3376
249.899	3663
249.962	4490
250.025	3670
250.089	9177
250.152	11208
250.215	4173
250.279	3579
250.342	4374
250.405	4232
250.468	4208
250.532	6403
250.595	8764
250.658	35119
250.721	63111
250.785	17217
250.848	9761
250.911	5843
250.974	6256
251.038	7873
251.101	14287
251.164	7800
251.227	7139
251.290	7726
251.354	11951
251.417	52618
251.480	50169
251.543	30714
251.606	101184
251.669	70452
251.732	21469
251.795	20779
251.859	21086
251.922	59173
251.985	31031
252.048	11819
252.111	8553
252.174	7563
252.237	11783
252.300	28128
252.363	29478
252.426	76640
252.489	27061
252.552	11902
252.615	7637
252.678	9441
252.741	22130
252.804	30685
252.867	77584
252.930	36637
252.993	16085
253.056	10139
253.119	6328
253.182	5299
253.245	8707
253.308	7372
253.371	4421
253.434	5115
253.497	6071
253.559	10770
253.622	6739
253.685	6045
253.748	5796
253.811	4197
253.874	4976
253.937	4676
254.000	3674
254.062	6942
254.125	11131
254.188	8904
254.251	5466
254.314	4159
254.376	4925
254.439	5971
254.502	4446
254.565	6374
254.628	12305
254.690	4968
254.753	2951
254.816	3208
254.878	3120
254.941	8713
255.004	9351
255.067	3774
255.129	2259
255.192	2674
255.255	1378
255.317	3142
255.380	1666
255.443	2792
255.505	2756
255.568	1816
255.631	1873
255.693	3664
255.756	2164
255.819	3753
255.881	2248
255.944	2575
256.006	2041
256.069	2066
256.132	2062
256.194	2767
256.257	4503
256.319	3684
256.382	5074
256.444	6672
256.507	5223
256.569	4755
256.632	3987
256.694	4783
256.757	13777
256.819	41960
256.882	16665
256.944	6824
257.007	4752
257.069	5104
257.132	3631
257.194	4908
257.257	3787
257.319	4387
257.381	3961
257.444	10492
257.506	47962
257.569	49880
257.631	16652
257.693	8970
257.756	5130
257.818	3961
257.880	3766
257.943	4149
258.005	2226
258.067	2872
258.130	2261
258.192	3351
258.254	3373
258.317	3809
258.379	3305
258.441	5619
258.503	6766
258.566	6966
258.628	7734
258.690	3452
258.753	3592
258.815	4081
258.877	2854
258.939	3405
259.001	3293
259.064	2860
259.126	2035
259.188	3785
259.250	2711
259.312	4335
259.375	4574
259.437	2904
259.499	2263
259.561	3129
259.623	3404
259.685	2562
259.747	3733
259.809	7100
259.872	11012
259.934	20431
259.996	16962
260.058	6158
260.120	2833
260.182	2729
260.244	2743
260.306	1913
260.368	2857
260.430	2244
260.492	3655
260.554	6672
260.616	3902
260.678	8502
260.740	10422
260.802	3771
260.864	3701
260.926	2171
260.988	3807
261.050	3617
261.112	5463
261.174	12848
261.236	10029
261.298	3798
261.359	5993
261.421	7804
261.483	1927
261.545	4139
261.607	1590
261.669	3308
261.731	3473
261.793	7159
261.854	2737
261.916	3059
261.978	2667
262.040	3189
262.102	3807
262.164	2837
262.225	3708
262.287	2957
262.349	4235
262.411	4266
262.472	3473
262.534	3751
262.596	6623
262.658	3869
262.719	2348
262.781	4073
262.843	5312
262.904	4468
262.966	4081
263.028	5241
263.090	15775
263.151	39409
263.213	11980
263.275	6080
263.336	3593
263.398	3972
263.459	2511
263.521	3466
263.583	5364
263.644	4304
263.706	2985
263.767	2118
263.829	2809
263.891	2592
263.952	2068
264.014	1830
264.075	2914
264.137	5526
264.198	3602
264.260	2342
264.321	2175
264.383	3489
264.444	7442
264.506	2744
264.567	3190
264.629	4949
264.690	6159
264.752	4164
264.813	2810
264.875	2097
264.936	4143
264.998	3071
265.059	3528
265.120	4316
265.182	4820
265.243	20129
265.305	19959
265.366	6051
265.427	3415
265.489	4826
265.550	1445
265.611	3290
265.673	3332
265.734	2761
265.795	3611
265.857	3327
265.918	2718
265.979	7241
266.040	34928
266.102	28254
266.163	8054
266.224	4948
266.286	2938
266.347	2941
266.408	2238
266.469	3077
266.530	3528
266.592	2823
266.653	3828
266.714	4713
266.775	2147
266.836	3207
266.898	2149
266.959	2971
267.020	3037
267.081	3716
267.142	3004
267.203	3113
267.264	1730
267.326	4290
267.387	2100
267.448	2738
267.509	2932
267.570	3258
267.631	1511
267.692	2037
267.753	2411
267.814	1875
267.875	3186
267.936	5563
267.997	3360
268.058	2565
268.119	2051
268.180	2749
268.241	1809
268.302	2170
268.363	1087
268.424	2261
268.485	2274
268.546	1628
268.607	1771
268.668	1762
268.729	1474
268.790	2146
268.851	2159
268.912	3284
268.972	4472
269.033	2255
269.094	1888
269.155	2166
269.216	2208
269.277	2988
269.338	2418
269.398	2217
269.459	1401
269.520	2471
269.581	2133
269.642	3401
269.702	2093
269.763	3484
269.824	1993
269.885	2885
269.945	3307
270.006	2698
270.067	1241
270.128	2483
270.188	1352
270.249	1524
270.310	1813
270.370	2310
270.431	1909
270.492	2382
270.553	2350
270.613	2876
270.674	5409
270.734	2377
270.795	2698
270.856	3173
270.916	2059
270.977	2626
271.038	2765
271.098	3287
271.159	3061
271.219	3056
271.280	1954
271.340	3009
271.401	2133
271.462	3476
271.522	3425
271.583	3245
271.643	2511
271.704	2978
271.764	2856
271.825	5879
271.885	17943
271.946	25375
272.006	7810
272.066	11827
272.127	21427
272.187	17164
272.248	8541
272.308	5014
272.369	13901
272.429	8238
272.489	5694
272.550	6161
272.610	6258
272.671	4250
272.731	5012
272.791	5532
272.852	3345
272.912	4816
272.972	3188
273.033	3719
273.093	3408
273.153	4636
273.214	3524
273.274	4615
273.334	10040
273.394	17168
273.455	7315
273.515	7812
273.575	13603
273.635	7617
273.696	10094
273.756	18067
273.816	8171
273.876	6102
273.936	7961
273.997	12644
274.057	5508
274.117	4430
274.177	5922
274.237	19714
274.297	16031
274.358	9164
274.418	13121
274.478	9082
274.538	5078
274.598	3395
274.658	8761
274.718	10780
274.778	4839
274.838	4532
274.898	5982
274.958	14228
275.018	17047
275.078	12200
275.138	4873
275.198	3976
275.258	3109
275.318	3737
275.378	4849
275.438	5355
275.498	5097
275.558	8168
275.618	15650
275.678	10360
275.738	6812
275.798	5825
275.858	3337
275.918	3348
275.978	3484
276.038	4514
276.098	4185
276.157	4569
276.217	9705
276.277	5769
276.337	4082
276.397	3376
276.457	3974
276.517	3367
276.576	4126
276.636	3508
276.696	4654
276.756	6664
276.815	5619
276.875	4713
276.935	4006
276.995	4211
277.055	4405
277.114	5237
277.174	5404
277.234	8452
277.293	4470
277.353	4215
277.413	4308
277.472	4467
277.532	5022
277.592	7618
277.651	22796
277.711	41451
277.771	15662
277.830	42541
277.890	33681
277.950	28126
278.009	77350
278.069	30974
278.128	31544
278.188	41375
278.248	19103
278.307	47852
278.367	28505
278.426	9855
278.486	7604
278.545	6377
278.605	6032
278.664	6505
278.724	6259
278.783	11253
278.843	21058
278.902	9394
278.962	7242
279.021	9029
279.081	18769
279.140	18317
279.199	10645
279.259	10658
279.318	14622
279.378	18085
279.437	27009
279.496	71167
279.556	279602
279.615	226474
279.675	62475
279.734	34070
279.793	40819
279.853	50558
279.912	22026
279.971	17021
280.031	15205
280.090	19919
280.149	28810
280.208	38753
280.268	189444
280.327	194125
280.386	48974
280.445	25999
280.505	17427
280.564	13513
280.623	10866
280.682	10994
280.742	13066
280.801	8339
280.860	6670
280.919	6843
280.978	6451
281.037	6630
281.097	5758
281.156	6741
281.215	6027
281.274	6804
281.333	13400
281.392	9935
281.451	5436
281.510	4592
281.569	4636
281.628	4991
281.688	4932
281.747	5289
281.806	4629
281.865	4385
281.924	4234
281.983	4907
282.042	3206
282.101	4611
282.160	4807
282.219	4361
282.278	3763
282.337	6710
282.396	5346
282.454	4970
282.513	4638
282.572	7974
282.631	5756
282.690	4928
282.749	3431
282.808	4392
282.867	4550
282.926	4469
282.985	4981
283.043	4775
283.102	4265
283.161	4497
283.220	7030
283.279	11004
283.338	6694
283.396	5745
283.455	4969
283.514	5569
283.573	6485
283.631	6607
283.690	5338
283.749	5541
283.808	6957
283.866	7648
283.925	6297
283.984	6470
284.043	5712
284.101	7626
284.160	6713
284.219	9080
284.277	7326
284.336	8881
284.395	15545
284.453	15016
284.512	10876
284.570	12583
284.629	12726
284.688	15417
284.746	17756
284.805	22573
284.863	26937
284.922	34016
284.981	43748
285.039	63278
285.098	97897
285.156	175000
285.215	261809
285.273	263847
285.332	185263
285.390	114683
285.449	72988
285.507	51618
285.566	38093
285.624	31742
285.683	24470
285.741	20456
285.799	17864
285.858	15186
285.916	13675
285.975	11957
286.033	9986
286.091	9507
286.150	8865
286.208	8816
286.267	7536
286.325	8653
286.383	8508
286.442	7838
286.500	6522
286.558	6542
286.616	7206
286.675	7218
286.733	6984
286.791	5775
286.850	6645
286.908	6474
286.966	7395
287.024	5941
287.083	4939
287.141	5272
287.199	5884
287.257	5661
287.315	5795
287.374	5368
287.432	7913
287.490	7578
287.548	5716
287.606	5770
287.664	4931
287.723	5320
287.781	6410
287.839	6260
287.897	6723
287.955	8348
288.013	10937
288.071	19313
288.129	65606
288.187	186504
288.245	80099
288.303	27130
288.361	15854
288.419	11281
288.477	8536
288.535	8340
288.593	5822
288.651	7004
288.709	5039
288.767	4931
288.825	4285
288.883	5173
288.941	4392
288.999	3814
289.057	4757
289.115	4267
289.173	3350
289.231	4114
289.289	3730
289.346	3690
289.404	4029
289.462	5275
289.520	4373
289.578	4652
289.636	4473
289.694	3634
289.751	4241
289.809	4366
289.867	4108
289.925	5234
289.983	4054
290.040	4567
290.098	3852
290.156	4016
290.214	3098
290.271	3679
290.329	4385
290.387	4079
290.444	3393
290.502	4171
290.560	3746
290.617	3940
290.675	3654
290.733	2809
290.790	3038
290.848	4677
290.906	3575
290.963	3663
291.021	3248
291.078	3169
291.136	3575
291.194	6377
291.251	9473
291.309	4543
291.366	4295
291.424	4098
291.481	3232
291.539	4401
291.596	4824
291.654	3903
291.711	3847
291.769	4220
291.826	4606
291.884	3689
291.941	2648
291.999	2845
292.056	3361
292.114	4027
292.171	2705
292.228	5305
292.286	4702
292.343	4190
292.401	4825
292.458	3851
292.515	3617
292.573	4816
292.630	3245
292.687	3607
292.745	4394
292.802	4854
292.859	8203
292.917	12177
292.974	7717
293.031	4328
293.089	3982
293.146	3478
293.203	3465
293.260	3891
293.318	3675
293.375	4243
293.432	3601
293.489	4666
293.546	3546
293.604	4887
293.661	12365
293.718	24783
293.775	12122
293.832	7957
293.889	8219
293.947	7240
294.004	5399
294.061	4565
294.118	5925
294.175	11773
294.232	14478
294.289	8483
294.346	5780
294.403	6455
294.460	4702
294.517	4443
294.574	4396
294.631	4504
294.688	5203
294.745	7945
294.802	21540
294.859	21100
294.916	8670
294.973	5187
295.030	4730
295.087	4082
295.144	3985
295.201	4584
295.258	3143
295.315	5130
295.372	9428
295.429	16298
295.486	7658
295.542	5956
295.599	9524
295.656	14147
295.713	10490
295.770	14517
295.827	6896
295.883	4776
295.940	4937
295.997	5743
296.054	4759
296.111	4703
296.167	4254
296.224	3831
296.281	2991
296.338	3928
296.394	3169
296.451	4006
296.508	7384
296.564	12095
296.621	8011
296.678	19643
296.734	26935
296.791	10958
296.848	6549
296.904	6673
296.961	9325
297.018	15529
297.074	11572
297.131	7066
297.187	4925
297.244	7511
297.301	18756
297.357	31180
297.414	12966
297.470	6852
297.527	4981
297.583	4658
297.640	4145
297.696	4563
297.753	3653
297.809	4110
297.866	3648
297.922	3751
297.979	3375
298.035	3899
298.092	4233
298.148	9710
298.204	10806
298.261	5740
298.317	9828
298.374	23427
298.430	13697
298.486	7381
298.543	4895
298.599	5323
298.656	5172
298.712	7944
298.768	15488
298.824	12398
298.881	6232
298.937	5142
298.993	4022
299.050	4927
299.106	5102
299.162	5216
299.218	4332
299.275	4611
299.331	5435
299.387	8801
299.443	24752
299.500	42827
299.556	28817
299.612	13049
299.668	11334
299.724	29139
299.780	32749
299.837	14770
299.893	11844
299.949	28625
300.005	38940
300.061	31478
300.117	49909
300.173	23900
300.229	11387
300.285	9723
300.341	8657
300.397	7682
300.453	6242
300.510	6653
300.566	8956
300.622	14851
300.678	45918
300.734	59504
300.790	30119
300.845	27799
300.901	29506
300.957	40546
301.013	21001
301.069	10094
301.125	7382
301.181	6700
301.237	5223
301.293	5264
301.349	4733
301.405	4544
301.461	4510
301.516	5408
301.572	4208
301.628	5983
301.684	5142
301.740	6900
301.796	9785
301.851	7987
301.907	9842
301.963	11768
302.019	20227
302.074	56349
302.130	55141
302.186	25491
302.242	11281
302.297	8916
302.353	6899
302.409	11095
302.464	9720
302.520	7416
302.576	16380
302.631	19687
302.687	11231
302.743	6583
302.798	5201
302.854	5083
302.910	5275
302.965	5196
303.021	6247
303.076	5367
303.132	6163
303.187	6747
303.243	5339
303.299	4131
303.354	3840
303.410	4494
303.465	4223
303.521	4089
303.576	3813
303.632	4218
303.687	7329
303.743	18183
303.798	16236
303.853	7905
303.909	4298
303.964	4937
304.020	5041
304.075	5502
304.130	5553
304.186	7559
304.241	8771
304.297	7186
304.352	5140
304.358	5125
304.407	4999
304.449	4051
304.463	3735
304.518	4590
304.539	4476
304.573	4283
304.629	5037
304.630	5056
304.684	6257
304.720	11564
304.739	14056
304.794	20887
304.811	18561
304.850	13006
304.902	6657
304.905	6257
304.960	4960
304.992	5141
305.015	5258
305.071	5144
305.083	4935
305.126	4156
305.173	3936
305.181	3919
305.236	4262
305.264	4367
305.292	4398
305.347	4219
305.354	4351
305.402	5477
305.445	5264
305.457	5120
305.512	6092
305.535	5958
305.567	5991
305.622	5552
305.626	5688
305.678	9716
305.716	16825
305.733	18785
305.788	19186
305.807	16848
305.843	14465
305.897	20936
305.898	20974
305.953	19908
305.988	13315
306.008	10224
306.063	7205
306.078	6632
306.118	5561
306.168	4189
306.173	4061
306.228	3911
306.259	4176
306.283	4526
306.338	4467
306.349	4572
306.393	4924
306.440	5724
306.448	5857
306.503	6403
306.530	5889
306.558	6224
306.613	9897
306.620	10353
306.668	13098
306.711	17233
306.723	17393
306.778	12274
306.801	9876
306.833	8184
306.888	5693
306.892	5643
306.943	5322
306.982	4650
306.997	4503
307.052	4698
307.072	4798
307.107	5180
307.162	5771
307.163	5779
307.217	7661
307.253	8773
307.272	8866
307.327	8699
307.343	8509
307.381	8512
307.434	8090
307.436	8230
307.491	12681
307.524	16104
307.546	16075
307.600	15427
307.614	13943
307.655	10174
307.704	8068
307.710	8194
307.765	9470
307.795	11200
307.819	12585
307.874	16377
307.885	16784
307.929	16684
307.975	16689
307.984	17861
308.038	26232
308.065	31583
308.093	58242
308.148	120580
308.156	133511
308.202	183403
308.246	213120
308.257	203803
308.312	105535
308.336	65252
308.366	47312
308.421	27707
308.426	26179
308.475	19777
308.517	16455
308.530	15942
308.585	14506
308.607	14027
308.639	14373
308.694	16179
308.697	16276
308.748	22376
308.787	27588
308.803	27045
308.857	22854
308.877	21263
308.912	22464
308.967	25890
308.967	25915
309.021	37635
309.058	46113
309.076	57228
309.130	94532
309.148	107654
309.185	190824
309.238	328994
309.239	329755
309.293	329039
309.328	296871
309.348	257783
309.402	134379
309.418	102084
309.457	77894
309.508	53779
309.511	53669
309.566	55794
309.598	58854
309.620	70363
309.674	103519
309.688	111899
309.729	104106
309.778	86871
309.783	84937
309.837	58704
309.868	44597
309.892	42733
309.946	39607
309.959	39436
310.001	38887
310.049	37211
310.055	36126
310.109	24991
310.139	18738
310.163	16836
310.218	13890
310.229	13255
310.272	12175
310.319	11290
310.326	11127
310.381	9782
310.409	9281
310.435	9211
310.489	8757
310.499	8712
310.543	8903
310.589	8819
310.598	8788
310.652	8890
310.679	8686
310.706	8187
310.760	7462
310.769	7308
310.814	7434
310.859	7824
310.868	7816
310.923	7272
310.948	7131
310.977	7556
311.031	8128
311.038	8228
311.085	7958
311.128	7358
311.139	7309
311.193	7370
311.218	7199
311.247	7050
311.301	7042
311.308	7006
311.356	6828
311.398	6742
311.410	6663
311.464	6148
311.488	5909
311.518	6369
311.572	7168
311.578	7250
311.626	7565
311.668	7771
311.680	7935
311.734	8621
311.758	8883
311.788	8681
311.842	8265
311.847	8204
311.896	9580
311.937	10770
311.950	10449
312.004	8890
312.027	8180
312.058	7865
312.112	7308
312.117	7236
312.165	7386
312.207	7490
312.297	8769
312.386	7058
312.476	8177
312.566	10076
312.656	8601
312.745	7786
312.835	9144
312.925	7880
313.015	9496
313.104	9411
313.194	9813
313.284	8872
313.374	9553
313.463	9522
313.553	10824
313.643	9771
313.732	10203
313.822	10743
313.912	12108
314.001	12878
314.091	13830
314.180	13335
314.270	14514
314.360	13406
314.449	12863
314.539	11139
314.628	12607
314.718	12543
314.808	15246
314.897	13899
314.987	16030
315.076	16141
315.166	17203
315.255	16472
315.345	16470
315.434	16785
315.524	17862
315.613	22470
315.703	38367
315.792	133867
315.881	475781
315.971	130261
316.060	35723
316.150	25549
316.239	22846
316.328	16138
316.418	15740
316.507	16499
316.597	19411
316.686	17782
316.775	21431
316.865	22800
316.954	15817
317.043	13357
317.133	13764
317.222	13470
317.311	13739
317.400	13128
317.490	19196
317.579	21956
317.668	31670
317.757	60859
317.847	241803
317.936	693924
318.025	192656
318.114	176290
318.203	66381
318.293	26665
318.382	31743
318.471	29257
318.560	32583
318.649	41018
318.738	15560
318.828	12713
318.917	11923
319.006	12096
319.095	25328
319.184	46695
319.273	23100
319.362	13824
319.451	11012
319.540	10263
319.629	14808
319.718	16197
319.807	13369
319.896	22710
319.985	57965
320.074	18927
320.163	12063
320.252	14985
320.341	14217
320.430	12078
320.519	15288
320.608	13277
320.697	15455
320.786	15710
320.875	19297
320.964	20502
321.053	24359
321.142	28334
321.230	30606
321.319	30332
321.408	40713
321.497	30449
321.586	27464
321.675	28101
321.764	27262
321.852	23712
321.941	28504
322.030	24934
322.119	29645
322.207	41180
322.296	40792
322.385	35855
322.474	41367
322.562	53406
322.651	34405
322.740	28754
322.829	30108
322.917	28897
323.006	22461
323.095	20021
323.183	20208
323.272	22025
323.361	30781
323.449	64175
323.538	25346
323.626	46258
323.715	26395
323.804	18394
323.892	39751
323.981	19946
324.069	14417
324.158	26732
324.246	21168
324.335	11874
324.424	14237
324.512	9816
324.601	10554
324.689	11859
324.778	14416
324.866	16234
324.954	10249
325.043	10353
325.131	12835
325.220	18320
325.308	18636
325.397	15923
325.485	12193
325.574	8771
325.662	8562
325.750	8936
325.839	9533
325.927	8351
326.015	10105
326.104	12563
326.192	13860
326.280	8973
326.369	8821
326.457	9934
326.545	12498
326.634	9756
326.722	8164
326.810	9086
326.898	11008
326.987	11105
327.075	13793
327.163	14411
327.251	12821
327.340	12436
327.428	14379
327.516	15819
327.604	13415
327.692	11171
327.781	10848
327.869	13039
327.957	10847
328.045	8844
328.133	9171
328.221	8464
328.309	9356
328.397	9462
328.485	10885
328.574	16529
328.662	27766
328.750	18320
328.838	11730
328.926	9169
329.014	8779
329.102	9211
329.190	14250
329.278	9981
329.366	7966
329.454	6690
329.542	7021
329.630	7076
329.718	8107
329.806	6980
329.893	9180
329.981	6870
330.069	7192
330.157	8099
330.245	9722
330.333	8339
330.421	7897
330.509	10133
330.597	20946
330.684	14151
330.772	9719
330.860	10301
330.948	12941
331.036	8409
331.123	8239
331.211	8386
331.299	8925
331.387	13602
331.475	14368
331.562	9742
331.650	8225
331.738	8555
331.825	10190
331.913	8301
332.001	7876
332.089	9273
332.176	12876
332.264	22351
332.352	16428
332.439	10003
332.527	9315
332.614	9220
332.702	10708
332.790	9429
332.877	17050
332.965	29094
333.052	19148
333.140	24313
333.228	48706
333.315	17925
333.403	13920
333.490	20275
333.578	29681
333.665	70097
333.753	32408
333.840	15858
333.928	17427
334.015	24805
334.103	37463
334.190	73245
334.278	39679
334.365	44607
334.452	42294
334.540	31634
334.627	33155
334.715	41278
334.802	62866
334.889	141148
334.977	140103
335.064	62947
335.151	36980
335.239	27883
335.326	27589
335.413	49479
335.501	50172
335.588	27115
335.675	30185
335.762	36661
335.850	49870
335.937	67143
336.024	110293
336.111	190362
336.199	126942
336.286	59300
336.373	36665
336.460	25557
336.547	21600
336.635	18798
336.722	16624
336.809	15647
336.896	16481
336.983	25991
337.070	47754
337.157	61608
337.245	53098
337.332	34065
337.419	14911
337.506	13426
337.593	13494
337.680	22265
337.767	35657
337.854	16342
337.941	17128
338.028	19936
338.115	12735
338.202	13817
338.289	21497
338.376	44063
338.463	18344
338.550	27345
338.637	23715
338.724	15315
338.811	18637
338.898	10227
338.984	10131
339.071	9699
339.158	13589
339.245	15847
339.332	12421
339.419	14202
339.506	12715
339.593	8130
339.679	9903
339.766	9216
339.853	10455
339.940	11867
340.027	9247
340.113	9325
340.200	9973
340.287	8404
340.374	9633
340.460	10980
340.547	8142
340.634	10763
340.720	22122
340.807	13416
340.894	9070
340.980	8468
341.067	8496
341.154	9774
341.240	10440
341.327	13147
341.414	9262
341.500	8307
341.587	9031
341.674	8721
341.760	11695
341.847	11522
341.933	8337
342.020	7210
342.106	8454
342.193	8173
342.279	10102
342.366	9435
342.452	10638
342.539	9466
342.625	13222
342.712	20296
342.798	12501
342.885	8002
342.971	7888
343.058	7384
343.144	8014
343.230	7575
343.317	8590
343.403	7835
343.490	8350
343.576	7797
343.662	8462
343.749	9363
343.835	14340
343.921	14947
344.008	68932
344.094	111210
344.180	23384
344.267	12273
344.353	29963
344.439	25588
344.525	13833
344.612	12556
344.698	13035
344.784	9060
344.870	8470
344.957	7357
345.043	10238
345.129	7871
345.215	10270
345.301	8079
345.387	7619
345.474	8381
345.560	9129
345.646	8641
345.732	8367
345.818	7487
345.904	8593
345.990	8540
346.076	8909
346.162	10151
346.249	9131
346.335	8676
346.421	11024
346.507	20105
346.593	40401
346.679	12451
346.765	13200
346.851	15822
346.937	13766
347.023	10499
347.108	11167
347.194	8377
347.280	9660
347.366	14305
347.452	40688
347.538	72944
347.624	40720
347.710	25764
347.796	11900
347.882	9725
347.967	10396
348.053	9806
348.139	10651
348.225	9047
348.311	9273
348.397	8744
348.482	10827
348.568	11151
348.654	16971
348.740	42425
348.825	43637
348.911	21803
348.997	36251
349.083	46147
349.168	13495
349.254	9484
349.340	10201
349.425	8246
349.511	10339
349.597	11222
349.682	14622
349.768	26805
349.854	14688
349.939	9398
350.025	9850
350.110	9205
350.196	8301
350.282	7019
350.367	9852
350.453	10712
350.538	11237
350.624	9232
350.709	9806
350.795	8162
350.880	9294
350.966	10310
351.051	10366
351.137	9601
351.222	9272
351.308	14027
351.393	21039
351.479	9639
351.564	9186
351.649	8968
351.735	8898
351.820	8644
351.906	9271
351.991	10595
352.076	18967
352.162	19955
352.247	10135
352.332	8643
352.418	10358
352.503	12548
352.588	28386
352.673	19409
352.759	11032
352.844	8550
352.929	9694
353.014	9363
353.100	9122
353.185	9223
353.270	12358
353.355	11781
353.441	10191
353.526	9473
353.611	12659
353.696	11300
353.781	11489
353.866	7899
353.952	9669
354.037	12170
354.122	17424
354.207	15668
354.292	10727
354.377	9481
354.462	10103
354.547	9191
354.632	10284
354.717	11548
354.802	11425
354.887	8659
354.972	9824
355.057	8753
355.142	8773
355.227	10205
355.312	10624
355.397	13927
355.482	23254
355.567	14625
355.652	15034
355.737	15938
355.822	33765
355.907	22291
355.991	11631
356.076	8729
356.161	10525
356.246	9631
356.331	10663
356.416	16718
356.501	66093
356.585	54837
356.670	13996
356.755	13525
356.840	16070
356.924	49722
357.009	133756
357.094	43619
357.179	15379
357.263	14720
357.348	13791
357.433	12073
357.517	13311
357.602	13208
357.687	12846
357.771	16265
357.856	30309
357.941	21704
358.025	49182
358.110	154686
358.195	62456
358.279	15427
358.364	14720
358.448	27284
358.533	50268
358.617	35940
358.702	36515
358.787	17358
358.871	14785
358.956	12547
359.040	11627
359.125	9946
359.209	12168
359.294	21498
359.378	31365
359.462	18579
359.547	11931
359.631	10046
359.716	9109
359.800	9540
359.885	11829
359.969	9481
360.053	11492
360.138	12329
360.222	11478
360.306	12422
360.391	13319
360.475	19510
360.559	28143
360.644	23788
360.728	19159
360.812	43638
360.896	85045
360.981	31223
361.065	17525
361.149	12859
361.233	13661
361.318	11783
361.402	12965
361.486	14175
361.570	13028
361.654	14749
361.739	22295
361.823	69770
361.907	88636
361.991	26334
362.075	26815
362.159	38658
362.243	63218
362.327	124162
362.411	149641
362.495	62617
362.580	38355
362.664	37143
362.748	45347
362.832	69652
362.916	140101
363.000	311128
363.084	387522
363.168	205596
363.252	65904
363.336	37362
363.420	36379
363.503	60758
363.587	56400
363.671	25950
363.755	27063
363.839	31043
363.923	32021
364.007	42762
364.091	59852
364.175	98651
364.258	220885
364.342	387709
364.426	537145
364.510	275884
364.594	98244
364.677	63349
364.761	101298
364.845	62785
364.929	28452
365.013	21763
365.096	22348
365.180	20582
365.264	33969
365.347	71340
365.431	31588
365.515	15051
365.598	13169
365.682	13829
365.766	15449
365.849	15275
365.933	13539
366.017	15562
366.100	13559
366.184	11851
366.267	13750
366.351	13213
366.435	12429
366.518	11084
366.602	12268
366.685	11329
366.769	12467
366.852	14021
366.936	16745
367.019	13074
367.103	13772
367.186	16876
367.270	12374
367.353	11826
367.436	14221
367.520	13401
367.603	14986
367.687	14684
367.770	17158
367.853	15873
367.937	29214
368.020	31766
368.104	14500
368.187	14518
368.270	15626
368.353	13746
368.437	19713
368.520	30258
368.603	21425
368.687	25883
368.770	37192
368.853	15005
368.936	15907
369.020	14265
369.103	10932
369.186	9470
369.269	10349
369.352	13787
369.436	14004
369.519	11239
369.602	9127
369.685	12349
369.768	11094
369.851	11648
369.934	9257
370.018	10774
370.101	13646
370.184	13974
370.267	14157
370.350	16232
370.433	27121
370.516	91238
370.599	219266
370.682	100266
370.765	33928
370.848	34935
370.931	50251
371.014	23457
371.097	11670
371.180	11635
371.263	11358
371.346	9924
371.429	12034
371.511	10103
371.594	13141
371.677	16263
371.760	18134
371.843	19522
371.926	70834
372.009	121485
372.091	40707
372.174	31752
372.257	53883
372.340	26995
372.423	22302
372.505	22247
372.588	16404
372.671	24335
372.754	48773
372.836	27911
372.919	28817
373.002	36752
373.085	18547
373.167	18646
373.250	30785
373.332	52601
373.415	94897
373.498	166293
373.580	106665
373.663	331157
373.746	312827
373.828	57745
373.911	25305
373.993	22678
374.076	43322
374.159	35024
374.241	25418
374.324	42666
374.406	33597
374.489	61473
374.571	121094
374.654	47613
374.736	37042
374.819	83823
374.901	122350
374.983	113361
375.066	28801
375.148	21676
375.231	44745
375.313	57390
375.395	26308
375.478	17666
375.560	18546
375.643	18888
375.725	39780
375.807	104901
375.890	73529
375.972	31147
376.054	23616
376.136	28132
376.219	20003
376.301	39773
376.383	77736
376.465	32126
376.548	21163
376.630	30313
376.712	62709
376.794	29331
376.877	13112
376.959	10014
377.041	12516
377.123	14745
377.205	14930
377.287	9881
377.369	11924
377.452	10796
377.534	11892
377.616	10915
377.698	11277
377.780	10179
377.862	11465
377.944	11563
378.026	10824
378.108	11273
378.190	11352
378.272	11233
378.354	11416
378.436	10203
378.518	12813
378.600	19010
378.682	19275
378.764	29715
378.846	24353
378.928	13431
379.010	13806
379.091	13387
379.173	12581
379.255	10384
379.337	13069
379.419	21931
379.501	40171
379.583	20165
379.664	13272
379.746	17014
379.828	30311
379.910	35416
379.991	31599
380.073	13215
380.155	13857
380.237	11373
380.318	11380
380.400	12032
380.482	16438
380.564	16390
380.645	15815
380.727	16228
380.809	14905
380.890	12374
380.972	12192
381.053	13854
381.135	14700
381.217	19258
381.298	32217
381.380	20952
381.461	25777
381.543	72269
381.624	75544
381.706	22904
381.787	19257
381.869	21788
381.951	51929
382.032	130538
382.113	76917
382.195	25727
382.276	26641
382.358	39804
382.439	71259
382.521	91502
382.602	128785
382.684	81793
382.765	137796
382.846	275313
382.928	473636
383.009	277146
383.090	277709
383.172	717594
383.253	818543
383.334	287124
383.416	165274
383.497	112597
383.578	123538
383.659	247624
383.741	688621
383.822	1133977
383.903	585525
383.984	186120
384.066	144897
384.147	87981
384.228	47638
384.309	40965
384.390	38057
384.471	33710
384.553	31410
384.634	31398
384.715	31563
384.796	26952
384.877	31440
384.958	45198
385.039	44717
385.120	28933
385.201	26144
385.282	25980
385.363	30340
385.444	33632
385.525	41200
385.606	64969
385.687	54255
385.768	30237
385.849	33654
385.930	80344
386.011	107948
386.092	41854
386.173	28446
386.254	23600
386.335	25705
386.416	25591
386.496	32495
386.577	38210
386.658	27222
386.739	23961
386.820	26209
386.901	24735
386.981	28842
387.062	30895
387.143	36597
387.224	48412
387.304	45418
387.385	35655
387.466	33217
387.547	36395
387.627	34875
387.708	43541
387.789	72815
387.869	74142
387.950	39808
388.031	28930
388.111	28611
388.192	34761
388.273	40901
388.353	32293
388.434	22967
388.514	30256
388.595	69353
388.676	67475
388.756	35423
388.837	32118
388.917	25582
388.998	17632
389.078	20951
389.159	18862
389.239	16707
389.320	19913
389.400	17074
389.480	24790
389.561	38300
389.641	25037
389.722	19077
389.802	20513
389.883	28053
389.963	44225
390.043	30715
390.124	19974
390.204	24288
390.284	35765
390.365	30376
390.445	48598
390.525	114011
390.605	94093
390.686	30413
390.766	21693
390.846	21305
390.927	18262
391.007	19497
391.087	22702
391.167	21838
391.247	20931
391.328	26223
391.408	26087
391.488	26481
391.568	23223
391.648	26616
391.728	27948
391.808	30776
391.888	31311
391.969	42477
392.049	47428
392.129	43022
392.209	48688
392.289	66916
392.369	58409
392.449	59445
392.529	60282
392.609	68172
392.689	81595
392.769	113256
392.849	127921
392.929	161434
393.009	233628
393.089	335655
393.169	596411
393.248	1225641
393.328	1838418
393.408	1778562
393.488	1074359
393.568	504801
393.648	278359
393.728	180153
393.807	128048
393.887	98287
393.967	81387
394.047	71828
394.127	63323
394.206	72289
394.286	163374
394.366	470743
394.446	445744
394.525	122632
394.605	52993
394.685	46063
394.764	55766
394.844	83096
394.924	79891
395.003	42920
395.083	32631
395.163	31720
395.242	30801
395.322	31557
395.402	29098
395.481	36616
395.561	51921
395.640	113952
395.720	166522
395.799	117728
395.879	74138
395.958	78996
396.038	213134
396.117	609568
396.197	599149
396.276	200602
396.356	107600
396.435	113087
396.515	144250
396.594	221219
396.673	459058
396.753	1119441
396.832	1714791
396.912	1378472
396.991	552121
397.070	240450
397.150	139836
397.229	112479
397.308	162582
397.388	230974
397.467	119464
397.546	56267
397.625	39566
397.705	38776
397.784	32302
397.863	29154
397.942	25893
398.022	26760
398.101	33980
398.180	49980
398.259	32068
398.338	22461
398.417	18543
398.497	18520
398.576	18150
398.655	16867
398.734	16113
398.813	17213
398.892	27281
398.971	48378
399.050	26868
399.129	14712
399.208	13407
399.287	14645
399.366	12402
399.445	13118
399.524	11957
399.603	11104
399.682	14925
399.761	25154
399.840	51474
399.919	37749
399.998	13972
400.077	11017
400.156	9665
400.235	13574
400.313	11145
400.392	11428
400.471	20695
400.550	24293
400.629	12232
400.708	11869
400.786	10917
400.865	15331
400.944	12423
401.023	12953
401.102	8470
401.180	9857
401.259	9006
401.338	9748
401.416	10275
401.495	9347
401.574	10412
401.652	9218
401.731	9978
401.810	8807
401.888	8294
401.967	8112
402.046	8826
402.124	9699
402.203	8717
402.281	8656
402.360	10276
402.438	15672
402.517	11270
402.596	8825
402.674	8132
402.753	8698
402.831	8419
402.910	9806
402.988	14255
403.066	24530
403.145	16528
403.223	16637
403.302	21168
403.380	18255
403.459	17947
403.537	13451
403.615	10768
403.694	8728
403.772	11227
403.850	10189
403.929	8843
404.007	9378
404.085	11861
404.164	10901
404.242	11732
404.320	27511
404.398	52096
404.477	50286
404.555	89300
404.633	75428
404.711	38019
404.789	21799
404.868	10252
404.946	8278
405.024	8428
405.102	8619
405.180	7152
405.258	7535
405.336	7895
405.415	7109
405.493	9096
405.571	9943
405.649	8485
405.727	8867
405.805	11032
405.883	11514
405.961	10636
406.039	9366
406.117	7167
406.195	10860
406.273	23809
406.351	60828
406.429	34199
406.507	10781
406.585	6826
406.663	8157
406.740	8759
406.818	8139
406.896	6618
406.974	8931
407.052	11074
407.130	38701
407.208	43885
407.285	15090
407.363	7182
407.441	8949
407.519	9203
407.596	10977
407.674	34593
407.752	100590
407.830	69895
407.907	17048
407.985	7871
408.063	8941
408.141	7587
408.218	9792
408.296	7816
408.373	8862
408.451	9990
408.529	10385
408.606	8727
408.684	10042
408.762	9463
408.839	11149
408.917	11296
408.994	12512
409.072	14217
409.149	18632
409.227	28531
409.304	38557
409.382	42580
409.459	49431
409.537	60086
409.614	56071
409.692	47017
409.769	46246
409.846	62987
409.924	72199
410.001	56273
410.079	42765
410.156	33126
410.233	26811
410.311	21473
410.388	19318
410.465	19016
410.543	16886
410.620	15334
410.697	15733
410.775	14594
410.852	14484
410.929	16669
411.006	16816
411.083	14428
411.161	16100
411.238	15791
411.315	13397
411.392	11268
411.469	12752
411.547	10744
411.624	9060
411.701	8857
411.778	10952
411.855	10915
411.932	9298
412.009	7968
412.086	9462
412.163	8933
412.240	8573
412.317	8852
412.394	8657
412.471	7614
412.548	7734
412.625	7458
412.702	8760
412.779	9630
412.856	8933
412.933	6639
413.010	7345
413.087	8608
413.164	16359
413.241	16573
413.318	9020
413.395	7899
413.471	9358
413.548	6789
413.625	7569
413.702	5746
413.779	6687
413.855	5593
413.932	6545
414.009	5022
414.086	6396
414.162	6203
414.239	8374
414.316	16043
414.393	24416
414.469	10632
414.546	6367
414.623	5949
414.699	5869
414.776	5311
414.853	6684
414.929	6648
415.006	7144
415.082	6342
415.159	6389
415.236	5721
415.312	6832
415.389	7288
415.465	7406
415.542	5620
415.618	5745
415.695	6805
415.771	6193
415.848	5584
415.924	6336
416.000	5865
416.077	7171
416.153	5146
416.230	5446
416.306	5369
416.383	6179
416.459	5324
416.535	6185
416.612	6087
416.688	7101
416.764	6372
416.841	6949
416.917	5833
416.993	6750
417.069	6279
417.146	7303
417.222	8094
417.298	6489
417.374	5261
417.451	7029
417.527	5591
417.603	6301
417.679	5712
417.755	5695
417.831	4104
417.908	6409
417.984	5540
418.060	5757
418.136	7230
418.212	8036
418.288	5828
418.364	6113
418.440	5419
418.516	7718
418.592	7300
418.668	9434
418.744	9930
418.820	8708
418.896	6150
418.972	5656
419.048	6526
419.124	9089
419.200	7380
419.276	7214
419.352	5775
419.428	7184
419.504	6799
419.579	8741
419.655	7645
419.731	8311
419.807	10569
419.883	14102
419.959	11517
420.034	10821
420.110	11981
420.186	20738
420.262	16331
420.337	10385
420.413	10850
420.489	11752
420.565	10806
420.640	11642
420.716	12154
420.792	12109
420.867	14222
420.943	13818
421.019	14864
421.094	16590
421.170	16159
421.245	17374
421.321	20011
421.397	23384
421.472	40250
421.548	73047
421.623	51048
421.699	33404
421.774	35013
421.850	39921
421.925	47850
422.001	56466
422.076	67880
422.152	85729
422.227	113435
422.302	158478
422.378	233738
422.453	370613
422.529	563180
422.604	712742
422.679	718071
422.755	716856
422.830	550751
422.905	344266
422.981	224177
423.056	158181
423.131	115194
423.207	90092
423.282	72684
423.357	62124
423.432	50508
423.508	45377
423.583	40578
423.658	36415
423.733	30857
423.808	29555
423.883	30185
423.959	33718
424.034	35333
424.109	33928
424.184	24586
424.259	21330
424.334	17718
424.409	15672
424.484	13605
424.559	14101
424.634	12687
424.709	12472
424.784	12480
424.859	12225
424.934	12245
425.009	18074
425.084	21616
425.159	12265
425.234	9828
425.309	10215
425.384	14122
425.459	15529
425.534	9996
425.609	8989
425.683	8252
425.758	8497
425.833	8264
425.908	8951
425.983	11900
426.058	20746
426.132	11613
426.207	7883
426.282	9465
426.357	8409
426.431	6223
426.506	7384
426.581	6441
426.655	6978
426.730	6569
426.805	6654
426.879	7276
426.954	7461
427.029	8669
427.103	24473
427.178	46065
427.253	21725
427.327	7553
427.402	9983
427.476	13575
427.551	9261
427.625	7449
427.700	7770
427.774	6762
427.849	8181
427.923	8235
427.998	9600
428.072	11744
428.147	29933
428.221	128144
428.296	294357
428.370	148813
428.444	25875
428.519	14304
428.593	16070
428.667	14521
428.742	20727
428.816	55060
428.890	201768
428.965	255772
429.039	66286
429.113	19298
429.188	10492
429.262	8324
429.336	9809
429.410	13195
429.485	12354
429.559	13291
429.633	13906
429.707	15223
429.781	49246
429.855	195462
429.930	231245
430.004	76748
430.078	70583
430.152	161869
430.226	414069
430.300	352498
430.374	82009
430.448	28488
430.522	30287
430.596	48683
430.670	84126
430.744	252226
430.818	236888
430.892	45814
430.966	13011
431.040	8339
431.114	7898
431.188	5404
431.262	6391
431.336	6345
431.410	9947
431.484	11894
431.557	10948
431.631	10030
431.705	22895
431.779	103544
431.853	283309
431.927	170727
432.000	28358
432.074	9675
432.148	7781
432.222	6244
432.295	5602
432.369	3443
432.443	7013
432.516	24036
432.590	44623
432.664	15367
432.737	4764
432.811	2593
432.885	3428
432.958	3213
433.032	3013
433.106	2365
433.179	3939
433.253	2863
433.326	3405
433.400	3446
433.473	4343
433.547	2398
433.620	4286
433.694	4654
433.767	4754
433.841	2810
433.914	4775
433.988	4168
434.061	3961
434.134	3832
434.208	4188
434.281	3114
434.355	3964
434.428	3548
434.501	4073
434.575	3167
434.648	3496
434.721	3643
434.795	4010
434.868	3900
434.941	4798
435.014	4467
435.088	6042
435.161	7639
435.234	10868
435.307	11797
435.381	13394
435.454	17468
435.527	28169
435.600	30780
435.673	26299
435.746	19931
435.819	16834
435.892	13089
435.966	11054
436.039	8166
436.112	7771
436.185	5851
436.258	6238
436.331	4684
436.404	5435
436.477	4628
436.550	3965
436.623	4185
436.696	4190
436.769	3537
436.842	4317
436.915	3513
436.987	4595
437.060	3320
437.133	4262
437.206	2584
437.279	3465
437.352	2608
437.425	3408
437.498	2992
437.570	5177
437.643	3550
437.716	2940
437.789	1661
437.861	4394
437.934	4863
438.007	3616
438.080	2488
438.152	3193
438.225	7166
438.298	36054
438.370	68994
438.443	23930
438.516	5381
438.588	3720
438.661	2221
438.734	3461
438.806	3057
438.879	4031
438.951	3022
439.024	4052
439.096	2803
439.169	2709
439.241	2176
439.314	3480
439.386	2914
439.459	4934
439.531	4263
439.604	4127
439.676	2544
439.749	2926
439.821	2490
439.893	3506
439.966	3255
440.038	3236
440.110	3229
440.183	3526
440.255	2171
440.327	5440
440.400	13577
440.472	37532
440.544	20223
440.617	5559
440.689	4780
440.761	5085
440.833	4608
440.905	4785
440.978	2409
441.050	3050
441.122	3457
441.194	3167
441.266	3176
441.338	3953
441.411	5453
441.483	13064
441.555	13629
441.627	6476
441.699	5439
441.771	5539
441.843	4069
441.915	5341
441.987	4473
442.059	6691
442.131	7513
442.203	10576
442.275	13766
442.347	24280
442.419	64693
442.491	245557
442.563	396312
442.635	150092
442.706	38902
442.778	20908
442.850	13280
442.922	11758
442.994	12596
443.066	14142
443.137	16678
443.209	24015
443.281	39459
443.353	92286
443.425	289595
443.496	645110
443.568	600912
443.640	240698
443.711	62068
443.783	28995
443.855	18467
443.926	14155
443.998	10829
444.070	10849
444.141	8916
444.213	9365
444.285	8721
444.356	9916
444.428	8352
444.499	8034
444.571	7448
444.642	7824
444.714	9190
444.785	10297
444.857	11849
444.928	15392
445.000	15692
445.071	20769
445.143	26982
445.214	39963
445.285	71010
445.357	178335
445.428	481857
445.500	727057
445.571	574972
445.642	349022
445.714	119283
445.785	46166
445.856	23508
445.928	16980
445.999	12331
446.070	10977
446.141	8922
446.213	8882
446.284	5904
446.355	6435
446.426	4855
446.497	5730
446.569	5165
446.640	5452
446.711	4508
446.782	3957
446.853	4585
446.924	4167
446.995	3524
447.066	4319
447.138	4001
447.209	3183
447.280	2080
447.351	2630
447.422	2000
447.493	3519
447.564	2807
447.635	3523
447.706	1650
447.777	2579
447.847	1465
447.918	1899
447.989	2589
448.060	4062
448.131	5344
448.202	4291
448.273	2738
448.344	2592
448.414	2139
448.485	1997
448.556	1405
448.627	1780
448.698	1558
448.768	2221
448.839	1631
448.910	3135
448.981	1415
449.051	2073
449.122	1241
449.193	1749
449.263	2155
449.334	1588
449.405	2484
449.475	3077
449.546	2834
449.616	4819
449.687	3355
449.758	2514
449.828	1468
449.899	1624
449.969	2138
450.040	1989
450.110	2139
450.181	2455
450.251	1269
450.322	1772
450.392	1577
450.463	1961
450.533	2510
450.604	2414
450.674	2240
450.744	3320
450.815	3336
450.885	4327
450.955	4441
451.026	4280
451.096	3898
451.166	4663
451.237	6408
451.307	9216
451.377	4643
451.447	3435
451.518	2436
451.588	2641
451.658	2305
451.728	3137
451.799	6684
451.869	6273
451.939	2696
452.009	2900
452.079	1946
452.149	2793
452.219	3815
452.289	8904
452.360	6330
452.430	4977
452.500	6145
452.570	11402
452.640	24891
452.710	57126
452.780	57182
452.850	31592
452.920	16770
452.990	9725
453.060	5824
453.129	4898
453.199	5828
453.269	14989
453.339	18809
453.409	22676
453.479	26005
453.549	33222
453.619	30451
453.688	9801
453.758	2831
453.828	3054
453.898	1867
453.968	2160
454.037	2267
454.087	1927
454.107	1761
454.168	1503
454.177	1432
454.247	2390
454.249	2357
454.316	736
454.330	1118
454.386	2397
454.411	3141
454.456	4159
454.492	4476
454.525	4764
454.574	2940
454.595	2139
454.655	2228
454.665	2216
454.734	3081
454.736	3159
454.804	4031
454.817	4728
454.873	7192
454.898	6940
454.943	6335
454.979	4651
455.013	3209
455.060	3181
455.082	3222
455.141	3486
455.152	3500
455.221	7858
455.222	7966
455.291	10019
455.303	10836
455.360	13809
455.384	17488
455.430	22972
455.465	16837
455.499	11319
455.546	8283
455.569	6801
455.627	5357
455.638	5103
455.707	3293
455.708	3325
455.777	2949
455.789	3023
455.846	3220
455.869	3556
455.916	4165
455.950	3421
455.985	2590
456.031	2818
456.054	2933
456.112	2769
456.124	2724
456.193	3599
456.193	3565
456.262	3581
456.274	3903
456.332	5239
456.355	4818
456.401	3706
456.436	3963
456.470	4351
456.516	3705
456.540	3234
456.597	3831
456.609	3969
456.678	4149
456.678	4116
456.747	4586
456.759	4497
456.817	4173
456.840	4384
456.886	4499
456.920	4472
456.955	4558
457.001	4961
457.024	5064
457.082	5398
457.093	5443
457.162	6701
457.163	6741
457.232	6757
457.243	6718
457.301	6665
457.324	6754
457.370	6975
457.405	7647
457.439	8268
457.485	8406
457.508	8755
457.566	11183
457.577	12328
457.646	19895
457.647	20074
457.715	44408
457.727	50114
457.784	80784
457.808	104150
457.853	128702
457.889	139820
457.922	137329
457.969	98339
457.991	98839
458.050	124856
458.060	129621
458.129	214048
458.130	216306
458.198	190638
458.211	168005
458.267	90973
458.292	65707
458.336	50945
458.372	52217
458.405	73684
458.453	112182
458.474	134005
458.533	220893
458.543	225464
458.611	313900
458.614	314323
458.680	180119
458.694	141455
458.749	64605
458.775	46465
458.818	29747
458.855	23399
458.887	19634
458.936	16147
458.955	15081
459.016	12759
459.024	12527
459.093	11974
459.097	11937
459.162	10194
459.177	10095
459.230	10708
459.257	10704
459.299	10222
459.338	10301
459.368	10227
459.418	9645
459.437	9336
459.499	9002
459.505	9018
459.574	8850
459.579	8881
459.643	8700
459.659	8613
459.711	8933
459.740	9279
459.780	9425
459.820	9212
459.849	9205
459.900	10388
459.917	10542
459.981	9978
459.986	9961
460.054	10265
460.061	10297
460.123	10197
460.141	10406
460.191	11553
460.222	11870
460.260	11962
460.302	12674
460.328	12716
460.382	12321
460.397	12441
460.462	12966
460.465	13471
460.534	25512
460.543	27191
460.602	56616
460.623	68062
460.671	99560
460.703	128654
460.739	107539
460.783	64524
460.808	52100
460.864	15410
460.876	12466
460.944	9843
460.945	9803
461.013	9894
461.024	9840
461.081	9342
461.104	9373
461.150	9832
461.184	9532
461.218	9150
461.264	9385
461.286	9397
461.345	9121
461.355	9100
461.423	9462
461.425	9447
461.491	8963
461.505	9122
461.559	11464
461.585	12223
461.628	13941
461.665	16381
461.696	16855
461.745	17258
461.764	15870
461.825	10009
461.832	9936
461.901	9130
461.905	9177
461.969	9233
461.985	8925
462.037	9250
462.065	10094
462.105	10503
462.145	10267
462.173	10959
462.225	12419
462.241	12896
462.305	15191
462.310	15004
462.378	12385
462.385	11882
462.446	10407
462.465	10357
462.514	10625
462.545	10595
462.582	10144
462.625	9816
462.650	9795
462.705	9545
462.718	9612
462.785	9956
462.786	9963
462.854	10245
462.865	10279
462.922	11402
462.945	11842
462.990	10842
463.025	9890
463.058	10073
463.104	10299
463.126	10014
463.184	9647
463.194	9784
463.262	9978
463.264	10011
463.330	10431
463.344	10356
463.398	11502
463.424	12175
463.466	11091
463.504	10030
463.533	10193
463.583	10382
463.601	10406
463.663	10302
463.669	10426
463.737	12315
463.743	12407
463.805	14233
463.823	14974
463.873	18201
463.903	20063
463.940	19472
463.982	18913
464.008	17070
464.062	12157
464.076	11877
464.142	10969
464.144	10976
464.211	10859
464.221	10874
464.279	10984
464.301	10874
464.347	11344
464.381	11900
464.414	11875
464.461	11569
464.482	11746
464.540	12419
464.550	12388
464.617	11671
464.620	11644
464.685	13110
464.699	13357
464.753	14670
464.779	15391
464.820	16224
464.859	16869
464.888	16237
464.938	15095
464.956	15281
465.018	15775
465.023	15730
465.091	14782
465.098	14672
465.158	14566
465.177	14562
465.226	14538
465.257	14302
465.293	14556
465.336	15027
465.361	15352
465.416	15822
465.428	16082
465.495	17487
465.496	17540
465.563	21134
465.575	21753
465.631	23309
465.654	23981
465.698	18605
465.734	13852
465.765	14176
465.813	14576
465.833	14476
465.893	14344
465.900	14373
465.968	14306
465.972	14281
466.035	14288
466.052	14253
466.102	13923
466.131	13668
466.170	13573
466.210	13385
466.237	13768
466.290	14604
466.304	14617
466.369	14322
466.372	14367
466.439	15074
466.449	15113
466.506	15392
466.528	15523
466.573	18220
466.607	20132
466.641	23205
466.687	27502
466.708	28522
466.766	31084
466.775	29584
466.842	17807
466.845	17213
466.909	15572
466.925	15170
466.977	16287
467.004	16839
467.044	17409
467.083	17911
467.111	18993
467.163	20895
467.178	21147
467.242	22017
467.245	21952
467.312	19685
467.321	19348
467.379	20044
467.400	20234
467.446	21208
467.480	21838
467.559	20572
467.638	19858
467.717	20863
467.796	22201
467.875	22354
467.955	24454
468.034	30600
468.113	41982
468.192	53888
468.271	40743
468.350	52868
468.429	66277
468.508	65897
468.588	44138
468.667	32312
468.746	29534
468.825	25161
468.904	21366
468.983	22170
469.062	23681
469.141	24441
469.220	18577
469.299	20457
469.378	20045
469.456	23281
469.535	20669
469.614	20152
469.693	20993
469.772	22717
469.851	25302
469.930	22390
470.009	21709
470.088	23970
470.166	28623
470.245	39044
470.324	43710
470.403	34357
470.482	25921
470.560	22693
470.639	20800
470.718	20804
470.797	19664
470.875	22003
470.954	21405
471.033	22816
471.111	17600
471.190	18290
471.269	16632
471.347	18947
471.426	19708
471.505	19466
471.583	20082
471.662	20085
471.740	18736
471.819	18578
471.898	18449
471.976	18541
472.055	18554
472.133	21166
472.212	23621
472.290	20543
472.369	16003
472.447	18489
472.526	15969
472.604	18439
472.683	17589
472.761	18620
472.839	18089
472.918	18509
472.996	18438
473.075	19825
473.153	18534
473.231	19208
473.310	19401
473.388	19085
473.466	19296
473.545	20644
473.623	21152
473.701	20911
473.780	20150
473.858	18697
473.936	22148
474.014	19609
474.093	21835
474.171	23826
474.249	23876
474.327	20398
474.405	19022
474.484	18425
474.562	18594
474.640	17880
474.718	18714
474.796	18136
474.874	17441
474.952	16914
475.030	16648
475.108	17103
475.187	17360
475.265	17843
475.343	19051
475.421	19513
475.499	17936
475.577	18145
475.655	19707
475.733	25197
475.811	31376
475.889	29364
475.966	21859
476.044	18515
476.122	17370
476.200	18363
476.278	16200
476.356	16958
476.434	17109
476.512	18872
476.590	18429
476.667	18320
476.745	16504
476.823	17058
476.901	17352
476.979	17571
477.056	16762
477.134	19169
477.212	17901
477.290	18254
477.367	16640
477.445	16481
477.523	15755
477.601	16979
477.678	18438
477.756	18295
477.834	17932
477.911	16636
477.989	16901
478.066	16188
478.144	17328
478.222	17292
478.299	18657
478.377	20167
478.454	17022
478.532	17179
478.609	16138
478.687	17589
478.764	16186
478.842	17433
478.919	17104
478.997	16714
479.074	15749
479.152	17706
479.229	18383
479.307	16369
479.384	15099
479.461	16402
479.539	15687
479.616	17972
479.694	16082
479.771	17492
479.848	16116
479.926	17659
480.003	19317
480.080	16447
480.157	17512
480.235	16424
480.312	17243
480.389	18015
480.467	20157
480.544	21995
480.621	19913
480.698	19956
480.775	20874
480.853	19726
480.930	17791
481.007	18896
481.084	21501
481.161	26793
481.238	20510
481.315	18647
481.392	18258
481.470	19581
481.547	19686
481.624	17885
481.701	18073
481.778	19339
481.855	20049
481.932	24773
482.009	27968
482.086	26321
482.163	25715
482.240	29968
482.317	29124
482.393	27287
482.470	23139
482.547	23441
482.624	22583
482.701	22292
482.778	22167
482.855	21342
482.932	22062
483.009	23052
483.085	28807
483.162	32399
483.239	32447
483.316	30491
483.393	29724
483.469	25947
483.546	24924
483.623	24026
483.699	20149
483.776	20576
483.853	21718
483.930	24058
484.006	33123
484.083	45876
484.160	40357
484.236	53529
484.313	41540
484.389	38145
484.466	40300
484.543	44599
484.619	50150
484.696	52253
484.772	41047
484.849	36443
484.925	32617
485.002	32766
485.078	31797
485.155	30922
485.231	29037
485.308	29204
485.384	28532
485.461	32464
485.537	36356
485.614	37961
485.690	27837
485.766	27076
485.843	28125
485.919	28944
485.995	28760
486.072	27470
486.148	26285
486.224	26203
486.301	26741
486.377	28723
486.453	28582
486.530	30637
486.606	36214
486.682	36469
486.758	38684
486.835	40607
486.911	38049
486.987	46869
487.063	47152
487.139	52125
487.215	52706
487.292	49227
487.368	51047
487.444	62060
487.520	80062
487.596	129017
487.672	320710
487.748	829191
487.824	1095446
487.900	376647
487.976	126575
488.052	74134
488.128	57559
488.204	44524
488.280	38837
488.356	39887
488.432	45447
488.508	49983
488.584	32126
488.660	28431
488.736	28287
488.812	27606
488.888	30513
488.964	32597
489.039	40816
489.115	50320
489.191	36213
489.267	26510
489.343	25938
489.418	24341
489.494	24362
489.570	23783
489.646	25312
489.722	24613
489.797	24464
489.873	31179
489.949	40569
490.024	33748
490.100	23083
490.176	24590
490.251	24767
490.327	26634
490.403	23242
490.478	24394
490.554	22020
490.629	23088
490.705	21894
490.781	23245
490.856	21626
490.932	24094
491.007	22296
491.083	23228
491.158	22048
491.234	25269
491.309	30899
491.385	28833
491.460	20809
491.536	22185
491.611	19646
491.686	21578
491.762	23902
491.837	29005
491.913	37865
491.988	44677
492.063	47796
492.139	26115
492.214	22438
492.289	19552
492.365	19396
492.440	19999
492.515	19210
492.590	19646
492.666	18409
492.741	22312
492.816	23530
492.891	19297
492.967	19713
493.042	19375
493.117	19052
493.192	20182
493.267	29559
493.342	57007
493.418	63675
493.493	21931
493.568	17985
493.643	18243
493.718	19579
493.793	20876
493.868	21029
493.943	18108
494.018	18361
494.093	17695
494.168	18210
494.243	17562
494.318	17450
494.393	17688
494.468	16444
494.543	17476
494.618	17427
494.693	16781
494.768	18035
494.842	17421
494.917	17678
494.992	17933
495.067	17539
495.142	17992
495.217	17740
495.292	16882
495.366	17982
495.441	19427
495.516	20308
495.591	24099
495.665	47279
495.740	74828
495.815	35908
495.890	19391
495.964	17195
496.039	21038
496.114	21674
496.188	27896
496.263	23463
496.338	19093
496.412	19199
496.487	21138
496.561	19999
496.636	19662
496.710	19482
496.785	20978
496.860	19977
496.934	18353
497.009	18194
497.083	20063
497.158	21646
497.232	21569
497.307	20796
497.381	20866
497.455	21745
497.530	22374
497.604	18559
497.679	20032
497.753	24205
497.827	23863
497.902	22047
497.976	29339
498.050	74827
498.125	206495
498.199	157232
498.273	26177
498.348	20906
498.422	23089
498.496	23745
498.570	22097
498.645	19948
498.719	17942
498.793	20929
498.867	26223
498.941	36049
499.016	103556
499.090	194308
499.164	57774
499.238	20647
499.312	19823
499.386	22495
499.460	21758
499.534	23015
499.609	26318
499.683	24948
499.757	24594
499.831	53163
499.905	141568
499.979	100967
500.053	24941
500.127	24554
500.201	21197
500.275	20563
500.349	20145
500.422	21282
500.496	26189
500.570	41117
500.644	92097
500.718	125681
500.792	30479
500.866	19425
500.940	20611
501.013	19479
501.087	20299
501.161	23994
501.235	27025
501.309	55940
501.382	117033
501.456	81267
501.530	30624
501.603	39673
501.677	21160
501.751	15250
501.825	20950
501.898	28176
501.972	49855
502.046	30235
502.119	18682
502.193	32300
502.266	50643
502.340	26754
502.413	32714
502.487	44456
502.561	26778
502.634	19082
502.708	18088
502.781	16635
502.855	17760
502.928	15087
503.002	16427
503.075	16216
503.149	17418
503.222	17086
503.295	18379
503.369	20524
503.442	26293
503.516	51976
503.589	88573
503.662	57755
503.736	43830
503.809	66951
503.882	70630
503.956	117602
504.029	210156
504.102	478491
504.175	594658
504.249	241270
504.322	98978
504.395	57719
504.468	39228
504.542	30045
504.615	24314
504.688	22626
504.761	18371
504.834	19269
504.907	19761
504.980	19354
505.053	16449
505.127	15695
505.200	19129
505.273	17276
505.346	14536
505.419	13650
505.492	14729
505.565	14018
505.638	13729
505.711	11949
505.784	11982
505.857	12466
505.930	13627
506.003	11535
506.076	15540
506.149	13641
506.221	12927
506.294	15444
506.367	28964
506.440	61149
506.513	29485
506.586	14357
506.659	11884
506.731	12326
506.804	12843
506.877	12997
506.950	13103
507.022	12693
507.095	12895
507.168	13740
507.241	13073
507.313	11682
507.386	11834
507.459	13405
507.531	11206
507.604	11239
507.677	13070
507.749	11284
507.822	14168
507.894	19462
507.967	22993
508.040	16298
508.112	16673
508.185	15073
508.257	13575
508.330	18047
508.402	14994
508.475	15719
508.547	14649
508.620	14786
508.692	15930
508.765	14507
508.837	13926
508.909	14219
508.982	13490
509.054	14714
509.127	13448
509.199	12919
509.271	12929
509.344	12240
509.416	13689
509.488	13306
509.560	13759
509.633	12844
509.705	15057
509.777	14606
509.849	17601
509.922	14612
509.994	15653
510.066	15196
510.138	16180
510.210	25166
510.283	20841
510.355	18496
510.427	17488
510.499	16419
510.571	15245
510.643	15396
510.715	19045
510.787	15511
510.859	16961
510.931	16570
511.003	17978
511.076	17351
511.148	15847
511.219	17453
511.291	20625
511.363	19269
511.435	15841
511.507	14683
511.579	15427
511.651	15435
511.723	14138
511.795	14057
511.867	14883
511.939	16652
512.010	19778
512.082	17670
512.154	14529
512.226	15840
512.298	21460
512.369	22594
512.441	19969
512.513	19133
512.585	15879
512.656	17280
512.728	16039
512.800	14965
512.871	17158
512.943	15958
513.015	14398
513.086	16552
513.158	16316
513.230	16020
513.301	17173
513.373	17674
513.444	15932
513.516	14990
513.588	15113
513.659	16017
513.731	16505
513.802	15390
513.874	22700
513.945	22739
514.016	16167
514.088	14905
514.159	15227
514.231	18327
514.302	21866
514.374	19430
514.445	17168
514.516	25019
514.588	20205
514.659	19702
514.730	21558
514.802	19750
514.873	15317
514.944	17950
515.016	17468
515.087	16935
515.158	19903
515.229	24071
515.301	16609
515.372	17627
515.443	15457
515.514	17560
515.585	16047
515.656	17839
515.728	18418
515.799	18052
515.870	20119
515.941	20527
516.012	21175
516.083	26045
516.154	25161
516.225	28070
516.296	30875
516.367	30153
516.438	34325
516.509	43640
516.580	77058
516.651	269292
516.722	668397
516.793	227017
516.864	57528
516.935	52972
517.006	59484
517.077	85175
517.148	246366
517.219	957418
517.289	1070997
517.360	196537
517.431	63746
517.502	39697
517.573	38235
517.643	37496
517.714	38298
517.785	39837
517.856	45654
517.926	54820
517.997	61581
518.068	71923
518.138	95959
518.209	189155
518.280	739753
518.350	1445877
518.421	612320
518.492	129555
518.562	105101
518.633	123109
518.703	184974
518.774	409726
518.845	881805
518.915	688801
518.986	224178
519.056	105753
519.127	78552
519.197	72674
519.268	95813
519.338	59502
519.408	36672
519.479	33532
519.549	28596
519.620	27053
519.690	23653
519.760	23074
519.831	22808
519.901	22084
519.971	22253
520.042	22768
520.112	22998
520.182	23065
520.253	22767
520.323	21019
520.393	25288
520.463	29537
520.534	23554
520.604	35412
520.674	24187
520.744	25602
520.814	39242
520.885	31656
520.955	39834
521.025	82541
521.095	32112
521.165	19997
521.235	19467
521.305	17534
521.375	19717
521.445	20957
521.515	20441
521.585	21850
521.655	18466
521.725	20066
521.795	19633
521.865	16725
521.935	22511
522.005	18276
522.075	18065
522.145	20174
522.215	21198
522.285	22616
522.355	24720
522.424	31531
522.494	26450
522.564	21359
522.634	29160
522.704	46755
522.774	24108
522.843	19284
522.913	20564
522.983	20770
523.053	19711
523.122	19523
523.192	21227
523.262	32583
523.331	27141
523.401	20137
523.471	17619
523.540	18697
523.610	17706
523.680	19715
523.749	20626
523.819	22539
523.888	21116
523.958	19835
524.027	19166
524.097	18715
524.166	19535
524.236	17763
524.305	20909
524.375	18296
524.444	19025
524.514	22424
524.583	21207
524.653	20399
524.722	22649
524.791	19094
524.861	21974
524.930	19628
524.999	20596
525.069	23310
525.138	23283
525.207	25082
525.277	27623
525.346	27553
525.415	31159
525.484	32473
525.554	36805
525.623	43627
525.692	53476
525.761	60073
525.830	71672
525.900	91945
525.969	151680
526.038	294841
526.107	711699
526.176	1492537
526.245	1050099
526.314	385489
526.383	893285
526.452	1051737
526.522	1462408
526.591	1093954
526.660	223835
526.729	134530
526.797	146981
526.867	262496
526.935	848643
527.004	1800794
527.073	1072198
527.142	186810
527.211	85069
527.280	58262
527.349	46161
527.418	34613
527.487	34049
527.555	27675
527.624	25660
527.693	24518
527.762	25670
527.831	21788
527.899	23273
527.968	20586
528.037	19871
528.106	21337
528.174	24040
528.243	22138
528.312	24669
528.380	24143
528.449	19589
528.518	20555
528.586	19120
528.655	19737
528.723	19711
528.792	19108
528.861	20599
528.929	20412
528.998	25319
529.066	41698
529.135	62155
529.203	58033
529.272	86359
529.340	95500
529.409	83645
529.477	79686
529.545	79163
529.614	86156
529.682	105286
529.751	106505
529.819	117180
529.887	133237
529.956	118825
530.024	110142
530.092	104291
530.161	103724
530.229	110062
530.297	122190
530.365	116702
530.434	128589
530.502	124521
530.570	110445
530.638	98239
530.707	91692
530.775	86617
530.843	97621
530.911	105558
530.979	106953
531.047	124489
531.115	113449
531.183	101722
531.252	96038
531.320	93492
531.388	95393
531.456	111382
531.524	116186
531.592	122914
531.660	134363
531.728	120528
531.796	115373
531.864	114324
531.932	113945
532.000	114699
532.067	129631
532.135	131038
532.203	140527
532.271	145244
532.339	139332
532.407	143120
532.475	130450
532.542	125752
532.610	127797
532.678	140275
532.746	170953
532.814	199881
532.881	153239
532.949	134998
533.017	127674
533.084	122431
533.152	118991
533.220	117844
533.287	122053
533.355	127191
533.423	129907
533.490	133126
533.558	124117
533.625	118949
533.693	115304
533.761	111805
533.828	110236
533.896	112427
533.963	126264
534.031	126004
534.098	136415
534.166	124221
534.233	116617
534.300	117056
534.368	113004
534.435	110771
534.503	113141
534.570	121248
534.637	125129
534.705	134858
534.772	151578
534.840	264546
534.907	875815
534.974	766199
535.041	155564
535.109	104826
535.176	94462
535.243	98446
535.310	96977
535.378	94711
535.445	87915
535.512	83358
535.579	81352
535.646	78489
535.714	78243
535.781	82097
535.848	85203
535.915	84674
535.982	86351
536.049	82638
536.116	76960
536.183	72791
536.250	70130
536.317	69223
536.384	69327
536.451	69655
536.518	73782
536.585	70735
536.652	75341
536.719	72270
536.786	66449
536.853	65293
536.920	66459
536.987	65493
537.053	66583
537.120	94932
537.187	81703
537.254	65695
537.321	66332
537.388	63889
537.454	57958
537.521	58095
537.588	57262
537.654	57178
537.721	59948
537.788	57075
537.855	56652
537.921	58471
537.988	58353
538.055	55166
538.121	51392
538.188	49440
538.254	51192
538.321	52468
538.388	50707
538.454	54502
538.521	54992
538.587	54339
538.654	53512
538.720	52576
538.787	51614
538.853	50200
538.920	48093
538.986	46245
539.053	44367
539.119	45556
539.185	45299
539.252	50205
539.318	51688
539.385	55615
539.451	49478
539.517	48332
539.583	47847
539.650	54503
539.716	63196
539.782	44000
539.849	42207
539.915	44886
539.981	44024
540.047	45306
540.114	44898
540.180	45696
540.246	45195
540.312	48122
540.378	48571
540.444	48641
540.510	53623
540.576	65519
540.643	45814
540.709	41606
540.775	43600
540.841	42128
540.907	42741
540.973	46460
541.039	43322
541.105	43915
541.171	42578
541.237	42299
541.303	43416
541.369	44510
541.435	45052
541.500	45329
541.566	39602
541.632	39868
541.698	38669
541.764	41596
541.830	38735
541.896	38146
541.961	38747
542.027	38164
542.093	43055
542.159	42565
542.224	40839
542.290	43500
542.356	42321
542.421	42366
542.487	37500
542.553	36756
542.618	38502
542.684	37463
542.750	38433
542.815	40814
542.881	43709
542.947	62031
543.012	48922
543.078	36288
543.143	36076
543.209	37996
543.274	36685
543.340	37517
543.405	45623
543.471	47067
543.536	38755
543.602	39298
543.667	36847
543.732	39207
543.798	37754
543.863	40463
543.928	37808
543.994	37657
544.059	39284
544.124	39727
544.190	40321
544.255	40498
544.320	40698
544.386	40242
544.451	42794
544.516	40563
544.581	42691
544.646	57252
544.712	57561
544.777	43341
544.842	41905
544.907	42544
544.972	41754
545.037	44479
545.102	44530
545.168	45502
545.233	45416
545.298	46648
545.363	47085
545.428	49843
545.493	54743
545.558	62083
545.623	49524
545.688	46860
545.753	50155
545.818	51877
545.883	54390
545.947	54217
546.012	56121
546.077	57178
546.142	60570
546.207	62372
546.272	66451
546.337	67451
546.401	69375
546.466	72642
546.531	71798
546.596	79884
546.661	80601
546.725	85234
546.790	89007
546.855	96693
546.919	105407
546.984	116482
547.049	124613
547.113	142231
547.178	157486
547.243	179283
547.307	208518
547.372	224142
547.436	222746
547.501	238796
547.565	249279
547.630	227327
547.695	224891
547.759	226039
547.823	225509
547.888	229497
547.952	236499
548.017	249333
548.081	254757
548.146	250264
548.210	257397
548.274	277988
548.339	265929
548.403	241559
548.468	229654
548.532	229012
548.596	233336
548.660	235358
548.725	260975
548.789	279448
548.853	267795
548.917	256026
548.982	245709
549.046	221673
549.110	201831
549.174	216082
549.238	252368
549.303	269302
549.367	272774
549.431	258350
549.495	245392
549.559	249991
549.623	292912
549.687	306763
549.751	311397
549.815	369868
549.879	362922
549.943	353911
550.007	370609
550.071	360808
550.135	320891
550.199	311086
550.263	303735
550.327	286481
550.391	303933
550.455	336566
550.519	349579
550.582	377133
550.646	424929
550.710	424377
550.774	417558
550.838	424520
550.901	442526
550.965	468667
551.029	496926
551.093	535245
551.156	604192
551.220	698546
551.284	706549
551.347	541480
551.411	474717
551.475	449442
551.538	452536
551.602	412799
551.666	393203
551.729	369686
551.793	360921
551.856	352807
551.920	351936
551.983	351246
552.047	343539
552.110	348902
552.174	353043
552.237	352799
552.301	329905
552.364	316899
552.428	308562
552.491	324279
552.554	325375
552.618	323640
552.681	330480
552.745	323852
552.808	361415
552.871	387681
552.934	353226
552.998	327630
553.061	317349
553.124	304562
553.187	306820
553.251	314754
553.314	312804
553.377	320517
553.440	345214
553.503	384960
553.567	382667
553.630	340358
553.693	336647
553.756	335420
553.819	325567
553.882	314386
553.945	316316
554.008	317156
554.071	322455
554.134	319159
554.197	298143
554.260	294123
554.323	299492
554.386	306207
554.449	322128
554.512	316650
554.575	304996
554.638	301161
554.701	301844
554.764	293881
554.827	287536
554.889	274636
554.952	259750
555.015	256922
555.078	263491
555.141	263113
555.203	256907
555.266	257937
555.329	254382
555.391	246225
555.454	242463
555.517	232661
555.580	229757
555.642	221600
555.705	216227
555.768	216838
555.830	207939
555.893	196410
555.955	192769
556.018	190203
556.080	193248
556.143	199073
556.206	194807
556.268	191274
556.330	187185
556.393	179994
556.455	177057
556.518	175833
556.580	167299
556.643	162534
556.705	158363
556.767	157758
556.830	155922
556.892	152485
556.955	153024
557.017	147935
557.079	144562
557.142	142231
557.204	144691
557.266	147829
557.328	135171
557.391	124920
557.453	124152
557.515	123912
557.577	128038
557.639	128040
557.701	129408
557.764	127447
557.826	130223
557.888	135332
557.950	142901
558.012	160395
558.074	234850
558.136	598777
558.198	1027304
558.260	314760
558.322	157418
558.384	154435
558.446	159195
558.508	169909
558.570	189432
558.632	223343
558.694	306066
558.756	582407
558.818	1546684
558.880	2007387
558.942	1079803
559.003	1136412
559.065	447232
559.127	209233
559.189	194691
559.251	224846
559.312	362146
559.374	950932
559.436	1774019
559.498	803000
559.559	242257
559.621	197804
559.683	238275
559.744	446957
559.806	1308071
559.868	1310972
559.929	314309
559.991	236722
560.052	468739
560.114	1067943
560.176	564692
560.237	731003
560.299	837355
560.360	174439
560.422	86759
560.483	74029
560.545	70713
560.606	65744
560.667	62169
560.729	58951
560.790	56722
560.852	54944
560.913	52743
560.974	51752
561.036	50375
561.097	51812
561.158	49855
561.220	49954
561.281	47404
561.342	46645
561.403	47556
561.465	48494
561.526	55430
561.587	53940
561.648	43946
561.709	43699
561.771	43984
561.832	42164
561.893	39914
561.954	41127
562.015	41022
562.076	41132
562.137	39148
562.198	40099
562.259	39274
562.320	40032
562.381	40791
562.442	41181
562.503	39081
562.564	38127
562.625	36630
562.686	36588
562.747	37136
562.808	37306
562.869	36209
562.930	37508
562.991	34930
563.051	35091
563.112	35826
563.173	34756
563.234	33949
563.294	34751
563.355	32686
563.416	33220
563.477	32605
563.537	33399
563.598	32666
563.659	33062
563.720	33572
563.780	32175
563.841	32877
563.901	32854
563.962	31669
564.023	30965
564.083	31201
564.144	30454
564.204	32243
564.265	31272
564.325	32724
564.386	36970
564.446	32934
564.507	31318
564.567	27880
564.628	29749
564.688	29556
564.749	29761
564.809	29582
564.869	30613
564.930	30524
564.990	29633
565.050	28007
565.111	29355
565.171	28983
565.231	28884
565.292	30138
565.352	28610
565.412	27997
565.472	28969
565.532	28530
565.593	28923
565.653	27800
565.713	28407
565.773	28686
565.833	29476
565.893	30870
565.953	27669
566.013	27128
566.074	27771
566.134	28919
566.194	31163
566.254	30809
566.314	29833
566.374	27250
566.434	27399
566.494	26630
566.554	26987
566.614	28101
566.673	28075
566.733	28529
566.793	28953
566.853	28070
566.913	27808
566.973	28351
567.033	29377
567.092	28859
567.152	28548
567.212	29303
567.272	28071
567.331	29938
567.391	30207
567.451	31252
567.511	32507
567.570	30732
567.630	28888
567.690	26849
567.749	27508
567.809	27991
567.868	28711
567.928	28206
567.988	29509
568.047	29018
568.107	29096
568.166	28535
568.226	28343
568.285	30086
568.345	29183
568.404	29185
568.464	29067
568.523	27622
568.582	28132
568.642	28286
568.701	27634
568.761	27571
568.820	28047
568.879	27599
568.939	31092
568.998	29072
569.057	28080
569.116	28101
569.176	27808
569.235	27376
569.294	27496
569.353	26863
569.413	26942
569.472	26122
569.531	26527
569.590	25650
569.649	26176
569.708	25512
569.767	27141
569.827	27657
569.886	26599
569.945	25161
570.004	26496
570.063	27249
570.122	28601
570.181	27589
570.240	28493
570.299	28107
570.358	28847
570.417	28003
570.475	28074
570.534	28690
570.593	28865
570.652	27859
570.711	29436
570.770	26770
570.829	29094
570.887	27348
570.946	29508
571.005	28441
571.064	30921
571.122	31053
571.181	30339
571.240	27908
571.299	26587
571.357	26844
571.416	27210
571.475	28037
571.533	29020
571.592	30762
571.650	29838
571.709	30642
571.768	35653
571.826	35605
571.885	32434
571.943	28369
572.002	27680
572.060	27367
572.119	26033
572.177	25902
572.236	26792
572.294	27107
572.352	29669
572.411	28721
572.469	27494
572.528	26345
572.586	26348
572.644	26221
572.703	26786
572.761	26438
572.819	25304
572.877	24850
572.936	24039
572.994	23984
573.052	24471
573.110	25399
573.169	27722
573.227	26462
573.285	26257
573.343	24617
573.401	24772
573.459	25138
573.517	26791
573.576	28192
573.634	26943
573.692	28019
573.750	27089
573.808	26064
573.866	25861
573.924	26175
573.982	25397
574.040	24422
574.098	25583
574.155	24340
574.213	24777
574.271	25008
574.329	28507
574.387	26368
574.445	23786
574.503	22603
574.560	23640
574.618	22515
574.676	23906
574.734	23743
574.792	23550
574.849	21180
574.907	20327
574.965	20374
575.022	19651
575.080	19479
575.138	19734
575.195	18732
575.253	18203
575.311	19099
575.368	19996
575.426	18607
575.483	20693
575.541	20627
575.598	20271
575.656	19569
575.713	21780
575.771	22446
575.828	21572
575.886	20109
575.943	20099
576.001	18153
576.058	18999
576.115	19626
576.173	20426
576.230	21626
576.287	20427
576.345	20876
576.402	20862
576.459	21109
576.517	19542
576.574	19765
576.631	19396
576.688	18518
576.746	18518
576.803	17837
576.860	16980
576.917	19074
576.974	18781
577.031	18995
577.089	18599
577.146	17857
577.203	17225
577.260	18013
577.317	17936
577.374	17927
577.431	18055
577.488	18357
577.545	16621
577.602	17870
577.659	17974
577.716	18296
577.773	19346
577.830	17605
577.886	17901
577.943	16818
578.000	18079
578.057	18417
578.114	20000
578.171	21432
578.227	24370
578.284	21553
578.341	21693
578.398	19366
578.454	19740
578.511	19434
578.568	19051
578.625	18824
578.681	18382
578.738	18767
578.794	18296
578.851	19227
578.908	18731
578.964	18039
579.021	18938
579.077	18561
579.134	19325
579.190	18370
579.247	19824
579.303	18924
579.360	18954
579.416	19827
579.473	19319
579.529	18705
579.586	19543
579.642	20274
579.698	20701
579.755	21133
579.811	20963
579.867	21844
579.924	21758
579.980	22666
580.036	25384
580.093	28139
580.149	34150
580.205	34601
580.261	29489
580.317	27100
580.374	27378
580.430	27354
580.486	25505
580.542	25053
580.598	25400
580.619	25761
580.654	26421
580.692	25788
580.710	25528
580.765	25847
580.767	25893
580.823	26954
580.838	26890
580.879	26832
580.911	27451
580.935	27971
580.984	27070
580.991	26980
581.047	27802
581.057	27893
581.103	28465
581.130	28554
581.159	28709
581.203	29581
581.215	29862
581.270	29635
581.276	29517
581.326	28614
581.349	29022
581.382	29796
581.422	29671
581.438	29619
581.494	29374
581.494	29339
581.550	28752
581.567	28901
581.606	29268
581.640	29386
581.661	29500
581.713	30976
581.717	31123
581.773	30101
581.786	30421
581.829	31515
581.859	31619
581.885	31791
581.932	31410
581.940	31357
581.996	31999
582.004	31989
582.052	32118
582.077	32108
582.107	32126
582.150	32575
582.163	32750
582.219	32891
582.223	32899
582.274	33294
582.296	33255
582.330	33147
582.368	34175
582.386	34719
582.441	35073
582.441	35089
582.497	35925
582.514	35858
582.552	35914
582.587	36997
582.608	37648
582.659	38606
582.663	38689
582.719	38552
582.732	38802
582.774	39778
582.805	40830
582.830	41714
582.877	43443
582.885	43769
582.941	48151
582.950	49179
582.996	54316
583.023	57461
583.052	61043
583.095	60739
583.107	60534
583.162	57789
583.168	57156
583.218	51518
583.240	50119
583.273	47887
583.313	45402
583.328	44593
583.384	41164
583.385	41125
583.439	39734
583.458	39569
583.494	39517
583.531	38085
583.549	37315
583.603	38015
583.605	38022
583.660	35838
583.676	36061
583.715	36900
583.748	36333
583.770	35892
583.820	35871
583.825	35865
583.881	36331
583.893	35936
583.936	34542
583.965	35580
583.991	36359
584.038	36204
584.046	36205
584.101	34862
584.110	35241
584.156	37293
584.183	37150
584.211	36647
584.255	37346
584.266	37629
584.321	38072
584.328	38237
584.376	39328
584.400	38939
584.431	38069
584.472	38785
584.486	39085
584.541	41347
584.545	41363
584.596	41459
584.617	41461
584.651	41374
584.689	42724
584.706	43277
584.761	44504
584.762	44529
584.816	44102
584.834	44497
584.871	45322
584.906	46184
584.926	46701
584.978	46926
584.980	46919
585.035	49704
585.051	50215
585.090	51242
585.123	53331
585.145	54884
585.195	57956
585.200	58313
585.254	63232
585.267	64934
585.309	70863
585.340	76319
585.364	81071
585.412	91789
585.419	93546
585.473	116037
585.484	123442
585.528	160945
585.556	205090
585.583	273049
585.628	448711
585.637	504997
585.692	1027060
585.700	1080862
585.747	1236712
585.772	1042371
585.801	655825
585.845	279098
585.856	228217
585.910	121289
585.917	111634
585.965	86121
585.989	77266
586.019	70384
586.061	63196
586.074	61498
586.128	56287
586.133	55941
586.183	51978
586.205	50660
586.237	49142
586.277	46774
586.292	45783
586.346	44046
586.349	43972
586.401	42245
586.421	41630
586.455	40736
586.493	40668
586.509	40849
586.564	41527
586.565	41620
586.618	45348
586.637	46389
586.672	48143
586.709	52187
586.727	54219
586.781	56061
586.781	56002
586.835	43898
586.853	41141
586.889	37157
586.925	34238
586.944	33362
586.996	32214
586.998	32152
587.052	31289
587.068	31149
587.106	31208
587.140	30922
587.161	30462
587.212	30154
587.215	30155
587.269	30463
587.284	30689
587.323	30613
587.356	30634
587.377	30941
587.427	31656
587.431	31606
587.485	31270
587.499	31397
587.539	32303
587.571	32651
587.593	32683
587.643	33563
587.648	33646
587.702	33873
587.715	34066
587.755	33750
587.786	33530
587.810	33598
587.858	33840
587.864	33781
587.917	33961
587.930	33933
587.971	33974
588.001	34209
588.025	34150
588.073	33993
588.079	33972
588.133	33879
588.145	33930
588.187	33901
588.217	34418
588.241	35074
588.288	35712
588.295	35765
588.348	37413
588.360	37629
588.402	38326
588.431	39047
588.456	39238
588.503	40431
588.510	40769
588.564	43840
588.575	44553
588.617	46711
588.646	48312
588.671	49822
588.718	54449
588.725	55508
588.778	68469
588.789	72953
588.832	108962
588.861	141125
588.886	205367
588.932	370842
588.939	389305
588.993	468666
589.004	458897
589.047	216435
589.075	101284
589.100	77356
589.147	49651
589.154	48930
589.207	45904
589.218	45471
589.261	46102
589.290	47400
589.314	48801
589.361	53248
589.368	54983
589.421	75039
589.433	81056
589.475	135504
589.504	187383
589.528	253556
589.576	376878
589.582	366263
589.635	166859
589.647	135365
589.689	74310
589.718	40722
589.742	38524
589.790	35053
589.795	34962
589.849	35114
589.861	35340
589.902	35332
589.932	34801
589.955	33723
590.004	31822
590.009	31765
590.062	32020
590.075	32059
590.115	31316
590.146	30900
590.168	30685
590.218	30628
590.222	30630
590.275	31245
590.289	31411
590.328	32189
590.360	32897
590.381	32970
590.431	33275
590.435	33220
590.488	32945
590.503	33038
590.541	33418
590.574	33575
590.594	33551
590.645	33828
590.647	33826
590.700	34976
590.716	35515
590.753	35555
590.787	35575
590.806	35973
590.859	37181
590.859	37131
590.912	37375
590.930	37548
590.965	37648
591.001	37754
591.018	37238
591.071	35975
591.072	36025
591.124	36084
591.143	36317
591.177	36766
591.214	37330
591.230	37214
591.283	37138
591.285	37188
591.336	38133
591.356	38633
591.389	37995
591.427	37446
591.442	37162
591.495	36133
591.498	36125
591.547	36669
591.569	37140
591.600	37435
591.640	37699
591.653	37739
591.706	38353
591.711	38485
591.759	38805
591.782	39120
591.811	40281
591.853	42122
591.864	41896
591.917	40969
591.924	40904
591.969	40786
591.995	40892
592.022	40755
592.066	40755
592.075	40965
592.127	42771
592.137	43185
592.180	43953
592.208	44570
592.233	44422
592.279	44372
592.285	44441
592.338	45812
592.350	46196
592.390	44922
592.421	44158
592.443	44937
592.491	46957
592.495	46840
592.548	46533
592.562	46547
592.600	46391
592.633	46453
592.653	46267
592.704	45785
592.705	46042
592.775	45990
592.846	49573
592.916	49930
592.987	48553
593.058	49987
593.128	49681
593.199	50861
593.270	50877
593.341	52042
593.411	53528
593.482	55913
593.553	57558
593.623	56247
593.694	58936
593.764	60650
593.835	59109
593.906	60194
593.976	61058
594.047	62567
594.117	66859
594.188	68259
594.258	66283
594.329	66617
594.399	69510
594.470	69934
594.540	72422
594.611	75307
594.681	74866
594.751	74861
594.822	78765
594.892	81352
594.963	83354
595.033	85791
595.103	87807
595.174	88446
595.244	92556
595.314	97265
595.384	94383
595.455	97779
595.525	100983
595.595	104195
595.665	104738
595.736	101336
595.806	105029
595.876	106215
595.946	107788
596.016	112306
596.087	116064
596.157	115028
596.227	115875
596.297	122880
596.367	129459
596.437	136847
596.507	136796
596.577	139471
596.647	142556
596.717	147365
596.787	148770
596.857	148883
596.927	151404
596.997	153002
597.067	155155
597.137	158657
597.207	158584
597.277	159720
597.347	153369
597.417	150462
597.487	149017
597.557	153436
597.626	158392
597.696	160285
597.766	161016
597.836	154041
597.906	146080
597.975	143395
598.045	145803
598.115	151875
598.185	163606
598.254	180784
598.324	192922
598.394	197460
598.464	190872
598.533	189177
598.603	180753
598.672	175636
598.742	182365
598.812	181758
598.881	187163
598.951	187055
599.020	189704
599.090	197212
599.159	199593
599.229	194055
599.299	190787
599.368	195056
599.437	196088
599.507	181196
599.576	177411
599.646	178124
599.715	176086
599.785	176440
599.854	173574
599.924	174041
599.993	173431
600.062	177928
600.132	181478
600.201	191309
600.270	215943
600.340	227704
600.409	224282
600.478	222853
600.547	228419
600.617	213986
600.686	182517
600.755	174072
600.824	169262
600.894	169220
600.963	171706
601.032	170768
601.101	169034
601.170	165993
601.239	166057
601.308	166722
601.378	169859
601.447	173150
601.516	175868
601.585	179019
601.654	180948
601.723	184097
601.792	190258
601.861	198445
601.930	207200
601.999	213037
602.068	210658
602.137	211253
602.206	215503
602.275	217376
602.343	219461
602.412	220232
602.481	221585
602.550	221535
602.619	227169
602.688	228242
602.756	228670
602.825	231405
602.894	236957
602.963	236568
603.032	239183
603.100	239537
603.169	236659
603.238	242770
603.307	236402
603.375	237794
603.444	248566
603.513	238108
603.581	245382
603.650	252364
603.719	226081
603.787	222883
603.856	227551
603.924	234088
603.993	239680
604.061	246005
604.130	255462
604.198	260964
604.267	262888
604.335	270157
604.404	270198
604.472	278537
604.541	277669
604.609	285227
604.678	290758
604.746	291910
604.815	304660
604.883	297932
604.951	292459
605.020	299541
605.088	290471
605.156	285327
605.225	286608
605.293	286918
605.361	286830
605.429	285432
605.498	294716
605.566	294659
605.634	309995
605.702	313777
605.771	320226
605.839	326086
605.907	309031
605.975	308614
606.043	296389
606.111	292214
606.180	306760
606.248	286178
606.316	281216
606.384	292227
606.452	265668
606.520	251070
606.588	257180
606.656	257885
606.724	251532
606.792	238446
606.860	216174
606.928	197379
606.996	190851
607.064	188682
607.132	194324
607.200	204290
607.267	210632
607.335	214260
607.403	218055
607.471	209655
607.539	203958
607.607	207888
607.674	184881
607.742	184332
607.810	183415
607.878	182790
607.946	186569
608.013	195051
608.081	196732
608.149	200054
608.216	206537
608.284	210845
608.352	210514
608.419	209312
608.487	203688
608.555	199479
608.622	207546
608.690	219770
608.757	238235
608.825	241405
608.893	235770
608.960	222422
609.028	212781
609.095	212432
609.163	211925
609.230	190959
609.298	175624
609.365	185422
609.432	200874
609.500	216269
609.567	249065
609.635	281464
609.702	294999
609.769	280500
609.837	221671
609.904	200336
609.971	216244
610.039	253192
610.106	346151
610.173	659017
610.241	1426316
610.308	907918
610.375	347833
610.442	232554
610.509	208127
610.577	205139
610.644	203274
610.711	210797
610.778	213659
610.845	222104
610.912	235038
610.980	241984
611.047	244954
611.114	237929
611.181	231793
611.248	229608
611.315	244384
611.382	249366
611.449	259155
611.516	263412
611.583	259216
611.650	262850
611.717	268218
611.784	278224
611.851	297517
611.918	328272
611.984	398892
612.051	573377
612.118	1096907
612.185	2120546
612.252	1535002
612.319	513037
612.386	377566
612.452	331106
612.519	307033
612.586	295266
612.653	297568
612.719	307403
612.786	293592
612.853	270260
612.919	265578
612.986	266477
613.053	251781
613.120	237634
613.186	227953
613.253	231025
613.319	230308
613.386	231973
613.453	235835
613.519	235503
613.586	230372
613.652	237808
613.719	233903
613.785	236365
613.852	239352
613.918	235840
613.985	240433
614.051	254805
614.118	267321
614.184	256891
614.250	238589
614.317	239763
614.383	238616
614.449	240914
614.516	240302
614.582	240693
614.648	235391
614.715	234579
614.781	230025
614.847	229579
614.914	227893
614.980	221512
615.046	222988
615.112	229876
615.179	231085
615.245	233722
615.311	230033
615.377	235790
615.443	237005
615.509	243176
615.575	254102
615.642	251969
615.708	261635
615.774	281673
615.840	306682
615.906	347144
615.972	435992
616.038	663930
616.104	1291437
616.170	2281317
616.236	2013469
616.302	782163
616.368	551465
616.434	386624
616.500	343988
616.565	387126
616.631	501910
616.697	411755
616.763	423786
616.829	653160
616.895	1158015
616.961	1092739
617.026	479251
617.092	301057
617.158	265364
617.224	249398
617.289	227052
617.355	213612
617.421	209464
617.487	207529
617.552	197959
617.618	193033
617.684	194132
617.749	195106
617.815	186982
617.880	181998
617.946	182122
618.012	185942
618.077	189441
618.143	180374
618.208	180395
618.274	193893
618.339	195604
618.405	160093
618.470	161622
618.536	160208
618.601	158483
618.667	145904
618.732	141598
618.798	137723
618.863	136755
618.928	136396
618.994	140294
619.059	138626
619.124	140558
619.190	138828
619.255	137432
619.320	137801
619.386	139501
619.451	136073
619.516	132944
619.581	133635
619.647	137350
619.712	136729
619.777	129083
619.842	130735
619.907	133672
619.972	136283
620.038	135295
620.103	130745
620.168	131311
620.233	132979
620.298	134020
620.363	136267
620.428	140246
620.493	144018
620.558	143801
620.623	146279
620.688	145967
620.753	145134
620.818	148094
620.883	147618
620.948	147576
621.013	145541
621.078	143624
621.143	146942
621.207	149435
621.272	145264
621.337	141604
621.402	139357
621.467	138763
621.532	138196
621.596	138467
621.661	133807
621.726	133924
621.791	134827
621.855	135678
621.920	134567
621.985	136181
622.049	139828
622.114	139322
622.179	141912
622.243	145226
622.308	150274
622.373	155583
622.437	150680
622.502	142255
622.566	140561
622.631	139839
622.695	144099
622.760	142637
622.824	142015
622.889	143198
622.953	143577
623.018	153917
623.082	153587
623.147	151129
623.211	147763
623.276	146998
623.340	142378
623.404	138267
623.469	136399
623.533	139546
623.597	134128
623.662	133053
623.726	125411
623.790	118234
623.854	115229
623.919	116952
623.983	118637
624.047	119756
624.111	121145
624.176	123721
624.240	123707
624.304	129238
624.368	124461
624.432	123639
624.496	127826
624.560	132731
624.625	136559
624.689	133446
624.753	138768
624.817	131069
624.881	128678
624.945	117131
625.009	112234
625.073	114327
625.137	118154
625.201	124777
625.265	123713
625.329	120810
625.393	120930
625.456	121344
625.520	123896
625.584	126085
625.648	130482
625.712	137626
625.776	142981
625.839	137129
625.903	109951
625.967	99465
626.031	108491
626.095	128869
626.158	116294
626.222	91411
626.286	84871
626.349	82498
626.413	77102
626.477	75338
626.540	76626
626.604	76104
626.668	75125
626.731	74633
626.795	74154
626.858	74966
626.922	72675
626.986	72458
627.049	72163
627.113	76181
627.176	73521
627.240	70176
627.303	70300
627.366	69917
627.430	70385
627.493	71061
627.557	68598
627.620	72053
627.684	73313
627.747	73801
627.810	67610
627.874	63052
627.937	58933
628.000	63061
628.064	60278
628.127	51992
628.190	53091
628.253	51676
628.317	48077
628.380	47257
628.443	45920
628.506	45823
628.569	43722
628.632	41366
628.696	41860
628.759	40943
628.822	38798
628.885	38944
628.948	37824
629.011	37591
629.074	36651
629.137	35462
629.200	34366
629.263	35534
629.326	33669
629.389	34340
629.452	32833
629.515	33296
629.578	34117
629.641	34651
629.704	33878
629.767	33339
629.830	33169
629.892	32145
629.955	31002
630.018	33807
630.081	32576
630.144	33234
630.207	31245
630.269	32169
630.332	31398
630.395	30966
630.458	31058
630.520	29287
630.583	30216
630.646	30442
630.708	30576
630.771	30809
630.834	33150
630.896	31936
630.959	31268
631.021	30569
631.084	31133
631.146	32477
631.209	34027
631.272	33634
631.334	32800
631.397	35667
631.459	36350
631.522	40061
631.584	41875
631.646	46892
631.709	49107
631.771	50382
631.834	46832
631.896	43180
631.958	38439
632.021	36947
632.083	33506
632.145	33766
632.208	31977
632.270	32611
632.332	31038
632.395	31834
632.457	31244
632.519	30658
632.581	30429
632.643	29514
632.706	29610
632.768	28529
632.830	31045
632.892	31896
632.954	30815
633.016	32665
633.078	31587
633.141	30360
633.203	29703
633.265	30552
633.327	31840
633.389	31306
633.451	32369
633.513	31730
633.575	33427
633.637	33928
633.698	34409
633.760	36316
633.822	38420
633.884	39559
633.946	41820
634.008	44147
634.070	47699
634.132	52919
634.193	60224
634.255	65875
634.317	67807
634.379	65107
634.441	56996
634.502	49466
634.564	44787
634.626	41438
634.687	40425
634.749	35046
634.811	35084
634.873	33055
634.934	33544
634.996	33502
635.057	32352
635.119	33640
635.181	34439
635.242	37665
635.304	33655
635.365	39036
635.427	34199
635.488	35612
635.550	35336
635.611	37993
635.673	37955
635.734	42886
635.796	45400
635.857	52196
635.918	56619
635.980	66399
636.041	71328
636.102	76734
636.164	77705
636.225	74005
636.286	61687
636.348	53689
636.409	46406
636.470	41565
636.531	37950
636.593	35446
636.654	33690
636.715	32332
636.776	30917
636.838	29022
636.899	29367
636.960	28233
637.021	28124
637.082	27995
637.143	28178
637.204	25726
637.265	25352
637.326	27060
637.387	27507
637.448	25884
637.509	26945
637.570	24998
637.631	26192
637.692	23923
637.753	23042
637.814	24633
637.875	23352
637.936	24905
637.997	22722
638.058	22771
638.119	23138
638.179	23711
638.240	23382
638.301	22331
638.362	21851
638.423	21499
638.483	22252
638.544	19679
638.605	21940
638.666	20139
638.726	21172
638.787	22579
638.848	20874
638.908	20126
638.969	20185
639.030	20629
639.090	18753
639.151	19950
639.211	20832
639.272	21442
639.332	23164
639.393	23842
639.453	25766
639.514	27740
639.574	22572
639.635	19724
639.695	19501
639.756	18264
639.816	19694
639.877	19869
639.937	21752
639.997	22704
640.058	19212
640.118	18482
640.178	19522
640.239	19581
640.299	19449
640.359	19928
640.420	23816
640.480	27490
640.540	34344
640.600	34300
640.661	29397
640.721	26575
640.781	28757
640.841	22343
640.901	20995
640.961	21139
641.021	23648
641.082	25827
641.142	21753
641.202	20045
641.262	16443
641.322	19011
641.382	17304
641.442	18283
641.502	17981
641.562	19214
641.622	19466
641.682	23269
641.742	27896
641.802	24916
641.861	20655
641.921	18801
641.981	18652
642.041	17334
642.101	18024
642.161	16979
642.221	17211
642.280	16645
642.340	16900
642.400	16633
642.460	18349
642.519	18160
642.579	17769
642.639	20163
642.698	17064
642.758	20953
642.818	19131
642.877	18203
642.937	18850
642.997	19537
643.056	19661
643.116	18439
643.175	21391
643.235	21280
643.294	23087
643.354	25602
643.414	28936
643.473	37368
643.532	48412
643.592	70990
643.651	112188
643.711	190129
643.770	361555
643.830	827159
643.889	1529914
643.948	472947
644.008	98827
644.067	54589
644.126	38587
644.186	32286
644.245	27814
644.304	23711
644.363	25955
644.423	21812
644.482	23893
644.541	26230
644.600	28383
644.659	39168
644.719	50719
644.778	78482
644.837	133911
644.896	275613
644.955	618389
645.014	219162
645.073	46864
645.132	33358
645.191	28413
645.250	26039
645.309	28687
645.368	32693
645.427	45275
645.486	79250
645.545	143788
645.604	43759
645.663	25016
645.722	25055
645.781	28069
645.840	33792
645.898	45680
645.957	67904
646.016	103958
646.075	182608
646.134	344762
646.192	869533
646.251	1231749
646.310	239170
646.369	67934
646.427	50308
646.486	35874
646.545	26604
646.603	24396
646.662	21933
646.721	21039
646.779	22298
646.838	25704
646.896	34485
646.955	48259
647.014	76758
647.072	151653
647.131	410521
647.189	211980
647.248	31002
647.306	21183
647.365	18923
647.423	14835
647.481	16362
647.540	13217
647.598	14519
647.657	13608
647.715	14713
647.773	12153
647.832	12755
647.890	11405
647.948	11582
648.007	12158
648.065	10443
648.123	10784
648.181	12331
648.240	11756
648.298	11733
648.356	11881
648.414	12285
648.472	12005
648.531	11922
648.589	11143
648.647	12770
648.705	11618
648.763	11962
648.821	13783
648.879	15241
648.937	18869
648.995	25869
649.053	34385
649.111	53190
649.169	88461
649.227	153654
649.285	317924
649.343	864397
649.401	443755
649.459	63978
649.516	34224
649.574	28282
649.632	33721
649.690	39558
649.748	39417
649.806	58306
649.863	108367
649.921	293768
649.979	209111
650.037	29050
650.094	14696
650.152	13440
650.210	11162
650.268	11573
650.325	10455
650.383	10844
650.440	8355
650.498	8386
650.556	8635
650.613	8017
650.671	8654
650.728	9129
650.786	10046
650.843	15204
650.901	9702
650.958	7777
651.016	7658
651.073	7564
651.131	6690
651.188	6082
651.246	6334
651.303	6194
651.360	6427
651.418	6430
651.475	6643
651.532	6366
651.590	5224
651.647	5973
651.704	6089
651.762	6098
651.819	6234
651.876	6319
651.933	4903
651.990	6485
652.048	4496
652.105	5305
652.162	5782
652.219	5988
652.276	5881
652.333	5787
652.390	4036
652.448	5741
652.505	5741
652.562	5375
652.619	5396
652.676	6823
652.733	6558
652.790	5690
652.847	5045
652.904	5043
652.961	4306
653.017	4781
653.074	5420
653.131	4901
653.188	4796
653.245	5160
653.302	4152
653.359	5423
653.415	5430
653.472	4409
653.529	4819
653.586	5290
653.642	5407
653.699	6261
653.756	4529
653.813	4578
653.869	6140
653.926	5185
653.983	4470
654.039	6043
654.096	4725
654.152	5708
654.209	4451
654.266	6289
654.322	3260
654.379	4886
654.435	5542
654.492	5159
654.548	5210
654.605	5324
654.661	6541
654.717	4508
654.774	4505
654.830	4771
654.887	5061
654.943	4827
655.000	6420
655.056	5550
655.112	5044
655.168	4721
655.225	4415
655.281	6908
655.337	5459
655.394	5799
655.450	6407
655.506	6115
655.562	6055
655.618	7676
655.675	4576
655.731	6536
655.787	5043
655.843	6787
655.899	6157
655.955	7937
656.011	7774
656.067	8167
656.123	9008
656.179	9235
656.235	11178
656.291	9564
656.347	10534
656.403	8808
656.459	7600
656.515	7851
656.571	6237
656.627	7317
656.683	7048
656.739	6181
656.795	5587
656.850	5754
656.906	6422
656.962	6292
657.018	6230
657.074	8450
657.129	9578
657.185	15419
657.241	33338
657.297	22899
657.352	5884
657.408	4142
657.464	5396
657.519	4357
657.575	3532
657.630	3905
657.686	3521
657.742	4470
657.797	3780
657.853	3394
657.908	5492
657.964	3815
658.019	4201
658.075	4591
658.130	4268
658.186	2220
658.241	4737
658.297	3051
658.352	3567
658.407	4536
658.463	2707
658.518	4546
658.573	4386
658.629	2491
658.684	3854
658.739	4456
658.795	3253
658.850	3786
658.905	3049
658.960	3595
659.016	2964
659.071	3568
659.126	3785
659.181	3200
659.236	5546
659.291	4848
659.346	3688
659.401	3960
659.457	4223
659.512	3554
659.567	4320
659.622	3380
659.677	2159
659.732	2540
659.787	3399
659.842	2719
659.897	3575
659.952	3959
660.007	3621
660.061	3355
660.116	2178
660.171	2915
660.226	2865
660.281	4934
660.336	2533
660.391	3777
660.445	2359
660.500	3480
660.555	2533
660.610	2583
660.664	3598
660.719	3689
660.774	2787
660.828	3678
660.883	2826
660.938	3051
660.992	2030
661.047	3767
661.101	2874
661.156	2639
661.211	2137
661.265	2919
661.320	3008
661.374	3431
661.429	2845
661.483	4411
661.538	2425
661.592	3445
661.647	3922
661.701	3648
661.755	3433
661.810	4035
661.864	2447
661.919	2931
661.973	3437
662.027	3073
662.081	2372
662.136	3249
662.190	3809
662.244	3088
662.299	3132
662.353	3242
662.407	2937
662.461	2906
662.515	3452
662.569	2293
662.624	3285
662.678	2820
662.732	2531
662.786	2853
662.840	2306
662.894	3850
662.948	2893
663.002	2672
663.056	3016
663.110	3175
663.164	2269
663.218	3135
663.272	4044
663.326	3755
663.380	2729
663.434	2701
663.488	2334
663.542	3250
663.595	2772
663.649	3669
663.703	3109
663.757	3729
663.811	2998
663.864	3683
663.918	3255
663.972	3319
664.026	3425
664.079	3040
664.133	3575
664.187	4781
664.240	3367
664.294	3493
664.348	3418
664.401	3622
664.455	2952
664.508	3159
664.562	3589
664.615	4058
664.669	2762
664.722	4450
664.776	3316
664.829	3512
664.883	2472
664.936	3058
664.990	2786
665.043	3787
665.097	2595
665.150	3896
665.203	4459
665.257	3392
665.310	3879
665.363	3741
665.417	4138
665.470	4225
665.523	3538
665.576	4262
665.630	4678
665.683	4060
665.736	3482
665.789	3945
665.842	3262
665.895	3712
665.949	3733
666.002	3821
666.055	3471
666.108	4649
666.161	3715
666.214	4114
666.267	3440
666.320	4573
666.373	4215
666.426	4244
666.479	4152
666.532	4955
666.585	3441
666.638	4955
666.691	4160
666.744	5359
666.796	4482
666.849	4321
666.902	4735
666.955	2850
667.008	3583
667.060	4089
667.113	3187
667.166	3850
667.219	3558
667.271	4533
667.324	4347
667.377	5184
667.430	4100
667.482	3773
667.535	2784
667.587	3703
667.640	3548
667.693	3185
667.745	4296
667.798	5886
667.850	3286
667.903	3933
667.955	3938
668.008	3988
668.060	4327
668.113	3211
668.165	3747
668.218	4303
668.270	3782
668.322	4382
668.375	3038
668.427	4167
668.479	3308
668.532	3193
668.584	4170
668.636	3981
668.689	3677
668.741	3056
668.793	4076
668.845	3548
668.898	3506
668.950	3961
669.002	4490
669.054	3368
669.106	3907
669.158	4765
669.211	2731
669.263	3712
669.315	4366
669.367	4049
669.419	4094
669.471	4966
669.523	4754
669.575	5222
669.627	4339
669.679	4778
669.731	3500
669.783	4538
669.835	5065
669.886	3725
669.938	4450
669.990	4988
670.042	5163
670.094	5100
670.146	5909
670.197	7851
670.249	8685
670.301	10012
670.353	15324
670.404	20336
670.456	29966
670.508	45331
670.560	69611
670.611	111987
670.663	188570
670.715	429597
670.766	674734
670.818	265999
670.869	53981
670.921	26888
670.972	18262
671.024	13598
671.075	11145
671.127	9948
671.178	8957
671.230	9605
671.281	9594
671.333	10853
671.384	13408
671.436	15420
671.487	21358
671.538	29042
671.590	43969
671.641	69066
671.692	119898
671.744	228080
671.795	176698
671.846	67623
671.897	31024
671.949	19364
672.000	14079
672.051	10597
672.102	9114
672.153	7648
672.204	6844
672.256	6801
672.307	5684
672.358	6125
672.409	3875
672.460	4751
672.511	3798
672.562	4193
672.613	4114
672.664	3195
672.715	3714
672.766	4269
672.817	2907
672.868	3450
672.919	4021
672.970	3184
673.021	2695
673.071	3021
673.122	2621
673.173	3076
673.224	3053
673.275	2930
673.326	3204
673.376	3210
673.427	1711
673.478	2954
673.528	2951
673.579	3018
673.630	2704
673.680	2969
673.731	3154
673.782	2876
673.832	2638
673.883	3274
673.934	2965
673.984	3195
674.035	2667
674.085	3502
674.136	3076
674.186	4159
674.237	3130
674.287	4204
674.338	3135
674.388	4118
674.438	3541
674.489	4238
674.539	4626
674.589	4801
674.640	3404
674.690	4406
674.740	3315
674.791	3569
674.841	3331
674.891	2947
674.942	3142
674.992	2707
675.042	2566
675.092	2706
675.142	1950
675.193	1746
675.243	2980
675.293	3013
675.343	2449
675.393	3431
675.443	3105
675.493	2615
675.543	2012
675.593	3378
675.643	2805
675.693	3521
675.743	2945
675.793	2649
675.843	1591
675.893	2598
675.943	2344
675.993	1399
676.043	2130
676.093	2447
676.142	1692
676.192	2361
676.242	2348
676.292	1491
676.341	1467
676.391	1910
676.441	1722
676.491	1522
676.540	1199
676.590	2483
676.640	2068
676.689	1452
676.739	1549
676.789	1792
676.838	1562
676.888	2421
676.937	1805
676.987	1844
677.037	1414
677.086	1239
677.136	1425
677.185	1878
677.235	1796
677.284	1414
677.333	1358
677.383	1462
677.432	911
677.482	1381
677.531	1198
677.580	2026
677.630	662
677.679	1516
677.728	1987
677.778	2014
677.827	1441
677.876	1473
677.925	1435
677.975	2713
678.024	1866
678.073	2185
678.122	2280
678.171	3487
678.220	2312
678.269	3861
678.319	3724
678.368	5220
678.417	3491
678.466	2907
678.515	2594
678.564	1376
678.613	1867
678.662	1318
678.711	1706
678.760	1713
678.809	876
678.857	1563
678.906	2712
678.955	2127
679.004	1352
679.053	2301
679.102	1932
679.151	1793
679.199	264
679.248	2610
679.297	932
679.346	2540
679.394	792
679.443	919
679.492	1213
679.540	1924
679.589	1499
679.638	2652
679.686	2017
679.735	2011
679.784	2133
679.832	3773
679.881	1881
679.929	1920
679.978	1906
680.026	1596
680.075	1644
680.123	876
680.172	1176
680.220	2026
680.268	1928
680.317	-137
680.365	1382
680.414	1391
680.462	1523
680.510	2078
680.559	1124
680.607	1427
680.655	807
680.703	1474
680.752	1316
680.800	1631
680.848	612
680.896	1131
680.945	1107
680.993	1286
681.041	296
681.089	2158
681.137	1191
681.185	1189
681.233	1099
681.258	923
681.281	745
681.329	1057
681.377	728
681.380	755
681.425	1066
681.473	1896
681.502	1350
681.521	953
681.569	1723
681.617	1315
681.624	1176
681.665	196
681.713	2145
681.745	2386
681.761	2488
681.809	913
681.857	2307
681.867	2010
681.904	935
681.952	2265
681.989	1920
682.000	1800
682.048	1340
682.096	1657
682.111	1685
682.143	1710
682.191	1397
682.233	1858
682.239	1925
682.286	1578
682.334	2013
682.354	1910
682.382	1717
682.430	2106
682.476	875
682.477	839
682.525	1366
682.572	1955
682.598	2204
682.620	2408
682.667	1641
682.715	1766
682.720	1799
682.763	1969
682.810	2050
682.841	1522
682.857	1253
682.905	1598
682.952	2098
682.963	2158
683.000	2261
683.047	1798
683.085	2761
683.095	3037
683.142	1992
683.190	2271
683.206	2108
683.237	1730
683.284	1808
683.328	2153
683.332	2177
683.379	1624
683.426	1736
683.449	1851
683.473	1960
683.521	1771
683.568	2847
683.571	2782
683.615	1834
683.662	2820
683.693	1989
683.709	1503
683.757	1644
683.804	1850
683.814	1907
683.851	2126
683.898	2069
683.936	1894
683.945	1830
683.992	1394
684.039	2173
684.057	2183
684.086	2193
684.133	2359
684.179	1578
684.180	1547
684.227	2241
684.274	2599
684.300	2630
684.321	2629
684.368	2636
684.415	2452
684.422	2505
684.462	2792
684.509	1907
684.543	1837
684.556	1788
684.603	2602
684.649	2506
684.665	2466
684.696	2440
684.743	2357
684.786	3234
684.790	3301
684.837	2134
684.883	2779
684.908	2488
684.930	2189
684.977	3546
685.023	2831
685.029	2861
685.070	2997
685.117	2774
685.150	2368
685.164	2239
685.210	2999
685.257	3125
685.272	3188
685.303	3186
685.350	2573
685.393	2573
685.396	2581
685.443	2365
685.490	3075
685.514	3078
685.536	3003
685.583	2273
685.629	2979
685.636	3050
685.675	3491
685.722	2277
685.757	2771
685.768	2935
685.815	2716
685.861	3098
685.878	3172
685.908	3325
685.954	3029
686.000	3626
686.000	3633
686.047	3266
686.093	3686
686.121	3643
686.139	3534
686.185	3195
686.232	3369
686.242	3320
686.278	3265
686.324	3060
686.363	2810
686.370	2754
686.416	2877
686.463	4183
686.484	3679
686.509	3168
686.555	2975
686.601	3301
686.606	3333
686.647	3352
686.693	2604
686.727	2873
686.739	3040
686.785	3260
686.831	3180
686.848	3199
686.877	3206
686.923	2824
686.969	3506
686.969	3509
687.015	3856
687.061	3381
687.090	3575
687.107	3629
687.153	3506
687.199	3797
687.211	3566
687.245	3057
687.291	3524
687.332	3394
687.336	3381
687.382	3761
687.428	3573
687.453	3692
687.474	3772
687.520	3651
687.565	4078
687.574	3963
687.611	3643
687.657	4233
687.695	4087
687.702	4054
687.748	4603
687.794	5084
687.816	5185
687.839	5099
687.885	4982
687.931	4226
687.937	4194
687.976	4182
688.022	3767
688.058	3789
688.067	3821
688.113	3591
688.158	4009
688.179	4171
688.204	4321
688.249	4069
688.295	4231
688.300	4191
688.340	3992
688.386	4703
688.421	4217
688.431	4058
688.477	3999
688.522	4154
688.542	4242
688.567	4503
688.613	4539
688.658	4887
688.663	4901
688.703	4777
688.749	4326
688.784	4491
688.794	4574
688.839	4627
688.884	4176
688.905	4273
688.930	4286
688.975	3576
689.020	3883
689.026	3867
689.065	3987
689.110	4085
689.146	4152
689.155	4205
689.201	4772
689.246	4486
689.267	4598
689.291	4509
689.336	5032
689.381	4286
689.388	4291
689.426	4580
689.471	4595
689.509	4639
689.516	4651
689.561	4634
689.606	4469
689.630	4486
689.651	4485
689.696	4062
689.741	4531
689.750	4587
689.785	4763
689.830	5007
689.871	4418
689.875	4372
689.920	4412
689.965	4502
689.992	4614
690.010	4661
690.054	4596
690.099	4503
690.112	4455
690.144	4518
690.189	4510
690.233	4076
690.233	4080
690.278	4946
690.323	4393
690.354	4826
690.367	5009
690.412	4589
690.457	4743
690.474	4730
690.501	4710
690.546	4744
690.590	4663
690.595	4651
690.635	4912
690.680	5145
690.716	5421
690.724	5454
690.769	5638
690.813	5913
690.836	5874
690.857	6266
690.902	7215
690.946	8349
690.957	8743
690.991	11231
691.035	13889
691.077	17540
691.080	17575
691.124	15747
691.168	13643
691.198	12421
691.213	11683
691.257	10003
691.301	8285
691.318	7659
691.346	7241
691.390	6420
691.434	5329
691.439	5299
691.478	5966
691.522	6164
691.559	6048
691.567	5975
691.611	6039
691.655	5540
691.680	5363
691.699	5312
691.743	5371
691.787	5281
691.800	5226
691.831	5308
691.875	5574
691.919	5870
691.921	5856
691.964	5365
692.008	5398
692.041	4952
692.052	4917
692.096	5275
692.139	5877
692.162	5792
692.183	5652
692.227	5863
692.271	5651
692.282	5587
692.315	5392
692.359	5405
692.402	5630
692.403	5644
692.447	5646
692.490	6160
692.523	6161
692.534	6046
692.578	5648
692.622	5499
692.643	5310
692.666	5232
692.709	5398
692.753	5207
692.763	5142
692.797	5123
692.840	5339
692.884	5470
692.884	5481
692.928	5145
692.971	5057
693.004	5122
693.015	5204
693.059	5015
693.102	5216
693.124	5373
693.146	5606
693.189	5647
693.233	6108
693.245	6196
693.276	6363
693.320	6220
693.363	6262
693.365	6243
693.407	6331
693.450	6862
693.485	7017
693.493	7150
693.537	7969
693.580	8834
693.605	9321
693.624	10205
693.667	12101
693.710	14206
693.725	14960
693.753	19115
693.797	26026
693.840	33746
693.845	34361
693.883	31065
693.926	26411
693.966	23204
693.970	22766
694.013	17605
694.056	13097
694.086	9651
694.099	9297
694.142	8321
694.185	7452
694.206	7014
694.229	7046
694.272	7073
694.315	7389
694.326	7263
694.358	6916
694.401	6940
694.444	6861
694.446	6842
694.487	6980
694.530	7003
694.566	7301
694.573	7279
694.616	6407
694.659	6150
694.686	5875
694.702	5962
694.745	6114
694.787	6142
694.806	6236
694.830	6340
694.873	6289
694.916	6205
694.926	6200
694.959	6332
695.002	6581
695.044	6647
695.046	6640
695.087	6658
695.130	6507
695.166	6427
695.172	6491
695.215	6715
695.258	7011
695.286	7225
695.301	7333
695.343	7551
695.386	7690
695.406	7823
695.428	7879
695.471	7894
695.514	7867
695.526	7855
695.556	8405
695.599	9167
695.641	9833
695.646	9892
695.684	9277
695.726	8356
695.766	7728
695.769	7742
695.811	7571
695.854	7382
695.886	7287
695.896	7383
695.938	7704
695.981	7852
696.005	7986
696.023	8245
696.065	8865
696.108	9455
696.125	9686
696.150	9931
696.192	10308
696.235	10646
696.245	10707
696.277	10666
696.319	10424
696.361	10541
696.365	10504
696.404	10259
696.446	10084
696.485	9832
696.488	9857
696.530	9748
696.572	9869
696.604	9875
696.614	9819
696.656	9443
696.698	9173
696.724	8864
696.740	8970
696.783	9323
696.825	9651
696.844	9756
696.867	9756
696.909	9773
696.951	9828
696.964	9804
696.992	9952
697.034	10045
697.076	10293
697.083	10301
697.118	10445
697.160	10572
697.202	10706
697.203	10684
697.244	10589
697.286	10495
697.323	10181
697.327	10215
697.369	10545
697.411	10709
697.442	10905
697.453	10901
697.494	10581
697.536	10448
697.562	10289
697.578	10382
697.620	10602
697.661	10729
697.682	10800
697.703	10930
697.744	11192
697.786	11415
697.801	11451
697.828	11810
697.869	12330
697.911	12827
697.921	12933
697.952	12375
697.994	11541
698.035	10743
698.040	10616
698.077	10930
698.118	11305
698.160	11657
698.160	11630
698.201	11880
698.243	12123
698.279	12296
698.284	12343
698.325	12558
698.367	12688
698.399	12738
698.408	12794
698.449	12998
698.491	13136
698.518	13199
698.532	13177
698.573	13039
698.614	12872
698.638	12743
698.656	12796
698.697	12866
698.738	12915
698.757	12920
698.779	12960
698.820	12939
698.862	12944
698.877	12912
698.903	12985
698.944	13050
698.985	13109
698.996	13096
699.026	13111
699.067	13085
699.116	13026
699.235	12391
699.354	12974
699.474	11664
699.593	12278
699.713	13035
699.832	13053
699.951	12786
700.070	13272
700.190	12666
700.309	11479
700.428	11545
700.547	11082
700.667	11083
700.786	11777
700.905	11654
701.024	11267
701.143	10528
701.262	11021
701.381	11379
701.500	11296
701.619	12712
701.738	11375
701.857	11765
701.976	10353
702.095	11516
702.214	11269
702.333	10837
702.452	11091
702.571	11514
702.690	10687
702.809	11511
702.928	11675
703.047	10833
703.165	11116
703.284	9866
703.403	11008
703.522	9948
703.640	9946
703.759	10195
703.878	10627
703.997	10544
704.115	10278
704.234	10577
704.353	11274
704.471	9841
704.590	9151
704.708	9283
704.827	10660
704.946	10028
705.064	9809
705.183	9299
705.301	9970
705.420	10152
705.538	9719
705.656	9542
705.775	9787
705.893	12071
706.012	11971
706.130	8560
706.249	8682
706.367	9253
706.485	9337
706.604	8802
706.722	9365
706.840	10166
706.958	12462
707.077	9353
707.195	8922
707.313	9017
707.431	7775
707.549	7915
707.668	8100
707.786	9377
707.904	7702
708.022	8421
708.140	8848
708.258	7886
708.376	8715
708.494	8456
708.612	9289
708.730	10287
708.848	9315
708.966	8766
709.084	9313
709.202	8542
709.320	8886
709.438	7517
709.556	8800
709.674	7450
709.791	7698
709.909	7223
710.027	7508
710.145	7567
710.263	8435
710.380	7198
710.498	7629
710.616	8273
710.733	6961
710.851	7678
710.969	8130
711.086	6678
711.204	8825
711.322	7470
711.439	7229
711.557	7551
711.674	7714
711.792	7233
711.909	8214
712.027	6812
712.144	6948
712.262	7316
712.379	6001
712.497	7241
712.614	8290
712.732	8081
712.849	6636
712.966	7336
713.084	8826
713.201	7502
713.318	7001
713.436	8059
713.553	8709
713.670	10433
713.787	9029
713.905	8882
714.022	9631
714.139	9520
714.256	15320
714.373	26280
714.490	55571
714.608	170112
714.725	739123
714.842	592058
714.959	44069
715.076	17173
715.193	13352
715.310	12618
715.427	8665
715.544	9336
715.661	9375
715.778	7988
715.895	7741
716.011	8463
716.128	8111
716.245	7892
716.362	7524
716.479	6559
716.596	6564
716.713	7323
716.829	6698
716.946	6723
717.063	6455
717.180	5694
717.296	5423
717.413	6773
717.530	6705
717.646	5430
717.763	6056
717.880	5479
717.996	5812
718.113	5486
718.229	5687
718.346	5491
718.462	5283
718.579	6220
718.695	7165
718.812	6125
718.928	5311
719.045	5652
719.161	6464
719.277	6469
719.394	6623
719.510	6701
719.626	8094
719.743	12016
719.859	22228
719.975	58714
720.092	262297
720.208	475457
720.324	45419
720.440	11226
720.557	8846
720.673	9296
720.789	8466
720.905	10581
721.021	6153
721.137	5103
721.253	5400
721.369	4700
721.486	5155
721.602	5811
721.718	5087
721.834	4070
721.950	5007
722.066	4517
722.181	4785
722.297	4617
722.413	5129
722.529	5150
722.645	5227
722.761	5125
722.877	4595
722.993	6005
723.108	9067
723.224	6543
723.340	4840
723.456	4627
723.571	4069
723.687	3795
723.803	4683
723.918	4553
724.034	3718
724.150	3725
724.265	4143
724.381	5115
724.497	5790
724.612	4574
724.728	3709
724.843	4420
724.959	4742
725.074	5555
725.190	5686
725.305	4300
725.421	4437
725.536	4620
725.651	4804
725.767	3888
725.882	4277
725.997	3618
726.113	4846
726.228	4109
726.343	4506
726.459	4438
726.574	4347
726.689	3862
726.804	4720
726.920	3961
727.035	3737
727.150	3435
727.265	3688
727.380	3924
727.495	4352
727.610	4000
727.725	3900
727.841	4756
727.956	6036
728.071	4446
728.186	4046
728.301	3595
728.416	4237
728.531	4212
728.645	4226
728.760	3906
728.875	4246
728.990	4760
729.105	4066
729.220	3982
729.335	3708
729.449	4032
729.564	3449
729.679	3719
729.794	4021
729.908	3661
730.023	4095
730.138	4078
730.253	4834
730.367	3572
730.482	3542
730.596	4800
730.711	4526
730.826	6273
730.940	5787
731.055	4824
731.169	5251
731.284	5197
731.398	4902
731.513	5318
731.627	6990
731.742	8288
731.856	8658
731.970	10122
732.085	14211
732.199	22821
732.313	46691
732.428	139356
732.542	398666
732.656	182183
732.771	30673
732.885	16341
732.999	13344
733.113	12950
733.227	12058
733.342	10771
733.456	10991
733.570	9828
733.684	9928
733.798	8346
733.912	9588
734.026	9429
734.140	9267
734.254	8216
734.368	9372
734.482	9684
734.596	8911
734.710	8469
734.824	8941
734.938	8503
735.052	8113
735.166	9076
735.280	8277
735.393	7195
735.507	8611
735.621	7997
735.735	8573
735.849	8365
735.962	6857
736.076	8212
736.190	7683
736.303	8547
736.417	7690
736.531	7461
736.644	6709
736.758	7040
736.872	7775
736.985	7615
737.099	7363
737.212	7437
737.326	6403
737.439	7634
737.553	6612
737.666	6951
737.780	6330
737.893	6424
738.007	6221
738.120	6684
738.233	6550
738.347	7374
738.460	6456
738.573	7473
738.687	6178
738.800	6832
738.913	6944
739.026	5840
739.140	5784
739.253	5940
739.366	5438
739.479	6022
739.592	5573
739.705	5578
739.818	6886
739.932	5567
740.045	5899
740.158	6602
740.271	7044
740.384	6024
740.497	6144
740.610	6646
740.723	5484
740.836	5871
740.949	6884
741.062	6531
741.174	6184
741.287	7320
741.400	6153
741.513	5596
741.626	6646
741.739	5438
741.851	6366
741.964	5818
742.077	6321
742.189	6608
742.302	11328
742.415	7806
742.527	6579
742.640	5908
742.753	5533
742.865	5865
742.978	5152
743.090	5586
743.203	5138
743.316	5571
743.428	5242
743.541	5365
743.653	5453
743.766	6346
743.878	6024
743.990	6296
744.103	11356
744.215	16351
744.327	6122
744.440	6618
744.552	6195
744.664	5012
744.777	5122
744.889	4989
745.001	4863
745.113	5034
745.226	4507
745.338	4954
745.450	5098
745.562	4393
745.674	4303
745.786	5315
745.898	6198
746.010	5179
746.122	4484
746.234	5318
746.347	5013
746.459	4977
746.570	5550
746.682	12273
746.794	22302
746.906	9860
747.018	5474
747.130	5670
747.242	4372
747.354	4764
747.466	5261
747.577	4096
747.689	4392
747.801	4193
747.913	4236
748.024	4736
748.136	4303
748.248	3801
748.359	3445
748.471	5232
748.583	3051
748.694	3138
748.806	4388
748.918	3571
749.029	3898
749.141	4284
749.252	4751
749.364	3770
749.475	4577
749.587	3244
749.698	3486
749.809	4680
749.921	3951
750.032	3996
750.144	3280
750.255	3324
750.366	4076
750.478	4130
750.589	3778
750.700	3195
750.811	4151
750.923	3495
751.034	3508
751.145	4981
751.256	3084
751.367	2986
751.479	2962
751.590	3410
751.701	3162
751.812	2906
751.923	3605
752.034	4273
752.145	3372
752.256	3309
752.367	3079
752.478	4054
752.589	3658
752.700	3797
752.811	3340
752.922	3176
753.032	3404
753.143	3247
753.254	3481
753.365	4831
753.476	4589
753.586	3556
753.697	3291
753.808	4238
753.919	2989
754.029	2856
754.140	3096
754.251	4120
754.361	4179
754.472	2833
754.582	3362
754.693	2780
754.804	3276
754.914	3184
755.025	2503
755.135	3258
755.246	3388
755.356	3076
755.466	3747
755.577	4123
755.687	3273
755.798	3489
755.908	2958
756.018	3095
756.129	3426
756.239	3379
756.349	4063
756.460	4119
756.570	4874
756.680	3989
756.790	3643
756.900	3085
757.011	3064
757.121	3485
757.231	4043
757.341	2838
757.451	3595
757.561	2922
757.671	3650
757.781	2203
757.891	3719
758.001	3415
758.111	3779
758.221	4136
758.331	5095
758.441	5296
758.551	4265
758.661	5241
758.771	4990
758.880	4153
758.990	4243
759.100	3724
759.210	4672
759.320	4991
759.429	4981
759.539	4256
759.649	5272
759.758	6376
759.868	6828
759.978	6499
760.087	7516
760.197	8050
760.307	6863
760.416	6385
760.526	5222
760.635	6453
760.745	7600
760.854	8775
760.964	9641
761.073	8644
761.182	7884
761.292	6608
761.401	6648
761.511	5406
761.620	4355
761.729	4402
761.839	4519
761.948	4402
762.057	3737
762.166	4251
762.276	4020
762.385	5155
762.494	4384
762.603	4092
762.712	4380
762.822	4051
762.931	5302
763.040	4252
763.149	4423
763.258	4517
763.367	4976
763.476	5072
763.585	5335
763.694	5481
763.803	4992
763.912	5654
764.021	6391
764.130	5626
764.238	6913
764.347	6345
764.456	7711
764.565	7092
764.674	7786
764.783	8202
764.891	7901
765.000	9772
765.109	10399
765.217	12225
765.326	14164
765.435	16460
765.543	20222
765.652	25301
765.761	33526
765.869	46357
765.978	70702
766.086	117259
766.195	212578
766.303	418479
766.412	631212
766.520	563128
766.629	286535
766.737	142868
766.846	85257
766.954	56797
767.062	41415
767.171	30317
767.279	25137
767.387	18940
767.496	17449
767.604	14328
767.712	13146
767.820	11231
767.928	11981
768.037	9693
768.145	10146
768.253	10025
768.361	8935
768.469	8909
768.577	8677
768.685	10849
768.793	10387
768.901	11198
769.009	13940
769.117	15562
769.225	20703
769.333	30308
769.441	46973
769.549	85946
769.657	180106
769.765	402253
769.873	531142
769.981	284939
770.088	108948
770.196	56910
770.304	37863
770.412	26835
770.519	20211
770.627	15526
770.735	13110
770.842	11543
770.950	10364
771.058	9410
771.165	9320
771.273	8573
771.380	9171
771.488	10763
771.595	10049
771.703	8848
771.810	8723
771.918	8749
772.025	8976
772.133	9738
772.240	8792
772.348	11377
772.455	9417
772.562	9044
772.670	8198
772.777	8587
772.884	8353
772.991	8079
773.099	7789
773.206	7208
773.313	8280
773.420	6928
773.528	7103
773.635	7001
773.742	8091
773.849	6039
773.956	7300
774.063	6877
774.170	7068
774.277	6464
774.384	7128
774.491	5685
774.598	6331
774.705	6423
774.812	6557
774.919	6670
775.026	6221
775.133	5596
775.239	6579
775.346	5279
775.453	6414
775.560	5925
775.667	6689
775.773	5139
775.880	7225
775.987	5455
776.093	6719
776.200	6626
776.307	4855
776.413	6282
776.520	6463
776.627	5210
776.733	6003
776.840	5331
776.946	11267
777.053	18131
777.159	39092
777.266	21847
777.372	32780
777.478	27489
777.585	13357
777.691	5292
777.798	6562
777.904	5700
778.010	4972
778.117	5489
778.223	4846
778.329	5528
778.435	4314
778.542	6017
778.648	4518
778.754	4053
778.860	5187
778.966	4107
779.072	4565
779.178	4418
779.284	3931
779.391	4416
779.497	4107
779.603	6128
779.708	4887
779.815	10855
779.920	32636
780.026	43360
780.132	7857
780.238	4317
780.344	3600
780.450	6637
780.556	2904
780.661	4132
780.767	4799
780.873	2849
780.979	3568
781.085	3543
781.190	3822
781.296	4349
781.402	3634
781.507	3559
781.613	3466
781.719	4511
781.824	4129
781.930	4307
782.035	3441
782.141	3620
782.246	2548
782.352	3325
782.457	3208
782.563	2829
782.668	3456
782.773	3406
782.879	2757
782.984	3876
783.090	3436
783.195	3803
783.300	3458
783.405	3258
783.511	2621
783.616	2847
783.721	2703
783.826	2487
783.932	3553
784.037	2881
784.142	3590
784.247	3397
784.352	3680
784.457	2299
784.562	3169
784.667	3446
784.772	2198
784.877	2831
784.982	3209
785.087	2952
785.192	3160
785.297	1974
785.402	2980
785.507	2100
785.611	2612
785.716	2012
785.821	2448
785.926	1859
786.031	2211
786.135	2414
786.240	3358
786.345	712
786.450	2539
786.554	3074
786.659	2567
786.763	1447
786.868	3312
786.973	4372
787.077	2753
787.182	1704
787.286	2807
787.391	3248
787.495	1331
787.600	1761
787.704	1712
787.809	3420
787.913	2180
788.017	2338
788.122	2640
788.226	2407
788.330	1195
788.435	2270
788.539	3313
788.643	1437
788.747	1225
788.852	2242
788.956	1269
789.060	2374
789.164	2174
789.268	1641
789.372	2412
789.476	2152
789.580	2115
789.684	2011
789.788	2541
789.892	2448
789.996	2252
790.100	1773
790.204	2083
790.308	3388
790.412	1602
790.516	1713
790.620	2477
790.724	2704
790.828	1386
790.931	-156
791.035	3565
791.139	2191
791.242	948
791.346	2243
791.450	2514
791.554	2218
791.657	1066
791.761	2950
791.864	2008
791.968	1905
792.072	1771
792.175	767
792.279	2441
792.382	1360
792.486	1621
792.589	1800
792.693	2379
792.796	1064
792.899	2521
793.003	2584
793.106	167
793.209	1385
793.313	2873
793.416	417
793.519	1998
793.623	3048
793.726	2157
793.829	662
793.932	1731
794.035	1124
794.138	3108
794.242	2513
794.345	1411
794.448	2611
794.551	4210
794.654	16763
794.757	23340
794.860	4047
794.963	2291
795.066	1917
795.169	2933
795.272	1717
795.375	2137
795.477	812
795.580	1149
795.683	1238
795.786	1651
795.889	353
795.991	1994
796.094	2218
796.197	1573
796.300	2683
796.402	1554
796.505	704
796.608	595
796.710	2273
796.813	1817
796.915	1814
797.018	1851
797.120	2587
797.223	788
797.326	2839
797.428	562
797.530	470
797.633	1526
797.735	2307
797.838	1434
797.940	1903
798.042	1021
798.145	1294
798.247	2092
798.349	-127
798.452	2234
798.554	1491
798.656	1424
798.758	3045
798.860	1152
798.962	1087
799.065	1169
799.167	837
799.269	2400
799.371	2546
799.473	3468
799.575	2018
799.677	1195
799.779	2360
799.881	419
799.983	2521
800.085	1228
800.187	951
800.289	1042
800.390	580
800.492	2345
800.594	2650
800.696	358
800.798	1637
800.899	903
801.001	1485
801.103	1531
801.205	1477
801.306	1356
801.408	575
801.509	811
801.611	1363
801.713	1893
801.814	398
801.916	641
802.017	1414
802.119	-513
802.220	1572
802.322	-758
802.423	3120
802.525	-1027
802.626	1410
802.727	1190
802.829	1356
802.930	-680
803.031	2510
803.133	771
803.234	499
803.335	1436
803.436	-34
803.538	769
803.639	-482
803.740	1332
803.841	227
803.942	1900
804.043	1089
804.144	524
804.245	1347
804.346	963
804.447	317
804.548	1052
804.649	2051
804.750	-49
804.851	282
804.952	808
805.053	301
805.154	-236
805.255	1926
805.355	1233
805.456	183
805.557	394
805.658	-719
805.758	2004
805.859	790
805.960	658
806.061	172
806.161	352
806.262	109
806.362	465
806.463	241
806.564	2130
806.664	981
806.765	511
806.865	-68
806.966	1026
807.066	58
807.166	1581
807.267	740
807.367	260
807.468	940
807.568	-732
807.668	1115
807.769	1498
807.869	1096
807.969	569
808.069	160
808.170	1319
808.270	358
808.370	1022
808.470	1665
808.570	-191
808.670	135
808.770	1793
808.870	6
808.970	576
809.070	-194
809.170	377
809.271	557
809.370	93
809.470	96
809.570	268
809.670	399
809.770	320
809.870	1175
809.970	920
810.070	784
810.169	804
810.269	-442
810.369	2105
810.469	527
810.568	690
810.668	146
810.768	-261
810.867	653
810.967	-30
811.066	-531
811.166	57
811.265	1455
811.365	-619
811.464	1143
811.564	251
811.663	-273
811.763	-913
811.862	906
811.962	914
812.061	215
812.160	-1031
812.260	1044
812.359	967
812.458	1396
812.557	5599
812.657	4561
812.756	2236
812.855	217
812.954	948
813.053	1167
813.153	786
813.252	-238
813.351	758
813.450	869
813.549	832
813.648	856
813.747	-56
813.846	970
813.945	520
814.044	1213
814.143	377
814.242	382
814.341	811
814.439	1070
814.538	1008
814.637	847
814.736	663
814.835	1904
814.933	1192
815.032	2324
815.131	1457
815.229	4033
815.328	6147
815.427	3254
815.525	3719
815.624	3379
815.722	3314
815.821	3604
815.919	3723
816.018	3298
816.116	3438
816.215	2563
816.313	3765
816.412	4104
816.510	4656
816.609	6137
816.707	5750
816.805	5022
816.904	4981
817.002	5726
817.100	5639
817.198	5853
817.296	4753
817.395	4543
817.493	5249
817.591	3801
817.689	4584
817.787	4024
817.885	4256
817.983	3317
818.081	4862
818.179	5626
818.277	7884
818.375	8388
818.473	8639
818.571	6006
818.669	7467
818.767	8888
818.865	5988
818.963	3270
819.061	3692
819.158	4164
819.256	6279
819.354	5450
819.452	9253
819.549	5042
819.647	5138
819.745	3500
819.842	3947
819.940	4195
820.038	3987
820.135	3631
820.233	5330
820.330	3660
820.428	3647
820.525	4854
820.623	3229
820.720	3114
820.818	3231
820.915	4833
821.012	5364
821.110	3511
821.207	4088
821.304	4010
821.402	5705
821.499	8504
821.596	13849
821.693	7425
821.791	4376
821.888	3829
821.985	4239
822.082	3247
822.179	6409
822.276	7638
822.373	3589
822.470	3553
822.567	3126
822.664	2954
822.761	3475
822.858	2197
822.955	2817
823.052	2308
823.149	3218
823.246	2894
823.343	2951
823.440	2648
823.536	3468
823.633	1820
823.730	3217
823.827	3548
823.923	2892
824.020	3846
824.117	4514
824.213	6339
824.310	4202
824.407	2843
824.503	3510
824.600	3420
824.696	2208
824.793	4945
824.889	3384
824.986	2825
825.082	2881
825.179	2503
825.275	2903
825.371	2627
825.468	3619
825.564	1534
825.660	4232
825.757	3735
825.853	2213
825.949	990
826.045	2214
826.142	1955
826.238	3404
826.334	3103
826.430	1308
826.526	2087
826.622	1749
826.718	3388
826.814	3239
826.910	2693
827.006	1200
827.102	1601
827.198	3640
827.294	2193
827.390	2844
827.486	1876
827.582	970
827.678	969
827.774	3193
827.869	992
827.965	2427
828.061	378
828.157	2237
828.252	3220
828.348	1064
828.444	1941
828.539	1375
828.635	2275
828.731	2758
828.826	686
828.922	2474
829.017	2150
829.113	2200
829.208	1374
829.304	1695
829.399	3869
829.495	1839
829.590	2752
829.685	1243
829.781	2783
829.876	2183
829.971	866
830.066	1158
830.162	1991
830.257	2939
830.352	1169
830.447	1886
830.543	922
830.638	1779
830.733	2593
830.828	2039
830.923	2729
831.018	1407
831.113	2356
831.208	1014
831.303	688
831.398	989
831.493	2155
831.588	2763
831.683	657
831.778	2682
831.873	1324
831.967	3163
832.062	1643
832.157	1249
832.252	2198
832.346	1197
832.441	1749
832.536	2039
832.631	2037
832.725	1638
832.820	1565
832.914	963
833.009	606
833.104	1148
833.198	1779
833.293	735
833.387	2141
833.482	1917
833.576	1631
833.670	2113
833.765	1462
833.859	1471
833.954	2025
834.048	1442
834.142	1571
834.237	723
834.331	1535
834.425	1782
834.519	786
834.613	1831
834.708	1142
834.802	1757
834.896	586
834.990	726
835.084	1322
835.178	679
835.272	1366
835.366	1705
835.460	2039
835.554	1296
835.648	1390
835.742	432
835.836	565
835.930	1096
836.024	774
836.117	1340
836.211	696
836.305	1266
836.399	2089
836.493	273
836.586	2227
836.680	856
836.774	438
836.867	1599
836.961	363
837.055	148
837.148	1247
837.242	1105
837.335	948
837.429	531
837.522	268
837.616	430
837.709	2079
837.803	821
837.896	1351
837.989	1166
838.083	1152
838.176	1439
838.269	440
838.363	1644
838.456	175
838.549	1195
838.642	1391
838.735	1167
838.829	1611
838.922	478
839.015	813
839.108	610
839.201	1810
839.294	956
839.387	1352
839.480	-172
839.573	745
839.666	446
839.759	1354
839.852	275
839.945	1253
840.038	901
840.131	1003
840.223	1030
840.316	1418
840.409	1578
840.502	1066
840.594	1717
840.687	-113
840.780	522
840.873	-88
840.965	951
841.058	1128
841.150	1493
841.243	208
841.336	881
841.428	446
841.521	718
841.613	65
841.706	1088
841.798	110
841.890	612
841.983	-157
842.075	1947
842.167	784
842.260	1161
842.352	1831
842.444	507
842.537	1156
842.629	1167
842.721	-73
842.813	1580
842.905	-719
842.997	848
843.090	-90
843.182	789
843.274	-239
843.366	2121
843.458	2493
843.550	2028
843.642	540
843.734	518
843.826	252
843.918	423
844.009	1247
844.101	105
844.193	824
844.285	1872
844.377	3228
844.469	4903
844.560	7709
844.652	6820
844.744	2620
844.835	726
844.927	1448
845.019	1073
845.110	638
845.202	340
845.293	-483
845.385	-109
845.476	764
845.568	973
845.659	-175
845.751	1139
845.842	70
845.934	469
846.025	-531
846.116	975
846.208	1313
846.299	187
846.390	757
846.482	773
846.573	1101
846.664	774
846.755	321
846.846	829
846.937	-52
847.029	1215
847.120	-12
847.211	-22
847.302	1920
847.393	161
847.484	1022
847.575	-266
847.666	286
847.757	641
847.847	639
847.938	882
848.029	1288
848.120	65
848.211	286
848.302	-238
848.392	888
848.483	1496
848.574	562
848.664	545
848.755	1316
848.846	1284
848.936	150
849.027	1018
849.118	1967
849.208	1968
849.299	4787
849.389	9253
849.480	20580
849.570	41756
849.661	81009
849.751	119363
849.841	38167
849.932	5436
850.022	2445
850.112	1986
850.203	938
850.293	1116
850.383	1507
850.474	-484
850.564	866
850.654	529
850.744	1286
850.834	1230
850.924	351
851.014	1224
851.104	1277
851.194	62
851.284	107
851.374	970
851.464	-352
851.554	955
851.644	666
851.734	995
851.824	1047
851.914	1357
852.004	2822
852.094	1171
852.183	384
852.273	1631
852.363	-5
852.452	1184
852.542	810
852.632	772
852.721	614
852.811	1388
852.901	2496
852.990	1552
853.080	2115
853.169	2617
853.259	3033
853.348	3221
853.438	5320
853.527	7760
853.617	11626
853.706	22585
853.795	43072
853.885	88931
853.974	161925
854.063	286640
854.152	370113
854.242	143435
854.331	35404
854.420	15354
854.509	11017
854.598	7235
854.687	6074
854.777	4052
854.866	3738
854.955	3382
855.044	1645
855.133	1743
855.222	1937
855.311	1840
855.400	1361
855.488	721
855.577	753
855.666	669
855.755	882
855.844	1069
855.933	922
856.021	1236
856.110	302
856.199	76
856.288	628
856.376	1145
856.465	320
856.554	1183
856.642	138
856.731	1625
856.819	799
856.908	804
856.996	473
857.085	583
857.173	385
857.262	-27
857.350	2
857.438	-168
857.527	545
857.615	390
857.703	375
857.792	308
857.880	211
857.968	300
858.056	851
858.145	378
858.233	510
858.321	619
858.409	596
858.497	535
858.585	-1031
858.673	261
858.761	-872
858.849	734
858.937	228
859.025	548
859.113	685
859.201	672
859.289	2771
859.377	1439
859.465	746
859.552	450
859.640	365
859.728	945
859.816	127
859.903	115
859.991	139
860.079	1125
860.166	800
860.254	418
860.342	1146
860.429	493
860.517	298
860.604	-447
860.692	17
860.779	-827
860.867	-275
860.954	580
861.042	777
861.129	406
861.216	1187
861.304	366
861.391	280
861.478	537
861.565	154
861.653	863
861.740	-293
861.827	-436
861.914	-52
862.001	302
862.089	1225
862.176	1065
862.263	493
862.350	411
862.437	790
862.524	675
862.611	1076
862.698	2323
862.785	3152
862.871	4025
862.958	1468
863.045	363
863.132	327
863.219	105
863.306	358
863.392	1122
863.479	608
863.566	851
863.652	838
863.739	436
863.826	-59
863.912	1503
863.999	445
864.086	1167
864.172	1309
864.259	974
864.345	1323
864.432	1150
864.518	-19
864.604	1653
864.691	1061
864.777	1889
864.863	2743
864.950	3659
865.036	4482
865.122	9137
865.209	8071
865.295	7253
865.381	8249
865.467	9419
865.553	11510
865.639	15860
865.726	25668
865.812	49961
865.898	89765
865.984	129398
866.070	232930
866.156	218947
866.242	66252
866.328	20103
866.414	11061
866.499	9636
866.585	7523
866.671	7516
866.757	7064
866.843	6710
866.928	6269
867.014	5778
867.100	4850
867.186	5603
867.271	5694
867.357	5932
867.442	5209
867.528	5167
867.614	5861
867.699	7301
867.785	8945
867.870	12482
867.956	13485
868.041	9724
868.127	8404
868.212	9835
868.297	8498
868.383	6310
868.468	6684
868.553	7801
868.639	4746
868.724	5199
868.809	4475
868.894	3912
868.979	4602
869.065	3884
869.150	3358
869.235	4304
869.320	3130
869.405	3759
869.490	4463
869.575	3098
869.660	3314
869.745	4119
869.830	3770
869.915	3773
870.000	4282
870.085	4086
870.169	5906
870.254	6922
870.339	3203
870.424	3045
870.509	4098
870.593	4893
870.678	4574
870.763	3516
870.847	3963
870.932	5273
871.016	4660
871.101	4348
871.186	4146
871.270	5207
871.355	2521
871.439	3604
871.523	4253
871.608	3978
871.692	3822
871.777	6041
871.861	4929
871.945	3230
872.030	3937
872.114	3230
872.198	2687
872.282	3285
872.367	2732
872.451	2940
872.535	3279
872.619	3324
872.703	3406
872.787	3763
872.871	2862
872.955	2393
873.039	1597
873.123	3147
873.207	3593
873.291	1880
873.375	2198
873.459	3927
873.543	2062
873.627	2740
873.711	2745
873.794	3464
873.878	2952
873.962	1913
874.045	2185
874.129	2292
874.137	2333
874.213	2744
874.245	2738
874.296	2724
874.352	2144
874.380	1857
874.460	3261
874.464	3317
874.547	2324
874.568	2427
874.631	2723
874.676	2475
874.714	2244
874.784	3239
874.798	3441
874.881	2984
874.892	2871
874.965	2134
874.999	2490
875.048	2914
875.107	2660
875.131	2569
875.215	2175
875.215	2175
875.298	1025
875.323	1593
875.381	2942
875.430	3639
875.465	4061
875.538	3289
875.548	3176
875.631	2018
875.646	1993
875.714	2126
875.753	2320
875.798	2509
875.861	3570
875.881	3831
875.964	2558
875.968	2546
876.047	2600
876.076	2586
876.130	2579
876.183	3090
876.213	3361
876.291	3511
876.296	3509
876.379	2842
876.398	2917
876.462	3134
876.506	2598
876.545	2253
876.613	2975
876.628	3147
876.711	2606
876.721	2778
876.794	4151
876.828	3964
876.877	3251
876.935	2232
876.960	2057
877.043	2933
877.043	2934
877.125	3650
877.150	3983
877.208	4315
877.258	3360
877.291	2827
877.365	3019
877.374	3036
877.456	2923
877.472	2814
877.539	2784
877.579	3356
877.622	3880
877.687	4186
877.704	4222
877.787	3685
877.794	3717
877.869	4318
877.901	4294
877.952	3728
878.008	3341
878.034	3397
878.115	2627
878.117	2618
878.199	3402
878.222	3505
878.282	4211
878.329	5068
878.364	5285
878.437	4749
878.447	4639
878.529	3092
878.544	3023
878.611	3247
878.651	3530
878.694	4215
878.758	4686
878.776	4662
878.858	4947
878.865	4871
878.941	3316
878.972	2940
879.023	2967
879.078	3783
879.105	4346
879.185	5188
879.187	5201
879.269	5200
879.292	5117
879.351	4615
879.399	4326
879.433	4106
879.506	4416
879.516	4544
879.598	4361
879.613	4331
879.680	4064
879.720	4338
879.762	4665
879.827	4515
879.844	4407
879.926	4369
879.933	4326
880.007	4344
880.040	4240
880.089	3996
880.147	5063
880.171	5818
880.253	7763
880.254	7760
880.335	7820
880.360	8227
880.417	10971
880.467	14746
880.499	16714
880.574	17315
880.580	16967
880.662	9511
880.680	8310
880.744	5765
880.787	4682
880.825	4674
880.893	5156
880.907	5097
880.989	4165
881.000	4105
881.070	5349
881.106	5739
881.152	5018
881.213	4323
881.233	4408
881.315	4567
881.319	4580
881.396	5261
881.426	5247
881.478	5292
881.532	6189
881.559	6496
881.639	6236
881.641	6227
881.722	4898
881.745	4897
881.803	6150
881.852	6451
881.885	5974
881.958	4670
881.966	4606
882.047	5042
882.064	4994
882.129	4627
882.171	4485
882.210	4392
882.277	4132
882.291	4369
882.372	5574
882.383	5758
882.454	6730
882.489	6933
882.535	6576
882.596	6525
882.616	6590
882.697	6386
882.702	6339
882.778	4968
882.808	4686
882.859	4688
882.914	4195
882.940	4194
883.020	4767
883.021	4792
883.102	5906
883.127	6368
883.183	7532
883.233	8039
883.264	6823
883.339	4149
883.345	4136
883.426	3724
883.445	3771
883.507	4618
883.551	4797
883.587	5395
883.657	7033
883.668	7208
883.749	7969
883.763	8053
883.830	6399
883.869	5415
883.910	5395
883.975	5346
883.991	5398
884.072	5889
884.081	5912
884.152	7398
884.187	8034
884.233	8371
884.292	8434
884.314	7583
884.394	4425
884.398	4262
884.475	3868
884.504	3741
884.555	4212
884.610	4620
884.636	4885
884.716	5929
884.716	5960
884.797	7782
884.821	8276
884.877	7816
884.927	7295
884.958	6890
885.033	5998
885.038	5938
885.118	4633
885.139	4253
885.199	4474
885.244	4808
885.279	5735
885.350	7270
885.359	7504
885.439	9766
885.456	10043
885.520	7980
885.561	6933
885.600	6534
885.667	5783
885.680	6039
885.760	7150
885.773	7312
885.840	5694
885.878	4958
885.920	5340
885.984	5418
886.000	5520
886.080	6215
886.089	6291
886.160	7921
886.195	8489
886.240	7830
886.300	7171
886.320	7396
886.400	7939
886.406	7956
886.480	6384
886.511	5709
886.560	6047
886.616	6199
886.640	6226
886.720	6596
886.722	6581
886.800	6907
886.827	6987
886.879	7014
886.932	6883
886.959	7319
887.038	8671
887.039	8681
887.119	7229
887.143	6783
887.198	7145
887.248	7477
887.278	7532
887.354	7421
887.358	7437
887.437	7347
887.459	7327
887.517	7769
887.564	7955
887.596	7251
887.669	5534
887.676	5480
887.755	4803
887.774	4597
887.835	5673
887.880	6496
887.914	6913
887.985	7665
887.994	7975
888.073	10393
888.090	10866
888.153	10922
888.195	10910
888.232	9884
888.300	7913
888.311	7741
888.391	6275
888.405	5990
888.470	6275
888.510	6427
888.549	6524
888.615	6774
888.628	7285
888.708	9982
888.720	10382
888.787	9415
888.825	8801
888.866	7719
888.930	6033
888.945	6252
889.024	7265
889.035	7377
889.103	8601
889.140	9218
889.182	8501
889.245	7360
889.261	7752
889.340	9528
889.349	9701
889.419	7748
889.454	6727
889.498	7186
889.559	7798
889.577	7972
889.656	8615
889.664	8653
889.735	9288
889.768	9547
889.814	9391
889.873	9107
889.978	8225
890.083	7193
890.187	9467
890.292	8628
890.397	7903
890.501	7731
890.606	6262
890.710	7552
890.815	11037
890.919	8532
891.024	8320
891.128	7283
891.233	6207
891.337	9038
891.442	9676
891.546	8817
891.650	7290
891.755	6932
891.859	8951
891.963	9455
892.068	8782
892.172	5558
892.276	5018
892.380	7352
892.484	10829
892.589	10396
892.693	8409
892.797	5869
892.901	5151
893.005	5592
893.109	10995
893.213	10219
893.317	7661
893.421	5341
893.525	4882
893.629	5885
893.733	9326
893.837	7751
893.941	7131
894.045	6081
894.148	6485
894.252	9184
894.356	10871
894.460	10000
894.564	7302
894.667	6651
894.771	4302
894.875	4289
894.978	6886
895.082	7955
895.186	8206
895.289	6722
895.393	6141
895.496	8641
895.600	6342
895.703	5175
895.807	6742
895.910	7443
896.014	7408
896.117	6034
896.221	7239
896.324	6664
896.427	5679
896.531	4862
896.634	6789
896.737	5536
896.840	8141
896.944	8525
897.047	8437
897.150	6608
897.253	5320
897.356	4950
897.460	5774
897.563	5143
897.666	8135
897.769	7594
897.872	4961
897.975	4935
898.078	6304
898.181	4890
898.284	6798
898.387	8427
898.490	8005
898.593	5579
898.695	4926
898.798	5186
898.901	6132
899.004	6122
899.107	6546
899.209	6257
899.312	10022
899.415	4920
899.518	4486
899.620	4658
899.723	5571
899.826	5854
899.928	5080
900.031	5887
900.133	7601
900.236	5545
900.338	4461
900.441	5718
900.543	6360
900.646	6194
900.748	6486
900.851	8024
900.953	5278
901.055	5006
901.158	6116
901.260	4925
901.362	4925
901.465	5572
901.567	7051
901.669	6317
901.771	6852
901.873	5997
901.976	6146
902.078	6489
902.180	4317
902.282	4135
902.384	6376
902.486	8820
902.588	6807
902.690	4910
902.792	3582
902.894	5880
902.996	7625
903.098	6133
903.200	4525
903.302	4899
903.404	5011
903.505	4568
903.607	6070
903.709	8491
903.811	8401
903.913	5749
904.014	3541
904.116	3451
904.218	4682
904.319	5670
904.421	9907
904.523	9828
904.624	6216
904.726	5152
904.827	5675
904.929	5739
905.030	5605
905.132	7602
905.233	6618
905.335	4988
905.436	4636
905.537	3319
905.639	4697
905.740	6440
905.841	7290
905.943	6303
906.044	6316
906.145	4874
906.247	4963
906.348	4705
906.449	5932
906.550	6460
906.651	5535
906.752	4873
906.854	4383
906.955	4956
907.056	5268
907.157	7098
907.258	6696
907.359	3830
907.460	4202
907.561	3494
907.662	4287
907.762	4856
907.863	6264
907.964	6335
908.065	4282
908.166	3721
908.267	5573
908.367	4203
908.468	4639
908.569	4760
908.670	6391
908.770	5496
908.871	5917
908.971	6030
909.072	4734
909.173	3564
909.273	5416
909.374	5536
909.474	5471
909.575	4315
909.675	5227
909.776	5099
909.876	5556
909.977	4825
910.077	6249
910.177	7241
910.278	4943
910.378	4636
910.478	5377
910.579	6440
910.679	5601
910.779	6024
910.879	6265
910.980	5512
911.080	6056
911.180	4148
911.280	4165
911.380	3790
911.480	4579
911.580	4785
911.680	5374
911.780	6464
911.880	5082
911.980	4225
912.080	4384
912.180	5001
912.280	5015
912.380	4038
912.480	3821
912.580	3688
912.679	4785
912.779	5526
912.879	5476
912.979	5352
913.078	3306
913.178	4152
913.278	3549
913.377	2706
913.477	3892
913.577	3911
913.676	6390
913.776	6597
913.875	4911
913.975	4486
914.074	5318
914.174	5780
914.273	4065
914.373	4660
914.472	4897
914.572	3445
914.671	4751
914.770	4732
914.870	3764
914.969	4728
915.068	5437
915.167	5810
915.267	5017
915.366	5079
915.465	5120
915.564	5293
915.663	6165
915.763	5503
915.862	6103
915.961	5826
916.060	4411
916.159	4251
916.258	4266
916.357	3920
916.456	6224
916.555	6179
916.654	5782
916.752	5629
916.851	5422
916.950	4558
917.049	4140
917.148	3940
917.247	4410
917.345	4341
917.444	4626
917.543	4443
917.642	4435
917.740	5703
917.839	8207
917.937	8740
918.036	5815
918.135	4686
918.233	5195
918.332	5763
918.430	3917
918.529	4650
918.627	5726
918.726	6118
918.824	5629
918.923	4076
919.021	4986
919.119	4395
919.218	5136
919.316	5407
919.414	5421
919.512	7066
919.611	6071
919.709	5774
919.807	8699
919.905	7820
920.003	6947
920.102	6652
920.200	7551
920.298	8110
920.396	8204
920.494	7613
920.592	6720
920.690	7028
920.788	6824
920.886	7742
920.984	8486
921.082	9143
921.180	9189
921.277	8411
921.375	11431
921.473	13930
921.571	12933
921.669	12115
921.766	11079
921.864	12142
921.962	12188
922.060	12448
922.157	12170
922.255	12442
922.352	12434
922.450	13650
922.548	14541
922.645	15575
922.743	20461
922.840	31083
922.938	33700
923.035	29475
923.133	29747
923.230	33292
923.327	40120
923.425	35352
923.522	36329
923.619	33314
923.717	30461
923.814	29977
923.911	29008
924.008	30734
924.106	28974
924.203	27678
924.300	30561
924.397	29267
924.494	29725
924.591	27981
924.688	27970
924.786	28652
924.883	29160
924.979	28999
925.077	28272
925.173	27625
925.270	28069
925.367	27651
925.464	29840
925.561	30028
925.658	30758
925.755	25925
925.852	31206
925.948	28631
926.045	29639
926.142	31962
926.239	32770
926.335	25979
926.432	30724
926.529	33156
926.625	33650
926.722	25951
926.818	26928
926.915	29454
927.011	26308
927.108	26388
927.204	27077
927.301	24230
927.397	29533
927.494	29088
927.590	21142
927.687	23800
927.783	29682
927.879	27734
927.976	24181
928.072	21842
928.168	26441
928.264	26157
928.361	25026
928.457	27963
928.553	22849
928.649	24497
928.745	24420
928.841	22734
928.937	24527
929.033	23071
929.129	23804
929.225	26595
929.321	22470
929.417	21867
929.513	25186
929.609	21006
929.705	22659
929.801	24898
929.897	21115
929.993	22017
930.089	22590
930.184	20307
930.280	24178
930.376	26771
930.471	20791
930.567	18515
930.663	21851
930.758	19492
930.854	22068
930.950	20904
931.045	19255
931.141	20926
931.236	26481
931.332	20695
931.427	18052
931.523	25544
931.618	22002
931.714	16295
931.809	20241
931.905	22675
932.000	15588
932.095	16287
932.191	24411
932.286	25189
932.381	19988
932.476	17360
932.572	20009
932.667	16368
932.762	18807
932.857	20476
932.952	23496
933.047	18110
933.142	15758
933.237	19309
933.332	21260
933.427	22425
933.522	18907
933.617	17110
933.712	17654
933.807	23128
933.902	23486
933.997	21826
934.092	17094
934.187	19419
934.282	19861
934.376	21074
934.471	20898
934.566	15504
934.661	17349
934.755	20355
934.850	20786
934.945	16906
935.039	16073
935.134	14420
935.228	18843
935.323	24634
935.417	15427
935.512	12826
935.606	14339
935.701	17905
935.795	20204
935.890	17278
935.984	15397
936.079	13341
936.173	16373
936.267	14960
936.362	13818
936.456	17321
936.550	21832
936.644	17570
936.738	14314
936.833	13368
936.927	12127
937.021	15262
937.115	18515
937.209	16841
937.303	15844
937.397	13890
937.491	16158
937.585	18436
937.679	16952
937.773	12373
937.867	12291
937.961	12962
938.055	19949
938.149	15750
938.243	11208
938.337	11360
938.430	15328
938.524	20779
938.618	19691
938.712	15747
938.805	14624
938.899	18167
938.993	20390
939.086	14787
939.180	17292
939.274	20829
939.367	18845
939.461	17452
939.554	13122
939.648	11963
939.741	13019
939.835	16354
939.928	18850
940.022	16805
940.115	14603
940.208	16628
940.302	19159
940.395	18166
940.488	13151
940.582	12934
940.675	10664
940.768	12456
940.861	17200
940.954	16187
941.048	10658
941.141	10534
941.234	13188
941.327	13852
941.420	15683
941.513	15421
941.606	11030
941.699	12219
941.792	15850
941.885	12923
941.978	14388
942.071	14351
942.164	10524
942.257	9439
942.349	13083
942.442	13088
942.535	9650
942.628	10310
942.721	13107
942.813	12778
942.906	13443
942.999	11236
943.091	11359
943.184	11895
943.277	11786
943.369	9277
943.462	9070
943.554	11690
943.647	12579
943.739	15251
943.832	13810
943.924	7978
944.017	8706
944.109	9914
944.201	10962
944.294	10250
944.386	11353
944.478	9771
944.571	10080
944.663	10392
944.755	11662
944.847	12417
944.940	10934
945.032	8498
945.124	8948
945.216	11261
945.308	10997
945.400	10961
945.492	10734
945.584	13785
945.676	14167
945.768	12390
945.860	13353
945.952	14562
946.044	12050
946.136	10425
946.228	10105
946.320	10271
946.412	12908
946.503	13184
946.595	13607
946.687	9580
946.779	7974
946.870	8786
946.962	8515
947.054	10313
947.145	11172
947.237	9536
947.329	10196
947.420	11488
947.512	9774
947.603	7899
947.695	9221
947.786	7867
947.878	9579
947.969	10576
948.061	12389
948.152	8975
948.243	6966
948.335	6628
948.426	7502
948.517	10428
948.609	11801
948.700	11071
948.791	9203
948.882	7380
948.973	8086
949.065	10452
949.156	9055
949.247	7544
949.338	8824
949.429	6479
949.520	7879
949.611	9836
949.702	10910
949.793	8536
949.884	9113
949.975	8004
950.066	7061
950.157	6947
950.247	7529
950.338	6102
950.429	7634
950.520	8277
950.611	7048
950.701	8688
950.792	11756
950.883	9804
950.973	7888
951.064	9402
951.155	10250
951.245	9613
951.336	10143
951.427	11719
951.517	11160
951.608	9543
951.698	7664
951.788	6798
951.879	5904
951.969	6503
952.060	8402
952.150	8903
952.240	11238
952.331	9672
952.421	9614
952.511	6633
952.602	6581
952.692	5963
952.782	6354
952.872	7535
952.962	9521
953.052	6683
953.143	7135
953.233	7668
953.323	8564
953.413	8124
953.503	9568
953.593	8233
953.683	8338
953.773	5747
953.863	6580
953.953	6792
954.042	7475
954.132	8370
954.222	8544
954.312	6525
954.402	7378
954.492	7294
954.581	8462
954.671	7722
954.761	7752
954.850	8065
954.940	5191
955.030	5114
955.119	5965
955.209	7084
955.298	8170
955.388	8722
955.477	9571
955.567	5488
955.656	6129
955.746	6114
955.835	6326
955.925	5869
956.014	8099
956.103	9657
956.193	11243
956.282	9777
956.371	7919
956.461	7599
956.550	8028
956.639	7685
956.728	7123
956.817	7898
956.906	8080
956.995	8655
957.085	6937
957.174	7990
957.263	6567
957.352	7764
957.441	7606
957.530	6555
957.619	6100
957.708	6664
957.796	8371
957.885	6731
957.974	7372
958.063	6500
958.152	5359
958.241	5233
958.329	5821
958.418	6081
958.507	7838
958.596	8679
958.684	8149
958.773	7107
958.861	5472
958.950	6143
959.039	7144
959.127	7531
959.216	7585
959.304	7100
959.393	7671
959.481	8149
959.570	7217
959.658	5883
959.746	6185
959.835	7144
959.923	7183
960.011	6472
960.100	7003
960.188	8762
960.276	6416
960.365	4951
960.453	5834
960.541	4437
960.629	7037
960.717	5170
960.805	4348
960.893	5929
960.981	6552
961.069	9402
961.158	9905
961.245	10551
961.333	8569
961.421	6895
961.509	6578
961.597	7477
961.685	6387
961.773	6886
961.861	7315
961.949	8120
962.036	4954
962.124	5398
962.212	5825
962.299	5407
962.387	5639
962.475	5692
962.562	5817
962.650	6583
962.738	4738
962.825	5397
962.913	5195
963.000	5101
963.088	6897
963.175	5290
963.263	4992
963.350	5969
963.438	6028
963.525	5395
963.612	6607
963.700	6073
963.787	8757
963.874	5964
963.962	5107
964.049	4904
964.136	4732
964.223	4140
964.310	4842
964.398	5530
964.485	5793
964.572	5921
964.659	5913
964.746	4803
964.833	5467
964.920	4046
965.007	4465
965.094	4572
965.181	6212
965.268	6091
965.355	5929
965.441	5398
965.528	4235
965.615	6564
965.702	5307
965.789	4468
965.875	6907
965.962	6804
966.049	5953
966.136	7998
966.222	7535
966.309	6923
966.395	6042
966.482	6718
966.569	6350
966.655	6695
966.742	5267
966.828	4412
966.915	4723
967.001	4320
967.087	3631
967.174	3999
967.260	5002
967.347	5977
967.433	6481
967.519	6200
967.605	5312
967.692	5454
967.778	4538
967.864	5046
967.950	5880
968.036	5362
968.123	6148
968.209	4157
968.295	4229
968.381	5806
968.467	4726
968.553	3092
968.639	6426
968.725	4975
968.811	7565
968.897	5872
968.983	5308
969.069	4287
969.154	4787
969.240	4765
969.326	4123
969.412	4711
969.497	4304
969.583	4100
969.669	6457
969.755	5977
969.840	5891
969.926	9311
970.012	11635
970.097	11960
970.183	9176
970.268	7025
970.354	6688
970.439	4506
970.525	5717
970.610	5178
970.696	5884
970.781	4557
970.866	3986
970.952	4541
971.037	4144
971.122	6020
971.208	5813
971.293	5485
971.378	4854
971.463	4902
971.549	5311
971.634	4202
971.719	4626
971.804	4961
971.889	5255
971.974	4038
972.059	4318
972.144	5479
972.229	4547
972.314	4235
972.399	5243
972.484	3437
972.569	4583
972.654	3543
972.739	5395
972.824	4392
972.908	4014
972.993	3149
973.078	4151
973.163	4526
973.247	4071
973.332	3682
973.417	5503
973.501	3813
973.586	5387
973.671	4263
973.755	3834
973.840	4461
973.924	6870
974.009	7819
974.093	7476
974.178	7466
974.262	6721
974.346	5085
974.431	5225
974.515	4357
974.600	5775
974.684	5128
974.768	4338
974.852	6109
974.937	4244
975.021	5417
975.105	5139
975.189	4012
975.273	4834
975.358	3785
975.442	4240
975.526	4489
975.610	3740
975.694	3429
975.778	4878
975.862	4538
975.946	3734
976.030	6021
976.114	3859
976.198	4270
976.281	4786
976.365	5783
976.449	5057
976.533	4224
976.617	3652
976.700	3417
976.784	3911
976.868	2980
976.951	5177
977.035	4337
977.119	4552
977.202	3879
977.286	5509
977.369	7116
977.453	9180
977.536	8466
977.620	6884
977.703	6569
977.787	4866
977.870	6500
977.953	7106
978.037	3753
978.120	5426
978.203	5417
978.287	5370
978.370	4707
978.453	4732
978.536	3905
978.620	6290
978.703	5133
978.786	3965
978.869	4161
978.952	4335
979.035	6605
979.118	4957
979.201	4921
979.284	5100
979.367	3984
979.450	6287
979.533	3368
979.616	3829
979.699	4647
979.782	5188
979.865	5070
979.948	5115
980.030	3394
980.113	5290
980.196	4642
980.279	4970
980.361	5018
980.444	5224
980.526	6662
980.609	9181
980.692	9720
980.774	8569
980.857	6503
980.939	7623
981.022	5179
981.104	5898
981.187	5082
981.269	6293
981.352	5191
981.434	4962
981.516	5885
981.599	6641
981.681	5114
981.763	5483
981.846	5053
981.928	5881
982.010	5052
982.092	4411
982.174	6783
982.256	5701
982.339	5423
982.421	5106
982.503	5607
982.585	3380
982.667	5041
982.749	5366
982.831	4383
982.913	4592
982.995	6390
983.077	5399
983.158	6694
983.240	5945
983.322	7553
983.404	10649
983.486	9567
983.568	8995
983.649	7523
983.731	7568
983.813	6968
983.894	6489
983.976	6691
984.058	6124
984.139	6573
984.221	4808
984.302	6649
984.384	6148
984.465	5970
984.547	6318
984.628	6562
984.710	8150
984.791	6251
984.872	6743
984.954	6349
985.035	7244
985.116	5991
985.198	5714
985.279	7407
985.360	6167
985.441	5811
985.522	8086
985.604	7248
985.685	5267
985.766	7178
985.847	8165
985.928	5529
986.009	6648
986.090	6598
986.171	7028
986.252	6309
986.333	6998
986.414	6771
986.495	6545
986.576	7342
986.656	7742
986.737	7804
986.818	8496
986.899	7393
986.980	7526
987.060	7402
987.141	6765
987.222	9236
987.302	9784
987.383	10066
987.464	9475
987.544	10279
987.625	8314
987.705	9641
987.786	9565
987.866	9232
987.947	9776
988.027	9260
988.108	9267
988.188	8362
988.268	8553
988.349	8513
988.429	8968
988.509	8104
988.589	7987
988.670	6246
988.750	8557
988.830	7489
988.910	9053
988.990	7853
989.070	7909
989.151	7206
989.231	7998
989.311	6834
989.391	7267
989.471	7163
989.551	7533
989.631	6625
989.711	8046
989.791	7360
989.870	5802
989.950	8147
990.030	7056
990.110	7293
990.190	5567
990.269	5772
990.349	6609
990.429	6841
990.509	6602
990.588	5353
990.668	7264
990.747	6649
990.827	6387
990.907	6882
990.986	7358
991.066	6598
991.145	5294
991.225	6914
991.304	6248
991.383	6651
991.463	6126
991.542	6902
991.622	5630
991.701	5274
991.780	4929
991.859	5658
991.939	5471
992.018	7177
992.097	5799
992.176	5391
992.256	5253
992.335	6199
992.414	6302
992.493	3944
992.572	4207
992.651	6541
992.730	5098
992.809	5320
992.888	5547
992.967	5127
993.046	5571
993.125	3082
993.203	4379
993.282	5195
993.361	5518
993.440	4663
993.519	4308
993.597	4837
993.676	4592
993.755	5293
993.834	4688
993.912	2889
993.991	4259
994.069	4347
994.148	4736
994.226	3808
994.305	4373
994.384	3974
994.462	5571
994.540	2998
994.619	3277
994.697	4642
994.776	4398
994.854	4422
994.932	3723
995.011	4141
995.089	2913
995.167	3437
995.245	4738
995.324	4050
995.402	4676
995.480	3666
995.558	4170
995.636	3088
995.714	3801
995.792	4876
995.870	3076
995.948	2174
996.026	3749
996.104	2373
996.182	4366
996.260	2286
996.338	2742
996.416	2124
996.494	4055
996.572	3828
996.649	3498
996.727	2904
996.805	3544
996.883	3175
996.960	2158
997.038	3564
997.116	3282
997.193	2321
997.271	3221
997.348	1195
997.426	2726
997.504	2717
997.581	4033
997.658	2732
997.736	982
997.813	1870
997.891	3941
997.968	1816
998.046	2206
998.123	2353
998.200	3776
998.277	2673
998.355	2707
998.432	980
998.509	2109
998.586	2638
998.663	2715
998.741	2513
998.818	1718
998.895	1572
998.972	3342
999.049	2938
999.126	2130
999.203	2459
999.280	2607
999.357	1669
999.434	2810
999.511	2560
999.587	2698
999.664	1257
999.741	2259
999.818	3163
999.895	2821
999.971	1528
1000.048	1565
1000.125	2739
1000.202	1531
1000.278	2908
1000.355	3750
1000.431	1319
1000.508	1009
1000.584	1684
1000.661	1752
1000.738	1163
1000.814	2687
1000.890	2594
1000.967	2198
1001.043	2424
1001.120	918
1001.196	2210
1001.272	824
1001.349	1134
1001.425	2434
1001.501	1242
1001.577	2141
1001.654	2042
1001.730	1375
1001.806	1729
1001.882	1424
1001.958	2598
1002.034	2312
1002.110	693
1002.186	434
1002.262	563
1002.338	1024
1002.414	1627
1002.490	2348
1002.566	665
1002.642	786
1002.718	1254
1002.794	1353
1002.870	615
1002.945	765
1003.021	1119
1003.097	699
1003.173	1073
1003.248	692
1003.324	1267
1003.400	626
1003.475	-233
1003.551	1041
1003.626	784
1003.702	568
1003.777	1358
1003.853	835
1003.928	126
1004.004	1522
1004.079	692
1004.155	1598
1004.230	0
1004.305	1870
1004.381	449
1004.456	245
1004.531	154
1004.607	754
1004.682	-13
1004.757	581
1004.832	907
1004.907	-86
1004.982	777
1005.057	1284
1005.133	550
1005.208	645
1005.283	441
1005.358	566
1005.433	-690
1005.508	46
1005.583	889
1005.657	435
1005.732	866
1005.807	-1
1005.882	-411
1005.957	81
1006.032	446
1006.106	668
1006.181	963
1006.256	768
1006.331	-185
1006.405	-474
1006.480	-16
1006.554	-176
1006.629	693
1006.704	-456
1006.778	45
1006.853	813
1006.927	-660
1007.002	-581
1007.076	-292
1007.150	-72
1007.225	378
1007.299	762
1007.373	287
1007.448	91
1007.522	-135
1007.596	604
1007.671	182
1007.745	732
1007.819	397
1007.893	299
1007.967	578
1008.041	-1730
1008.115	1025
1008.190	-470
1008.264	388
1008.338	-799
1008.412	-52
1008.486	-383
1008.560	-501
1008.633	121
1008.707	232
1008.781	1225
1008.855	-556
1008.929	597
1009.003	-674
1009.076	-404
1009.150	-726
1009.224	466
1009.298	-2
1009.371	-830
1009.445	784
1009.519	472
1009.592	-405
1009.666	-150
1009.739	155
1009.813	-795
1009.886	-55
1009.960	-875
1010.033	-813
1010.107	908
1010.180	-993
1010.253	-276
1010.327	-1076
1010.400	-951
1010.473	14
1010.547	584
1010.620	-30
1010.693	585
1010.766	-1088
1010.840	957
1010.913	-45
1010.986	393
1011.059	261
1011.132	309
1011.205	370
1011.278	307
1011.351	422
1011.424	1041
1011.497	-256
1011.570	281
1011.643	-179
1011.716	-140
1011.789	-1103
1011.862	-530
1011.934	101
1012.007	-1223
1012.080	-117
1012.153	-389
1012.225	214
1012.298	-1028
1012.371	-577
1012.443	302
1012.516	-1275
1012.588	-262
1012.661	-527
1012.733	-1095
1012.806	-260
1012.879	-797
1012.951	-682
1013.023	-302
1013.096	26
1013.168	-230
1013.241	129
1013.313	-307
1013.385	-1225
1013.458	-1134
1013.530	-24
1013.602	-1401
1013.674	190
1013.746	-1593
1013.819	-1076
1013.891	408
1013.963	-1087
1014.035	-217
1014.107	-910
1014.179	494
1014.251	-1966
1014.323	-395
1014.395	-967
1014.467	-587
1014.539	-632
1014.611	-1205
1014.683	-1294
1014.754	-1127
1014.826	-1328
1014.898	-204
1014.970	-1468
1015.042	414
1015.113	-584
1015.185	-493
1015.257	-1927
1015.328	-90
1015.400	-794
1015.471	-123
1015.543	-2653
1015.615	-356
1015.686	-1059
1015.757	-564
1015.829	-510
1015.901	-74
1015.972	-880
1016.043	-538
1016.115	-366
1016.186	-1497
1016.257	-1026
1016.328	-14
1016.400	-70
1016.471	-1791
1016.542	-944
1016.613	-789
1016.685	-485
1016.756	-464
1016.827	-742
1016.898	-993
1016.969	-74
1017.040	-957
1017.111	-1326
1017.182	-1327
1017.253	-1007
1017.324	-274
1017.395	-1607
1017.466	-582
1017.537	-1375
1017.608	-1393
1017.678	-1041
1017.749	-808
1017.820	-2093
1017.891	-495
1017.961	-996
1018.032	-534
1018.103	-837
1018.173	-1606
1018.244	-2459
1018.315	-1025
1018.385	-374
1018.456	-403
1018.526	-1163
1018.597	-854
1018.667	-1148
1018.738	-1152
1018.808	-777
1018.878	-1357
1018.949	-1061
1019.019	-818
1019.089	-1176
1019.160	-783
1019.230	-956
1019.300	26
1019.371	-1445
1019.441	-707
1019.511	-2017
1019.581	-1016
1019.651	-1909
1019.721	-2065
1019.791	-380
1019.861	-1189
1019.931	-1221
1020.001	-1401
1020.071	-1239
1020.141	-683
1020.211	-1164
1020.281	-1504
1020.351	-2216
1020.421	-1094
1020.491	-784
1020.560	-1380
1020.630	-1484
1020.700	-519
1020.770	-1863
1020.839	-747
1020.909	-1227
1020.979	-1298
1021.048	-1526
1021.118	-1674
1021.187	-1091
1021.257	-317
1021.326	-723
1021.396	-1095
1021.465	-1287
1021.535	-1512
1021.604	-1803
1021.674	-859
1021.743	-1780
1021.812	-458
1021.882	-2008
1021.951	-427
1022.020	-1399
1022.089	-285
1022.159	-1393
1022.228	-972
1022.297	-884
1022.366	-540
1022.435	-1831
1022.504	-1242
1022.573	-830
1022.642	-1022
1022.711	-1108
1022.781	-656
1022.849	-1596
1022.918	-1045
1022.987	-737
1023.056	-1150
1023.125	-1307
1023.194	-1103
1023.263	-855
1023.331	-514
1023.400	-1980
1023.469	-1268
1023.538	-1252
1023.606	-1898
1023.675	-1433
1023.744	-1506
1023.812	-1284
1023.881	-1104
1023.949	-1152
1024.018	-1569
1024.086	-1667
1024.155	-2394
1024.223	-1637
1024.292	-909
1024.360	-1255
1024.429	-504
1024.497	-2064
1024.565	-1647
1024.634	-1597
1024.702	-563
1024.770	-1972
1024.838	-1400
1024.907	-872
1024.975	-1682
1025.043	-837
1025.111	-1685
1025.179	-1402
1025.247	-645
1025.315	-1215
1025.383	-922
1025.451	-1493
1025.519	-668
1025.587	-1080
1025.655	-599
1025.723	-1595
1025.791	-2007
1025.859	-1256
1025.927	-148
1025.995	-2204
1026.062	-1213
1026.130	-1498
1026.198	-1602
1026.266	-1378
1026.333	-382
1026.401	-1138
1026.469	-737
1026.536	-1726
1026.604	-1078
1026.671	-1583
1026.739	-1085
1026.806	-1541
1026.874	-1101
1026.941	-1185
1027.009	-868
1027.076	-1769
1027.144	-1113
1027.211	-1732
1027.278	-886
1027.345	-1114
1027.413	-1590
1027.480	-1362
1027.547	-1424
1027.614	-929
1027.682	-1229
1027.749	-1540
1027.816	-1301
1027.883	-1665
1027.950	-1724
1028.017	-1659
1028.084	-871
1028.151	-2095
1028.218	-1328
1028.285	-1206
1028.352	-1445
1028.419	-1903
1028.486	-2154
1028.553	-2097
1028.619	-1413
1028.686	-1477
1028.753	-1124
1028.820	-980
1028.886	-2037
1028.953	-1509
1029.020	-1289
1029.086	-2116
1029.153	-1212
1029.220	-1443
1029.286	-1641
1029.353	-987
1029.419	-1551
1029.486	-1949
1029.552	-1487
1029.619	-1644
1029.685	-1138
1029.751	-1834
1029.818	-723
1029.884	-1876
1029.951	-771
1030.017	-1413
1030.083	-2075
1030.149	-1656
1030.216	-1340
1030.282	-770
1030.348	-2019
1030.414	-1792
1030.480	-1668
1030.546	-1080
1030.612	-1538
1030.678	-1695
1030.744	-1894
1030.810	-1114
1030.876	-797
1030.942	-1635
1031.008	-1135
1031.074	-2334
1031.140	-1836
1031.206	-1106
1031.272	-2340
1031.337	-1697
1031.403	-860
1031.469	-2189
1031.534	-1182
1031.600	-874
1031.666	-1874
1031.731	-2848
1031.797	-1438
1031.863	-1529
1031.928	-905
1031.994	-2590
1032.059	-1351
1032.125	-1616
1032.190	-2045
1032.256	-1583
1032.321	-2357
1032.386	-2192
1032.452	-1638
1032.517	-1878
1032.582	-1482
1032.647	-2426
1032.713	-2383
1032.778	-1772
1032.843	-1555
1032.908	-2078
1032.974	-1702
1033.039	-1367
1033.104	-1156
1033.169	-2385
1033.234	-1129
1033.299	-1660
1033.364	-1058
1033.429	-1631
1033.494	-1469
1033.559	-1488
1033.624	-1058
1033.688	-1523
1033.753	-1578
1033.818	-676
1033.883	-6
1033.948	-698
1034.013	-199
1034.077	433
1034.142	1158
1034.207	2079
1034.271	5070
1034.336	4718
1034.400	2339
1034.465	637
1034.530	139
1034.594	-1230
1034.658	-771
1034.723	-1471
1034.787	-494
1034.852	-1731
1034.916	-2156
1034.981	-2101
1035.045	-1838
1035.109	-1837
1035.173	-1335
1035.238	-2711
1035.302	-2438
1035.366	-2009
1035.430	-1652
1035.495	-2288
1035.559	-1175
1035.623	-2383
1035.687	-1648
1035.751	-1409
1035.815	-1791
1035.879	-2636
1035.943	-1478
1036.007	-1792
1036.071	-1653
1036.135	-1871
1036.198	-1225
1036.262	-2417
1036.326	-1986
1036.390	-954
1036.454	-1510
1036.517	-1662
1036.581	-1325
1036.645	-1994
1036.709	-1214
1036.772	-2005
1036.836	-1854
1036.900	-1761
1036.963	-2103
1037.026	-1812
1037.090	-2151
1037.154	-2185
1037.217	-1529
1037.280	-1645
1037.344	-1694
1037.407	-1908
1037.471	-1906
1037.534	-1920
1037.597	-1088
1037.661	-2005
1037.724	-1664
1037.787	-1002
1037.850	-1460
1037.913	-1709
1037.977	-2216
1038.040	-1707
1038.103	-1479
1038.166	-1999
1038.229	-863
1038.292	-1614
1038.355	-1773
1038.418	-2203
1038.481	-1623
1038.544	-2411
1038.607	-1648
1038.670	-1797
1038.732	-2114
1038.795	-1288
1038.858	-1580
1038.921	-2069
1038.984	-1221
1039.046	-1648
1039.109	-2235
1039.172	-2473
1039.234	-2394
1039.297	-1902
1039.360	-1703
1039.422	-2652
1039.485	-721
1039.547	-1934
1039.610	-1489
1039.672	-2158
1039.734	-1747
1039.797	-2079
1039.859	-1992
1039.922	-2101
1039.984	-1876
1040.046	-2133
1040.109	-2202
1040.171	-2007
1040.233	-2094
1040.295	-3034
1040.358	-1766
1040.420	-2755
1040.482	-1959
1040.544	-2001
1040.606	-1693
1040.668	-2010
1040.730	-2225
1040.792	-2667
1040.854	-1762
1040.916	-2508
1040.978	-1518
1041.040	-1958
1041.102	-2146
1041.164	-2511
1041.225	-2069
1041.287	-2669
1041.349	-2182
1041.411	-2370
1041.472	-1442
1041.534	-2508
1041.596	-2002
1041.657	-2363
1041.719	-2078
1041.781	-2136
1041.842	-1736
1041.904	-2958
1041.965	-1879
1042.027	-2748
1042.088	-1299
1042.150	-2851
1042.211	-1195
1042.272	-1364
1042.334	-1770
1042.395	-2059
1042.456	-1731
1042.518	-1910
1042.579	-1358
1042.640	-2058
1042.701	-2192
1042.763	-2470
1042.824	-1240
1042.885	-2361
1042.946	-1723
1043.007	-2180
1043.068	-1183
1043.129	-1765
1043.190	-2680
1043.251	-1409
1043.312	-2424
1043.373	-2043
1043.434	-1958
1043.495	-1611
1043.556	-1822
1043.616	-2294
1043.677	-2504
1043.738	-1769
1043.799	-1188
1043.859	-1537
1043.920	-2282
1043.981	-2260
1044.041	-1423
1044.102	-1487
1044.162	-1245
1044.223	-2490
1044.284	-1814
1044.344	-1529
1044.405	-1449
1044.465	-1313
1044.525	-1733
1044.586	-1791
1044.646	-2172
1044.707	-1020
1044.767	-1300
1044.827	-2064
1044.887	-1654
1044.948	-1601
1045.008	-1228
1045.068	-2158
1045.128	-1749
1045.188	-2010
1045.249	-1306
1045.309	-2287
1045.369	-935
1045.429	-2304
1045.489	-2300
1045.549	-1430
1045.609	-1548
1045.669	-1573
1045.729	-1964
1045.789	-1664
1045.848	-1875
1045.908	-2097
1045.968	-1670
1046.028	-1160
1046.088	-1158
1046.147	-1693
1046.207	-2003
1046.267	-1416
1046.326	-1061
1046.386	-1289
1046.446	-671
1046.505	-567
1046.565	-967
1046.624	-1569
1046.684	-2086
1046.743	-167
1046.803	-142
1046.862	-644
1046.922	0
