'Start Wavelength	183.907
'End Wavelength	1046.922
'Gate Delay	5.000
'Gate Width (ms)	1.050
'Laser Output Level	0.000
'X Position	0.000
'Y Position	0.000
'Z Position	0.000
'Grid Point Number	1.000
'Shot Number	100.000
183.907	565.000
183.977	-1069.000
184.047	-49
184.116	11
184.186	-169
184.256	-434
184.325	-309
184.395	-941
184.465	-104
184.534	-128
184.604	-164
184.674	272
184.743	-380
184.813	78
184.883	310
184.952	-515
185.022	-66
185.092	-4
185.161	-193
185.231	-765
185.301	35
185.370	486
185.440	-803
185.509	271
185.579	-753
185.649	-98
185.718	-76
185.788	129
185.857	136
185.927	-86
185.996	186
186.066	-309
186.136	-51
186.205	484
186.275	196
186.344	-576
186.414	-576
186.483	-1217
186.553	830
186.622	-194
186.692	-684
186.761	251
186.831	-199
186.900	123
186.970	690
187.039	-352
187.109	1131
187.178	119
187.248	313
187.317	-418
187.387	110
187.456	66
187.526	-157
187.595	315
187.664	-89
187.734	-148
187.803	-249
187.873	473
187.942	-194
188.012	273
188.081	378
188.150	-226
188.220	179
188.289	-285
188.358	-551
188.428	-179
188.497	-503
188.567	433
188.636	434
188.705	-541
188.775	-715
188.844	-287
188.913	201
188.983	-677
189.052	1
189.121	-525
189.191	255
189.260	-377
189.329	32
189.399	36
189.468	154
189.537	-892
189.606	-467
189.676	-100
189.745	-166
189.814	-401
189.883	239
189.953	-650
190.022	336
190.091	-778
190.161	135
190.230	64
190.299	-1214
190.368	65
190.437	-236
190.507	-336
190.576	-342
190.645	-38
190.714	-504
190.783	564
190.853	839
190.922	481
190.991	-301
191.060	-1000
191.129	-809
191.198	408
191.268	-16
191.337	-630
191.406	-27
191.475	-618
191.544	-155
191.613	-79
191.682	267
191.752	-508
191.821	148
191.890	-1126
191.959	74
192.028	700
192.097	191
192.166	-554
192.235	-256
192.304	-554
192.373	-355
192.442	-289
192.511	-205
192.580	-221
192.650	730
192.719	-931
192.788	98
192.857	-123
192.926	103
192.995	-766
193.064	11
193.133	-556
193.202	-41
193.271	-651
193.340	299
193.409	109
193.478	-52
193.547	-190
193.615	-997
193.684	200
193.753	388
193.822	-225
193.891	-133
193.960	53
194.029	-631
194.098	310
194.167	-1043
194.236	106
194.305	-303
194.374	157
194.443	-366
194.512	-544
194.580	-340
194.649	147
194.718	-543
194.787	132
194.856	59
194.925	-158
194.994	-173
195.062	-133
195.131	-580
195.200	-334
195.269	-182
195.338	-594
195.407	651
195.475	-271
195.544	224
195.613	-317
195.682	786
195.751	-335
195.819	-1159
195.888	-370
195.957	450
196.026	-365
196.094	745
196.163	189
196.232	243
196.301	-36
196.369	474
196.438	-389
196.507	-775
196.576	-628
196.644	-652
196.713	-367
196.782	-695
196.850	-204
196.919	269
196.988	-275
197.056	-182
197.125	-256
197.194	139
197.262	-217
197.331	-364
197.400	384
197.468	-33
197.537	-126
197.606	379
197.674	309
197.743	-772
197.812	-361
197.880	3
197.949	36
198.017	-335
198.086	290
198.155	-387
198.223	-2
198.292	-61
198.360	-224
198.429	-320
198.497	-556
198.566	-434
198.635	381
198.703	-114
198.772	9
198.840	42
198.909	169
198.977	258
199.046	-208
199.114	443
199.183	-216
199.251	190
199.320	8
199.388	250
199.457	-460
199.525	238
199.594	-177
199.662	121
199.731	-213
199.799	-453
199.867	-537
199.936	-230
200.004	-139
200.073	582
200.141	-1079
200.210	20
200.278	-293
200.346	-575
200.415	147
200.483	-447
200.552	-128
200.620	-138
200.688	114
200.757	416
200.825	-131
200.893	-536
200.962	-688
201.030	-560
201.098	-519
201.167	-161
201.235	-231
201.303	0
201.372	34
201.440	-749
201.508	-60
201.577	-701
201.645	119
201.713	195
201.781	-295
201.850	-566
201.918	67
201.986	-886
202.055	435
202.123	-287
202.191	-777
202.259	152
202.327	-85
202.396	-580
202.464	520
202.532	-255
202.600	413
202.669	-149
202.737	-319
202.805	-625
202.873	-755
202.941	-464
203.009	214
203.078	465
203.146	-526
203.214	-493
203.282	-1014
203.350	-61
203.418	-576
203.487	345
203.555	259
203.623	206
203.691	-537
203.759	-269
203.827	196
203.895	-661
203.963	-14
204.031	-380
204.099	-695
204.168	501
204.236	-322
204.304	42
204.372	416
204.440	-603
204.508	-227
204.576	-538
204.644	88
204.712	-367
204.780	157
204.848	53
204.916	85
204.984	-265
205.052	-558
205.120	16
205.188	-332
205.256	-876
205.324	-1018
205.392	-206
205.460	103
205.528	-774
205.596	-276
205.664	-181
205.732	0
205.799	-457
205.867	-559
205.935	-1039
206.003	149
206.071	-544
206.139	-455
206.207	-300
206.275	-435
206.343	-1181
206.411	-64
206.478	-998
206.546	-443
206.614	-537
206.682	-587
206.750	-428
206.818	-206
206.885	350
206.953	-967
207.021	1280
207.089	-104
207.157	-898
207.225	-482
207.292	-405
207.360	-512
207.428	-489
207.496	58
207.563	77
207.631	254
207.699	-773
207.767	-651
207.834	-1254
207.902	-1036
207.970	-245
208.038	-1022
208.105	849
208.173	-653
208.241	363
208.309	-581
208.376	157
208.444	-15
208.512	-632
208.579	-966
208.647	13
208.715	410
208.782	511
208.850	-624
208.918	-437
208.985	51
209.053	-195
209.120	-519
209.188	-431
209.256	-582
209.323	-1234
209.391	-899
209.459	844
209.526	-306
209.594	-459
209.661	156
209.729	299
209.796	-514
209.864	176
209.932	-1110
209.999	679
210.067	319
210.134	-66
210.202	-358
210.269	121
210.337	283
210.404	-589
210.472	-952
210.539	-249
210.607	-1412
210.674	-476
210.742	287
210.809	-217
210.877	-668
210.944	676
211.012	-918
211.079	1096
211.146	148
211.214	-265
211.281	711
211.349	-396
211.416	-227
211.484	-41
211.551	-569
211.618	-346
211.686	587
211.753	-558
211.821	-81
211.888	295
211.955	-299
212.023	-246
212.090	-913
212.157	-354
212.225	126
212.292	641
212.359	-224
212.427	415
212.494	-335
212.561	-608
212.629	-230
212.696	-695
212.763	169
212.831	-702
212.898	-200
212.965	-38
213.032	-429
213.100	-189
213.167	-1292
213.234	273
213.301	9
213.369	-146
213.436	-307
213.503	135
213.570	260
213.638	-361
213.705	-672
213.772	-622
213.839	-410
213.906	-199
213.973	-766
214.041	-590
214.108	-985
214.175	-52
214.242	-653
214.309	-272
214.376	-39
214.444	-587
214.511	-57
214.578	67
214.645	268
214.712	46
214.779	-50
214.846	-206
214.913	46
214.980	-1196
215.048	4
215.115	344
215.182	-335
215.249	-276
215.316	-807
215.383	-357
215.450	-524
215.517	-512
215.584	118
215.651	-1076
215.718	-83
215.785	-383
215.852	-1045
215.919	-50
215.986	-297
216.053	182
216.120	49
216.187	-135
216.254	-367
216.321	-344
216.388	-420
216.455	-738
216.522	-302
216.589	324
216.656	-257
216.722	430
216.789	-45
216.856	-82
216.923	118
216.990	25
217.057	-779
217.124	-820
217.191	-1563
217.258	-683
217.324	-709
217.391	-365
217.458	-420
217.525	-621
217.592	-805
217.659	-1544
217.725	-601
217.792	-1621
217.859	-21
217.926	-109
217.993	-162
218.059	-466
218.126	193
218.193	92
218.260	-409
218.327	-187
218.393	-630
218.460	-156
218.527	-285
218.594	-392
218.660	-882
218.727	-94
218.794	-1259
218.860	-174
218.927	-791
218.994	-358
219.061	-546
219.127	-340
219.194	-774
219.261	-386
219.327	-365
219.394	222
219.461	-351
219.527	-153
219.594	54
219.661	-930
219.727	-985
219.794	706
219.860	-382
219.927	529
219.994	592
220.060	1192
220.127	708
220.193	1107
220.260	75
220.326	86
220.393	-159
220.460	-1181
220.526	-726
220.593	-1409
220.659	1690
220.726	64
220.792	581
220.859	-394
220.925	63
220.992	-834
221.058	412
221.125	433
221.191	-196
221.258	-504
221.324	-882
221.391	-394
221.457	-1240
221.524	-260
221.590	-359
221.657	569
221.723	-587
221.789	148
221.856	292
221.922	-658
221.989	606
222.055	894
222.121	-1579
222.188	1230
222.254	-26
222.321	190
222.387	-759
222.453	-575
222.520	-274
222.586	-192
222.652	-906
222.719	-436
222.785	-431
222.851	-82
222.918	-596
222.984	-532
223.050	79
223.116	-1391
223.183	141
223.249	-917
223.315	-795
223.382	543
223.448	-790
223.514	-466
223.580	-357
223.647	-396
223.713	-1252
223.779	-455
223.845	-61
223.911	267
223.978	-1478
224.044	-23
224.110	-329
224.176	-124
224.242	-767
224.309	-904
224.375	-928
224.441	-349
224.507	-827
224.573	-1821
224.639	475
224.705	-1328
224.772	-42
224.838	-1234
224.904	-711
224.970	-293
225.036	-342
225.102	-1188
225.168	-460
225.234	34
225.300	-489
225.366	-281
225.432	-189
225.499	-862
225.565	114
225.631	-1136
225.697	-562
225.763	213
225.829	-626
225.895	408
225.961	307
226.027	-415
226.093	-788
226.159	811
226.225	661
226.291	-143
226.357	1101
226.423	-463
226.489	-38
226.554	-405
226.620	-199
226.686	-242
226.752	-465
226.818	19
226.884	2007
226.950	1171
227.016	-477
227.082	69
227.148	-24
227.214	231
227.279	-286
227.345	94
227.411	-276
227.477	1475
227.543	1962
227.609	2194
227.674	2376
227.740	593
227.806	760
227.872	-486
227.938	427
228.003	-54
228.069	-858
228.135	-402
228.201	-552
228.267	-598
228.332	-505
228.398	-1746
228.464	114
228.530	-576
228.595	-309
228.661	-652
228.727	-755
228.792	1168
228.858	-1217
228.924	-1517
228.990	340
229.055	-1494
229.121	-553
229.187	95
229.252	-748
229.318	-276
229.384	-566
229.449	-272
229.515	-1490
229.581	-1717
229.646	1130
229.712	148
229.777	-425
229.843	-1164
229.909	-504
229.974	127
230.040	-459
230.105	-398
230.171	-789
230.236	-505
230.302	-347
230.368	-1092
230.433	-1134
230.499	-427
230.564	-240
230.630	-817
230.695	-1740
230.761	205
230.826	-1519
230.892	-32
230.957	-1606
231.023	-429
231.088	-292
231.154	-642
231.219	-94
231.284	-510
231.350	336
231.415	-1182
231.481	289
231.546	-60
231.612	-1094
231.677	-862
231.742	-2169
231.808	607
231.873	-1317
231.939	-1700
232.004	440
232.069	-427
232.135	-1063
232.200	-677
232.265	-252
232.331	-992
232.396	-139
232.461	-794
232.527	-390
232.592	-1242
232.657	-707
232.723	-546
232.788	-966
232.853	620
232.918	-743
232.984	-1412
233.049	-936
233.114	-921
233.179	-977
233.245	489
233.310	-989
233.375	-1189
233.440	-341
233.506	-1472
233.571	-1619
233.636	-621
233.701	-317
233.766	-905
233.832	-576
233.897	-578
233.962	-1582
234.027	399
234.092	-543
234.157	-494
234.222	-976
234.288	-867
234.353	-959
234.418	-714
234.483	-102
234.548	258
234.613	-637
234.678	-495
234.743	-1774
234.808	592
234.873	-1498
234.938	975
235.004	-366
235.069	-566
235.134	-1023
235.199	268
235.264	-111
235.329	-1481
235.394	201
235.459	263
235.524	-1953
235.589	588
235.654	-531
235.719	-1304
235.784	-111
235.849	-900
235.913	-903
235.978	45
236.043	-841
236.108	-573
236.173	-1072
236.238	-45
236.303	-957
236.368	-855
236.433	-896
236.498	-876
236.563	-898
236.627	188
236.692	2445
236.757	1564
236.822	41
236.887	-680
236.952	350
237.017	-1373
237.081	600
237.146	-837
237.211	335
237.276	2955
237.341	4219
237.405	1058
237.470	-401
237.535	566
237.600	-789
237.664	774
237.729	-1274
237.794	-1093
237.859	75
237.923	-311
237.988	313
238.053	-512
238.118	-871
238.182	-854
238.247	825
238.312	-1983
238.376	-152
238.441	-2352
238.506	1232
238.570	-1177
238.635	328
238.700	447
238.764	-730
238.829	349
238.893	-1858
238.958	431
239.023	-471
239.087	-981
239.152	-278
239.216	-678
239.281	-121
239.346	381
239.410	-74
239.475	-287
239.539	344
239.604	-1291
239.668	609
239.733	1580
239.797	3968
239.862	6059
239.926	4885
239.991	2905
240.055	1208
240.120	49
240.184	807
240.249	-225
240.313	-117
240.378	-575
240.442	-534
240.507	251
240.571	-1013
240.635	-1041
240.700	14
240.764	-561
240.829	-140
240.893	-370
240.957	-19
241.022	-129
241.086	-452
241.151	-1672
241.215	-1777
241.279	208
241.344	-1365
241.408	-197
241.472	-653
241.537	240
241.601	-32
241.665	-997
241.730	-1628
241.794	508
241.858	-597
241.922	-1430
241.987	-216
242.051	-873
242.115	-1799
242.179	578
242.244	-725
242.308	432
242.372	-384
242.436	-1011
242.501	-406
242.565	-873
242.629	-870
242.693	274
242.757	-1421
242.822	-294
242.886	-207
242.950	89
243.014	-1547
243.078	34
243.142	-832
243.206	-426
243.271	-466
243.335	-740
243.399	276
243.463	622
243.527	2997
243.591	250
243.655	162
243.719	-1423
243.783	662
243.847	-258
243.911	128
243.975	-975
244.040	-1405
244.104	1088
244.168	-278
244.232	-792
244.296	-383
244.360	-1188
244.424	-651
244.488	113
244.552	39
244.615	-1123
244.679	-318
244.743	18
244.807	-1386
244.871	-132
244.935	-317
244.999	-1680
245.063	-698
245.127	460
245.191	-490
245.255	-1008
245.319	-865
245.383	-1917
245.446	1031
245.510	-1120
245.574	369
245.638	317
245.702	-1857
245.766	-540
245.829	587
245.893	-1260
245.957	-1677
246.021	178
246.085	-967
246.149	-1011
246.212	1055
246.276	-410
246.340	-1549
246.404	388
246.467	270
246.531	-2735
246.595	450
246.659	-2
246.722	-687
246.786	369
246.850	-655
246.913	-983
246.977	-1540
247.041	-64
247.104	-1207
247.168	-39
247.232	-480
247.295	221
247.359	-59
247.423	-589
247.486	-693
247.550	168
247.614	-1409
247.677	-839
247.741	-906
247.804	135
247.868	552
247.932	-742
247.995	730
248.059	-826
248.122	-906
248.186	1285
248.249	-423
248.313	884
248.376	1019
248.440	-359
248.503	-1682
248.567	1149
248.630	-1420
248.694	-904
248.757	80
248.821	1153
248.884	614
248.948	-577
249.011	280
249.075	454
249.138	942
249.202	-272
249.265	-391
249.328	662
249.392	-1039
249.455	-208
249.519	-232
249.582	-875
249.645	439
249.709	-192
249.772	-456
249.835	-784
249.899	-250
249.962	300
250.025	-947
250.089	126
250.152	667
250.215	-1045
250.279	-1228
250.342	501
250.405	-549
250.468	-350
250.532	57
250.595	940
250.658	2387
250.721	7648
250.785	1215
250.848	2197
250.911	-836
250.974	156
251.038	-209
251.101	630
251.164	-393
251.227	551
251.290	-216
251.354	1694
251.417	5265
251.480	5194
251.543	2941
251.606	11282
251.669	8640
251.732	2692
251.795	810
251.859	2184
251.922	6054
251.985	2999
252.048	1579
252.111	811
252.174	-553
252.237	194
252.300	1824
252.363	1597
252.426	8832
252.489	1948
252.552	441
252.615	-678
252.678	1116
252.741	1815
252.804	2158
252.867	9076
252.930	3871
252.993	1131
253.056	590
253.119	-827
253.182	-470
253.245	818
253.308	550
253.371	-585
253.434	-287
253.497	-137
253.559	-122
253.622	-463
253.685	-1081
253.748	-40
253.811	-1186
253.874	-392
253.937	-212
254.000	-58
254.062	-854
254.125	-268
254.188	656
254.251	-284
254.314	-666
254.376	-693
254.439	-90
254.502	-392
254.565	-1033
254.628	1578
254.690	-427
254.753	-377
254.816	-481
254.878	-3
254.941	-453
255.004	-710
255.067	-732
255.129	-882
255.192	59
255.255	-1179
255.317	-242
255.380	-834
255.443	-142
255.505	-642
255.568	-1744
255.631	-180
255.693	-200
255.756	-693
255.819	336
255.881	288
255.944	18
256.006	-1032
256.069	-1023
256.132	-612
256.194	-599
256.257	-184
256.319	-12
256.382	179
256.444	875
256.507	255
256.569	77
256.632	-289
256.694	-884
256.757	1329
256.819	4077
256.882	142
256.944	448
257.007	290
257.069	24
257.132	65
257.194	782
257.257	-796
257.319	-1033
257.381	-638
257.444	977
257.506	4564
257.569	5035
257.631	521
257.693	-254
257.756	344
257.818	-621
257.880	-485
257.943	-180
258.005	-474
258.067	-573
258.130	366
258.192	-812
258.254	-492
258.317	-535
258.379	-109
258.441	-924
258.503	583
258.566	-806
258.628	112
258.690	-522
258.753	828
258.815	-181
258.877	-747
258.939	31
259.001	466
259.064	-670
259.126	-339
259.188	-822
259.250	55
259.312	-536
259.375	-667
259.437	-1280
259.499	-48
259.561	-284
259.623	211
259.685	-879
259.747	-45
259.809	136
259.872	40
259.934	-389
259.996	18
260.058	-79
260.120	-458
260.182	-581
260.244	-329
260.306	-935
260.368	-325
260.430	-1553
260.492	138
260.554	958
260.616	-1375
260.678	-55
260.740	-543
260.802	-559
260.864	216
260.926	-1167
260.988	883
261.050	-361
261.112	-955
261.174	979
261.236	-203
261.298	-46
261.359	-104
261.421	269
261.483	-737
261.545	-217
261.607	-968
261.669	-45
261.731	-318
261.793	-182
261.854	-1921
261.916	-211
261.978	-544
262.040	-481
262.102	177
262.164	-572
262.225	-99
262.287	-128
262.349	-192
262.411	-951
262.472	356
262.534	-1116
262.596	-266
262.658	-247
262.719	-1389
262.781	110
262.843	-481
262.904	-317
262.966	-221
263.028	528
263.090	925
263.151	2384
263.213	722
263.275	-911
263.336	-184
263.398	424
263.459	-1154
263.521	-58
263.583	-284
263.644	-433
263.706	110
263.767	-1142
263.829	-308
263.891	-446
263.952	-313
264.014	-269
264.075	-87
264.137	-432
264.198	72
264.260	-378
264.321	-657
264.383	-277
264.444	612
264.506	-439
264.567	468
264.629	866
264.690	-580
264.752	-572
264.813	-391
264.875	-520
264.936	534
264.998	-653
265.059	58
265.120	436
265.182	331
265.243	956
265.305	2221
265.366	-307
265.427	97
265.489	801
265.550	-1235
265.611	-67
265.673	-709
265.734	-445
265.795	712
265.857	-990
265.918	-331
265.979	-216
266.040	2829
266.102	3270
266.163	267
266.224	162
266.286	328
266.347	-818
266.408	892
266.469	-148
266.530	-630
266.592	-710
266.653	277
266.714	-528
266.775	497
266.836	36
266.898	-270
266.959	-532
267.020	-294
267.081	-400
267.142	-391
267.203	-457
267.264	-1096
267.326	786
267.387	-455
267.448	-997
267.509	665
267.570	-847
267.631	-126
267.692	-1477
267.753	496
267.814	-1378
267.875	-102
267.936	16
267.997	-927
268.058	-450
268.119	-465
268.180	-835
268.241	-1272
268.302	-1045
268.363	-214
268.424	-186
268.485	-801
268.546	-569
268.607	-462
268.668	-927
268.729	-52
268.790	-683
268.851	-75
268.912	-724
268.972	-35
269.033	-100
269.094	-809
269.155	-316
269.216	-403
269.277	-380
269.338	473
269.398	-856
269.459	-913
269.520	-756
269.581	106
269.642	148
269.702	-221
269.763	68
269.824	-706
269.885	-633
269.945	848
270.006	-282
270.067	-1007
270.128	-549
270.188	126
270.249	-660
270.310	-970
270.370	-77
270.431	-943
270.492	-883
270.553	-371
270.613	-351
270.674	-329
270.734	-759
270.795	-415
270.856	-817
270.916	-384
270.977	-853
271.038	423
271.098	-60
271.159	-940
271.219	-704
271.280	-610
271.340	-172
271.401	-250
271.462	11
271.522	-208
271.583	-117
271.643	-203
271.704	-581
271.764	-43
271.825	787
271.885	1144
271.946	1614
272.006	588
272.066	298
272.127	2426
272.187	4406
272.248	2129
272.308	-168
272.369	1104
272.429	628
272.489	461
272.550	-433
272.610	490
272.671	-418
272.731	-78
272.791	-443
272.852	-10
272.912	-33
272.972	-246
273.033	-333
273.093	70
273.153	138
273.214	-743
273.274	-329
273.334	-585
273.394	274
273.455	-418
273.515	-662
273.575	-359
273.635	810
273.696	144
273.756	477
273.816	-429
273.876	-187
273.936	62
273.997	-283
274.057	-1447
274.117	-825
274.177	436
274.237	57
274.297	1013
274.358	-491
274.418	391
274.478	-144
274.538	64
274.598	-893
274.658	247
274.718	-357
274.778	181
274.838	-847
274.898	-321
274.958	304
275.018	684
275.078	340
275.138	145
275.198	-171
275.258	-197
275.318	-370
275.378	-286
275.438	-593
275.498	599
275.558	-152
275.618	258
275.678	-771
275.738	986
275.798	-389
275.858	-647
275.918	-714
275.978	-57
276.038	-519
276.098	-532
276.157	262
276.217	352
276.277	609
276.337	-585
276.397	-225
276.457	-945
276.517	13
276.576	475
276.636	-527
276.696	-155
276.756	-562
276.815	-209
276.875	-198
276.935	33
276.995	390
277.055	346
277.114	99
277.174	1074
277.234	0
277.293	-222
277.353	86
277.413	-602
277.472	-853
277.532	-55
277.592	449
277.651	1367
277.711	2983
277.771	68
277.830	3664
277.890	2324
277.950	1626
278.009	6970
278.069	2693
278.128	3006
278.188	3731
278.248	1205
278.307	3619
278.367	2820
278.426	568
278.486	340
278.545	560
278.605	427
278.664	-478
278.724	-160
278.783	401
278.843	983
278.902	305
278.962	-98
279.021	-8
279.081	417
279.140	501
279.199	-7
279.259	-4
279.318	870
279.378	1249
279.437	1612
279.496	6521
279.556	28498
279.615	17563
279.675	4319
279.734	2131
279.793	2601
279.853	3086
279.912	1107
279.971	1882
280.031	904
280.090	1502
280.149	2685
280.208	2821
280.268	16585
280.327	15045
280.386	3090
280.445	761
280.505	241
280.564	1029
280.623	-17
280.682	-196
280.742	298
280.801	-7
280.860	71
280.919	-463
280.978	306
281.037	-627
281.097	-364
281.156	243
281.215	102
281.274	503
281.333	798
281.392	-99
281.451	227
281.510	299
281.569	257
281.628	-224
281.688	211
281.747	498
281.806	-100
281.865	-151
281.924	-592
281.983	433
282.042	241
282.101	28
282.160	-43
282.219	25
282.278	303
282.337	-394
282.396	121
282.454	423
282.513	825
282.572	-465
282.631	-83
282.690	213
282.749	-466
282.808	-129
282.867	340
282.926	-179
282.985	632
283.043	521
283.102	292
283.161	-254
283.220	122
283.279	-147
283.338	654
283.396	74
283.455	-40
283.514	-160
283.573	899
283.631	127
283.690	778
283.749	266
283.808	1019
283.866	446
283.925	500
283.984	1084
284.043	61
284.101	674
284.160	607
284.219	739
284.277	609
284.336	271
284.395	235
284.453	764
284.512	1309
284.570	627
284.629	1404
284.688	604
284.746	1175
284.805	1280
284.863	1809
284.922	1519
284.981	2952
285.039	5249
285.098	8580
285.156	19100
285.215	37620
285.273	37323
285.332	21987
285.390	11282
285.449	6315
285.507	4312
285.566	4003
285.624	2924
285.683	1706
285.741	905
285.799	1400
285.858	1004
285.916	212
285.975	749
286.033	1436
286.091	10
286.150	299
286.208	-174
286.267	1218
286.325	362
286.383	75
286.442	544
286.500	-241
286.558	125
286.616	763
286.675	610
286.733	1024
286.791	-635
286.850	651
286.908	339
286.966	-120
287.024	302
287.083	-6
287.141	-680
287.199	1123
287.257	69
287.315	300
287.374	-70
287.432	618
287.490	906
287.548	752
287.606	681
287.664	469
287.723	780
287.781	857
287.839	1366
287.897	1547
287.955	1275
288.013	865
288.071	2896
288.129	8861
288.187	32821
288.245	14737
288.303	5041
288.361	1675
288.419	1082
288.477	1241
288.535	771
288.593	720
288.651	43
288.709	403
288.767	-8
288.825	424
288.883	281
288.941	539
288.999	-84
289.057	832
289.115	-201
289.173	571
289.231	726
289.289	-337
289.346	-57
289.404	1366
289.462	828
289.520	883
289.578	868
289.636	420
289.694	259
289.751	840
289.809	-330
289.867	208
289.925	1090
289.983	-10
290.040	190
290.098	629
290.156	-72
290.214	551
290.271	442
290.329	861
290.387	1132
290.444	471
290.502	242
290.560	822
290.617	682
290.675	868
290.733	481
290.790	1312
290.848	400
290.906	360
290.963	764
291.021	92
291.078	256
291.136	245
291.194	274
291.251	488
291.309	246
291.366	141
291.424	-116
291.481	837
291.539	17
291.596	595
291.654	385
291.711	503
291.769	1375
291.826	722
291.884	-273
291.941	330
291.999	-23
292.056	354
292.114	-230
292.171	-605
292.228	586
292.286	40
292.343	1042
292.401	843
292.458	-128
292.515	-94
292.573	1045
292.630	1129
292.687	468
292.745	747
292.802	806
292.859	643
292.917	1392
292.974	482
293.031	-102
293.089	539
293.146	254
293.203	833
293.260	447
293.318	467
293.375	706
293.432	74
293.489	232
293.546	888
293.604	709
293.661	1021
293.718	1606
293.775	1184
293.832	630
293.889	1005
293.947	904
294.004	762
294.061	135
294.118	531
294.175	1311
294.232	2820
294.289	1415
294.346	963
294.403	1060
294.460	423
294.517	472
294.574	815
294.631	-17
294.688	859
294.745	453
294.802	2626
294.859	3091
294.916	1471
294.973	748
295.030	65
295.087	-47
295.144	887
295.201	1200
295.258	96
295.315	1186
295.372	1767
295.429	1433
295.486	761
295.542	318
295.599	1364
295.656	3280
295.713	1088
295.770	1231
295.827	35
295.883	844
295.940	261
295.997	-196
296.054	-417
296.111	256
296.167	1220
296.224	700
296.281	522
296.338	738
296.394	317
296.451	283
296.508	1273
296.564	165
296.621	969
296.678	2249
296.734	2651
296.791	867
296.848	1025
296.904	309
296.961	106
297.018	1453
297.074	951
297.131	64
297.187	442
297.244	779
297.301	831
297.357	3363
297.414	1152
297.470	871
297.527	1650
297.583	1096
297.640	649
297.696	939
297.753	571
297.809	144
297.866	-118
297.922	718
297.979	746
298.035	-916
298.092	100
298.148	766
298.204	991
298.261	656
298.317	470
298.374	2042
298.430	1593
298.486	1354
298.543	977
298.599	879
298.656	455
298.712	1218
298.768	2671
298.824	1980
298.881	980
298.937	853
298.993	1317
299.050	643
299.106	657
299.162	429
299.218	1026
299.275	972
299.331	860
299.387	1810
299.443	3845
299.500	12076
299.556	10190
299.612	3875
299.668	3643
299.724	10860
299.780	13637
299.837	5384
299.893	3943
299.949	7881
300.005	13110
300.061	10089
300.117	14252
300.173	6448
300.229	2729
300.285	1531
300.341	2362
300.397	1282
300.453	1729
300.510	2141
300.566	2069
300.622	3938
300.678	15845
300.734	22192
300.790	9636
300.845	5464
300.901	10285
300.957	14036
301.013	6552
301.069	2267
301.125	2011
301.181	1232
301.237	1886
301.293	1136
301.349	961
301.405	990
301.461	300
301.516	1409
301.572	572
301.628	1069
301.684	1334
301.740	781
301.796	697
301.851	887
301.907	638
301.963	385
302.019	1636
302.074	5883
302.130	6073
302.186	3438
302.242	1522
302.297	1084
302.353	897
302.409	726
302.464	563
302.520	187
302.576	1489
302.631	1934
302.687	416
302.743	922
302.798	1248
302.854	523
302.910	885
302.965	891
303.021	370
303.076	1291
303.132	723
303.187	792
303.243	673
303.299	739
303.354	44
303.410	158
303.465	931
303.521	-343
303.576	135
303.632	246
303.687	1219
303.743	1566
303.798	2007
303.853	691
303.909	249
303.964	1205
304.020	1040
304.075	319
304.130	101
304.186	1177
304.241	1163
304.297	464
304.352	718
304.358	666
304.407	246
304.449	834
304.463	1034
304.518	511
304.539	532
304.573	561
304.629	1247
304.630	1226
304.684	338
304.720	1044
304.739	1383
304.794	2348
304.811	2100
304.850	1543
304.902	264
304.905	180
304.960	292
304.992	728
305.015	1033
305.071	619
305.083	580
305.126	458
305.173	-11
305.181	-89
305.236	520
305.264	760
305.292	965
305.347	407
305.354	506
305.402	1163
305.445	952
305.457	908
305.512	657
305.535	465
305.567	184
305.622	360
305.626	395
305.678	949
305.716	1193
305.733	1269
305.788	1270
305.807	1100
305.843	897
305.897	2019
305.898	2035
305.953	1966
305.988	1774
306.008	1666
306.063	781
306.078	776
306.118	682
306.168	306
306.173	285
306.228	907
306.259	870
306.283	834
306.338	545
306.349	480
306.393	143
306.440	645
306.448	754
306.503	919
306.530	853
306.558	853
306.613	1526
306.620	1470
306.668	1039
306.711	1120
306.723	1065
306.778	1186
306.801	1094
306.833	1268
306.888	1009
306.892	1025
306.943	1024
306.982	965
306.997	897
307.052	436
307.072	498
307.107	829
307.162	566
307.163	571
307.217	1146
307.253	1311
307.272	1380
307.327	988
307.343	1068
307.381	1152
307.434	926
307.436	934
307.491	1179
307.524	1465
307.546	1499
307.600	1424
307.614	1210
307.655	703
307.704	1127
307.710	1175
307.765	1111
307.795	1052
307.819	1072
307.874	1856
307.885	1824
307.929	1612
307.975	1709
307.984	1797
308.038	2748
308.065	3157
308.093	5363
308.148	11678
308.156	13536
308.202	22126
308.246	27157
308.257	26962
308.312	14136
308.336	9225
308.366	5908
308.421	3596
308.426	3421
308.475	2296
308.517	1836
308.530	1719
308.585	1366
308.607	1414
308.639	1541
308.694	1212
308.697	1241
308.748	2086
308.787	2287
308.803	2211
308.857	2059
308.877	1917
308.912	1912
308.967	2494
308.967	2496
309.021	2932
309.058	3362
309.076	3937
309.130	6392
309.148	7365
309.185	15702
309.238	32101
309.239	32171
309.293	36653
309.328	31578
309.348	27468
309.402	13140
309.418	9944
309.457	6810
309.508	4618
309.511	4525
309.566	4059
309.598	3988
309.620	4180
309.674	4483
309.688	4790
309.729	4884
309.778	4231
309.783	4206
309.837	3689
309.868	3491
309.892	3205
309.946	2727
309.959	2612
310.001	2626
310.049	2771
310.055	2727
310.109	2309
310.139	2048
310.163	2015
310.218	1974
310.229	1936
310.272	1852
310.319	1813
310.326	1801
310.381	1656
310.409	1641
310.435	1660
310.489	1587
310.499	1602
310.543	1626
310.589	1585
310.598	1641
310.652	1785
310.679	2035
310.706	2050
310.760	1623
310.769	1599
310.814	1582
310.859	1474
310.868	1515
310.923	1723
310.948	1799
310.977	1697
311.031	1579
311.038	1566
311.085	1819
311.128	1861
311.139	1847
311.193	1981
311.218	1996
311.247	2087
311.301	2187
311.308	2207
311.356	2469
311.398	2640
311.410	2561
311.464	2135
311.488	1969
311.518	1904
311.572	1705
311.578	1684
311.626	1955
311.668	2173
311.680	2275
311.734	2686
311.758	2877
311.788	2476
311.842	1756
311.847	1672
311.896	2438
311.937	3149
311.950	3070
312.004	2679
312.027	2505
312.058	2287
312.112	1889
312.117	1850
312.165	2263
312.207	2619
312.297	2481
312.386	2150
312.476	2128
312.566	2432
312.656	2204
312.745	2790
312.835	2266
312.925	2296
313.015	1865
313.104	2688
313.194	2642
313.284	3054
313.374	3468
313.463	2790
313.553	3189
313.643	3160
313.732	3664
313.822	3776
313.912	4234
314.001	4541
314.091	4730
314.180	3642
314.270	5105
314.360	4427
314.449	4751
314.539	4069
314.628	4290
314.718	4300
314.808	3838
314.897	4856
314.987	4407
315.076	5536
315.166	5672
315.255	4923
315.345	5026
315.434	3444
315.524	4405
315.613	4702
315.703	5282
315.792	10425
315.881	23728
315.971	8627
316.060	6534
316.150	4658
316.239	3644
316.328	4281
316.418	4117
316.507	4276
316.597	5431
316.686	5539
316.775	5857
316.865	5298
316.954	3829
317.043	4434
317.133	3636
317.222	3678
317.311	3734
317.400	2706
317.490	3290
317.579	3340
317.668	3922
317.757	4798
317.847	15368
317.936	36393
318.025	12257
318.114	10948
318.203	6729
318.293	5033
318.382	6943
318.471	7918
318.560	7618
318.649	8544
318.738	4125
318.828	3771
318.917	2562
319.006	2343
319.095	4190
319.184	6867
319.273	4162
319.362	3246
319.451	3184
319.540	3082
319.629	3250
319.718	4192
319.807	4132
319.896	4079
319.985	8857
320.074	5102
320.163	3898
320.252	3882
320.341	3995
320.430	3263
320.519	4283
320.608	4033
320.697	5335
320.786	6013
320.875	6378
320.964	7002
321.053	6597
321.142	7685
321.230	9489
321.319	9970
321.408	10881
321.497	10488
321.586	8888
321.675	7980
321.764	8076
321.852	8447
321.941	7745
322.030	8066
322.119	8777
322.207	10567
322.296	10793
322.385	12089
322.474	13395
322.562	13664
322.651	10870
322.740	8990
322.829	8175
322.917	7121
323.006	6252
323.095	5207
323.183	6263
323.272	5331
323.361	5676
323.449	7043
323.538	5120
323.626	4897
323.715	4352
323.804	4281
323.892	4475
323.981	4030
324.069	3834
324.158	4536
324.246	3935
324.335	3594
324.424	3982
324.512	4147
324.601	4107
324.689	4499
324.778	4085
324.866	3307
324.954	3614
325.043	3218
325.131	3338
325.220	3957
325.308	3459
325.397	3382
325.485	2967
325.574	3043
325.662	3505
325.750	2309
325.839	3920
325.927	3284
326.015	2805
326.104	2321
326.192	3653
326.280	3240
326.369	3078
326.457	3118
326.545	3663
326.634	2251
326.722	2920
326.810	3638
326.898	4849
326.987	4347
327.075	3333
327.163	4089
327.251	3923
327.340	3410
327.428	5282
327.516	5726
327.604	4819
327.692	4234
327.781	3723
327.869	2815
327.957	3728
328.045	2875
328.133	3277
328.221	2897
328.309	3331
328.397	3215
328.485	4083
328.574	4901
328.662	6944
328.750	4883
328.838	4200
328.926	3227
329.014	4273
329.102	2820
329.190	4072
329.278	2755
329.366	2597
329.454	2169
329.542	3247
329.630	3026
329.718	3087
329.806	3094
329.893	3508
329.981	2640
330.069	3896
330.157	4079
330.245	7768
330.333	5640
330.421	3254
330.509	3176
330.597	3485
330.684	3402
330.772	3617
330.860	3063
330.948	3290
331.036	3284
331.123	2365
331.211	3306
331.299	3969
331.387	3359
331.475	3346
331.562	3463
331.650	3356
331.738	2883
331.825	3308
331.913	2699
332.001	2854
332.089	3201
332.176	3548
332.264	3460
332.352	2787
332.439	2982
332.527	3083
332.614	2436
332.702	3375
332.790	3742
332.877	3760
332.965	3941
333.052	3728
333.140	3668
333.228	5117
333.315	3254
333.403	3748
333.490	4464
333.578	4443
333.665	6117
333.753	5745
333.840	4791
333.928	5757
334.015	7031
334.103	9411
334.190	13740
334.278	13410
334.365	16878
334.452	16415
334.540	12379
334.627	11765
334.715	15563
334.802	21290
334.889	30160
334.977	36396
335.064	24340
335.151	14336
335.239	11400
335.326	9240
335.413	11837
335.501	12821
335.588	10495
335.675	12293
335.762	14440
335.850	18584
335.937	25518
336.024	36940
336.111	50039
336.199	43817
336.286	23355
336.373	15209
336.460	10871
336.547	8851
336.635	8070
336.722	6819
336.809	6413
336.896	5789
336.983	7694
337.070	9148
337.157	10946
337.245	6296
337.332	6091
337.419	5417
337.506	5021
337.593	5114
337.680	6033
337.767	7785
337.854	5009
337.941	4212
338.028	4375
338.115	3319
338.202	5553
338.289	4684
338.376	4594
338.463	3962
338.550	5809
338.637	5494
338.724	3658
338.811	3821
338.898	4335
338.984	3651
339.071	3075
339.158	3606
339.245	3727
339.332	4199
339.419	2929
339.506	3293
339.593	3194
339.679	4158
339.766	3669
339.853	3777
339.940	2776
340.027	3534
340.113	3757
340.200	3657
340.287	3693
340.374	2591
340.460	3081
340.547	2930
340.634	3218
340.720	3712
340.807	2515
340.894	3561
340.980	3530
341.067	3135
341.154	4064
341.240	3282
341.327	3787
341.414	4494
341.500	3047
341.587	3585
341.674	3860
341.760	3977
341.847	3128
341.933	3359
342.020	2324
342.106	3905
342.193	3133
342.279	3202
342.366	3320
342.452	3327
342.539	3109
342.625	2305
342.712	3545
342.798	3007
342.885	2832
342.971	2744
343.058	3169
343.144	4040
343.230	3730
343.317	3328
343.403	2977
343.490	3330
343.576	3734
343.662	3452
343.749	1983
343.835	3341
343.921	3527
344.008	6059
344.094	7822
344.180	4626
344.267	2457
344.353	3060
344.439	3507
344.525	3237
344.612	3164
344.698	3092
344.784	2227
344.870	2671
344.957	2278
345.043	4058
345.129	2762
345.215	4107
345.301	2503
345.387	2978
345.474	2614
345.560	2869
345.646	2599
345.732	2869
345.818	2359
345.904	3286
345.990	3413
346.076	2609
346.162	2950
346.249	3894
346.335	2425
346.421	3596
346.507	2764
346.593	4743
346.679	2838
346.765	4817
346.851	5788
346.937	5453
347.023	4641
347.108	3433
347.194	3447
347.280	3404
347.366	4905
347.452	11364
347.538	12153
347.624	8419
347.710	5550
347.796	3003
347.882	3666
347.967	3206
348.053	3346
348.139	3255
348.225	3560
348.311	3524
348.397	3448
348.482	3726
348.568	3920
348.654	6581
348.740	15921
348.825	16959
348.911	8920
348.997	5883
349.083	6122
349.168	4039
349.254	3594
349.340	3731
349.425	3543
349.511	3464
349.597	3024
349.682	3576
349.768	4709
349.854	3892
349.939	4021
350.025	2863
350.110	3802
350.196	3950
350.282	2959
350.367	3916
350.453	3260
350.538	3847
350.624	2481
350.709	3383
350.795	2997
350.880	3062
350.966	4503
351.051	3503
351.137	3577
351.222	3479
351.308	3676
351.393	3354
351.479	2385
351.564	2347
351.649	3885
351.735	2970
351.820	3223
351.906	3678
351.991	3170
352.076	3627
352.162	3092
352.247	3024
352.332	2676
352.418	2342
352.503	3295
352.588	2831
352.673	2588
352.759	2701
352.844	2806
352.929	2716
353.014	2427
353.100	3122
353.185	3415
353.270	3013
353.355	3334
353.441	3495
353.526	2691
353.611	2725
353.696	2686
353.781	3297
353.866	2324
353.952	3724
354.037	2024
354.122	3216
354.207	2787
354.292	3266
354.377	4123
354.462	3023
354.547	2336
354.632	3656
354.717	3407
354.802	3116
354.887	3342
354.972	3034
355.057	3207
355.142	2644
355.227	3234
355.312	2248
355.397	2300
355.482	3605
355.567	2497
355.652	4062
355.737	3471
355.822	4000
355.907	3293
355.991	3840
356.076	2175
356.161	3148
356.246	3531
356.331	3590
356.416	3172
356.501	5657
356.585	4520
356.670	2712
356.755	4410
356.840	3763
356.924	5005
357.009	7194
357.094	6002
357.179	3247
357.263	3468
357.348	3461
357.433	4191
357.517	4138
357.602	3506
357.687	3353
357.771	3427
357.856	3587
357.941	4471
358.025	5323
358.110	10309
358.195	5855
358.279	2980
358.364	3422
358.448	4380
358.533	4652
358.617	4063
358.702	5065
358.787	3849
358.871	2570
358.956	3349
359.040	3178
359.125	3672
359.209	4801
359.294	4112
359.378	5906
359.462	5569
359.547	3326
359.631	3805
359.716	2233
359.800	3344
359.885	4572
359.969	2584
360.053	4978
360.138	4643
360.222	3959
360.306	3941
360.391	3922
360.475	3543
360.559	4329
360.644	4527
360.728	3173
360.812	5044
360.896	6561
360.981	4976
361.065	4748
361.149	4582
361.233	3724
361.318	4210
361.402	4504
361.486	5775
361.570	3918
361.654	5778
361.739	5559
361.823	6975
361.907	10094
361.991	7765
362.075	9099
362.159	12523
362.243	23481
362.327	44408
362.411	55664
362.495	25073
362.580	15292
362.664	13489
362.748	17540
362.832	27195
362.916	48784
363.000	97389
363.084	108146
363.168	48270
363.252	21686
363.336	14197
363.420	12578
363.503	13974
363.587	13230
363.671	9157
363.755	9404
363.839	11844
363.923	11548
364.007	14809
364.091	21136
364.175	32591
364.258	64419
364.342	110476
364.426	146992
364.510	86309
364.594	36723
364.677	21047
364.761	14055
364.845	11233
364.929	9135
365.013	6264
365.096	7311
365.180	4703
365.264	8160
365.347	13064
365.431	7591
365.515	4375
365.598	4566
365.682	6048
365.766	5117
365.849	5657
365.933	5446
366.017	6567
366.100	4522
366.184	3902
366.267	5705
366.351	5160
366.435	4679
366.518	4431
366.602	5748
366.685	4450
366.769	5540
366.852	4173
366.936	5472
367.019	4850
367.103	3936
367.186	6571
367.270	4350
367.353	3509
367.436	6208
367.520	5231
367.603	4730
367.687	4521
367.770	5074
367.853	6188
367.937	6143
368.020	6088
368.104	3756
368.187	5152
368.270	4137
368.353	4252
368.437	3364
368.520	4697
368.603	4021
368.687	3061
368.770	4782
368.853	2594
368.936	4477
369.020	4501
369.103	4086
369.186	3539
369.269	3213
369.352	3701
369.436	3343
369.519	3405
369.602	2167
369.685	5704
369.768	3500
369.851	4032
369.934	3158
370.018	3133
370.101	2373
370.184	5096
370.267	3924
370.350	3502
370.433	3761
370.516	7237
370.599	12779
370.682	5693
370.765	5744
370.848	5171
370.931	4144
371.014	5052
371.097	2276
371.180	3675
371.263	4056
371.346	1886
371.429	3674
371.511	2857
371.594	3397
371.677	4487
371.760	5792
371.843	4151
371.926	7741
372.009	9448
372.091	7233
372.174	3537
372.257	6475
372.340	3931
372.423	4651
372.505	5506
372.588	4075
372.671	3974
372.754	3783
372.836	3776
372.919	5285
373.002	8313
373.085	3636
373.167	4538
373.250	4547
373.332	4545
373.415	8027
373.498	10335
373.580	9807
373.663	19954
373.746	19248
373.828	6170
373.911	5730
373.993	4982
374.076	7591
374.159	6680
374.241	5370
374.324	4669
374.406	6242
374.489	5971
374.571	9789
374.654	6129
374.736	5755
374.819	6976
374.901	11362
374.983	9279
375.066	6230
375.148	5649
375.231	9013
375.313	10824
375.395	7240
375.478	5685
375.560	6223
375.643	6123
375.725	6346
375.807	6940
375.890	8593
375.972	3880
376.054	5492
376.136	5404
376.219	4664
376.301	5895
376.383	5884
376.465	4719
376.548	3800
376.630	4601
376.712	5883
376.794	4020
376.877	4180
376.959	2659
377.041	3520
377.123	4476
377.205	4043
377.287	3166
377.369	4281
377.452	4149
377.534	4591
377.616	3913
377.698	4030
377.780	3590
377.862	4522
377.944	4579
378.026	3212
378.108	5101
378.190	4468
378.272	4155
378.354	4301
378.436	3327
378.518	2986
378.600	3864
378.682	4409
378.764	4348
378.846	4208
378.928	3150
379.010	3120
379.091	3338
379.173	4061
379.255	3348
379.337	4233
379.419	2984
379.501	4969
379.583	3703
379.664	3443
379.746	2545
379.828	4956
379.910	2857
379.991	4151
380.073	2959
380.155	3196
380.237	2809
380.318	3149
380.400	3089
380.482	3834
380.564	2976
380.645	2898
380.727	3169
380.809	4286
380.890	2022
380.972	1571
381.053	3420
381.135	4371
381.217	3089
381.298	4503
381.380	3404
381.461	3967
381.543	4242
381.624	4717
381.706	2960
381.787	3474
381.869	4391
381.951	4443
382.032	6664
382.113	8074
382.195	2893
382.276	4777
382.358	4375
382.439	4891
382.521	6307
382.602	7302
382.684	6574
382.765	6362
382.846	11530
382.928	18795
383.009	11598
383.090	11939
383.172	29763
383.253	36062
383.334	12983
383.416	8909
383.497	7433
383.578	7718
383.659	11770
383.741	30383
383.822	55386
383.903	26969
383.984	9086
384.066	9931
384.147	5779
384.228	6200
384.309	6222
384.390	6575
384.471	5971
384.553	6179
384.634	5302
384.715	5747
384.796	5318
384.877	4061
384.958	5826
385.039	4008
385.120	4534
385.201	5790
385.282	4769
385.363	6765
385.444	5887
385.525	6922
385.606	7474
385.687	7649
385.768	6771
385.849	5195
385.930	9594
386.011	11724
386.092	6597
386.173	7368
386.254	7435
386.335	7765
386.416	6373
386.496	7188
386.577	7353
386.658	6317
386.739	6331
386.820	7764
386.901	6635
386.981	7794
387.062	8089
387.143	8151
387.224	10037
387.304	12299
387.385	11367
387.466	9204
387.547	11537
387.627	11807
387.708	11643
387.789	12899
387.869	9900
387.950	10604
388.031	8795
388.111	6488
388.192	8983
388.273	8999
388.353	7692
388.434	6356
388.514	7651
388.595	8267
388.676	7576
388.756	6665
388.837	6321
388.917	6292
388.998	4687
389.078	7268
389.159	6832
389.239	3909
389.320	7110
389.400	3500
389.480	5245
389.561	5346
389.641	6555
389.722	5277
389.802	4628
389.883	5728
389.963	7199
390.043	5640
390.124	4694
390.204	5615
390.284	5952
390.365	4853
390.445	7432
390.525	9430
390.605	8840
390.686	4980
390.766	6286
390.846	6715
390.927	5702
391.007	4130
391.087	7072
391.167	5934
391.247	4996
391.328	6698
391.408	7215
391.488	6564
391.568	4616
391.648	5995
391.728	6982
391.808	7266
391.888	6342
391.969	7876
392.049	7636
392.129	9123
392.209	9031
392.289	10850
392.369	9683
392.449	11582
392.529	11768
392.609	13307
392.689	14984
392.769	15672
392.849	20929
392.929	26336
393.009	34072
393.089	47214
393.169	82507
393.248	159374
393.328	286422
393.408	267624
393.488	141140
393.568	73258
393.648	44081
393.728	29804
393.807	21722
393.887	18321
393.967	15549
394.047	12534
394.127	10738
394.206	11491
394.286	18562
394.366	49436
394.446	50132
394.525	14606
394.605	7918
394.685	9040
394.764	11752
394.844	19121
394.924	23911
395.003	11194
395.083	7354
395.163	7157
395.242	6376
395.322	7068
395.402	4859
395.481	9320
395.561	10426
395.640	29260
395.720	50611
395.799	31232
395.879	13665
395.958	10980
396.038	22128
396.117	63544
396.197	65699
396.276	24432
396.356	16008
396.435	18268
396.515	23840
396.594	33805
396.673	65845
396.753	149954
396.832	254699
396.912	186620
396.991	78512
397.070	40956
397.150	25494
397.229	25068
397.308	42426
397.388	69825
397.467	39099
397.546	15814
397.625	8019
397.705	10765
397.784	8814
397.863	6937
397.942	6855
398.022	6896
398.101	7380
398.180	9955
398.259	7726
398.338	7459
398.417	5027
398.497	5290
398.576	5654
398.655	4505
398.734	5152
398.813	4209
398.892	6276
398.971	8896
399.050	6554
399.129	3293
399.208	4469
399.287	4888
399.366	3432
399.445	4104
399.524	4818
399.603	2558
399.682	4096
399.761	5074
399.840	9593
399.919	7964
399.998	3734
400.077	3139
400.156	2778
400.235	5764
400.313	2951
400.392	2916
400.471	4160
400.550	4211
400.629	2539
400.708	3952
400.786	2393
400.865	3327
400.944	2919
401.023	4782
401.102	2175
401.180	2869
401.259	2670
401.338	2720
401.416	3018
401.495	1688
401.574	3455
401.652	2374
401.731	3650
401.810	2292
401.888	2108
401.967	2494
402.046	2626
402.124	2578
402.203	1808
402.281	3698
402.360	2331
402.438	4246
402.517	2156
402.596	3108
402.674	1463
402.753	2747
402.831	3044
402.910	4150
402.988	3260
403.066	3723
403.145	3727
403.223	4488
403.302	3843
403.380	4444
403.459	3520
403.537	3019
403.615	3628
403.694	2426
403.772	3994
403.850	3228
403.929	2206
404.007	3414
404.085	4065
404.164	2914
404.242	2846
404.320	5211
404.398	8361
404.477	7169
404.555	6170
404.633	5143
404.711	5813
404.789	4887
404.868	2019
404.946	1454
405.024	2388
405.102	2329
405.180	1356
405.258	1434
405.336	2802
405.415	928
405.493	2883
405.571	3202
405.649	1728
405.727	1954
405.805	4409
405.883	3092
405.961	3578
406.039	1830
406.117	2233
406.195	3031
406.273	1477
406.351	3500
406.429	4216
406.507	2035
406.585	1372
406.663	2823
406.740	1753
406.818	1646
406.896	1558
406.974	3040
407.052	1203
407.130	3466
407.208	3845
407.285	3878
407.363	1980
407.441	2919
407.519	1955
407.596	3470
407.674	7094
407.752	20667
407.830	14233
407.907	4667
407.985	1567
408.063	2141
408.141	2645
408.218	2920
408.296	1516
408.373	2727
408.451	3478
408.529	3328
408.606	3561
408.684	4149
408.762	4125
408.839	4078
408.917	4427
408.994	4973
409.072	4866
409.149	6822
409.227	11527
409.304	14646
409.382	16377
409.459	17634
409.537	22607
409.614	21379
409.692	17172
409.769	17192
409.846	23568
409.924	28255
410.001	20001
410.079	15660
410.156	13296
410.233	11622
410.311	8304
410.388	7159
410.465	7355
410.543	5535
410.620	6882
410.697	6168
410.775	6020
410.852	5193
410.929	6538
411.006	6534
411.083	5863
411.161	4915
411.238	5681
411.315	3878
411.392	4880
411.469	5269
411.547	4449
411.624	2893
411.701	3613
411.778	4088
411.855	3259
411.932	3049
412.009	3066
412.086	3435
412.163	3359
412.240	3155
412.317	3695
412.394	2859
412.471	3763
412.548	2563
412.625	3070
412.702	3532
412.779	3092
412.856	2843
412.933	2487
413.010	2379
413.087	2585
413.164	2514
413.241	3183
413.318	3031
413.395	2596
413.471	1791
413.548	2860
413.625	3364
413.702	994
413.779	2034
413.855	2186
413.932	2147
414.009	1634
414.086	2320
414.162	3036
414.239	2608
414.316	2067
414.393	3599
414.469	1463
414.546	2465
414.623	2143
414.699	1885
414.776	1768
414.853	1989
414.929	2332
415.006	1916
415.082	2162
415.159	2454
415.236	2219
415.312	3240
415.389	2731
415.465	1550
415.542	1576
415.618	1491
415.695	1698
415.771	1126
415.848	2327
415.924	1588
416.000	2013
416.077	2913
416.153	927
416.230	1568
416.306	1690
416.383	1624
416.459	2469
416.535	1492
416.612	2093
416.688	2556
416.764	2171
416.841	1380
416.917	2067
416.993	1784
417.069	2343
417.146	2233
417.222	2470
417.298	1760
417.374	1416
417.451	2932
417.527	1504
417.603	1930
417.679	1615
417.755	2486
417.831	1403
417.908	1863
417.984	2123
418.060	1561
418.136	2877
418.212	2472
418.288	2651
418.364	2695
418.440	2205
418.516	3431
418.592	2835
418.668	2933
418.744	2013
418.820	2862
418.896	2842
418.972	2325
419.048	2975
419.124	4282
419.200	2144
419.276	4060
419.352	2893
419.428	3458
419.504	3391
419.579	3654
419.655	3107
419.731	3914
419.807	4222
419.883	4469
419.959	4222
420.034	5336
420.110	4713
420.186	4838
420.262	5766
420.337	5822
420.413	6096
420.489	7639
420.565	8469
420.640	7422
420.716	8941
420.792	7000
420.867	9641
420.943	9049
421.019	10239
421.094	10510
421.170	11423
421.245	12523
421.321	13905
421.397	15565
421.472	20410
421.548	27038
421.623	25340
421.699	24212
421.774	26012
421.850	29466
421.925	35666
422.001	41437
422.076	49458
422.152	61679
422.227	74661
422.302	96726
422.378	122218
422.453	145903
422.529	155991
422.604	133060
422.679	106149
422.755	130843
422.830	158358
422.905	148734
422.981	125687
423.056	100752
423.131	81003
423.207	65089
423.282	52509
423.357	45320
423.432	38156
423.508	33470
423.583	28708
423.658	24993
423.733	22798
423.808	21829
423.883	19254
423.959	20660
424.034	19869
424.109	19056
424.184	15417
424.259	13924
424.334	12280
424.409	10876
424.484	9784
424.559	9857
424.634	7594
424.709	8592
424.784	7677
424.859	7760
424.934	6273
425.009	7253
425.084	6913
425.159	5499
425.234	6442
425.309	5463
425.384	5764
425.459	5191
425.534	5255
425.609	4352
425.683	4874
425.758	4428
425.833	4873
425.908	5183
425.983	4230
426.058	5325
426.132	4632
426.207	4401
426.282	5850
426.357	3524
426.431	4184
426.506	4206
426.581	2739
426.655	3602
426.730	4145
426.805	2802
426.879	3179
426.954	3292
427.029	2645
427.103	3307
427.178	4634
427.253	3940
427.327	3291
427.402	2335
427.476	3421
427.551	3053
427.625	3318
427.700	3790
427.774	2457
427.849	3145
427.923	2483
427.998	4654
428.072	5075
428.147	10496
428.221	34001
428.296	76196
428.370	45771
428.444	10873
428.519	5635
428.593	4861
428.667	5041
428.742	6582
428.816	16632
428.890	52059
428.965	69726
429.039	22853
429.113	6901
429.188	3828
429.262	3157
429.336	3511
429.410	3560
429.485	3559
429.559	4565
429.633	5335
429.707	5664
429.781	14747
429.855	49333
429.930	63509
430.004	24421
430.078	20728
430.152	44405
430.226	101298
430.300	94640
430.374	32149
430.448	13303
430.522	9700
430.596	11856
430.670	23907
430.744	62002
430.818	62822
430.892	16426
430.966	5684
431.040	4490
431.114	2470
431.188	2202
431.262	2651
431.336	2377
431.410	2872
431.484	2350
431.557	3987
431.631	3248
431.705	8855
431.779	27128
431.853	75357
431.927	52014
432.000	11392
432.074	3631
432.148	2402
432.222	1839
432.295	2244
432.369	1772
432.443	1074
432.516	1759
432.590	1678
432.664	1756
432.737	356
432.811	342
432.885	1009
432.958	1113
433.032	634
433.106	405
433.179	570
433.253	1432
433.326	973
433.400	1031
433.473	1239
433.547	437
433.620	1294
433.694	32
433.767	968
433.841	405
433.914	1207
433.988	984
434.061	1267
434.134	1021
434.208	848
434.281	-26
434.355	535
434.428	1266
434.501	761
434.575	981
434.648	472
434.721	830
434.795	1731
434.868	420
434.941	1190
435.014	1161
435.088	1205
435.161	2554
435.234	2001
435.307	2325
435.381	3703
435.454	6627
435.527	10891
435.600	11860
435.673	10734
435.746	8420
435.819	5886
435.892	5147
435.966	5082
436.039	3482
436.112	2697
436.185	1722
436.258	2514
436.331	1289
436.404	1898
436.477	1766
436.550	1154
436.623	1284
436.696	795
436.769	570
436.842	1360
436.915	1332
436.987	1477
437.060	1082
437.133	1348
437.206	725
437.279	1075
437.352	547
437.425	918
437.498	-163
437.570	1138
437.643	284
437.716	1184
437.789	1138
437.861	1342
437.934	1196
438.007	1046
438.080	-214
438.152	733
438.225	1382
438.298	891
438.370	3338
438.443	2612
438.516	1019
438.588	1677
438.661	652
438.734	1012
438.806	1436
438.879	653
438.951	1475
439.024	1439
439.096	356
439.169	1259
439.241	324
439.314	437
439.386	632
439.459	1676
439.531	1018
439.604	530
439.676	1042
439.749	665
439.821	1296
439.893	969
439.966	619
440.038	546
440.110	880
440.183	895
440.255	1362
440.327	1217
440.400	1641
440.472	2277
440.544	2257
440.617	1511
440.689	2421
440.761	2052
440.833	1513
440.905	1679
440.978	1473
441.050	2172
441.122	1349
441.194	1020
441.266	1038
441.338	1259
441.411	2000
441.483	1709
441.555	1886
441.627	2542
441.699	1815
441.771	1970
441.843	2158
441.915	2263
441.987	3302
442.059	3339
442.131	4130
442.203	5792
442.275	6060
442.347	11725
442.419	25058
442.491	76438
442.563	123969
442.635	66835
442.706	21736
442.778	10629
442.850	7016
442.922	6928
442.994	6434
443.066	6511
443.137	9129
443.209	12494
443.281	19694
443.353	38502
443.425	91484
443.496	172976
443.568	178182
443.640	99411
443.711	36839
443.783	17804
443.855	11239
443.926	7217
443.998	6504
444.070	6122
444.141	4842
444.213	4253
444.285	4050
444.356	4288
444.428	3855
444.499	3468
444.571	3951
444.642	4295
444.714	4097
444.785	4814
444.857	5889
444.928	7055
445.000	8926
445.071	10302
445.143	13016
445.214	20425
445.285	33423
445.357	69860
445.428	144204
445.500	197554
445.571	184528
445.642	140943
445.714	69289
445.785	28857
445.856	15172
445.928	10198
445.999	7468
446.070	5734
446.141	4303
446.213	3348
446.284	3679
446.355	3795
446.426	2532
446.497	2648
446.569	2638
446.640	2201
446.711	1943
446.782	1523
446.853	2535
446.924	1466
446.995	1733
447.066	985
447.138	1652
447.209	2037
447.280	875
447.351	1101
447.422	229
447.493	1111
447.564	63
447.635	658
447.706	1003
447.777	1122
447.847	607
447.918	786
447.989	720
448.060	769
448.131	1363
448.202	971
448.273	163
448.344	995
448.414	706
448.485	817
448.556	658
448.627	822
448.698	2022
448.768	382
448.839	448
448.910	-11
448.981	1202
449.051	342
449.122	952
449.193	167
449.263	250
449.334	523
449.405	851
449.475	255
449.546	1372
449.616	1420
449.687	2061
449.758	1749
449.828	472
449.899	-98
449.969	519
450.040	782
450.110	751
450.181	630
450.251	325
450.322	1200
450.392	848
450.463	-465
450.533	192
450.604	528
450.674	961
450.744	1845
450.815	1654
450.885	1761
450.955	1276
451.026	2265
451.096	1675
451.166	1539
451.237	2446
451.307	4293
451.377	2822
451.447	1887
451.518	1864
451.588	956
451.658	659
451.728	949
451.799	1265
451.869	2599
451.939	690
452.009	382
452.079	908
452.149	2234
452.219	1436
452.289	3177
452.360	2716
452.430	2486
452.500	3491
452.570	6185
452.640	13370
452.710	28447
452.780	35803
452.850	21220
452.920	12263
452.990	8009
453.060	4987
453.129	3058
453.199	3114
453.269	4171
453.339	5628
453.409	7106
453.479	6775
453.549	9369
453.619	9441
453.688	4314
453.758	1940
453.828	1369
453.898	1546
453.968	1470
454.037	850
454.087	1271
454.107	1435
454.168	611
454.177	471
454.247	779
454.249	792
454.316	795
454.330	734
454.386	422
454.411	658
454.456	968
454.492	1173
454.525	1330
454.574	1333
454.595	1338
454.655	1222
454.665	1191
454.734	1778
454.736	1808
454.804	1950
454.817	1924
454.873	1556
454.898	2087
454.943	3104
454.979	2269
455.013	1470
455.060	1524
455.082	1554
455.141	1749
455.152	1791
455.221	2850
455.222	2903
455.291	4440
455.303	4620
455.360	5012
455.384	6308
455.430	7999
455.465	6608
455.499	5443
455.546	3509
455.569	2616
455.627	2818
455.638	2860
455.707	1804
455.708	1816
455.777	1100
455.789	1228
455.846	1690
455.869	1656
455.916	1527
455.950	1312
455.985	1158
456.031	1382
456.054	1437
456.112	1970
456.124	2068
456.193	1908
456.193	1890
456.262	2100
456.274	2257
456.332	2824
456.355	2568
456.401	2071
456.436	2297
456.470	2403
456.516	1820
456.540	1586
456.597	1909
456.609	1956
456.678	2499
456.678	2484
456.747	2579
456.759	2550
456.817	2444
456.840	2376
456.886	2070
456.920	2655
456.955	3212
457.001	3127
457.024	3127
457.082	3099
457.093	3065
457.162	3239
457.163	3260
457.232	3222
457.243	3328
457.301	3797
457.324	3841
457.370	3962
457.405	4456
457.439	5078
457.485	5262
457.508	5508
457.566	7695
457.577	8551
457.646	12918
457.647	13026
457.715	28336
457.727	32039
457.784	53039
457.808	66860
457.853	77795
457.889	87114
457.922	89079
457.969	69475
457.991	72209
458.050	83365
458.060	85600
458.129	132470
458.130	133985
458.198	115487
458.211	103483
458.267	69986
458.292	51986
458.336	38614
458.372	37680
458.405	49024
458.453	72197
458.474	86332
458.533	140072
458.543	141706
458.611	181210
458.614	181982
458.680	117306
458.694	94247
458.749	52706
458.775	38806
458.818	22988
458.855	17741
458.887	14502
458.936	11842
458.955	10848
459.016	8904
459.024	8664
459.093	7432
459.097	7363
459.162	6111
459.177	6147
459.230	6414
459.257	6243
459.299	5838
459.338	5717
459.368	5633
459.418	5616
459.437	5627
459.499	5033
459.505	4983
459.574	5404
459.579	5421
459.643	4881
459.659	4864
459.711	5155
459.740	5005
459.780	4925
459.820	5056
459.849	5049
459.900	5521
459.917	5570
459.981	5071
459.986	5034
460.054	4956
460.061	4955
460.123	4905
460.141	4908
460.191	5204
460.222	5301
460.260	5248
460.302	5443
460.328	5589
460.382	5589
460.397	5797
460.462	7079
460.465	7448
460.534	16208
460.543	17305
460.602	35293
460.623	42651
460.671	63895
460.703	83049
460.739	68517
460.783	44038
460.808	38831
460.864	12779
460.876	10143
460.944	5729
460.945	5674
461.013	5565
461.024	5464
461.081	4843
461.104	4847
461.150	4899
461.184	4904
461.218	5112
461.264	5232
461.286	5131
461.345	4890
461.355	4912
461.423	5240
461.425	5236
461.491	4514
461.505	4557
461.559	5649
461.585	5912
461.628	6161
461.665	6726
461.696	6871
461.745	7157
461.764	6757
461.825	4807
461.832	4857
461.901	5315
461.905	5372
461.969	4284
461.985	4002
462.037	5184
462.065	5777
462.105	5348
462.145	5161
462.173	5651
462.225	5863
462.241	5805
462.305	6453
462.310	6453
462.378	6219
462.385	6161
462.446	5579
462.465	5378
462.514	5132
462.545	5092
462.582	5061
462.625	4861
462.650	4738
462.705	4485
462.718	4534
462.785	5043
462.786	5045
462.854	4968
462.865	4954
462.922	5763
462.945	6004
462.990	5386
463.025	4902
463.058	4926
463.104	5180
463.126	5189
463.184	5094
463.194	5129
463.262	4877
463.264	4894
463.330	5506
463.344	5529
463.398	5838
463.424	6010
463.466	5564
463.504	5210
463.533	5407
463.583	5602
463.601	5559
463.663	5278
463.669	5251
463.737	5194
463.743	5155
463.805	6179
463.823	6576
463.873	7264
463.903	7690
463.940	7355
463.982	6882
464.008	6617
464.062	5855
464.076	5848
464.142	5851
464.144	5839
464.211	5185
464.221	5109
464.279	5436
464.301	5501
464.347	5554
464.381	5627
464.414	5506
464.461	5276
464.482	5263
464.540	5367
464.550	5430
464.617	5534
464.620	5533
464.685	5175
464.699	5131
464.753	5958
464.779	6387
464.820	6274
464.859	6029
464.888	6026
464.938	5905
464.956	6035
465.018	6576
465.023	6558
465.091	6219
465.098	6175
465.158	5745
465.177	5614
465.226	5883
465.257	5984
465.293	5960
465.336	6013
465.361	6281
465.416	6798
465.428	6813
465.495	6816
465.496	6836
465.563	8331
465.575	8640
465.631	8860
465.654	8912
465.698	7557
465.734	6252
465.765	6074
465.813	5814
465.833	5821
465.893	5891
465.900	5926
465.968	6181
465.972	6193
466.035	6062
466.052	5993
466.102	5802
466.131	5662
466.170	5917
466.210	6214
466.237	6256
466.290	6322
466.304	6294
466.369	6000
466.372	6026
466.439	6645
466.449	6694
466.506	6605
466.528	6617
466.573	7727
466.607	8503
466.641	9319
466.687	10423
466.708	10703
466.766	11453
466.775	10975
466.842	7217
466.845	7026
466.909	7013
466.925	7013
466.977	7222
467.004	7322
467.044	7432
467.083	7524
467.111	7829
467.163	8348
467.178	8227
467.242	7654
467.245	7676
467.312	7875
467.321	7890
467.379	8127
467.400	8188
467.446	8583
467.480	8845
467.559	8972
467.638	8521
467.717	8569
467.796	9424
467.875	9116
467.955	10556
468.034	13474
468.113	17018
468.192	22536
468.271	21406
468.350	30316
468.429	39152
468.508	38867
468.588	23628
468.667	16167
468.746	14166
468.825	11066
468.904	10306
468.983	8053
469.062	10603
469.141	9977
469.220	8509
469.299	9102
469.378	8040
469.456	9231
469.535	8461
469.614	7646
469.693	7810
469.772	9215
469.851	9325
469.930	8023
470.009	7883
470.088	7575
470.166	8403
470.245	8834
470.324	9937
470.403	9194
470.482	8500
470.560	7669
470.639	7424
470.718	7930
470.797	6842
470.875	7838
470.954	8781
471.033	8866
471.111	6996
471.190	7129
471.269	6852
471.347	7225
471.426	6832
471.505	8173
471.583	8074
471.662	6890
471.740	7149
471.819	7777
471.898	7037
471.976	7468
472.055	7485
472.133	8344
472.212	9963
472.290	7901
472.369	7031
472.447	6995
472.526	7078
472.604	7195
472.683	7148
472.761	7081
472.839	7871
472.918	7751
472.996	6993
473.075	7960
473.153	8626
473.231	7032
473.310	7926
473.388	7987
473.466	7387
473.545	7750
473.623	8662
473.701	8170
473.780	9059
473.858	7656
473.936	10064
474.014	8009
474.093	9286
474.171	10783
474.249	10492
474.327	8289
474.405	7320
474.484	7476
474.562	7565
474.640	7128
474.718	7961
474.796	7150
474.874	8172
474.952	6664
475.030	7153
475.108	7724
475.187	7812
475.265	7601
475.343	7706
475.421	8378
475.499	8810
475.577	7237
475.655	8649
475.733	10305
475.811	11541
475.889	10474
475.966	8922
476.044	7284
476.122	6688
476.200	6903
476.278	7159
476.356	7253
476.434	7004
476.512	7730
476.590	7491
476.667	8096
476.745	7680
476.823	7437
476.901	7209
476.979	7219
477.056	8123
477.134	7233
477.212	7750
477.290	6638
477.367	6726
477.445	7364
477.523	6575
477.601	6430
477.678	6652
477.756	8026
477.834	8205
477.911	6570
477.989	6118
478.066	6640
478.144	7334
478.222	6508
478.299	7843
478.377	9297
478.454	8231
478.532	6001
478.609	6688
478.687	6810
478.764	7121
478.842	6309
478.919	6482
478.997	6714
479.074	6932
479.152	6403
479.229	8102
479.307	6679
479.384	6707
479.461	7376
479.539	6828
479.616	7477
479.694	6553
479.771	7048
479.848	6647
479.926	6879
480.003	7954
480.080	6674
480.157	7514
480.235	7185
480.312	6876
480.389	7478
480.467	8253
480.544	9736
480.621	9373
480.698	8096
480.775	9168
480.853	7724
480.930	8305
481.007	8632
481.084	11395
481.161	14801
481.238	9936
481.315	7847
481.392	8022
481.470	8527
481.547	8765
481.624	7201
481.701	8043
481.778	8214
481.855	9184
481.932	9550
482.009	11305
482.086	10875
482.163	12401
482.240	13539
482.317	13870
482.393	11394
482.470	11305
482.547	10738
482.624	9714
482.701	10371
482.778	8802
482.855	9745
482.932	9907
483.009	11491
483.085	13492
483.162	15818
483.239	16413
483.316	14432
483.393	14203
483.469	11120
483.546	10830
483.623	9912
483.699	8838
483.776	9204
483.853	8910
483.930	8835
484.006	12030
484.083	15960
484.160	11509
484.236	13733
484.313	11243
484.389	11795
484.466	14817
484.543	16902
484.619	21913
484.696	22128
484.772	15234
484.849	12258
484.925	10275
485.002	9795
485.078	11062
485.155	9584
485.231	9091
485.308	8614
485.384	9293
485.461	9943
485.537	11685
485.614	10776
485.690	8589
485.766	7489
485.843	9071
485.919	8900
485.995	8746
486.072	8329
486.148	8405
486.224	8242
486.301	8287
486.377	8822
486.453	8503
486.530	10170
486.606	11086
486.682	10428
486.758	12831
486.835	11916
486.911	11651
486.987	14351
487.063	13880
487.139	15459
487.215	20740
487.292	22318
487.368	22621
487.444	28539
487.520	39574
487.596	68228
487.672	185594
487.748	479901
487.824	595710
487.900	164683
487.976	53293
488.052	30432
488.128	23452
488.204	16462
488.280	15583
488.356	14526
488.432	16312
488.508	15271
488.584	10736
488.660	9813
488.736	9265
488.812	8505
488.888	9418
488.964	8271
489.039	8283
489.115	9816
489.191	9913
489.267	8744
489.343	7960
489.418	7970
489.494	7447
489.570	7126
489.646	9719
489.722	7519
489.797	8348
489.873	9720
489.949	12040
490.024	10013
490.100	8153
490.176	7051
490.251	8295
490.327	8084
490.403	7581
490.478	7846
490.554	7932
490.629	7027
490.705	7535
490.781	8009
490.856	7677
490.932	7908
491.007	7283
491.083	7520
491.158	6986
491.234	7033
491.309	10752
491.385	7793
491.460	6067
491.536	7214
491.611	6438
491.686	6308
491.762	5472
491.837	6606
491.913	7561
491.988	7502
492.063	6455
492.139	7510
492.214	6145
492.289	6467
492.365	5600
492.440	7286
492.515	5247
492.590	5648
492.666	6223
492.741	6866
492.816	7285
492.891	5953
492.967	7371
493.042	6290
493.117	5759
493.192	6249
493.267	10556
493.342	21598
493.418	22469
493.493	6301
493.568	6588
493.643	5829
493.718	5904
493.793	5972
493.868	5426
493.943	5597
494.018	6497
494.093	5486
494.168	5965
494.243	4641
494.318	5958
494.393	5282
494.468	5150
494.543	5959
494.618	5598
494.693	5052
494.768	4543
494.842	5367
494.917	6049
494.992	5684
495.067	6727
495.142	5744
495.217	3947
495.292	4901
495.366	5180
495.441	4821
495.516	6396
495.591	6192
495.665	6522
495.740	7749
495.815	6561
495.890	5207
495.964	2923
496.039	8634
496.114	8866
496.188	12764
496.263	7731
496.338	5525
496.412	5391
496.487	5254
496.561	5582
496.636	6756
496.710	6971
496.785	6864
496.860	5886
496.934	5157
497.009	5835
497.083	5993
497.158	4608
497.232	5713
497.307	6444
497.381	5328
497.455	6056
497.530	6312
497.604	6195
497.679	6752
497.753	7650
497.827	7534
497.902	6780
497.976	8756
498.050	22820
498.125	61806
498.199	37170
498.273	7370
498.348	6238
498.422	6003
498.496	6079
498.570	7121
498.645	5182
498.719	5420
498.793	7400
498.867	8453
498.941	10836
499.016	30263
499.090	54400
499.164	12411
499.238	6094
499.312	6103
499.386	6873
499.460	5648
499.534	7223
499.609	7535
499.683	6519
499.757	9103
499.831	16529
499.905	40375
499.979	24055
500.053	7292
500.127	7042
500.201	5352
500.275	7564
500.349	6582
500.422	5734
500.496	7374
500.570	9489
500.644	25580
500.718	31852
500.792	7690
500.866	8186
500.940	6174
501.013	6177
501.087	5801
501.161	7343
501.235	6753
501.309	18496
501.382	33941
501.456	20459
501.530	9205
501.603	11343
501.677	6282
501.751	4616
501.825	8118
501.898	9523
501.972	14833
502.046	8929
502.119	6335
502.193	10012
502.266	14153
502.340	7449
502.413	9858
502.487	12533
502.561	7481
502.634	6634
502.708	5980
502.781	5654
502.855	5951
502.928	5396
503.002	6441
503.075	5627
503.149	6132
503.222	6899
503.295	6396
503.369	7982
503.442	9622
503.516	17558
503.589	27438
503.662	19464
503.736	17661
503.809	26994
503.882	30271
503.956	54111
504.029	108581
504.102	271257
504.175	304065
504.249	102809
504.322	40952
504.395	24420
504.468	16118
504.542	12033
504.615	9094
504.688	9157
504.761	5855
504.834	8451
504.907	7336
504.980	5369
505.053	5482
505.127	3407
505.200	7683
505.273	5429
505.346	4910
505.419	4557
505.492	4886
505.565	4429
505.638	4954
505.711	3591
505.784	3381
505.857	4187
505.930	5628
506.003	3640
506.076	5688
506.149	3652
506.221	2683
506.294	6494
506.367	7707
506.440	18126
506.513	7962
506.586	5061
506.659	3520
506.731	3982
506.804	3155
506.877	3116
506.950	2966
507.022	4547
507.095	3170
507.168	4512
507.241	4514
507.313	2600
507.386	2359
507.459	4578
507.531	2638
507.604	3502
507.677	4478
507.749	2287
507.822	5132
507.894	3641
507.967	5416
508.040	3376
508.112	5323
508.185	4259
508.257	2741
508.330	4715
508.402	3421
508.475	3751
508.547	4749
508.620	3979
508.692	4907
508.765	4179
508.837	3728
508.909	4787
508.982	2908
509.054	4247
509.127	3185
509.199	3438
509.271	2755
509.344	3000
509.416	3399
509.488	3608
509.560	4198
509.633	3855
509.705	2745
509.777	3584
509.849	4308
509.922	2717
509.994	2967
510.066	5005
510.138	2153
510.210	5937
510.283	3843
510.355	4457
510.427	3984
510.499	4461
510.571	4300
510.643	3530
510.715	5045
510.787	2283
510.859	4607
510.931	3260
511.003	3482
511.076	4652
511.148	4019
511.219	3331
511.291	5370
511.363	5711
511.435	4348
511.507	3089
511.579	3722
511.651	4258
511.723	4147
511.795	3357
511.867	2609
511.939	4193
512.010	4412
512.082	4937
512.154	3060
512.226	3645
512.298	5713
512.369	3678
512.441	4202
512.513	4168
512.585	2284
512.656	4434
512.728	3964
512.800	3654
512.871	4647
512.943	4447
513.015	2594
513.086	4716
513.158	2930
513.230	2747
513.301	3151
513.373	4224
513.444	3294
513.516	3791
513.588	3974
513.659	4119
513.731	4148
513.802	2850
513.874	5309
513.945	3635
514.016	2300
514.088	4528
514.159	2259
514.231	3715
514.302	4089
514.374	4443
514.445	2720
514.516	7112
514.588	3249
514.659	4214
514.730	4570
514.802	4666
514.873	1232
514.944	5753
515.016	4156
515.087	3959
515.158	4395
515.229	6586
515.301	2456
515.372	3803
515.443	3469
515.514	4486
515.585	2901
515.656	5422
515.728	4583
515.799	3710
515.870	4058
515.941	4593
516.012	3086
516.083	5456
516.154	3223
516.225	5181
516.296	5403
516.367	4568
516.438	4535
516.509	5992
516.580	8441
516.651	25314
516.722	47139
516.793	14417
516.864	6872
516.935	7457
517.006	8548
517.077	11245
517.148	25777
517.219	98400
517.289	88030
517.360	22350
517.431	8543
517.502	5637
517.573	7025
517.643	6047
517.714	7155
517.785	8316
517.856	8186
517.926	10016
517.997	11851
518.068	12806
518.138	15954
518.209	25552
518.280	89768
518.350	196049
518.421	51367
518.492	27733
518.562	32608
518.633	46780
518.703	82457
518.774	209561
518.845	455382
518.915	295064
518.986	83660
519.056	39660
519.127	26222
519.197	21523
519.268	26635
519.338	15360
519.408	9556
519.479	7138
519.549	7090
519.620	8301
519.690	5295
519.760	6276
519.831	5399
519.901	5762
519.971	5590
520.042	4638
520.112	3794
520.182	6086
520.253	4925
520.323	4550
520.393	3799
520.463	6670
520.534	2050
520.604	7553
520.674	5621
520.744	4528
520.814	3930
520.885	6409
520.955	10206
521.025	21366
521.095	6705
521.165	5706
521.235	4692
521.305	4265
521.375	4335
521.445	5350
521.515	3811
521.585	5132
521.655	2409
521.725	5159
521.795	5042
521.865	1919
521.935	7188
522.005	3696
522.075	3781
522.145	4953
522.215	3116
522.285	5303
522.355	5676
522.424	7853
522.494	5565
522.564	5037
522.634	4431
522.704	6069
522.774	3195
522.843	5669
522.913	4786
522.983	4591
523.053	3401
523.122	5594
523.192	3998
523.262	4095
523.331	3711
523.401	5897
523.471	4546
523.540	4923
523.610	3887
523.680	5236
523.749	6075
523.819	7577
523.888	6090
523.958	4890
524.027	5523
524.097	6086
524.166	5893
524.236	3947
524.305	7049
524.375	5093
524.444	4576
524.514	6989
524.583	4861
524.653	4825
524.722	6740
524.791	4093
524.861	7540
524.930	5368
524.999	5084
525.069	8521
525.138	6617
525.207	7651
525.277	8273
525.346	9365
525.415	10525
525.484	12244
525.554	14045
525.623	18533
525.692	21830
525.761	24773
525.830	30994
525.900	41921
525.969	73758
526.038	144823
526.107	365479
526.176	750500
526.245	411552
526.314	170571
526.383	443854
526.452	450213
526.522	743204
526.591	404088
526.660	81840
526.729	56010
526.797	64775
526.867	114461
526.935	372691
527.004	969442
527.073	372873
527.142	68881
527.211	33541
527.280	23737
527.349	17278
527.418	12252
527.487	11942
527.555	9478
527.624	8377
527.693	8227
527.762	8482
527.831	7367
527.899	8051
527.968	7100
528.037	5438
528.106	7675
528.174	7056
528.243	7485
528.312	5848
528.380	5418
528.449	5154
528.518	7284
528.586	4047
528.655	7175
528.723	5916
528.792	6247
528.861	4972
528.929	4556
528.998	6562
529.066	5797
529.135	5922
529.203	5818
529.272	4623
529.340	6695
529.409	7429
529.477	5349
529.545	5516
529.614	8085
529.682	5439
529.751	6330
529.819	9536
529.887	7001
529.956	6558
530.024	7613
530.092	5420
530.161	7504
530.229	6383
530.297	5371
530.365	8116
530.434	6481
530.502	6308
530.570	7180
530.638	6081
530.707	7449
530.775	7401
530.843	6308
530.911	7088
530.979	7623
531.047	6282
531.115	7639
531.183	6323
531.252	7639
531.320	6804
531.388	6769
531.456	7239
531.524	5486
531.592	8368
531.660	8755
531.728	5897
531.796	6878
531.864	6891
531.932	7129
532.000	7004
532.067	7451
532.135	7627
532.203	9100
532.271	9332
532.339	10806
532.407	9950
532.475	9727
532.542	9073
532.610	9572
532.678	7659
532.746	12274
532.814	11470
532.881	9723
532.949	9851
533.017	9257
533.084	8238
533.152	8773
533.220	8388
533.287	7859
533.355	8843
533.423	9879
533.490	8535
533.558	10459
533.625	9987
533.693	8919
533.761	9560
533.828	10010
533.896	7631
533.963	12366
534.031	12548
534.098	15701
534.166	15993
534.233	15678
534.300	18163
534.368	17803
534.435	16704
534.503	18764
534.570	20126
534.637	22793
534.705	25716
534.772	37408
534.840	98017
534.907	391232
534.974	256395
535.041	35431
535.109	20951
535.176	17669
535.243	16196
535.310	16754
535.378	13869
535.445	15655
535.512	15301
535.579	15361
535.646	14586
535.714	16289
535.781	17419
535.848	17679
535.915	16363
535.982	14248
536.049	14176
536.116	16812
536.183	14711
536.250	14307
536.317	14727
536.384	16865
536.451	15766
536.518	15153
536.585	14306
536.652	18039
536.719	17220
536.786	14690
536.853	14799
536.920	16590
536.987	14926
537.053	15383
537.120	16262
537.187	18039
537.254	17953
537.321	16540
537.388	18219
537.454	16474
537.521	16542
537.588	16772
537.654	18490
537.721	19126
537.788	17558
537.855	17521
537.921	17944
537.988	16273
538.055	16360
538.121	14672
538.188	13638
538.254	14607
538.321	14309
538.388	17655
538.454	19173
538.521	19791
538.587	18849
538.654	17896
538.720	17303
538.787	17381
538.853	17699
538.920	16534
538.986	15227
539.053	16176
539.119	16377
539.185	15583
539.252	18213
539.318	18008
539.385	20579
539.451	18134
539.517	18770
539.583	18461
539.650	17630
539.716	17054
539.782	15918
539.849	16440
539.915	17463
539.981	17093
540.047	15983
540.114	15964
540.180	19475
540.246	19483
540.312	18750
540.378	18744
540.444	19527
540.510	18998
540.576	19146
540.643	17891
540.709	17132
540.775	18232
540.841	17039
540.907	17786
540.973	18073
541.039	16721
541.105	17595
541.171	18979
541.237	18864
541.303	19395
541.369	19804
541.435	19046
541.500	17934
541.566	15624
541.632	16457
541.698	18397
541.764	19663
541.830	18732
541.896	16623
541.961	17923
542.027	17027
542.093	19325
542.159	19151
542.224	16747
542.290	19045
542.356	16409
542.421	16644
542.487	17489
542.553	16194
542.618	17577
542.684	17526
542.750	18141
542.815	18390
542.881	18561
542.947	19564
543.012	18135
543.078	16568
543.143	16600
543.209	17734
543.274	16460
543.340	17215
543.405	17437
543.471	16320
543.536	17843
543.602	18085
543.667	17385
543.732	19467
543.798	18021
543.863	19400
543.928	17973
543.994	18052
544.059	19778
544.124	20578
544.190	19580
544.255	20252
544.320	20764
544.386	18792
544.451	21696
544.516	20074
544.581	20371
544.646	21144
544.712	22357
544.777	22030
544.842	21668
544.907	21317
544.972	20885
545.037	22603
545.102	24354
545.168	22669
545.233	23949
545.298	23866
545.363	25021
545.428	25116
545.493	26205
545.558	24522
545.623	25297
545.688	25079
545.753	27175
545.818	26981
545.883	29719
545.947	30519
546.012	30606
546.077	30497
546.142	34350
546.207	34056
546.272	35837
546.337	36343
546.401	38904
546.466	40060
546.531	40604
546.596	45053
546.661	46583
546.725	50543
546.790	52847
546.855	57710
546.919	63882
546.984	70336
547.049	76562
547.113	88225
547.178	96774
547.243	109287
547.307	127171
547.372	136231
547.436	137326
547.501	148793
547.565	154094
547.630	138709
547.695	136813
547.759	135284
547.823	139947
547.888	141432
547.952	146390
548.017	153388
548.081	156978
548.146	152810
548.210	161071
548.274	171224
548.339	162012
548.403	147444
548.468	142293
548.532	141728
548.596	144999
548.660	146888
548.725	162557
548.789	172656
548.853	162196
548.917	158761
548.982	150788
549.046	136718
549.110	127123
549.174	134867
549.238	157575
549.303	169682
549.367	170293
549.431	158372
549.495	151749
549.559	157697
549.623	184782
549.687	189815
549.751	194277
549.815	230710
549.879	226586
549.943	221837
550.007	231694
550.071	220178
550.135	199358
550.199	194072
550.263	190335
550.327	181623
550.391	191125
550.455	211527
550.519	220817
550.582	236594
550.646	261702
550.710	261314
550.774	258621
550.838	262076
550.901	273000
550.965	288137
551.029	298083
551.093	319705
551.156	348345
551.220	386249
551.284	379050
551.347	305631
551.411	278935
551.475	272849
551.538	279428
551.602	257699
551.666	248076
551.729	233398
551.793	228246
551.856	224609
551.920	223685
551.983	224172
552.047	220710
552.110	224598
552.174	227426
552.237	227755
552.301	211539
552.364	205379
552.428	201310
552.491	209444
552.554	208643
552.618	207467
552.681	211556
552.745	204407
552.808	212937
552.871	219752
552.934	217544
552.998	209357
553.061	206774
553.124	197143
553.187	199674
553.251	205794
553.314	205322
553.377	210027
553.440	226720
553.503	241564
553.567	239339
553.630	223662
553.693	221290
553.756	223806
553.819	217812
553.882	211470
553.945	214161
554.008	212366
554.071	217007
554.134	213933
554.197	202929
554.260	200961
554.323	205652
554.386	209921
554.449	219151
554.512	214276
554.575	205254
554.638	203383
554.701	204522
554.764	201368
554.827	194295
554.889	187405
554.952	178087
555.015	176725
555.078	179953
555.141	179376
555.203	175769
555.266	175363
555.329	174280
555.391	168091
555.454	165470
555.517	159781
555.580	153028
555.642	150253
555.705	148190
555.768	147483
555.830	142609
555.893	134665
555.955	130700
556.018	128341
556.080	132271
556.143	134281
556.206	130357
556.268	128570
556.330	124170
556.393	121243
556.455	119507
556.518	116508
556.580	112515
556.643	107697
556.705	108041
556.767	104933
556.830	103780
556.892	101172
556.955	99012
557.017	96830
557.079	96808
557.142	92956
557.204	93921
557.266	90050
557.328	85220
557.391	81643
557.453	80199
557.515	79634
557.577	81327
557.639	80282
557.701	80662
557.764	80985
557.826	79920
557.888	82593
557.950	86549
558.012	93787
558.074	130932
558.136	301243
558.198	410756
558.260	126850
558.322	85064
558.384	85589
558.446	88201
558.508	91945
558.570	101286
558.632	114501
558.694	152781
558.756	281735
558.818	738980
558.880	921181
558.942	433159
559.003	468078
559.065	168145
559.127	103039
559.189	100025
559.251	114636
559.312	179675
559.374	450142
559.436	798726
559.498	275383
559.559	108802
559.621	97939
559.683	120612
559.744	218108
559.806	593796
559.868	478526
559.929	128074
559.991	119107
560.052	236261
560.114	457654
560.176	221048
560.237	345635
560.299	310893
560.360	71411
560.422	45689
560.483	41119
560.545	39264
560.606	36786
560.667	37025
560.729	34388
560.790	32745
560.852	32157
560.913	32271
560.974	31248
561.036	31294
561.097	30957
561.158	29976
561.220	28713
561.281	28639
561.342	28318
561.403	29460
561.465	27209
561.526	28220
561.587	27567
561.648	26318
561.709	25150
561.771	26747
561.832	24943
561.893	23912
561.954	24184
562.015	24285
562.076	23613
562.137	24022
562.198	23503
562.259	23644
562.320	23642
562.381	22826
562.442	22515
562.503	21141
562.564	22370
562.625	21903
562.686	22641
562.747	21352
562.808	22077
562.869	21237
562.930	20958
562.991	20816
563.051	20061
563.112	20413
563.173	19344
563.234	19727
563.294	19406
563.355	18995
563.416	20356
563.477	20007
563.537	19025
563.598	19488
563.659	19447
563.720	18776
563.780	18534
563.841	19676
563.901	19083
563.962	19301
564.023	17503
564.083	17861
564.144	18019
564.204	17183
564.265	18911
564.325	18822
564.386	19503
564.446	18526
564.507	17743
564.567	16699
564.628	17084
564.688	16716
564.749	16546
564.809	17766
564.869	17437
564.930	17013
564.990	17499
565.050	17260
565.111	17459
565.171	17618
565.231	16540
565.292	17576
565.352	16478
565.412	17589
565.472	17347
565.532	16775
565.593	16345
565.653	15946
565.713	16795
565.773	17980
565.833	17726
565.893	18411
565.953	16069
566.013	16240
566.074	16484
566.134	16497
566.194	16012
566.254	16886
566.314	16222
566.374	16132
566.434	16361
566.494	16186
566.554	16145
566.614	16368
566.673	16947
566.733	18036
566.793	17206
566.853	17458
566.913	16527
566.973	16076
567.033	17329
567.092	17428
567.152	16525
567.212	16945
567.272	17948
567.331	18365
567.391	18038
567.451	18935
567.511	19235
567.570	18375
567.630	18436
567.690	17533
567.749	17884
567.809	17839
567.868	17442
567.928	17418
567.988	17892
568.047	17378
568.107	17939
568.166	18202
568.226	18210
568.285	20253
568.345	18918
568.404	19126
568.464	18338
568.523	18053
568.582	17967
568.642	17595
568.701	18170
568.761	19938
568.820	20393
568.879	20160
568.939	21048
568.998	19251
569.057	18220
569.116	17974
569.176	18486
569.235	17255
569.294	18416
569.353	17011
569.413	16912
569.472	17917
569.531	16777
569.590	15223
569.649	16777
569.708	16099
569.767	16620
569.827	17244
569.886	15448
569.945	17264
570.004	17474
570.063	17178
570.122	17593
570.181	17949
570.240	18591
570.299	17375
570.358	17107
570.417	18281
570.475	17626
570.534	17948
570.593	18559
570.652	18012
570.711	18722
570.770	17448
570.829	18375
570.887	17252
570.946	18063
571.005	19175
571.064	18098
571.122	18506
571.181	16760
571.240	17189
571.299	16457
571.357	17599
571.416	16758
571.475	17640
571.533	18220
571.592	19535
571.650	19075
571.709	20097
571.768	21860
571.826	21830
571.885	20299
571.943	19241
572.002	17791
572.060	17982
572.119	17142
572.177	17575
572.236	18428
572.294	19171
572.352	20209
572.411	18162
572.469	18558
572.528	17798
572.586	17912
572.644	18334
572.703	16878
572.761	16978
572.819	16660
572.877	16398
572.936	15850
572.994	16108
573.052	16986
573.110	16898
573.169	17541
573.227	17970
573.285	16692
573.343	17682
573.401	17432
573.459	18291
573.517	17455
573.576	18650
573.634	17749
573.692	17153
573.750	17556
573.808	16704
573.866	15609
573.924	16711
573.982	17185
574.040	16275
574.098	15907
574.155	15977
574.213	16255
574.271	16793
574.329	18091
574.387	16165
574.445	15898
574.503	14841
574.560	15241
574.618	15700
574.676	14683
574.734	15014
574.792	15612
574.849	14867
574.907	13279
574.965	13037
575.022	11459
575.080	12884
575.138	12571
575.195	12080
575.253	11678
575.311	13207
575.368	12327
575.426	12445
575.483	14419
575.541	13853
575.598	12277
575.656	12699
575.713	14104
575.771	13081
575.828	13745
575.886	13063
575.943	12249
576.001	11842
576.058	12059
576.115	11633
576.173	12924
576.230	12696
576.287	13263
576.345	12892
576.402	12897
576.459	13426
576.517	13077
576.574	12253
576.631	12418
576.688	12238
576.746	11275
576.803	11751
576.860	10695
576.917	10993
576.974	12306
577.031	12211
577.089	12045
577.146	11430
577.203	10357
577.260	11838
577.317	11419
577.374	12375
577.431	12051
577.488	10978
577.545	10411
577.602	12257
577.659	11702
577.716	12170
577.773	12246
577.830	11663
577.886	11951
577.943	10942
578.000	10801
578.057	11546
578.114	11544
578.171	10737
578.227	12006
578.284	12479
578.341	11243
578.398	12021
578.454	11423
578.511	11364
578.568	12214
578.625	11695
578.681	11250
578.738	12084
578.794	10693
578.851	11417
578.908	12049
578.964	10962
579.021	11684
579.077	11986
579.134	10852
579.190	11975
579.247	11627
579.303	10976
579.360	11837
579.416	12131
579.473	11697
579.529	10856
579.586	10729
579.642	12240
579.698	11891
579.755	11704
579.811	11966
579.867	12299
579.924	11519
579.980	12207
580.036	12761
580.093	13338
580.149	13558
580.205	14098
580.261	13872
580.317	13490
580.374	13741
580.430	13954
580.486	12888
580.542	12489
580.598	12963
580.619	13242
580.654	13734
580.692	13459
580.710	13339
580.765	13606
580.767	13623
580.823	13169
580.838	13529
580.879	14508
580.911	14007
580.935	13659
580.984	13442
580.991	13420
581.047	13488
581.057	13422
581.103	13152
581.130	13151
581.159	13163
581.203	13181
581.215	13192
581.270	13373
581.276	13388
581.326	13579
581.349	13390
581.382	13137
581.422	13526
581.438	13671
581.494	12951
581.494	12942
581.550	12295
581.567	12453
581.606	12822
581.640	13027
581.661	13136
581.713	13746
581.717	13800
581.773	12871
581.786	12838
581.829	12734
581.859	13348
581.885	13875
581.932	14292
581.940	14374
581.996	14441
582.004	14275
582.052	13302
582.077	13348
582.107	13341
582.150	13132
582.163	13115
582.219	13342
582.223	13392
582.274	13935
582.296	13809
582.330	13670
582.368	13438
582.386	13327
582.441	14010
582.441	14010
582.497	13219
582.514	13450
582.552	14128
582.587	14349
582.608	14431
582.659	13667
582.663	13601
582.719	15084
582.732	15081
582.774	15206
582.805	14707
582.830	14281
582.877	14529
582.885	14572
582.941	13461
582.950	13734
582.996	15016
583.023	14903
583.052	14911
583.095	15373
583.107	15451
583.162	15719
583.168	15672
583.218	14980
583.240	14605
583.273	14167
583.313	14227
583.328	14347
583.384	14455
583.385	14461
583.439	14266
583.458	14365
583.494	14650
583.531	15097
583.549	15361
583.603	15020
583.605	15004
583.660	15293
583.676	15345
583.715	15574
583.748	15369
583.770	15165
583.820	15300
583.825	15344
583.881	15683
583.893	15680
583.936	15504
583.965	15757
583.991	15920
584.038	15730
584.046	15751
584.101	16214
584.110	16300
584.156	16523
584.183	16435
584.211	16449
584.255	16369
584.266	16394
584.321	18086
584.328	18120
584.376	17987
584.400	17892
584.431	17964
584.472	18425
584.486	18536
584.541	18747
584.545	18760
584.596	19395
584.617	19525
584.651	19792
584.689	20646
584.706	20874
584.761	21164
584.762	21160
584.816	22037
584.834	22525
584.871	23312
584.906	23463
584.926	23641
584.978	25238
584.980	25328
585.035	27982
585.051	28654
585.090	30328
585.123	32005
585.145	33370
585.195	35911
585.200	36201
585.254	40857
585.267	42378
585.309	47806
585.340	51492
585.364	54815
585.412	63460
585.419	64960
585.473	80138
585.484	85297
585.528	112551
585.556	140956
585.583	183850
585.628	290494
585.637	321653
585.692	598505
585.700	621431
585.747	679890
585.772	582798
585.801	384098
585.845	196559
585.856	168245
585.910	93495
585.917	86101
585.965	65869
585.989	57813
586.019	52156
586.061	46107
586.074	45155
586.128	40975
586.133	40746
586.183	39139
586.205	38075
586.237	37188
586.277	37318
586.292	37409
586.346	35842
586.349	35804
586.401	36356
586.421	36233
586.455	35946
586.493	36290
586.509	36633
586.564	37004
586.565	37014
586.618	40183
586.637	41298
586.672	44746
586.709	48488
586.727	50167
586.781	53254
586.781	53293
586.835	45629
586.853	43590
586.889	40810
586.925	39026
586.944	38535
586.996	37436
586.998	37484
587.052	37695
587.068	37748
587.106	38229
587.140	38372
587.161	38438
587.212	39090
587.215	39190
587.269	39586
587.284	39669
587.323	40398
587.356	41518
587.377	42334
587.427	42894
587.431	42991
587.485	43974
587.499	44180
587.539	45057
587.571	45835
587.593	47011
587.643	49367
587.648	49563
587.702	50484
587.715	50627
587.755	51079
587.786	51729
587.810	52222
587.858	51609
587.864	51713
587.917	53673
587.930	53740
587.971	53618
588.001	53559
588.025	53707
588.073	53897
588.079	54033
588.133	54366
588.145	54373
588.187	55289
588.217	56028
588.241	57464
588.288	60053
588.295	60336
588.348	62295
588.360	62421
588.402	64000
588.431	65295
588.456	66599
588.503	69231
588.510	69929
588.564	75728
588.575	76767
588.617	82323
588.646	86641
588.671	90904
588.718	100634
588.725	103610
588.778	130927
588.789	138250
588.832	202105
588.861	253236
588.886	334202
588.932	505262
588.939	519121
588.993	564556
589.004	559349
589.047	358398
589.075	242711
589.100	192611
589.147	117615
589.154	115066
589.207	97849
589.218	94462
589.261	93403
589.290	93794
589.314	97179
589.361	105204
589.368	108762
589.421	142959
589.433	151647
589.475	239814
589.504	311528
589.528	385827
589.576	511693
589.582	498232
589.635	304336
589.647	267999
589.689	166010
589.718	102908
589.742	93981
589.790	76833
589.795	76493
589.849	73255
589.861	72390
589.902	70718
589.932	69008
589.955	68065
590.004	65988
590.009	66105
590.062	66081
590.075	65858
590.115	64816
590.146	63888
590.168	63868
590.218	63485
590.222	63713
590.275	64729
590.289	64901
590.328	65991
590.360	66466
590.381	66782
590.431	67246
590.435	67475
590.488	68554
590.503	68695
590.541	69499
590.574	70055
590.594	70761
590.645	71753
590.647	71988
590.700	74070
590.716	74423
590.753	76537
590.787	78168
590.806	79240
590.859	81712
590.859	81920
590.912	82021
590.930	81909
590.965	83066
591.001	83823
591.018	83816
591.071	83007
591.072	82792
591.124	81449
591.143	80674
591.177	81666
591.214	82575
591.230	83257
591.283	84672
591.285	84506
591.336	84394
591.356	84144
591.389	83736
591.427	82687
591.442	82804
591.495	82362
591.498	82131
591.547	83855
591.569	84368
591.600	85343
591.640	86076
591.653	86721
591.706	88440
591.711	88408
591.759	90291
591.782	90928
591.811	93553
591.853	96772
591.864	97115
591.917	97347
591.924	97133
591.969	97068
591.995	96692
592.022	97629
592.066	98410
592.075	99146
592.127	102073
592.137	102353
592.180	104382
592.208	105218
592.233	106339
592.279	107700
592.285	108325
592.338	111109
592.350	111428
592.390	111246
592.421	110585
592.443	111557
592.491	112781
592.495	113312
592.548	116347
592.562	116868
592.600	117471
592.633	117382
592.653	117064
592.704	114745
592.705	115472
592.775	118858
592.846	123060
592.916	123590
592.987	121424
593.058	126011
593.128	128323
593.199	126898
593.270	129084
593.341	130718
593.411	134261
593.482	139540
593.553	143353
593.623	144835
593.694	149156
593.764	152213
593.835	151615
593.906	152702
593.976	157341
594.047	160389
594.117	168596
594.188	171277
594.258	171315
594.329	172701
594.399	177277
594.470	182266
594.540	188685
594.611	192755
594.681	191786
594.751	190036
594.822	198344
594.892	207733
594.963	213594
595.033	218350
595.103	222832
595.174	223518
595.244	230401
595.314	237222
595.384	242351
595.455	245498
595.525	257901
595.595	265790
595.665	266945
595.736	258986
595.806	264145
595.876	270305
595.946	270075
596.016	281277
596.087	291363
596.157	291686
596.227	292797
596.297	307013
596.367	328324
596.437	347191
596.507	341927
596.577	342850
596.647	352840
596.717	369230
596.787	373948
596.857	370590
596.927	376170
596.997	379615
597.067	381158
597.137	389265
597.207	389516
597.277	391307
597.347	376808
597.417	368952
597.487	362774
597.557	373234
597.626	384915
597.696	389339
597.766	383829
597.836	364316
597.906	346269
597.975	341704
598.045	347327
598.115	359496
598.185	387452
598.254	427479
598.324	461017
598.394	468564
598.464	454505
598.533	449475
598.603	420193
598.672	407943
598.742	417910
598.812	416627
598.881	429482
598.951	426838
599.020	435254
599.090	448612
599.159	455062
599.229	436169
599.299	427950
599.368	441993
599.437	433305
599.507	400115
599.576	387600
599.646	383345
599.715	380039
599.785	377720
599.854	367160
599.924	359280
599.993	356661
600.062	367930
600.132	375246
600.201	394964
600.270	451612
600.340	479220
600.409	466548
600.478	463350
600.547	474250
600.617	431908
600.686	352019
600.755	320893
600.824	302685
600.894	296489
600.963	296835
601.032	295455
601.101	283434
601.170	270804
601.239	264365
601.308	260628
601.378	261280
601.447	262493
601.516	263294
601.585	265744
601.654	272051
601.723	272831
601.792	280171
601.861	290360
601.930	296037
601.999	300946
602.068	300445
602.137	300276
602.206	306796
602.275	312207
602.343	313556
602.412	314348
602.481	318769
602.550	324816
602.619	330160
602.688	334601
602.756	335205
602.825	340402
602.894	350145
602.963	353986
603.032	361753
603.100	360544
603.169	363223
603.238	365957
603.307	367596
603.375	370495
603.444	378057
603.513	383353
603.581	388936
603.650	395205
603.719	386767
603.787	400416
603.856	408429
603.924	418108
603.993	429453
604.061	443284
604.130	463339
604.198	469208
604.267	477634
604.335	482714
604.404	491129
604.472	498191
604.541	500112
604.609	506233
604.678	505468
604.746	509404
604.815	521211
604.883	525064
604.951	525679
605.020	536525
605.088	549046
605.156	556946
605.225	566533
605.293	566540
605.361	566011
605.429	573857
605.498	581236
605.566	595607
605.634	620704
605.702	637815
605.771	656417
605.839	655811
605.907	647392
605.975	624065
606.043	614455
606.111	618712
606.180	617446
606.248	613646
606.316	604595
606.384	605384
606.452	605568
606.520	621402
606.588	642461
606.656	644697
606.724	632299
606.792	603392
606.860	554660
606.928	509796
606.996	492673
607.064	483740
607.132	497784
607.200	522025
607.267	537815
607.335	547475
607.403	558462
607.471	542194
607.539	529143
607.607	528340
607.674	476688
607.742	475563
607.810	466822
607.878	469532
607.946	479469
608.013	498703
608.081	511152
608.149	515167
608.216	531678
608.284	545223
608.352	544440
608.419	539395
608.487	529150
608.555	519946
608.622	536385
608.690	565942
608.757	613764
608.825	624815
608.893	612034
608.960	578715
609.028	560059
609.095	560282
609.163	557779
609.230	503410
609.298	466851
609.365	489132
609.432	524749
609.500	562461
609.567	630007
609.635	700424
609.702	727894
609.769	697289
609.837	559120
609.904	495011
609.971	504170
610.039	525372
610.106	585255
610.173	782508
610.241	1187241
610.308	933892
610.375	612117
610.442	544739
610.509	521789
610.577	521558
610.644	526897
610.711	541057
610.778	555934
610.845	577677
610.912	602672
610.980	626096
611.047	625154
611.114	616369
611.181	599064
611.248	597856
611.315	626543
611.382	640665
611.449	659910
611.516	670002
611.583	657951
611.650	663910
611.717	666874
611.784	672035
611.851	688112
611.918	701602
611.984	756522
612.051	863523
612.118	1107299
612.185	1543464
612.252	1338063
612.319	930036
612.386	832182
612.452	771666
612.519	741300
612.586	724301
612.653	736097
612.719	758944
612.786	730019
612.853	691561
612.919	685071
612.986	687613
613.053	657113
613.120	622740
613.186	605483
613.253	608374
613.319	611583
613.386	609972
613.453	624368
613.519	623899
613.586	609546
613.652	620006
613.719	611467
613.785	622371
613.852	629447
613.918	626657
613.985	628203
614.051	655245
614.118	647840
614.184	626762
614.250	624469
614.317	639756
614.383	626136
614.449	642404
614.516	638057
614.582	638579
614.648	626945
614.715	624149
614.781	611056
614.847	613363
614.914	612833
614.980	596912
615.046	598863
615.112	615514
615.179	615247
615.245	621351
615.311	612976
615.377	617810
615.443	628045
615.509	632068
615.575	642718
615.642	641237
615.708	650131
615.774	669126
615.840	692315
615.906	703607
615.972	756940
616.038	895533
616.104	1221308
616.170	1624648
616.236	1514874
616.302	1078200
616.368	940415
616.434	788046
616.500	733795
616.565	757873
616.631	849914
616.697	788264
616.763	771889
616.829	915417
616.895	1244045
616.961	1219376
617.026	845557
617.092	693708
617.158	655878
617.224	641344
617.289	598923
617.355	577986
617.421	570903
617.487	568054
617.552	543724
617.618	541126
617.684	541336
617.749	543868
617.815	525106
617.880	512696
617.946	513166
618.012	524412
618.077	532539
618.143	511021
618.208	514491
618.274	547885
618.339	549352
618.405	468491
618.470	468085
618.536	468541
618.601	462661
618.667	431791
618.732	412316
618.798	409290
618.863	406710
618.928	403295
618.994	407287
619.059	403391
619.124	406991
619.190	402150
619.255	401707
619.320	403834
619.386	404033
619.451	400502
619.516	391206
619.581	397617
619.647	411582
619.712	408218
619.777	392620
619.842	395780
619.907	400891
619.972	409125
620.038	405853
620.103	395394
620.168	398502
620.233	404091
620.298	403744
620.363	408679
620.428	417628
620.493	427855
620.558	431513
620.623	437941
620.688	434819
620.753	432337
620.818	444204
620.883	444419
620.948	442523
621.013	439470
621.078	430639
621.143	435346
621.207	441856
621.272	432476
621.337	421878
621.402	419811
621.467	414726
621.532	415579
621.596	417606
621.661	405934
621.726	403005
621.791	409689
621.855	406486
621.920	402501
621.985	410079
622.049	416965
622.114	418621
622.179	420866
622.243	429924
622.308	446412
622.373	457155
622.437	448236
622.502	427093
622.566	424389
622.631	422105
622.695	431517
622.760	427755
622.824	426189
622.889	430417
622.953	432097
623.018	452178
623.082	457496
623.147	452641
623.211	442849
623.276	445623
623.340	428432
623.404	418573
623.469	415933
623.533	421911
623.597	414071
623.662	411220
623.726	385653
623.790	365880
623.854	358020
623.919	361216
623.983	368436
624.047	371894
624.111	376084
624.176	381893
624.240	381916
624.304	392643
624.368	380972
624.432	382486
624.496	389677
624.560	408229
624.625	409869
624.689	408042
624.753	423889
624.817	403957
624.881	398496
624.945	363306
625.009	352732
625.073	359132
625.137	370494
625.201	380508
625.265	383816
625.329	366362
625.393	370928
625.456	376391
625.520	387066
625.584	392122
625.648	400658
625.712	407754
625.776	409071
625.839	385245
625.903	333652
625.967	314396
626.031	331851
626.095	386378
626.158	363658
626.222	291765
626.286	275328
626.349	265974
626.413	248225
626.477	245799
626.540	251512
626.604	249055
626.668	245360
626.731	242205
626.795	243172
626.858	243282
626.922	239104
626.986	235979
627.049	238041
627.113	246615
627.176	238979
627.240	231404
627.303	233648
627.366	229836
627.430	233292
627.493	230811
627.557	227472
627.620	230803
627.684	241186
627.747	241261
627.810	223022
627.874	202636
627.937	194204
628.000	201985
628.064	197101
628.127	177286
628.190	175397
628.253	169843
628.317	163901
628.380	156260
628.443	153665
628.506	152366
628.569	148198
628.632	140144
628.696	138875
628.759	140132
628.822	132760
628.885	131066
628.948	128964
629.011	125688
629.074	123703
629.137	119096
629.200	117077
629.263	115703
629.326	113351
629.389	114420
629.452	113607
629.515	111711
629.578	109458
629.641	110919
629.704	111733
629.767	109686
629.830	108598
629.892	104668
629.955	103504
630.018	107710
630.081	104919
630.144	105943
630.207	102906
630.269	104576
630.332	99748
630.395	100047
630.458	97583
630.520	92567
630.583	95543
630.646	95593
630.708	97963
630.771	99558
630.834	103384
630.896	99899
630.959	101038
631.021	96583
631.084	96826
631.146	96419
631.209	98581
631.272	96986
631.334	99798
631.397	97975
631.459	98115
631.522	100040
631.584	100928
631.646	104748
631.709	106523
631.771	104210
631.834	102595
631.896	101282
631.958	98068
632.021	96763
632.083	93896
632.145	93188
632.208	92565
632.270	94199
632.332	92820
632.395	91634
632.457	92981
632.519	91996
632.581	90476
632.643	91199
632.706	90127
632.768	88603
632.830	91319
632.892	94125
632.954	93203
633.016	95580
633.078	92001
633.141	94791
633.203	90841
633.265	90288
633.327	90572
633.389	92077
633.451	92608
633.513	90417
633.575	93326
633.637	91228
633.698	94720
633.760	99198
633.822	100460
633.884	100605
633.946	102618
634.008	103187
634.070	103421
634.132	105180
634.193	109276
634.255	114579
634.317	114506
634.379	114124
634.441	108206
634.502	102225
634.564	96165
634.626	91676
634.687	90017
634.749	87207
634.811	85998
634.873	85316
634.934	86339
634.996	88445
635.057	86657
635.119	89423
635.181	90780
635.242	89870
635.304	87722
635.365	92050
635.427	88596
635.488	87315
635.550	88025
635.611	87745
635.673	86652
635.734	91103
635.796	91865
635.857	97406
635.918	101545
635.980	106959
636.041	109216
636.102	112089
636.164	112948
636.225	110174
636.286	98316
636.348	92336
636.409	89251
636.470	86653
636.531	86071
636.593	84370
636.654	83483
636.715	80613
636.776	80872
636.838	79940
636.899	79493
636.960	76564
637.021	76429
637.082	74387
637.143	73826
637.204	72331
637.265	73658
637.326	74879
637.387	77810
637.448	75267
637.509	74313
637.570	75197
637.631	75387
637.692	71165
637.753	70897
637.814	71310
637.875	71387
637.936	71000
637.997	69490
638.058	69503
638.119	70548
638.179	71564
638.240	69962
638.301	71571
638.362	68079
638.423	68235
638.483	67670
638.544	64143
638.605	67669
638.666	67162
638.726	66327
638.787	67082
638.848	67866
638.908	66282
638.969	64362
639.030	62463
639.090	62316
639.151	62404
639.211	65038
639.272	63870
639.332	63780
639.393	65235
639.453	66070
639.514	65761
639.574	61519
639.635	59962
639.695	60663
639.756	60130
639.816	57851
639.877	57261
639.937	59250
639.997	58793
640.058	56582
640.118	57516
640.178	58158
640.239	57760
640.299	58496
640.359	57438
640.420	60130
640.480	64635
640.540	68135
640.600	69169
640.661	66668
640.721	63954
640.781	67924
640.841	64266
640.901	58882
640.961	59463
641.021	59368
641.082	61494
641.142	58179
641.202	58377
641.262	55336
641.322	56969
641.382	55679
641.442	55915
641.502	54951
641.562	55973
641.622	57216
641.682	58263
641.742	62222
641.802	60868
641.861	57509
641.921	54288
641.981	51865
642.041	51518
642.101	50333
642.161	49859
642.221	50840
642.280	51956
642.340	50444
642.400	51717
642.460	53630
642.519	52944
642.579	52494
642.639	53209
642.698	51512
642.758	55936
642.818	54342
642.877	53259
642.937	54281
642.997	54745
643.056	53337
643.116	52949
643.175	55276
643.235	55049
643.294	56673
643.354	57652
643.414	60153
643.473	65141
643.532	71162
643.592	83822
643.651	111327
643.711	159238
643.770	265980
643.830	518865
643.889	790667
643.948	352256
644.008	132194
644.067	87827
644.126	69515
644.186	61476
644.245	57727
644.304	52168
644.363	54182
644.423	48597
644.482	51253
644.541	53649
644.600	52534
644.659	61429
644.719	69386
644.778	87555
644.837	127782
644.896	224352
644.955	421768
645.014	182375
645.073	75944
645.132	60769
645.191	58433
645.250	55269
645.309	57503
645.368	60321
645.427	73335
645.486	107797
645.545	168726
645.604	69746
645.663	52740
645.722	51055
645.781	52533
645.840	55470
645.898	61853
645.957	75873
646.016	98545
646.075	149548
646.134	249671
646.192	516891
646.251	638257
646.310	215208
646.369	97850
646.427	81498
646.486	65634
646.545	55510
646.603	50914
646.662	47659
646.721	45934
646.779	45543
646.838	45837
646.896	51108
646.955	61239
647.014	83900
647.072	141677
647.131	315827
647.189	171718
647.248	54725
647.306	44871
647.365	42700
647.423	38864
647.481	39681
647.540	37519
647.598	39342
647.657	38555
647.715	38668
647.773	36054
647.832	37077
647.890	34222
647.948	34434
648.007	34336
648.065	32038
648.123	32342
648.181	33691
648.240	33602
648.298	31728
648.356	31531
648.414	31631
648.472	31106
648.531	31277
648.589	29632
648.647	29779
648.705	30623
648.763	30153
648.821	30517
648.879	30747
648.937	32906
648.995	36192
649.053	40806
649.111	52701
649.169	74222
649.227	117653
649.285	220225
649.343	480929
649.401	272358
649.459	72104
649.516	45068
649.574	38501
649.632	39634
649.690	41806
649.748	47370
649.806	61619
649.863	102291
649.921	237446
649.979	165822
650.037	41640
650.094	29204
650.152	27707
650.210	25137
650.268	26518
650.325	26097
650.383	26706
650.440	22498
650.498	22934
650.556	22564
650.613	22540
650.671	22521
650.728	22948
650.786	24129
650.843	30960
650.901	25356
650.958	21837
651.016	20731
651.073	20502
651.131	20141
651.188	18079
651.246	18969
651.303	17986
651.360	18936
651.418	18060
651.475	19675
651.532	18545
651.590	20016
651.647	17984
651.704	18078
651.762	17922
651.819	18058
651.876	17245
651.933	17157
651.990	18119
652.048	16033
652.105	17414
652.162	16966
652.219	16681
652.276	16785
652.333	17335
652.390	15284
652.448	17467
652.505	16201
652.562	16346
652.619	17287
652.676	17968
652.733	17705
652.790	15082
652.847	14100
652.904	15468
652.961	14357
653.017	14377
653.074	15706
653.131	16060
653.188	14251
653.245	15120
653.302	14796
653.359	15320
653.415	15815
653.472	14863
653.529	15331
653.586	13808
653.642	14299
653.699	15335
653.756	13588
653.813	14313
653.869	15610
653.926	15428
653.983	13887
654.039	14090
654.096	13986
654.152	15560
654.209	13241
654.266	14636
654.322	13140
654.379	14838
654.435	15222
654.492	13863
654.548	14108
654.605	14144
654.661	14647
654.717	13680
654.774	13341
654.830	13360
654.887	13426
654.943	14535
655.000	15618
655.056	14625
655.112	14539
655.168	12953
655.225	13926
655.281	14529
655.337	14224
655.394	13620
655.450	13851
655.506	13257
655.562	13708
655.618	14170
655.675	12682
655.731	13548
655.787	12742
655.843	14275
655.899	12656
655.955	14363
656.011	13465
656.067	13764
656.123	13586
656.179	14125
656.235	14726
656.291	12490
656.347	14898
656.403	13900
656.459	14271
656.515	14143
656.571	13263
656.627	13073
656.683	13094
656.739	13396
656.795	12456
656.850	13608
656.906	13577
656.962	14555
657.018	14204
657.074	16740
657.129	21738
657.185	32838
657.241	70744
657.297	39489
657.352	15433
657.408	13025
657.464	12750
657.519	11613
657.575	11761
657.630	12657
657.686	11599
657.742	11452
657.797	11247
657.853	11895
657.908	12361
657.964	11732
658.019	12307
658.075	11799
658.130	12755
658.186	11150
658.241	11596
658.297	9982
658.352	11147
658.407	11571
658.463	10254
658.518	10544
658.573	11193
658.629	9880
658.684	10511
658.739	10491
658.795	9688
658.850	11940
658.905	9638
658.960	11410
659.016	9646
659.071	10505
659.126	10257
659.181	9710
659.236	11372
659.291	10987
659.346	10603
659.401	9998
659.457	10909
659.512	11174
659.567	11757
659.622	10570
659.677	10072
659.732	9252
659.787	10048
659.842	10175
659.897	9659
659.952	10869
660.007	9944
660.061	10066
660.116	9017
660.171	9477
660.226	10336
660.281	10870
660.336	8869
660.391	10623
660.445	8715
660.500	9447
660.555	9923
660.610	9933
660.664	9604
660.719	9426
660.774	9655
660.828	9344
660.883	8866
660.938	9540
660.992	8804
661.047	9894
661.101	9071
661.156	9634
661.211	9333
661.265	8618
661.320	9260
661.374	9800
661.429	9218
661.483	9572
661.538	9068
661.592	9126
661.647	9607
661.701	10033
661.755	9888
661.810	10027
661.864	9001
661.919	8864
661.973	9604
662.027	9225
662.081	8920
662.136	8958
662.190	9866
662.244	9275
662.299	8223
662.353	9607
662.407	9225
662.461	8418
662.515	9706
662.569	8192
662.624	8956
662.678	8469
662.732	8020
662.786	8801
662.840	8961
662.894	9014
662.948	7964
663.002	8865
663.056	8580
663.110	8783
663.164	9183
663.218	9073
663.272	9154
663.326	8789
663.380	9075
663.434	9224
663.488	8207
663.542	8828
663.595	8544
663.649	8920
663.703	9027
663.757	8624
663.811	8178
663.864	8028
663.918	8910
663.972	8568
664.026	8190
664.079	8429
664.133	9747
664.187	8727
664.240	8682
664.294	9612
664.348	9366
664.401	8926
664.455	8785
664.508	8609
664.562	8482
664.615	8065
664.669	8052
664.722	9592
664.776	7110
664.829	8452
664.883	7931
664.936	8031
664.990	9144
665.043	8662
665.097	8918
665.150	9669
665.203	8528
665.257	8804
665.310	8497
665.363	9162
665.417	8971
665.470	9220
665.523	8519
665.576	9309
665.630	8589
665.683	8710
665.736	8646
665.789	8633
665.842	8143
665.895	8949
665.949	8603
666.002	8957
666.055	8587
666.108	10302
666.161	8828
666.214	9146
666.267	9399
666.320	10158
666.373	9190
666.426	9973
666.479	8998
666.532	9823
666.585	10329
666.638	10044
666.691	9865
666.744	10151
666.796	8333
666.849	9560
666.902	9497
666.955	9161
667.008	9199
667.060	9264
667.113	9152
667.166	9739
667.219	11062
667.271	11006
667.324	10397
667.377	10016
667.430	10967
667.482	9873
667.535	10556
667.587	10077
667.640	9324
667.693	10048
667.745	9622
667.798	10557
667.850	8714
667.903	10529
667.955	10245
668.008	10328
668.060	9538
668.113	9839
668.165	9805
668.218	9088
668.270	9609
668.322	10389
668.375	9672
668.427	9007
668.479	9012
668.532	9749
668.584	9023
668.636	9369
668.689	9434
668.741	9309
668.793	9459
668.845	8555
668.898	9049
668.950	9336
669.002	9256
669.054	8998
669.106	8924
669.158	8793
669.211	8705
669.263	9197
669.315	10137
669.367	9193
669.419	8230
669.471	9791
669.523	8846
669.575	9199
669.627	8413
669.679	8338
669.731	9288
669.783	9308
669.835	8741
669.886	8751
669.938	8864
669.990	9612
670.042	8002
670.094	8046
670.146	8155
670.197	8516
670.249	8064
670.301	8404
670.353	9317
670.404	9464
670.456	9732
670.508	11511
670.560	15569
670.611	20135
670.663	30131
670.715	66294
670.766	98168
670.818	29791
670.869	12363
670.921	10870
670.972	10299
671.024	9884
671.075	8886
671.127	8752
671.178	9095
671.230	10739
671.281	10843
671.333	12787
671.384	12666
671.436	16502
671.487	22183
671.538	29637
671.590	43590
671.641	67907
671.692	116683
671.744	201414
671.795	153236
671.846	69162
671.897	37215
671.949	25359
672.000	19097
672.051	16045
672.102	12494
672.153	11236
672.204	10556
672.256	10546
672.307	9569
672.358	9260
672.409	8567
672.460	8279
672.511	7919
672.562	7396
672.613	6684
672.664	7806
672.715	8368
672.766	6695
672.817	5942
672.868	6895
672.919	6401
672.970	6214
673.021	6733
673.071	6340
673.122	6141
673.173	5373
673.224	6483
673.275	6272
673.326	5871
673.376	5867
673.427	6239
673.478	6225
673.528	6651
673.579	6575
673.630	6237
673.680	7904
673.731	6511
673.782	6686
673.832	5884
673.883	6542
673.934	5256
673.984	6414
674.035	5748
674.085	6405
674.136	6620
674.186	6320
674.237	6365
674.287	6665
674.338	6069
674.388	7028
674.438	5494
674.489	6725
674.539	7397
674.589	7365
674.640	7778
674.690	7109
674.740	6782
674.791	6666
674.841	5906
674.891	5226
674.942	5226
674.992	5162
675.042	5160
675.092	4731
675.142	4088
675.193	4198
675.243	5818
675.293	4595
675.343	5656
675.393	6414
675.443	5823
675.493	6452
675.543	5787
675.593	5615
675.643	5457
675.693	5658
675.743	5265
675.793	4927
675.843	4465
675.893	4885
675.943	4837
675.993	4915
676.043	5154
676.093	6111
676.142	4742
676.192	5200
676.242	4842
676.292	5503
676.341	4961
676.391	4512
676.441	3844
676.491	4821
676.540	4536
676.590	4949
676.640	4661
676.689	4687
676.739	4179
676.789	4340
676.838	4358
676.888	4725
676.937	3795
676.987	4535
677.037	4660
677.086	4201
677.136	4065
677.185	4101
677.235	3897
677.284	5069
677.333	3445
677.383	4358
677.432	4503
677.482	4511
677.531	4183
677.580	4449
677.630	4116
677.679	3606
677.728	3936
677.778	3608
677.827	3732
677.876	4580
677.925	3795
677.975	3843
678.024	4497
678.073	3982
678.122	4251
678.171	4109
678.220	5026
678.269	5142
678.319	5956
678.368	5383
678.417	4624
678.466	4508
678.515	4400
678.564	3575
678.613	3285
678.662	3807
678.711	4125
678.760	4590
678.809	3969
678.857	4637
678.906	4574
678.955	3801
679.004	4933
679.053	3780
679.102	4141
679.151	4218
679.199	4118
679.248	2929
679.297	3606
679.346	4412
679.394	4133
679.443	3592
679.492	3444
679.540	3807
679.589	4447
679.638	3718
679.686	4757
679.735	4252
679.784	4406
679.832	5646
679.881	4392
679.929	3821
679.978	4110
680.026	4195
680.075	4330
680.123	3541
680.172	3462
680.220	3822
680.268	4112
680.317	3583
680.365	3240
680.414	2945
680.462	3900
680.510	3183
680.559	3534
680.607	2985
680.655	3353
680.703	3397
680.752	3258
680.800	3584
680.848	2660
680.896	2862
680.945	3174
680.993	2294
681.041	2830
681.089	2826
681.137	3043
681.185	3750
681.233	3353
681.258	3633
681.281	3843
681.329	2700
681.377	3176
681.380	3271
681.425	4023
681.473	4374
681.502	4049
681.521	3725
681.569	4408
681.617	4488
681.624	4422
681.665	3520
681.713	4561
681.745	4495
681.761	4384
681.809	4244
681.857	5220
681.867	5325
681.904	5472
681.952	4960
681.989	4597
682.000	4404
682.048	5382
682.096	5224
682.111	5237
682.143	5138
682.191	5911
682.233	6184
682.239	6163
682.286	5473
682.334	5652
682.354	5499
682.382	5197
682.430	6256
682.476	6331
682.477	6281
682.525	5882
682.572	6048
682.598	6108
682.620	6075
682.667	5612
682.715	6363
682.720	6479
682.763	7048
682.810	7170
682.841	7171
682.857	7089
682.905	7046
682.952	6794
682.963	6752
683.000	6451
683.047	7684
683.085	8434
683.095	8598
683.142	7209
683.190	7871
683.206	7628
683.237	6967
683.284	8082
683.328	7370
683.332	7274
683.379	7968
683.426	7389
683.449	7973
683.473	8533
683.521	8725
683.568	8769
683.571	8828
683.615	8871
683.662	9080
683.693	8620
683.709	8278
683.757	8789
683.804	8443
683.814	8350
683.851	8029
683.898	8594
683.936	9118
683.945	9202
683.992	9102
684.039	9323
684.057	9478
684.086	9639
684.133	9658
684.179	8397
684.180	8321
684.227	9218
684.274	9411
684.300	9619
684.321	9784
684.368	9089
684.415	10705
684.422	10609
684.462	9935
684.509	10823
684.543	10609
684.556	10438
684.603	11080
684.649	10478
684.665	10687
684.696	11100
684.743	10889
684.786	11434
684.790	11439
684.837	11087
684.883	10380
684.908	11357
684.930	12398
684.977	12506
685.023	12518
685.029	12563
685.070	12290
685.117	12548
685.150	12045
685.164	11860
685.210	12040
685.257	12693
685.272	12300
685.303	11563
685.350	13070
685.393	12985
685.396	12907
685.443	12437
685.490	12087
685.514	12159
685.536	12476
685.583	11804
685.629	11851
685.636	11955
685.675	12332
685.722	12847
685.757	12827
685.768	12805
685.815	12886
685.861	13173
685.878	13185
685.908	13247
685.954	13140
686.000	13328
686.000	13319
686.047	13282
686.093	13929
686.121	14274
686.139	14389
686.185	14597
686.232	14462
686.242	14392
686.278	14062
686.324	13849
686.363	13891
686.370	13918
686.416	14114
686.463	14677
686.484	14485
686.509	14284
686.555	14631
686.601	15078
686.606	15095
686.647	14908
686.693	15008
686.727	14866
686.739	14877
686.785	15148
686.831	14812
686.848	15100
686.877	15512
686.923	14821
686.969	14997
686.969	14997
687.015	16091
687.061	15727
687.090	16322
687.107	16524
687.153	16775
687.199	15990
687.211	15840
687.245	15442
687.291	16246
687.332	16216
687.336	16245
687.382	16828
687.428	16671
687.453	17035
687.474	17233
687.520	17457
687.565	17424
687.574	17576
687.611	18833
687.657	19317
687.695	20006
687.702	20247
687.748	22396
687.794	24294
687.816	24974
687.839	24046
687.885	21617
687.931	20644
687.937	20345
687.976	19649
688.022	18815
688.058	19021
688.067	19088
688.113	18371
688.158	17825
688.179	17582
688.204	17659
688.249	18019
688.295	17759
688.300	17779
688.340	18032
688.386	18563
688.421	18433
688.431	18352
688.477	18581
688.522	18422
688.542	18511
688.567	19106
688.613	20099
688.658	20248
688.663	20342
688.703	20480
688.749	20039
688.784	20157
688.794	20219
688.839	20475
688.884	20514
688.905	20390
688.930	20238
688.975	20077
689.020	20057
689.026	20011
689.065	20088
689.110	20167
689.146	20090
689.155	20109
689.201	20772
689.246	20796
689.267	20938
689.291	20829
689.336	20534
689.381	19704
689.388	19715
689.426	20347
689.471	20492
689.509	20856
689.516	20924
689.561	20827
689.606	20571
689.630	20741
689.651	20953
689.696	20276
689.741	20625
689.750	20699
689.785	20975
689.830	20804
689.871	20795
689.875	20842
689.920	20872
689.965	21186
689.992	21207
690.010	21036
690.054	20770
690.099	19604
690.112	19670
690.144	20351
690.189	20755
690.233	20511
690.233	20536
690.278	21036
690.323	20686
690.354	20678
690.367	20784
690.412	21265
690.457	21050
690.474	21323
690.501	21488
690.546	21068
690.590	20692
690.595	20587
690.635	20195
690.680	20350
690.716	20391
690.724	20561
690.769	21222
690.813	21934
690.836	22207
690.857	22850
690.902	24204
690.946	25410
690.957	25684
690.991	27544
691.035	30343
691.077	32863
691.080	32901
691.124	32189
691.168	31308
691.198	30657
691.213	29841
691.257	28144
691.301	25443
691.318	24624
691.346	24503
691.390	23739
691.434	23150
691.439	23034
691.478	22852
691.522	23333
691.559	22948
691.567	23032
691.611	23618
691.655	24239
691.680	24561
691.699	24448
691.743	24253
691.787	23889
691.800	23714
691.831	23744
691.875	23692
691.919	23398
691.921	23359
691.964	23441
692.008	23698
692.041	23669
692.052	23749
692.096	23531
692.139	24141
692.162	24190
692.183	24160
692.227	23747
692.271	23484
692.282	23355
692.315	23317
692.359	23517
692.402	23617
692.403	23658
692.447	22962
692.490	22922
692.523	22533
692.534	22577
692.578	22686
692.622	22841
692.643	22917
692.666	23108
692.709	23370
692.753	23183
692.763	23188
692.797	23258
692.840	23079
692.884	23371
692.884	23420
692.928	23247
692.971	23270
693.004	23085
693.015	23144
693.059	23314
693.102	23704
693.124	23686
693.146	23800
693.189	24103
693.233	24258
693.245	24320
693.276	24560
693.320	24833
693.363	24661
693.365	24618
693.407	25011
693.450	25382
693.485	25380
693.493	25557
693.537	26555
693.580	27127
693.605	27639
693.624	28424
693.667	30002
693.710	31534
693.725	32038
693.753	36341
693.797	43285
693.840	50142
693.845	50791
693.883	48355
693.926	45827
693.966	43151
693.970	42748
694.013	38087
694.056	33509
694.086	30009
694.099	29608
694.142	28349
694.185	27101
694.206	26370
694.229	26357
694.272	26418
694.315	26397
694.326	26385
694.358	26345
694.401	25808
694.444	25610
694.446	25530
694.487	25496
694.530	25514
694.566	25582
694.573	25625
694.616	25279
694.659	25281
694.686	25151
694.702	25451
694.745	26007
694.787	26598
694.806	26748
694.830	26617
694.873	26547
694.916	26245
694.926	26137
694.959	26769
695.002	27603
695.044	28196
695.046	28166
695.087	28543
695.130	28751
695.166	28846
695.172	29005
695.215	29686
695.258	30261
695.286	30644
695.301	30798
695.343	31066
695.386	31392
695.406	31378
695.428	32550
695.471	34772
695.514	37036
695.526	37693
695.556	40261
695.599	43434
695.641	46410
695.646	46648
695.684	44538
695.726	42060
695.766	39773
695.769	39769
695.811	38258
695.854	36666
695.886	35489
695.896	35856
695.938	36971
695.981	37945
696.005	38588
696.023	39523
696.065	41336
696.108	43371
696.125	44045
696.150	44958
696.192	46432
696.235	47846
696.245	48074
696.277	47810
696.319	47433
696.361	46876
696.365	46714
696.404	46258
696.446	45803
696.485	45238
696.488	45344
696.530	45293
696.572	45248
696.604	45102
696.614	45182
696.656	44987
696.698	44827
696.724	44667
696.740	45127
696.783	45861
696.825	46867
696.844	47182
696.867	47135
696.909	46779
696.951	46305
696.964	46093
696.992	46559
697.034	47055
697.076	47371
697.083	47345
697.118	49047
697.160	50898
697.202	52692
697.203	52612
697.244	51807
697.286	50909
697.323	49862
697.327	50012
697.369	50284
697.411	50657
697.442	50749
697.453	50998
697.494	51570
697.536	52010
697.562	52207
697.578	52041
697.620	51265
697.661	50400
697.682	49908
697.703	51344
697.744	53894
697.786	56463
697.801	57234
697.828	56762
697.869	55820
697.911	54789
697.921	54426
697.952	54136
697.994	53564
698.035	52951
698.040	52748
698.077	53281
698.118	53683
698.160	54125
698.160	53990
698.201	55747
698.243	57373
698.279	58735
698.284	58980
698.325	59810
698.367	60679
698.399	61165
698.408	61424
698.449	61943
698.491	62412
698.518	62581
698.532	62922
698.573	63492
698.614	64060
698.638	64210
698.656	64336
698.697	64260
698.738	64161
698.757	63958
698.779	64048
698.820	63898
698.862	63753
698.877	63532
698.903	63542
698.944	63310
698.985	63061
698.996	62833
699.026	62960
699.067	62914
699.116	62699
699.235	62755
699.354	62976
699.474	58275
699.593	56970
699.713	59005
699.832	58238
699.951	61508
700.070	60429
700.190	55977
700.309	54227
700.428	53408
700.547	52485
700.667	51005
700.786	53473
700.905	49679
701.024	52331
701.143	50568
701.262	53884
701.381	53682
701.500	54649
701.619	52462
701.738	54501
701.857	52134
701.976	48696
702.095	51368
702.214	53660
702.333	49025
702.452	54922
702.571	53012
702.690	52555
702.809	53933
702.928	49840
703.047	46899
703.165	47851
703.284	48448
703.403	46224
703.522	47636
703.640	43993
703.759	44633
703.878	44602
703.997	45455
704.115	46290
704.234	44202
704.353	47794
704.471	41787
704.590	42243
704.708	42087
704.827	40821
704.946	40703
705.064	43003
705.183	40232
705.301	41549
705.420	41131
705.538	39193
705.656	38378
705.775	38487
705.893	46346
706.012	48720
706.130	37983
706.249	40672
706.367	37759
706.485	38111
706.604	36830
706.722	36936
706.840	42856
706.958	54828
707.077	44587
707.195	36328
707.313	35429
707.431	33169
707.549	33862
707.668	30263
707.786	35809
707.904	33699
708.022	35634
708.140	34546
708.258	31559
708.376	35555
708.494	31703
708.612	35423
708.730	36268
708.848	34115
708.966	34873
709.084	34431
709.202	33728
709.320	31742
709.438	32253
709.556	32827
709.674	29113
709.791	30541
709.909	28971
710.027	29351
710.145	28490
710.263	28879
710.380	29004
710.498	28324
710.616	28099
710.733	27546
710.851	27156
710.969	28488
711.086	26191
711.204	28521
711.322	27259
711.439	27247
711.557	24788
711.674	26260
711.792	26791
711.909	25950
712.027	26816
712.144	25148
712.262	25267
712.379	27211
712.497	27096
712.614	27661
712.732	26965
712.849	25421
712.966	26617
713.084	28473
713.201	23434
713.318	25831
713.436	29474
713.553	26880
713.670	30025
713.787	29580
713.905	27673
714.022	30861
714.139	32589
714.256	38912
714.373	53934
714.490	97375
714.608	234854
714.725	785804
714.842	813855
714.959	137462
715.076	54738
715.193	40611
715.310	34268
715.427	26826
715.544	27172
715.661	27893
715.778	24677
715.895	24821
716.011	24613
716.128	23881
716.245	24196
716.362	23019
716.479	21069
716.596	22505
716.713	22093
716.829	21866
716.946	19989
717.063	20193
717.180	19088
717.296	19359
717.413	20074
717.530	19043
717.646	17908
717.763	18767
717.880	18480
717.996	17013
718.113	18729
718.229	18730
718.346	17117
718.462	17328
718.579	17934
718.695	17833
718.812	18309
718.928	18351
719.045	17284
719.161	18186
719.277	18944
719.394	19606
719.510	19012
719.626	22405
719.743	26740
719.859	40915
719.975	84249
720.092	300304
720.208	641375
720.324	115068
720.440	32855
720.557	24628
720.673	21410
720.789	20481
720.905	22436
721.021	18754
721.137	16350
721.253	15353
721.369	15783
721.486	16776
721.602	15899
721.718	14972
721.834	15365
721.950	15327
722.066	14266
722.181	15028
722.297	15376
722.413	14704
722.529	14390
722.645	14517
722.761	13840
722.877	14906
722.993	17021
723.108	22242
723.224	19554
723.340	16287
723.456	13048
723.571	13233
723.687	12739
723.803	13104
723.918	14123
724.034	12345
724.150	13872
724.265	13522
724.381	13237
724.497	13921
724.612	12366
724.728	12538
724.843	11641
724.959	12801
725.074	13548
725.190	14672
725.305	13020
725.421	12125
725.536	13620
725.651	13469
725.767	13098
725.882	12975
725.997	12318
726.113	13240
726.228	11818
726.343	13003
726.459	11824
726.574	11875
726.689	12108
726.804	12852
726.920	12558
727.035	12150
727.150	12524
727.265	11178
727.380	13148
727.495	12286
727.610	11920
727.725	11890
727.841	11905
727.956	17688
728.071	14370
728.186	11888
728.301	10545
728.416	12902
728.531	11879
728.645	11545
728.760	11391
728.875	12814
728.990	12062
729.105	10714
729.220	11539
729.335	12431
729.449	11577
729.564	11601
729.679	10372
729.794	12293
729.908	11676
730.023	11673
730.138	11982
730.253	12709
730.367	11565
730.482	11893
730.596	12324
730.711	14350
730.826	21357
730.940	21721
731.055	17805
731.169	16089
731.284	17119
731.398	18264
731.513	19305
731.627	20674
731.742	27267
731.856	35182
731.970	36907
732.085	48093
732.199	68433
732.313	121579
732.428	284763
732.542	670304
732.656	435461
732.771	114284
732.885	60690
732.999	49250
733.113	47567
733.227	44900
733.342	41540
733.456	40926
733.570	37867
733.684	36663
733.798	34132
733.912	34980
734.026	34472
734.140	34172
734.254	32723
734.368	32500
734.482	33005
734.596	32285
734.710	30829
734.824	30393
734.938	30124
735.052	31636
735.166	30074
735.280	29446
735.393	28440
735.507	30202
735.621	27677
735.735	27489
735.849	29596
735.962	27018
736.076	29197
736.190	28052
736.303	28332
736.417	28930
736.531	25165
736.644	26927
736.758	26529
736.872	25681
736.985	25465
737.099	26027
737.212	25375
737.326	24807
737.439	26315
737.553	23710
737.666	26257
737.780	22873
737.893	25344
738.007	23175
738.120	26453
738.233	22030
738.347	23748
738.460	21620
738.573	25494
738.687	22949
738.800	24378
738.913	24144
739.026	22645
739.140	21580
739.253	23101
739.366	22513
739.479	22400
739.592	23649
739.705	20162
739.818	24163
739.932	20090
740.045	21560
740.158	21018
740.271	22781
740.384	21728
740.497	19963
740.610	21310
740.723	20169
740.836	20117
740.949	20450
741.062	22282
741.174	19348
741.287	19800
741.400	21153
741.513	17850
741.626	21589
741.739	20005
741.851	18115
741.964	19422
742.077	18273
742.189	16915
742.302	19852
742.415	18683
742.527	18577
742.640	19617
742.753	16348
742.865	18362
742.978	18742
743.090	16609
743.203	17888
743.316	15912
743.428	16513
743.541	17667
743.653	15168
743.766	17432
743.878	18236
743.990	15176
744.103	18704
744.215	17494
744.327	15162
744.440	20009
744.552	17405
744.664	14942
744.777	17349
744.889	15520
745.001	15103
745.113	17025
745.226	16254
745.338	14155
745.450	17344
745.562	15985
745.674	14613
745.786	17542
745.898	15947
746.010	14305
746.122	16349
746.234	15737
746.347	15368
746.459	15792
746.570	12367
746.682	16744
746.794	19725
746.906	13403
747.018	14530
747.130	16460
747.242	12909
747.354	12933
747.466	16050
747.577	13106
747.689	14869
747.801	14696
747.913	13936
748.024	12973
748.136	12283
748.248	13340
748.359	13725
748.471	14788
748.583	12182
748.694	11892
748.806	14448
748.918	12117
749.029	12295
749.141	12976
749.252	14020
749.364	11524
749.475	11459
749.587	11613
749.698	11311
749.809	12511
749.921	13075
750.032	12159
750.144	10829
750.255	10924
750.366	12249
750.478	10590
750.589	12322
750.700	10322
750.811	12421
750.923	10961
751.034	10475
751.145	12959
751.256	11399
751.367	10305
751.479	11766
751.590	10774
751.701	10694
751.812	9683
751.923	9858
752.034	12673
752.145	12212
752.256	11968
752.367	11183
752.478	10454
752.589	11277
752.700	11523
752.811	10519
752.922	10033
753.032	11413
753.143	12013
753.254	9906
753.365	12055
753.476	12828
753.586	11092
753.697	10851
753.808	11244
753.919	9804
754.029	9761
754.140	9428
754.251	9151
754.361	10089
754.472	11715
754.582	10464
754.693	9132
754.804	11605
754.914	10160
755.025	9000
755.135	9692
755.246	11874
755.356	10364
755.466	8785
755.577	8986
755.687	9880
755.798	9384
755.908	9212
756.018	9462
756.129	9173
756.239	10538
756.349	10025
756.460	9744
756.570	11695
756.680	9923
756.790	10213
756.900	10539
757.011	8606
757.121	9429
757.231	8871
757.341	9624
757.451	8609
757.561	8795
757.671	9843
757.781	10008
757.891	9966
758.001	8492
758.111	10865
758.221	9943
758.331	10935
758.441	10886
758.551	10504
758.661	11414
758.771	11756
758.880	11003
758.990	9674
759.100	9546
759.210	10526
759.320	10702
759.429	10566
759.539	12184
759.649	11891
759.758	14408
759.868	15005
759.978	14552
760.087	15864
760.197	16015
760.307	15462
760.416	14127
760.526	13048
760.635	13705
760.745	14922
760.854	15583
760.964	18614
761.073	18211
761.182	16761
761.292	14445
761.401	12939
761.511	11624
761.620	10666
761.729	10262
761.839	9547
761.948	9446
762.057	9816
762.166	9774
762.276	9298
762.385	10773
762.494	10141
762.603	9854
762.712	9675
762.822	8791
762.931	9242
763.040	7965
763.149	9502
763.258	8873
763.367	9884
763.476	9191
763.585	9541
763.694	9281
763.803	8977
763.912	9031
764.021	9608
764.130	9185
764.238	10906
764.347	10382
764.456	10879
764.565	10643
764.674	10541
764.783	10551
764.891	11352
765.000	12850
765.109	12557
765.217	13528
765.326	16019
765.435	17734
765.543	20404
765.652	22749
765.761	29428
765.869	39815
765.978	57993
766.086	94475
766.195	172785
766.303	356050
766.412	547964
766.520	484678
766.629	321790
766.737	145514
766.846	83083
766.954	53987
767.062	40658
767.171	32412
767.279	26510
767.387	20553
767.496	19299
767.604	16048
767.712	15620
767.820	14605
767.928	13239
768.037	11950
768.145	13169
768.253	11573
768.361	10827
768.469	12175
768.577	12051
768.685	12909
768.793	13424
768.901	13881
769.009	14459
769.117	16650
769.225	19792
769.333	27235
769.441	41127
769.549	67065
769.657	142658
769.765	339959
769.873	459936
769.981	310296
770.088	115786
770.196	56868
770.304	39408
770.412	28170
770.519	23209
770.627	19056
770.735	17182
770.842	16236
770.950	15295
771.058	14898
771.165	17016
771.273	17482
771.380	16883
771.488	21104
771.595	26338
771.703	23074
771.810	20122
771.918	21325
772.025	23836
772.133	28174
772.240	26558
772.348	30176
772.455	29718
772.562	24906
772.670	24927
772.777	25422
772.884	26510
772.991	23574
773.099	26781
773.206	22545
773.313	24266
773.420	22900
773.528	24241
773.635	21969
773.742	24300
773.849	20964
773.956	23103
774.063	21383
774.170	23583
774.277	23207
774.384	21269
774.491	21072
774.598	21656
774.705	20852
774.812	22215
774.919	20240
775.026	22044
775.133	19558
775.239	21503
775.346	19429
775.453	19752
775.560	19551
775.667	21095
775.773	20349
775.880	18873
775.987	19057
776.093	19735
776.200	21381
776.307	15973
776.413	15975
776.520	21974
776.627	19822
776.733	16341
776.840	16687
776.946	23078
777.053	20791
777.159	21570
777.266	18266
777.372	20697
777.478	20153
777.585	19246
777.691	15165
777.798	18735
777.904	16642
778.010	16127
778.117	17269
778.223	16525
778.329	16408
778.435	14577
778.542	18020
778.648	15403
778.754	14202
778.860	16916
778.966	16651
779.072	15145
779.178	15577
779.284	14037
779.391	14496
779.497	16520
779.603	16700
779.708	14345
779.815	15231
779.920	26279
780.026	36844
780.132	15983
780.238	14202
780.344	13511
780.450	17148
780.556	12570
780.661	11801
780.767	16969
780.873	10703
780.979	11668
781.085	15335
781.190	13781
781.296	12534
781.402	13158
781.507	13589
781.613	10125
781.719	12671
781.824	15622
781.930	12711
782.035	13182
782.141	15651
782.246	11578
782.352	9923
782.457	13817
782.563	13047
782.668	12444
782.773	11237
782.879	11331
782.984	11516
783.090	12402
783.195	11799
783.300	13786
783.405	10754
783.511	9217
783.616	11280
783.721	11422
783.826	11702
783.932	10738
784.037	10809
784.142	12460
784.247	10682
784.352	11918
784.457	8777
784.562	11354
784.667	12181
784.772	9565
784.877	7253
784.982	12108
785.087	12300
785.192	9285
785.297	9480
785.402	10862
785.507	10406
785.611	10257
785.716	8620
785.821	10765
785.926	10016
786.031	10163
786.135	10255
786.240	10539
786.345	8561
786.450	8575
786.554	9354
786.659	7748
786.763	9871
786.868	9453
786.973	10467
787.077	9311
787.182	6665
787.286	9194
787.391	11141
787.495	7633
787.600	5808
787.704	8903
787.809	9101
787.913	9010
788.017	9244
788.122	10588
788.226	8311
788.330	6312
788.435	8414
788.539	9858
788.643	7708
788.747	6667
788.852	8725
788.956	7914
789.060	8572
789.164	8558
789.268	7651
789.372	9641
789.476	8044
789.580	6286
789.684	6602
789.788	9491
789.892	7902
789.996	7077
790.100	5082
790.204	8603
790.308	9453
790.412	7270
790.516	5301
790.620	7239
790.724	9508
790.828	7822
790.931	5308
791.035	7298
791.139	7041
791.242	8075
791.346	6957
791.450	8088
791.554	6689
791.657	5166
791.761	7160
791.864	8306
791.968	7823
792.072	8458
792.175	5886
792.279	5836
792.382	7017
792.486	5452
792.589	6250
792.693	7863
792.796	5656
792.899	6881
793.003	7960
793.106	5136
793.209	6937
793.313	6779
793.416	3677
793.519	5986
793.623	8357
793.726	7116
793.829	5572
793.932	4446
794.035	3734
794.138	7892
794.242	8469
794.345	5949
794.448	5586
794.551	5362
794.654	12273
794.757	18407
794.860	7094
794.963	7093
795.066	5346
795.169	7256
795.272	5199
795.375	7197
795.477	5028
795.580	4904
795.683	4161
795.786	7340
795.889	5112
795.991	5784
796.094	6714
796.197	5104
796.300	7066
796.402	7225
796.505	4581
796.608	4020
796.710	4786
796.813	7180
796.915	7402
797.018	6910
797.120	5840
797.223	4385
797.326	7795
797.428	5015
797.530	4100
797.633	4804
797.735	6676
797.838	6792
797.940	7676
798.042	6013
798.145	4418
798.247	4512
798.349	3790
798.452	7041
798.554	5896
798.656	6264
798.758	7469
798.860	5459
798.962	5389
799.065	4884
799.167	4192
799.269	5339
799.371	5690
799.473	8054
799.575	6869
799.677	6088
799.779	5673
799.881	3432
799.983	6875
800.085	4599
800.187	5338
800.289	3612
800.390	4128
800.492	6399
800.594	5107
800.696	3942
800.798	3416
800.899	4129
801.001	5010
801.103	4632
801.205	4647
801.306	5312
801.408	4251
801.509	6195
801.611	4596
801.713	5231
801.814	3914
801.916	3645
802.017	3247
802.119	3908
802.220	4197
802.322	4113
802.423	5074
802.525	2084
802.626	4275
802.727	6264
802.829	4561
802.930	1875
803.031	4931
803.133	4403
803.234	4340
803.335	5479
803.436	4344
803.538	4357
803.639	3149
803.740	4877
803.841	3244
803.942	5801
804.043	4777
804.144	3352
804.245	4276
804.346	2993
804.447	2950
804.548	3633
804.649	5652
804.750	3624
804.851	3418
804.952	5013
805.053	4303
805.154	3261
805.255	4745
805.355	3921
805.456	3407
805.557	3725
805.658	3729
805.758	3992
805.859	3480
805.960	4778
806.061	3969
806.161	3231
806.262	3354
806.362	2837
806.463	3439
806.564	5689
806.664	3382
806.765	3856
806.865	4213
806.966	3527
807.066	2651
807.166	3618
807.267	4317
807.367	3290
807.468	3776
807.568	1827
807.668	3390
807.769	4835
807.869	3858
807.969	3958
808.069	3389
808.170	3346
808.270	2475
808.370	3618
808.470	3558
808.570	3365
808.670	3028
808.770	3460
808.870	2715
808.970	4066
809.070	2908
809.170	2842
809.271	4127
809.370	4114
809.470	3270
809.570	2520
809.670	1626
809.770	3001
809.870	3254
809.970	4060
810.070	3501
810.169	2971
810.269	2284
810.369	3897
810.469	3235
810.568	3384
810.668	2822
810.768	3411
810.867	3172
810.967	2295
811.066	2356
811.166	3497
811.265	3818
811.365	2830
811.464	2433
811.564	3781
811.663	3482
811.763	2594
811.862	4098
811.962	4102
812.061	3084
812.160	3287
812.260	2658
812.359	3352
812.458	3028
812.557	3617
812.657	3424
812.756	4291
812.855	3365
812.954	3331
813.053	3544
813.153	3078
813.252	2013
813.351	3136
813.450	3807
813.549	2587
813.648	3462
813.747	2920
813.846	3530
813.945	3830
814.044	4005
814.143	4891
814.242	4090
814.341	4476
814.439	4518
814.538	4925
814.637	4619
814.736	5032
814.835	4802
814.933	4946
815.032	6392
815.131	8282
815.229	15375
815.328	23510
815.427	17116
815.525	14981
815.624	12861
815.722	13757
815.821	14172
815.919	15198
816.018	14731
816.116	15231
816.215	15211
816.313	16404
816.412	18180
816.510	18318
816.609	19653
816.707	21488
816.805	19465
816.904	19369
817.002	18843
817.100	20304
817.198	21070
817.296	18689
817.395	18185
817.493	19685
817.591	17028
817.689	17977
817.787	17521
817.885	18126
817.983	17285
818.081	20192
818.179	23052
818.277	40930
818.375	37293
818.473	21458
818.571	16187
818.669	17794
818.767	18975
818.865	17281
818.963	13635
819.061	18253
819.158	18087
819.256	24728
819.354	31923
819.452	60937
819.549	46433
819.647	23852
819.745	15617
819.842	15201
819.940	16334
820.038	14361
820.135	12748
820.233	16174
820.330	14122
820.428	13310
820.525	16143
820.623	13707
820.720	12693
820.818	14104
820.915	14887
821.012	13687
821.110	12279
821.207	13553
821.304	12444
821.402	15144
821.499	14604
821.596	13215
821.693	12325
821.791	14586
821.888	12074
821.985	15007
822.082	10272
822.179	12891
822.276	14307
822.373	12491
822.470	10809
822.567	13587
822.664	11241
822.761	12390
822.858	13515
822.955	11340
823.052	9878
823.149	11921
823.246	13221
823.343	9329
823.440	9745
823.536	12494
823.633	12533
823.730	10268
823.827	12141
823.923	11693
824.020	10737
824.117	12515
824.213	12578
824.310	10748
824.407	9144
824.503	11328
824.600	10636
824.696	8819
824.793	12446
824.889	12034
824.986	11052
825.082	7436
825.179	8722
825.275	12195
825.371	13159
825.468	8792
825.564	5306
825.660	10378
825.757	13740
825.853	9698
825.949	8335
826.045	8887
826.142	8831
826.238	10549
826.334	10169
826.430	10506
826.526	6607
826.622	6503
826.718	11328
826.814	11264
826.910	9822
827.006	5659
827.102	7245
827.198	9909
827.294	10786
827.390	10774
827.486	8135
827.582	5257
827.678	6583
827.774	11880
827.869	7086
827.965	8725
828.061	5979
828.157	10806
828.252	10441
828.348	8269
828.444	7350
828.539	7182
828.635	8970
828.731	8759
828.826	7358
828.922	9564
829.017	10485
829.113	10824
829.208	6671
829.304	8292
829.399	11223
829.495	10372
829.590	7514
829.685	8966
829.781	8983
829.876	10160
829.971	5759
830.066	5017
830.162	7505
830.257	11511
830.352	8024
830.447	6595
830.543	5788
830.638	7992
830.733	10229
830.828	7246
830.923	8504
831.018	8753
831.113	9836
831.208	6235
831.303	4343
831.398	4870
831.493	6241
831.588	12054
831.683	6792
831.778	5298
831.873	5571
831.967	7719
832.062	8689
832.157	7725
832.252	6627
832.346	6535
832.441	8147
832.536	7305
832.631	7109
832.725	5979
832.820	5798
832.914	7155
833.009	5094
833.104	4531
833.198	6108
833.293	6846
833.387	9242
833.482	7111
833.576	6380
833.670	7106
833.765	6564
833.859	7944
833.954	8157
834.048	7530
834.142	6009
834.237	4887
834.331	5362
834.425	7271
834.519	5980
834.613	5269
834.708	4652
834.802	5031
834.896	5989
834.990	5947
835.084	5295
835.178	4120
835.272	5245
835.366	7835
835.460	8107
835.554	5780
835.648	3956
835.742	3215
835.836	4069
835.930	5233
836.024	6615
836.117	6395
836.211	5471
836.305	4763
836.399	4470
836.493	4621
836.586	5959
836.680	5628
836.774	4551
836.867	4664
836.961	3856
837.055	4088
837.148	4120
837.242	4884
837.335	5614
837.429	4683
837.522	4449
837.616	3720
837.709	4615
837.803	4765
837.896	6753
837.989	6066
838.083	4062
838.176	3645
838.269	2474
838.363	4617
838.456	3471
838.549	6285
838.642	3768
838.735	4035
838.829	5000
838.922	4174
839.015	4850
839.108	4246
839.201	4042
839.294	5299
839.387	4848
839.480	3268
839.573	4285
839.666	2479
839.759	3644
839.852	3963
839.945	5727
840.038	3458
840.131	3545
840.223	2799
840.316	4276
840.409	5240
840.502	5752
840.594	6072
840.687	2037
840.780	1745
840.873	2315
840.965	3859
841.058	4883
841.150	5929
841.243	3072
841.336	4234
841.428	2842
841.521	3493
841.613	3072
841.706	4456
841.798	2528
841.890	3991
841.983	2734
842.075	2937
842.167	2530
842.260	4393
842.352	5354
842.444	4990
842.537	2669
842.629	3523
842.721	2629
842.813	3790
842.905	2915
842.997	3823
843.090	3862
843.182	3263
843.274	2317
843.366	3888
843.458	4773
843.550	6164
843.642	4640
843.734	4729
843.826	2469
843.918	3116
844.009	2908
844.101	3596
844.193	3491
844.285	3754
844.377	5163
844.469	3177
844.560	2116
844.652	3080
844.744	2117
844.835	3818
844.927	3464
845.019	4007
845.110	3196
845.202	4155
845.293	2850
845.385	1471
845.476	2242
845.568	4174
845.659	2184
845.751	3097
845.842	2959
845.934	3009
846.025	2953
846.116	2998
846.208	3113
846.299	2149
846.390	2467
846.482	2831
846.573	3810
846.664	3484
846.755	2998
846.846	3619
846.937	1626
847.029	2079
847.120	2064
847.211	3030
847.302	3573
847.393	2040
847.484	3517
847.575	2229
847.666	1337
847.757	2086
847.847	3113
847.938	4572
848.029	4138
848.120	2900
848.211	2596
848.302	2031
848.392	1869
848.483	2845
848.574	2167
848.664	4026
848.755	3045
848.846	2578
848.936	2036
849.027	3342
849.118	3373
849.208	3059
849.299	4740
849.389	6575
849.480	9963
849.570	20697
849.661	35823
849.751	60556
849.841	26846
849.932	6554
850.022	3732
850.112	4252
850.203	3584
850.293	2838
850.383	2551
850.474	2224
850.564	2260
850.654	2186
850.744	1588
850.834	3278
850.924	2630
851.014	4174
851.104	3055
851.194	2624
851.284	1032
851.374	2521
851.464	2322
851.554	2586
851.644	2786
851.734	3720
851.824	3657
851.914	3870
852.004	4216
852.094	2615
852.183	2060
852.273	3803
852.363	1543
852.452	3583
852.542	2488
852.632	2440
852.721	2994
852.811	3347
852.901	4028
852.990	4421
853.080	4019
853.169	4335
853.259	3982
853.348	4105
853.438	4590
853.527	6489
853.617	7943
853.706	14171
853.795	21973
853.885	42443
853.974	72734
854.063	121407
854.152	161582
854.242	84870
854.331	28256
854.420	13896
854.509	9265
854.598	8228
854.687	6305
854.777	6144
854.866	3428
854.955	3558
855.044	2782
855.133	3692
855.222	3621
855.311	2437
855.400	3253
855.488	2562
855.577	2622
855.666	2472
855.755	2894
855.844	2895
855.933	3055
856.021	3781
856.110	2213
856.199	2113
856.288	2163
856.376	2651
856.465	1493
856.554	3037
856.642	3107
856.731	4596
856.819	3612
856.908	2858
856.996	2970
857.085	1993
857.173	1693
857.262	2212
857.350	1975
857.438	1530
857.527	2371
857.615	3002
857.703	3434
857.792	2964
857.880	1205
857.968	1680
858.056	2276
858.145	1959
858.233	2716
858.321	2077
858.409	2338
858.497	2323
858.585	2342
858.673	2060
858.761	1321
858.849	2294
858.937	1450
859.025	1762
859.113	3083
859.201	3355
859.289	3216
859.377	2458
859.465	2041
859.552	2082
859.640	1786
859.728	2794
859.816	2291
859.903	2673
859.991	1204
860.079	3393
860.166	1682
860.254	2180
860.342	2713
860.429	2102
860.517	2149
860.604	2991
860.692	1744
860.779	1549
860.867	2320
860.954	2070
861.042	2325
861.129	3488
861.216	3122
861.304	3040
861.391	2598
861.478	3249
861.565	2500
861.653	2688
861.740	1527
861.827	2112
861.914	1764
862.001	2679
862.089	2681
862.176	3303
862.263	2592
862.350	2023
862.437	1931
862.524	2877
862.611	2928
862.698	3499
862.785	3597
862.871	4765
862.958	3602
863.045	3521
863.132	3360
863.219	2650
863.306	2706
863.392	2970
863.479	2624
863.566	2469
863.652	2670
863.739	3173
863.826	4130
863.912	3813
863.999	3181
864.086	3126
864.172	3453
864.259	4707
864.345	4232
864.432	4774
864.518	3633
864.604	3811
864.691	4024
864.777	5238
864.863	6287
864.950	9267
865.036	12433
865.122	20911
865.209	22421
865.295	19573
865.381	18928
865.467	18856
865.553	17598
865.639	20144
865.726	24529
865.812	35030
865.898	52884
865.984	73037
866.070	108664
866.156	115973
866.242	54980
866.328	28230
866.414	20600
866.499	18466
866.585	17150
866.671	16206
866.757	15576
866.843	15872
866.928	15679
867.014	14507
867.100	15262
867.186	14481
867.271	15257
867.357	15000
867.442	13799
867.528	15607
867.614	14619
867.699	14485
867.785	14648
867.870	14733
867.956	15292
868.041	15152
868.127	13269
868.212	13751
868.297	12613
868.383	13727
868.468	13158
868.553	14701
868.639	12356
868.724	13455
868.809	13729
868.894	12452
868.979	13486
869.065	13437
869.150	10320
869.235	12403
869.320	12952
869.405	11423
869.490	13283
869.575	13057
869.660	10079
869.745	13435
869.830	14477
869.915	11773
870.000	11642
870.085	10802
870.169	14309
870.254	13911
870.339	9441
870.424	9767
870.509	13121
870.593	13960
870.678	13176
870.763	11521
870.847	8961
870.932	12549
871.016	13106
871.101	8434
871.186	10759
871.270	14194
871.355	8846
871.439	10608
871.523	12352
871.608	9893
871.692	9226
871.777	12087
871.861	12025
871.945	10146
872.030	11178
872.114	10402
872.198	8427
872.282	8743
872.367	9162
872.451	10092
872.535	9785
872.619	10987
872.703	9343
872.787	11198
872.871	10433
872.955	8776
873.039	6434
873.123	10133
873.207	11662
873.291	7824
873.375	7374
873.459	11124
873.543	9462
873.627	8182
873.711	8748
873.794	10547
873.878	8497
873.962	7782
874.045	8305
874.129	8876
874.137	8867
874.213	8779
874.245	8782
874.296	8788
874.352	8208
874.380	7935
874.460	8114
874.464	8124
874.547	8221
874.568	8383
874.631	8899
874.676	8500
874.714	8136
874.784	9436
874.798	9705
874.881	8107
874.892	7889
874.965	6365
874.999	7319
875.048	8660
875.107	8786
875.131	8835
875.215	6040
875.215	6039
875.298	6365
875.323	6799
875.381	7769
875.430	9323
875.465	10443
875.538	7970
875.548	7616
875.631	6635
875.646	6500
875.714	5998
875.753	6166
875.798	6344
875.861	8130
875.881	8652
875.964	7664
875.968	7568
876.047	6031
876.076	6420
876.130	7126
876.183	7232
876.213	7295
876.291	8235
876.296	8295
876.379	6567
876.398	6626
876.462	6749
876.506	6068
876.545	5526
876.613	5938
876.628	6027
876.711	6241
876.721	6372
876.794	7373
876.828	7423
876.877	7282
876.935	5576
876.960	5025
877.043	5435
877.043	5442
877.125	6570
877.150	7014
877.208	8033
877.258	6569
877.291	5575
877.365	4498
877.374	4382
877.456	5456
877.472	5257
877.539	4360
877.579	5450
877.622	6676
877.687	6133
877.704	5950
877.787	6238
877.794	6202
877.869	5836
877.901	6104
877.952	6369
878.008	4756
878.034	4061
878.115	4945
878.117	4958
878.199	4391
878.222	4740
878.282	5907
878.329	5990
878.364	5940
878.437	5601
878.447	5526
878.529	3797
878.544	3993
878.611	4994
878.651	4906
878.694	4964
878.758	5389
878.776	5419
878.858	5340
878.865	5321
878.941	5158
878.972	4637
879.023	3621
879.078	4096
879.105	4588
879.185	5999
879.187	6004
879.269	5047
879.292	4836
879.351	4647
879.399	4157
879.433	3695
879.506	3707
879.516	3745
879.598	4409
879.613	4234
879.680	3168
879.720	3781
879.762	4663
879.827	4529
879.844	4369
879.926	4015
879.933	3997
880.007	4094
880.040	3770
880.089	3122
880.147	4121
880.171	4754
880.253	5144
880.254	5148
880.335	4271
880.360	4471
880.417	5284
880.467	5316
880.499	5222
880.574	4919
880.580	4921
880.662	5303
880.680	5210
880.744	4027
880.787	3360
880.825	3221
880.893	4163
880.907	4263
880.989	3477
881.000	3488
881.070	4255
881.106	4422
881.152	3913
881.213	2864
881.233	2754
881.315	3429
881.319	3490
881.396	4249
881.426	4197
881.478	4084
881.532	4497
881.559	4539
881.639	3698
881.641	3683
881.722	3000
881.745	3146
881.803	3547
881.852	3737
881.885	3756
881.958	2778
881.966	2688
882.047	3918
882.064	3801
882.129	2978
882.171	2353
882.210	1788
882.277	2056
882.291	2258
882.372	3386
882.383	3545
882.454	4452
882.489	4672
882.535	4440
882.596	4042
882.616	4070
882.697	3688
882.702	3671
882.778	2844
882.808	2739
882.859	2634
882.914	2612
882.940	2716
883.020	3078
883.021	3077
883.102	3331
883.127	3537
883.183	4068
883.233	3803
883.264	3288
883.339	2396
883.345	2370
883.426	2043
883.445	2142
883.507	2391
883.551	2542
883.587	2897
883.657	3444
883.668	3449
883.749	3588
883.763	3535
883.830	3091
883.869	2548
883.910	2052
883.975	2554
883.991	2787
884.072	3193
884.081	3264
884.152	3443
884.187	3604
884.233	3866
884.292	3655
884.314	3289
884.394	1527
884.398	1484
884.475	1488
884.504	1528
884.555	1603
884.610	1939
884.636	2242
884.716	2840
884.716	2841
884.797	3871
884.821	4049
884.877	3650
884.927	3164
884.958	2744
885.033	1596
885.038	1553
885.118	1304
885.139	1334
885.199	1571
885.244	1803
885.279	2310
885.350	3205
885.359	3256
885.439	4095
885.456	3990
885.520	3227
885.561	3023
885.600	2466
885.667	2072
885.680	2164
885.760	2294
885.773	2292
885.840	2213
885.878	2363
885.920	2253
885.984	2179
886.000	2240
886.080	2338
886.089	2355
886.160	2881
886.195	3166
886.240	3001
886.300	2670
886.320	2529
886.400	1954
886.406	1913
886.480	1687
886.511	1850
886.560	2242
886.616	2259
886.640	2072
886.720	1817
886.722	1810
886.800	1920
886.827	2090
886.879	2043
886.932	1882
886.959	2265
887.038	3382
887.039	3370
887.119	2683
887.143	2521
887.198	2565
887.248	2583
887.278	2386
887.354	1862
887.358	1867
887.437	2130
887.459	2250
887.517	1986
887.564	1494
887.596	1410
887.669	1564
887.676	1527
887.755	997
887.774	923
887.835	1007
887.880	1143
887.914	1434
887.985	1870
887.994	1942
888.073	2741
888.090	2877
888.153	2941
888.195	2898
888.232	2496
888.300	2102
888.311	2029
888.391	1349
888.405	1235
888.470	1353
888.510	1429
888.549	1200
888.615	1060
888.628	1243
888.708	2193
888.720	2330
888.787	1889
888.825	1648
888.866	1182
888.930	605
888.945	778
889.024	1754
889.035	1880
889.103	2450
889.140	2732
889.182	2364
889.245	1958
889.261	2008
889.340	2188
889.349	2217
889.419	1822
889.454	1632
889.498	1559
889.559	1494
889.577	1529
889.656	1722
889.664	1752
889.735	2032
889.768	2170
889.814	1792
889.873	1299
889.978	2092
890.083	1218
890.187	2282
890.292	2604
890.397	1780
890.501	1494
890.606	1654
890.710	1900
890.815	2809
890.919	1571
891.024	2074
891.128	1186
891.233	1818
891.337	1851
891.442	3045
891.546	1786
891.650	1694
891.755	1345
891.859	3269
891.963	2652
892.068	3230
892.172	951
892.276	862
892.380	1148
892.484	2992
892.589	1426
892.693	1883
892.797	448
892.901	1417
893.005	1210
893.109	2254
893.213	1933
893.317	1955
893.421	1169
893.525	524
893.629	979
893.733	2332
893.837	712
893.941	2320
894.045	1484
894.148	1666
894.252	1820
894.356	2492
894.460	2672
894.564	1229
894.667	1684
894.771	1448
894.875	238
894.978	1796
895.082	858
895.186	2814
895.289	2235
895.393	549
895.496	2154
895.600	1994
895.703	1131
895.807	1206
895.910	1080
896.014	2004
896.117	530
896.221	788
896.324	1488
896.427	1287
896.531	970
896.634	2167
896.737	876
896.840	2392
896.944	1750
897.047	2441
897.150	189
897.253	1375
897.356	1052
897.460	1181
897.563	361
897.666	1726
897.769	1884
897.872	944
897.975	1608
898.078	1521
898.181	436
898.284	1158
898.387	1510
898.490	1561
898.593	1202
898.695	1316
898.798	898
898.901	1286
899.004	885
899.107	1139
899.209	933
899.312	2168
899.415	219
899.518	1800
899.620	849
899.723	1321
899.826	1000
899.928	671
900.031	587
900.133	2440
900.236	1032
900.338	888
900.441	594
900.543	1031
900.646	871
900.748	1080
900.851	1328
900.953	717
901.055	17
901.158	1457
901.260	949
901.362	1102
901.465	317
901.567	834
901.669	1506
901.771	778
901.873	209
901.976	1387
902.078	1290
902.180	575
902.282	340
902.384	613
902.486	1385
902.588	1570
902.690	146
902.792	766
902.894	533
902.996	1981
903.098	997
903.200	1003
903.302	1309
903.404	894
903.505	280
903.607	406
903.709	1350
903.811	2584
903.913	1108
904.014	796
904.116	349
904.218	900
904.319	1192
904.421	2573
904.523	2501
904.624	1304
904.726	240
904.827	601
904.929	615
905.030	630
905.132	2009
905.233	1102
905.335	405
905.436	801
905.537	304
905.639	1258
905.740	-5
905.841	2118
905.943	732
906.044	2473
906.145	80
906.247	519
906.348	399
906.449	1271
906.550	730
906.651	897
906.752	449
906.854	885
906.955	575
907.056	1645
907.157	841
907.258	1491
907.359	684
907.460	882
907.561	-281
907.662	275
907.762	202
907.863	636
907.964	850
908.065	907
908.166	-228
908.267	-239
908.367	486
908.468	690
908.569	246
908.670	1500
908.770	469
908.871	913
908.971	1380
909.072	506
909.173	-26
909.273	627
909.374	1428
909.474	1473
909.575	159
909.675	676
909.776	702
909.876	450
909.977	1028
910.077	1340
910.177	791
910.278	922
910.378	726
910.478	180
910.579	949
910.679	895
910.779	1157
910.879	1895
910.980	461
911.080	1182
911.180	168
911.280	510
911.380	-123
911.480	770
911.580	506
911.680	1308
911.780	716
911.880	1629
911.980	721
912.080	680
912.180	656
912.280	1207
912.380	221
912.480	1001
912.580	-234
912.679	914
912.779	1203
912.879	1014
912.979	397
913.078	87
913.178	80
913.278	734
913.377	243
913.477	1432
913.577	261
913.676	1511
913.776	214
913.875	1296
913.975	672
914.074	860
914.174	167
914.273	793
914.373	991
914.472	321
914.572	157
914.671	1132
914.770	375
914.870	450
914.969	614
915.068	1349
915.167	459
915.267	639
915.366	-364
915.465	1276
915.564	1402
915.663	345
915.763	467
915.862	1237
915.961	710
916.060	154
916.159	123
916.258	591
916.357	889
916.456	1276
916.555	153
916.654	319
916.752	384
916.851	2112
916.950	670
917.049	-124
917.148	96
917.247	495
917.345	705
917.444	212
917.543	1071
917.642	960
917.740	151
917.839	1068
917.937	831
918.036	1758
918.135	399
918.233	328
918.332	-232
918.430	1158
918.529	659
918.627	1574
918.726	626
918.824	1241
918.923	246
919.021	1440
919.119	713
919.218	393
919.316	480
919.414	1644
919.512	673
919.611	1023
919.709	778
919.807	1290
919.905	1591
920.003	1708
920.102	1499
920.200	1598
920.298	1305
920.396	1848
920.494	980
920.592	1234
920.690	1251
920.788	925
920.886	992
920.984	1321
921.082	1254
921.180	2221
921.277	1496
921.375	1566
921.473	2552
921.571	3584
921.669	1814
921.766	2882
921.864	2420
921.962	3112
922.060	2458
922.157	3085
922.255	2773
922.352	2478
922.450	3079
922.548	3892
922.645	3292
922.743	4950
922.840	6813
922.938	9528
923.035	6630
923.133	7479
923.230	8307
923.327	10890
923.425	9859
923.522	9767
923.619	8631
923.717	8291
923.814	7440
923.911	7299
924.008	7636
924.106	7563
924.203	7146
924.300	7282
924.397	7259
924.494	7457
924.591	7694
924.688	7360
924.786	6672
924.883	7214
924.979	7357
925.077	7569
925.173	7110
925.270	7651
925.367	6763
925.464	8319
925.561	7136
925.658	8513
925.755	6463
925.852	9007
925.948	7049
926.045	7177
926.142	7639
926.239	8852
926.335	6733
926.432	7655
926.529	7858
926.625	9168
926.722	5882
926.818	6118
926.915	7105
927.011	6489
927.108	5937
927.204	6614
927.301	6016
927.397	7433
927.494	8416
927.590	5328
927.687	5501
927.783	8199
927.879	7036
927.976	6652
928.072	4674
928.168	7521
928.264	5784
928.361	6052
928.457	6588
928.553	6189
928.649	5186
928.745	7322
928.841	5765
928.937	6057
929.033	5873
929.129	5918
929.225	6201
929.321	5660
929.417	4863
929.513	6871
929.609	5122
929.705	5263
929.801	6358
929.897	5088
929.993	6216
930.089	6058
930.184	4505
930.280	4744
930.376	6772
930.471	5097
930.567	3909
930.663	5886
930.758	4672
930.854	5307
930.950	5124
931.045	5024
931.141	4017
931.236	6994
931.332	5954
931.427	3848
931.523	5895
931.618	5583
931.714	3108
931.809	3673
931.905	5725
932.000	3651
932.095	2879
932.191	5617
932.286	6837
932.381	6395
932.476	2924
932.572	5593
932.667	4725
932.762	4397
932.857	3721
932.952	5555
933.047	4528
933.142	4015
933.237	3784
933.332	5285
933.427	4996
933.522	4276
933.617	3515
933.712	4154
933.807	5148
933.902	6461
933.997	4928
934.092	3798
934.187	2776
934.282	5205
934.376	4032
934.471	5675
934.566	3503
934.661	3899
934.755	4398
934.850	5478
934.945	3820
935.039	3725
935.134	2667
935.228	3377
935.323	5699
935.417	4326
935.512	2983
935.606	3461
935.701	3556
935.795	5193
935.890	3408
935.984	3765
936.079	2108
936.173	3793
936.267	2449
936.362	3420
936.456	3542
936.550	6126
936.644	3956
936.738	3006
936.833	2323
936.927	2134
937.021	3363
937.115	4030
937.209	2959
937.303	4304
937.397	2592
937.491	3248
937.585	4578
937.679	4129
937.773	2688
937.867	2191
937.961	2217
938.055	4126
938.149	4629
938.243	2912
938.337	1732
938.430	2781
938.524	5461
938.618	4636
938.712	2998
938.805	3051
938.899	3705
938.993	5093
939.086	4033
939.180	3312
939.274	4103
939.367	3844
939.461	4134
939.554	3514
939.648	2216
939.741	3280
939.835	3072
939.928	4590
940.022	4184
940.115	2829
940.208	3450
940.302	4524
940.395	4754
940.488	2437
940.582	2773
940.675	2349
940.768	1019
940.861	3997
940.954	3295
941.048	1840
941.141	682
941.234	2524
941.327	2382
941.420	3526
941.513	3788
941.606	2272
941.699	2118
941.792	3039
941.885	3330
941.978	3507
942.071	2884
942.164	2922
942.257	1690
942.349	2535
942.442	3003
942.535	2358
942.628	2175
942.721	2320
942.813	2328
942.906	3867
942.999	1994
943.091	712
943.184	2113
943.277	1546
943.369	1314
943.462	1363
943.554	2120
943.647	2465
943.739	3316
943.832	4318
943.924	298
944.017	1470
944.109	469
944.201	1991
944.294	2147
944.386	2978
944.478	905
944.571	2035
944.663	932
944.755	2662
944.847	2714
944.940	2825
945.032	1244
945.124	1317
945.216	1970
945.308	2559
945.400	2284
945.492	1327
945.584	2292
945.676	3168
945.768	2377
945.860	3603
945.952	3021
946.044	2781
946.136	1375
946.228	2682
946.320	991
946.412	1708
946.503	2546
946.595	3665
946.687	1668
946.779	1308
946.870	571
946.962	1830
947.054	784
947.145	2464
947.237	1157
947.329	2542
947.420	2039
947.512	1758
947.603	901
947.695	1137
947.786	1158
947.878	2136
947.969	2555
948.061	1847
948.152	1222
948.243	1346
948.335	476
948.426	1216
948.517	1716
948.609	2127
948.700	1208
948.791	2183
948.882	1010
948.973	1201
949.065	1118
949.156	1786
949.247	453
949.338	1557
949.429	571
949.520	2156
949.611	825
949.702	2701
949.793	1154
949.884	2238
949.975	634
950.066	570
950.157	526
950.247	1222
950.338	871
950.429	465
950.520	1022
950.611	836
950.701	954
950.792	2224
950.883	2027
950.973	1468
951.064	633
951.155	1845
951.245	1940
951.336	1736
951.427	1499
951.517	3060
951.608	1024
951.698	1067
951.788	988
951.879	1268
951.969	-621
952.060	1169
952.150	788
952.240	2071
952.331	445
952.421	2588
952.511	-66
952.602	704
952.692	849
952.782	697
952.872	1453
952.962	1709
953.052	527
953.143	109
953.233	1324
953.323	1638
953.413	1310
953.503	2775
953.593	1518
953.683	1859
953.773	2
953.863	485
953.953	1022
954.042	1946
954.132	530
954.222	2027
954.312	1132
954.402	1419
954.492	1167
954.581	1326
954.671	1025
954.761	206
954.850	1237
954.940	-17
955.030	-200
955.119	897
955.209	145
955.298	1520
955.388	1601
955.477	1488
955.567	188
955.656	1456
955.746	343
955.835	826
955.925	-509
956.014	981
956.103	1367
956.193	2296
956.282	1402
956.371	970
956.461	890
956.550	977
956.639	1154
956.728	670
956.817	225
956.906	1359
956.995	810
957.085	177
957.174	844
957.263	713
957.352	116
957.441	92
957.530	1090
957.619	1484
957.708	-113
957.796	1077
957.885	809
957.974	81
958.063	435
958.152	-972
958.241	1199
958.329	78
958.418	1040
958.507	334
958.596	2068
958.684	223
958.773	778
958.861	460
958.950	618
959.039	577
959.127	237
959.216	1472
959.304	-1001
959.393	897
959.481	737
959.570	523
959.658	-523
959.746	-264
959.835	1053
959.923	621
960.011	-1178
960.100	1010
960.188	858
960.276	960
960.365	-118
960.453	-228
960.541	-272
960.629	874
960.717	-386
960.805	3
960.893	39
960.981	454
961.069	2045
961.158	1247
961.245	1494
961.333	1367
961.421	47
961.509	1295
961.597	1180
961.685	416
961.773	-104
961.861	505
961.949	1164
962.036	238
962.124	-257
962.212	345
962.299	268
962.387	553
962.475	84
962.562	-539
962.650	846
962.738	1152
962.825	79
962.913	135
963.000	-414
963.088	599
963.175	248
963.263	685
963.350	202
963.438	80
963.525	-237
963.612	858
963.700	175
963.787	1846
963.874	-354
963.962	205
964.049	-456
964.136	22
964.223	-1394
964.310	705
964.398	481
964.485	-168
964.572	657
964.659	389
964.746	-152
964.833	-248
964.920	296
965.007	85
965.094	-61
965.181	332
965.268	769
965.355	785
965.441	-60
965.528	73
965.615	535
965.702	150
965.789	-32
965.875	125
965.962	172
966.049	-89
966.136	541
966.222	1808
966.309	543
966.395	543
966.482	520
966.569	717
966.655	634
966.742	974
966.828	133
966.915	162
967.001	199
967.087	155
967.174	-252
967.260	683
967.347	20
967.433	401
967.519	-278
967.605	-67
967.692	107
967.778	633
967.864	-738
967.950	470
968.036	-594
968.123	495
968.209	754
968.295	-469
968.381	792
968.467	431
968.553	-2011
968.639	1321
968.725	-1000
968.811	1377
968.897	787
968.983	423
969.069	-192
969.154	-199
969.240	405
969.326	-600
969.412	-1019
969.497	-70
969.583	-590
969.669	1022
969.755	401
969.840	-124
969.926	1451
970.012	2162
970.097	2476
970.183	1932
970.268	551
970.354	1280
970.439	-384
970.525	1314
970.610	-593
970.696	965
970.781	634
970.866	-668
970.952	25
971.037	-471
971.122	-198
971.208	37
971.293	434
971.378	-550
971.463	-460
971.549	742
971.634	-113
971.719	-297
971.804	-485
971.889	740
971.974	-396
972.059	470
972.144	271
972.229	199
972.314	-468
972.399	536
972.484	-601
972.569	600
972.654	-726
972.739	960
972.824	-106
972.908	442
972.993	-1182
973.078	-155
973.163	85
973.247	557
973.332	-1147
973.417	1625
973.501	-531
973.586	-964
973.671	261
973.755	-778
973.840	425
973.924	-124
974.009	-55
974.093	408
974.178	1534
974.262	-318
974.346	184
974.431	1027
974.515	62
974.600	1340
974.684	218
974.768	-63
974.852	330
974.937	30
975.021	623
975.105	306
975.189	-114
975.273	703
975.358	-626
975.442	276
975.526	166
975.610	-666
975.694	-1027
975.778	828
975.862	-863
975.946	-1254
976.030	778
976.114	-400
976.198	-608
976.281	-194
976.365	-150
976.449	447
976.533	-245
976.617	-340
976.700	190
976.784	79
976.868	-458
976.951	25
977.035	-524
977.119	-169
977.202	102
977.286	1087
977.369	389
977.453	2225
977.536	713
977.620	55
977.703	373
977.787	36
977.870	1074
977.953	1402
978.037	-1106
978.120	457
978.203	-898
978.287	1120
978.370	-655
978.453	231
978.536	-127
978.620	1039
978.703	-248
978.786	2
978.869	-855
978.952	-412
979.035	775
979.118	208
979.201	-470
979.284	444
979.367	-590
979.450	573
979.533	-1478
979.616	44
979.699	-63
979.782	274
979.865	8
979.948	-876
980.030	-256
980.113	851
980.196	-494
980.279	390
980.361	-233
980.444	595
980.526	1051
980.609	1624
980.692	1762
980.774	1405
980.857	-11
980.939	830
981.022	404
981.104	104
981.187	-156
981.269	710
981.352	-278
981.434	-195
981.516	298
981.599	1813
981.681	442
981.763	1480
981.846	304
981.928	160
982.010	128
982.092	-569
982.174	1216
982.256	520
982.339	327
982.421	-388
982.503	155
982.585	-59
982.667	163
982.749	289
982.831	225
982.913	492
982.995	316
983.077	-65
983.158	492
983.240	154
983.322	868
983.404	2058
983.486	1669
983.568	903
983.649	1499
983.731	1865
983.813	722
983.894	1168
983.976	702
984.058	663
984.139	1724
984.221	-403
984.302	525
984.384	1185
984.465	161
984.547	879
984.628	-868
984.710	918
984.791	249
984.872	1081
984.954	114
985.035	525
985.116	-31
985.198	501
985.279	749
985.360	718
985.441	-123
985.522	1607
985.604	589
985.685	-284
985.766	1605
985.847	2258
985.928	-130
986.009	636
986.090	-270
986.171	2090
986.252	1172
986.333	1535
986.414	171
986.495	1340
986.576	584
986.656	1456
986.737	1188
986.818	1761
986.899	794
986.980	1588
987.060	940
987.141	1046
987.222	1100
987.302	1785
987.383	2703
987.464	1346
987.544	1744
987.625	1692
987.705	1952
987.786	2970
987.866	1252
987.947	1937
988.027	1750
988.108	1530
988.188	2415
988.268	1829
988.349	1875
988.429	2158
988.509	1454
988.589	1446
988.670	470
988.750	3169
988.830	1217
988.910	1969
988.990	1000
989.070	1622
989.151	703
989.231	-185
989.311	471
989.391	1142
989.471	902
989.551	699
989.631	14
989.711	2682
989.791	808
989.870	1495
989.950	1280
990.030	524
990.110	765
990.190	300
990.269	-111
990.349	1680
990.429	598
990.509	1596
990.588	-93
990.668	1486
990.747	335
990.827	256
990.907	-166
990.986	1228
991.066	787
991.145	636
991.225	953
991.304	505
991.383	812
991.463	653
991.542	693
991.622	252
991.701	112
991.780	-227
991.859	1204
991.939	365
992.018	523
992.097	1390
992.176	460
992.256	982
992.335	-95
992.414	941
992.493	-455
992.572	90
992.651	1674
992.730	38
992.809	407
992.888	-59
992.967	1091
993.046	1039
993.125	-824
993.203	-419
993.282	364
993.361	617
993.440	457
993.519	135
993.597	-82
993.676	772
993.755	762
993.834	357
993.912	-479
993.991	680
994.069	-633
994.148	682
994.226	-57
994.305	994
994.384	-299
994.462	738
994.540	-309
994.619	-242
994.697	-149
994.776	465
994.854	1095
994.932	-343
995.011	-143
995.089	-454
995.167	-122
995.245	-500
995.324	187
995.402	476
995.480	-781
995.558	6
995.636	-881
995.714	-113
995.792	446
995.870	-120
995.948	-797
996.026	-12
996.104	-1213
996.182	720
996.260	-1517
996.338	314
996.416	-1023
996.494	89
996.572	733
996.649	17
996.727	-1206
996.805	562
996.883	147
996.960	-146
997.038	-451
997.116	257
997.193	-1185
997.271	146
997.348	-975
997.426	-97
997.504	-1150
997.581	1086
997.658	116
997.736	-915
997.813	-1353
997.891	652
997.968	-977
998.046	-602
998.123	-1333
998.200	417
998.277	-707
998.355	-89
998.432	-1149
998.509	-522
998.586	32
998.663	255
998.741	-1247
998.818	-1035
998.895	-1299
998.972	210
999.049	-420
999.126	-511
999.203	-432
999.280	94
999.357	-619
999.434	-542
999.511	-105
999.587	-499
999.664	-1488
999.741	-616
999.818	-727
999.895	-485
999.971	-1221
1000.048	-337
1000.125	664
1000.202	-1190
1000.278	-1223
1000.355	189
1000.431	-1157
1000.508	-960
1000.584	-486
1000.661	-350
1000.738	-1021
1000.814	-667
1000.890	364
1000.967	-281
1001.043	-584
1001.120	-951
1001.196	-421
1001.272	-617
1001.349	-1234
1001.425	-478
1001.501	-1944
1001.577	-1232
1001.654	-1033
1001.730	-999
1001.806	-783
1001.882	-2350
1001.958	-282
1002.034	-362
1002.110	-1051
1002.186	-1394
1002.262	-1667
1002.338	-1034
1002.414	281
1002.490	-564
1002.566	-1324
1002.642	-1463
1002.718	-1157
1002.794	-658
1002.870	-1750
1002.945	-348
1003.021	-1513
1003.097	-1126
1003.173	-911
1003.248	-1599
1003.324	-1195
1003.400	-806
1003.475	-1031
1003.551	-922
1003.626	-1615
1003.702	-766
1003.777	-983
1003.853	-417
1003.928	-1757
1004.004	-1256
1004.079	-437
1004.155	-706
1004.230	-2180
1004.305	95
1004.381	-1999
1004.456	-431
1004.531	-1413
1004.607	-890
1004.682	-1549
1004.757	-551
1004.832	-1385
1004.907	-1515
1004.982	-345
1005.057	-534
1005.133	-1372
1005.208	-1680
1005.283	-2571
1005.358	132
1005.433	-1789
1005.508	-1001
1005.583	-2115
1005.657	-1504
1005.732	-968
1005.807	-2074
1005.882	-1676
1005.957	-1191
1006.032	-245
1006.106	-1190
1006.181	-2420
1006.256	-560
1006.331	-1484
1006.405	-753
1006.480	-1155
1006.554	-1645
1006.629	-1462
1006.704	-1454
1006.778	-1289
1006.853	-880
1006.927	-1599
1007.002	-1617
1007.076	-1837
1007.150	-787
1007.225	-2013
1007.299	-728
1007.373	-2127
1007.448	-754
1007.522	-1214
1007.596	-946
1007.671	-1307
1007.745	-733
1007.819	-2385
1007.893	-1928
1007.967	-850
1008.041	-1906
1008.115	-1321
1008.190	-1116
1008.264	-1323
1008.338	-1668
1008.412	-2024
1008.486	-935
1008.560	-2449
1008.633	-2325
1008.707	-1395
1008.781	-1515
1008.855	-1354
1008.929	-1266
1009.003	-1648
1009.076	-1434
1009.150	-1886
1009.224	-792
1009.298	-1049
1009.371	-2192
1009.445	-1757
1009.519	-1208
1009.592	-2023
1009.666	-882
1009.739	-2341
1009.813	-2093
1009.886	-1085
1009.960	-2090
1010.033	-1108
1010.107	-1647
1010.180	-2371
1010.253	-1906
1010.327	-1712
1010.400	-1619
1010.473	-1719
1010.547	-412
1010.620	-2033
1010.693	-749
1010.766	-1656
1010.840	-1301
1010.913	-1001
1010.986	-2395
1011.059	-1701
1011.132	-1144
1011.205	-1351
1011.278	-1406
1011.351	-1711
1011.424	-385
1011.497	-1679
1011.570	-1042
1011.643	-2307
1011.716	-1431
1011.789	-1515
1011.862	-867
1011.934	-1389
1012.007	-1669
1012.080	-1453
1012.153	-1479
1012.225	-1394
1012.298	-2289
1012.371	-1530
1012.443	-1065
1012.516	-2520
1012.588	-1026
1012.661	-1570
1012.733	-1596
1012.806	-1526
1012.879	-1810
1012.951	-1935
1013.023	-1579
1013.096	-1663
1013.168	-2200
1013.241	-1234
1013.313	-1191
1013.385	-1695
1013.458	-763
1013.530	-1642
1013.602	-1223
1013.674	-1300
1013.746	-2351
1013.819	-2045
1013.891	-333
1013.963	-2261
1014.035	-196
1014.107	-1495
1014.179	-115
1014.251	-2619
1014.323	-1049
1014.395	-2262
1014.467	-1499
1014.539	-1685
1014.611	-1648
1014.683	-1621
1014.754	-1410
1014.826	-2591
1014.898	-1077
1014.970	-2697
1015.042	-660
1015.113	-2029
1015.185	-1167
1015.257	-2335
1015.328	-1356
1015.400	-2660
1015.471	-1212
1015.543	-1836
1015.615	-1314
1015.686	-2156
1015.757	-2499
1015.829	-1385
1015.901	-1665
1015.972	-1571
1016.043	-1931
1016.115	-1724
1016.186	-1643
1016.257	-1760
1016.328	-1476
1016.400	-773
1016.471	-1993
1016.542	-1925
1016.613	-908
1016.685	-1858
1016.756	-2137
1016.827	-2371
1016.898	-1486
1016.969	-1737
1017.040	-1460
1017.111	-2972
1017.182	-2265
1017.253	-1234
1017.324	-1176
1017.395	-1937
1017.466	-1460
1017.537	-2102
1017.608	-1941
1017.678	-1915
1017.749	-1529
1017.820	-1631
1017.891	-1605
1017.961	-2216
1018.032	-1154
1018.103	-1671
1018.173	-1674
1018.244	-2035
1018.315	-1465
1018.385	-1419
1018.456	-1389
1018.526	-2526
1018.597	-876
1018.667	-2516
1018.738	-1211
1018.808	-1372
1018.878	-1165
1018.949	-1542
1019.019	-1511
1019.089	-2108
1019.160	-1431
1019.230	-2833
1019.300	-704
1019.371	-2522
1019.441	-1385
1019.511	-1665
1019.581	-2218
1019.651	-1316
1019.721	-1391
1019.791	-2135
1019.861	-1603
1019.931	-2069
1020.001	-1975
1020.071	-2587
1020.141	-1174
1020.211	-1937
1020.281	-1764
1020.351	-2166
1020.421	-2154
1020.491	-1523
1020.560	-2206
1020.630	-1849
1020.700	-1462
1020.770	-2316
1020.839	-899
1020.909	-2107
1020.979	-1589
1021.048	-1797
1021.118	-2399
1021.187	-1971
1021.257	-1061
1021.326	-1971
1021.396	-2376
1021.465	-2158
1021.535	-1713
1021.604	-2372
1021.674	-1924
1021.743	-1300
1021.812	-1902
1021.882	-1772
1021.951	-2526
1022.020	-889
1022.089	-1399
1022.159	-2449
1022.228	-1384
1022.297	-2058
1022.366	-1235
1022.435	-2239
1022.504	-1178
1022.573	-1604
1022.642	-1587
1022.711	-2812
1022.781	-1679
1022.849	-2138
1022.918	-2062
1022.987	-1701
1023.056	-1753
1023.125	-2070
1023.194	-849
1023.263	-1793
1023.331	-1295
1023.400	-2300
1023.469	-1655
1023.538	-2139
1023.606	-2012
1023.675	-2179
1023.744	-1452
1023.812	-2107
1023.881	-1339
1023.949	-2407
1024.018	-2183
1024.086	-2191
1024.155	-2253
1024.223	-1692
1024.292	-1310
1024.360	-1931
1024.429	-1931
1024.497	-1640
1024.565	-1062
1024.634	-1248
1024.702	-1191
1024.770	-2802
1024.838	-1574
1024.907	-2601
1024.975	-1669
1025.043	-2062
1025.111	-2483
1025.179	-2736
1025.247	-2056
1025.315	-2573
1025.383	-1309
1025.451	-1499
1025.519	-1645
1025.587	-2224
1025.655	-1371
1025.723	-2481
1025.791	-1630
1025.859	-1254
1025.927	-1448
1025.995	-2654
1026.062	-2208
1026.130	-2391
1026.198	-2144
1026.266	-2152
1026.333	-1917
1026.401	-1048
1026.469	-1382
1026.536	-1698
1026.604	-2809
1026.671	-2525
1026.739	-1849
1026.806	-1796
1026.874	-2460
1026.941	-2469
1027.009	-1451
1027.076	-2493
1027.144	-733
1027.211	-2128
1027.278	-1967
1027.345	-2157
1027.413	-2034
1027.480	-2002
1027.547	-2371
1027.614	-2155
1027.682	-1219
1027.749	-2344
1027.816	-2181
1027.883	-2182
1027.950	-1333
1028.017	-2589
1028.084	-1306
1028.151	-2777
1028.218	-1594
1028.285	-1971
1028.352	-1654
1028.419	-1904
1028.486	-1854
1028.553	-1513
1028.619	-1869
1028.686	-2181
1028.753	-1549
1028.820	-2452
1028.886	-1511
1028.953	-2213
1029.020	-1411
1029.086	-2253
1029.153	-1980
1029.220	-2581
1029.286	-1725
1029.353	-2023
1029.419	-1542
1029.486	-1972
1029.552	-2455
1029.619	-2170
1029.685	-1758
1029.751	-1907
1029.818	-776
1029.884	-3120
1029.951	-964
1030.017	-2359
1030.083	-1920
1030.149	-2567
1030.216	-1819
1030.282	-2409
1030.348	-1657
1030.414	-2404
1030.480	-1534
1030.546	-2168
1030.612	-1722
1030.678	-2746
1030.744	-2381
1030.810	-2233
1030.876	-1722
1030.942	-1821
1031.008	-2147
1031.074	-2498
1031.140	-2331
1031.206	-2170
1031.272	-1913
1031.337	-2212
1031.403	-1020
1031.469	-2543
1031.534	-1943
1031.600	-1267
1031.666	-2019
1031.731	-2519
1031.797	-1251
1031.863	-2137
1031.928	-2210
1031.994	-1727
1032.059	-1747
1032.125	-2248
1032.190	-1202
1032.256	-2119
1032.321	-1961
1032.386	-2026
1032.452	-1899
1032.517	-2124
1032.582	-1805
1032.647	-2251
1032.713	-1506
1032.778	-2527
1032.843	-2045
1032.908	-2688
1032.974	-2330
1033.039	-2031
1033.104	-1679
1033.169	-2212
1033.234	-1999
1033.299	-2278
1033.364	-2002
1033.429	-2524
1033.494	-1587
1033.559	-1972
1033.624	-2024
1033.688	-2042
1033.753	-1614
1033.818	-1976
1033.883	-2043
1033.948	-1703
1034.013	-1668
1034.077	-850
1034.142	-723
1034.207	-1010
1034.271	439
1034.336	1348
1034.400	-238
1034.465	-944
1034.530	-1258
1034.594	-2200
1034.658	-1417
1034.723	-2753
1034.787	-2119
1034.852	-2481
1034.916	-1008
1034.981	-1816
1035.045	-1835
1035.109	-2133
1035.173	-1443
1035.238	-2648
1035.302	-748
1035.366	-2519
1035.430	-2097
1035.495	-3065
1035.559	-1097
1035.623	-2090
1035.687	-1428
1035.751	-1751
1035.815	-2465
1035.879	-2431
1035.943	-1669
1036.007	-1838
1036.071	-1860
1036.135	-2223
1036.198	-938
1036.262	-2202
1036.326	-1448
1036.390	-2603
1036.454	-1255
1036.517	-1777
1036.581	-1170
1036.645	-2217
1036.709	-1646
1036.772	-3014
1036.836	-1418
1036.900	-1953
1036.963	-1477
1037.026	-2293
1037.090	-1336
1037.154	-1444
1037.217	-2176
1037.280	-2845
1037.344	-1619
1037.407	-2123
1037.471	-576
1037.534	-2928
1037.597	-1805
1037.661	-1832
1037.724	-1270
1037.787	-2705
1037.850	-1300
1037.913	-2111
1037.977	-632
1038.040	-1942
1038.103	-1282
1038.166	-2230
1038.229	-1724
1038.292	-2403
1038.355	-2462
1038.418	-2245
1038.481	-462
1038.544	-1607
1038.607	-1504
1038.670	-1833
1038.732	-1728
1038.795	-2395
1038.858	-1342
1038.921	-1637
1038.984	-849
1039.046	-2594
1039.109	-1757
1039.172	-1482
1039.234	-2007
1039.297	-1981
1039.360	-1982
1039.422	-2360
1039.485	-1456
1039.547	-2394
1039.610	-1369
1039.672	-2327
1039.734	-1147
1039.797	-2977
1039.859	-1686
1039.922	-2263
1039.984	-1122
1040.046	-1573
1040.109	-1302
1040.171	-2755
1040.233	-2298
1040.295	-2181
1040.358	-1889
1040.420	-2738
1040.482	-1797
1040.544	-1827
1040.606	-1404
1040.668	-2526
1040.730	-2079
1040.792	-2959
1040.854	-1720
1040.916	-1648
1040.978	-1800
1041.040	-1209
1041.102	-1578
1041.164	-1994
1041.225	-1608
1041.287	-1992
1041.349	-1162
1041.411	-1991
1041.472	-1948
1041.534	-1853
1041.596	-2618
1041.657	-1505
1041.719	-1123
1041.781	-1680
1041.842	-1289
1041.904	-1526
1041.965	-2215
1042.027	-1799
1042.088	-2299
1042.150	-1453
1042.211	-1581
1042.272	-2247
1042.334	-1658
1042.395	-2333
1042.456	-1977
1042.518	-1124
1042.579	-1450
1042.640	-1948
1042.701	-1829
1042.763	-2095
1042.824	-1855
1042.885	-1537
1042.946	-2494
1043.007	-1879
1043.068	-1681
1043.129	-1900
1043.190	-1497
1043.251	-2175
1043.312	-1418
1043.373	-1686
1043.434	-1714
1043.495	-2348
1043.556	-1069
1043.616	-2276
1043.677	-1536
1043.738	-1142
1043.799	-1651
1043.859	-1870
1043.920	-1224
1043.981	-2023
1044.041	-1236
1044.102	-1903
1044.162	-854
1044.223	-2714
1044.284	-1108
1044.344	-1304
1044.405	-2027
1044.465	-1838
1044.525	-1425
1044.586	-1926
1044.646	-1725
1044.707	-1771
1044.767	-1970
1044.827	-2122
1044.887	-1426
1044.948	-1522
1045.008	-1443
1045.068	-1933
1045.128	-1492
1045.188	-1522
1045.249	-1593
1045.309	-1676
1045.369	-1637
1045.429	-1477
1045.489	-1964
1045.549	-1484
1045.609	-372
1045.669	-1972
1045.729	-1000
1045.789	-1868
1045.848	-1308
1045.908	-2041
1045.968	-910
1046.028	-1196
1046.088	-1255
1046.147	-1785
1046.207	-1094
1046.267	-1470
1046.326	-1556
1046.386	-1689
1046.446	-1045
1046.505	-1611
1046.565	-441
1046.624	-1182
1046.684	-1122
1046.743	-966
1046.803	-695
1046.862	-19
1046.922	0
