'Start Wavelength	183.907
'End Wavelength	1046.922
'Gate Delay	5.000
'Gate Width (ms)	1.050
'Laser Output Level	0.000
'X Position	0.000
'Y Position	0.000
'Z Position	0.000
'Grid Point Number	1.000
'Shot Number	100.000
183.907	-244.000
183.977	-575.000
184.047	-495
184.116	84
184.186	-103
184.256	175
184.325	-532
184.395	442
184.465	98
184.534	201
184.604	-302
184.674	542
184.743	-246
184.813	1056
184.883	115
184.952	86
185.022	-249
185.092	287
185.161	-908
185.231	52
185.301	-621
185.370	1026
185.440	-237
185.509	147
185.579	374
185.649	61
185.718	542
185.788	111
185.857	18
185.927	238
185.996	-519
186.066	-230
186.136	-186
186.205	493
186.275	-127
186.344	131
186.414	-45
186.483	91
186.553	151
186.622	423
186.692	610
186.761	460
186.831	-416
186.900	-179
186.970	-495
187.039	-103
187.109	602
187.178	217
187.248	297
187.317	220
187.387	-167
187.456	149
187.526	-298
187.595	315
187.664	-236
187.734	89
187.803	331
187.873	958
187.942	-24
188.012	-15
188.081	-364
188.150	-179
188.220	777
188.289	-112
188.358	61
188.428	262
188.497	1157
188.567	212
188.636	-639
188.705	313
188.775	-172
188.844	-57
188.913	-182
188.983	-163
189.052	432
189.121	-183
189.191	207
189.260	-194
189.329	-124
189.399	75
189.468	-615
189.537	157
189.606	-404
189.676	8
189.745	562
189.814	187
189.883	-300
189.953	-608
190.022	-273
190.091	156
190.161	-79
190.230	179
190.299	530
190.368	-45
190.437	-465
190.507	70
190.576	-553
190.645	444
190.714	-502
190.783	-107
190.853	565
190.922	81
190.991	-61
191.060	-56
191.129	169
191.198	246
191.268	-231
191.337	112
191.406	74
191.475	159
191.544	478
191.613	265
191.682	-359
191.752	-161
191.821	-10
191.890	11
191.959	-412
192.028	-63
192.097	422
192.166	-344
192.235	-324
192.304	-1233
192.373	-271
192.442	16
192.511	-92
192.580	130
192.650	-546
192.719	-76
192.788	27
192.857	-184
192.926	160
192.995	413
193.064	-202
193.133	28
193.202	-182
193.271	-186
193.340	119
193.409	-721
193.478	241
193.547	372
193.615	343
193.684	-391
193.753	141
193.822	174
193.891	-57
193.960	307
194.029	-419
194.098	124
194.167	60
194.236	-505
194.305	-151
194.374	-115
194.443	126
194.512	605
194.580	-216
194.649	-225
194.718	-589
194.787	-287
194.856	-423
194.925	-126
194.994	-947
195.062	230
195.131	86
195.200	1091
195.269	-467
195.338	8
195.407	-266
195.475	-397
195.544	-137
195.613	562
195.682	191
195.751	185
195.819	-291
195.888	482
195.957	469
196.026	33
196.094	119
196.163	94
196.232	-296
196.301	-310
196.369	244
196.438	68
196.507	-86
196.576	-160
196.644	-154
196.713	351
196.782	-187
196.850	-103
196.919	-633
196.988	-51
197.056	-725
197.125	327
197.194	-178
197.262	-633
197.331	183
197.400	-216
197.468	304
197.537	295
197.606	-421
197.674	138
197.743	131
197.812	174
197.880	-48
197.949	-155
198.017	-788
198.086	311
198.155	332
198.223	-112
198.292	-303
198.360	192
198.429	-208
198.497	375
198.566	520
198.635	-341
198.703	-359
198.772	-493
198.840	-324
198.909	307
198.977	-273
199.046	185
199.114	145
199.183	287
199.251	-342
199.320	-492
199.388	-52
199.457	347
199.525	-350
199.594	580
199.662	-393
199.731	387
199.799	-532
199.867	-587
199.936	154
200.004	453
200.073	72
200.141	224
200.210	-458
200.278	-178
200.346	387
200.415	-1
200.483	358
200.552	98
200.620	-336
200.688	-21
200.757	-391
200.825	-106
200.893	-191
200.962	752
201.030	66
201.098	9
201.167	212
201.235	64
201.303	-756
201.372	471
201.440	-345
201.508	-176
201.577	-263
201.645	691
201.713	-723
201.781	-77
201.850	237
201.918	-168
201.986	-588
202.055	-424
202.123	-451
202.191	260
202.259	477
202.327	-141
202.396	-344
202.464	74
202.532	-340
202.600	487
202.669	-478
202.737	-197
202.805	-259
202.873	308
202.941	-531
203.009	-491
203.078	-234
203.146	-147
203.214	-393
203.282	123
203.350	22
203.418	202
203.487	-315
203.555	-134
203.623	-243
203.691	245
203.759	-197
203.827	-605
203.895	172
203.963	2
204.031	-149
204.099	-12
204.168	-420
204.236	214
204.304	-284
204.372	35
204.440	-432
204.508	-367
204.576	96
204.644	-751
204.712	-188
204.780	-4
204.848	-1029
204.916	-840
204.984	-636
205.052	-521
205.120	-299
205.188	95
205.256	-699
205.324	125
205.392	-123
205.460	-222
205.528	-158
205.596	-519
205.664	-574
205.732	-232
205.799	248
205.867	-366
205.935	-304
206.003	456
206.071	-949
206.139	156
206.207	453
206.275	-343
206.343	-814
206.411	-455
206.478	-410
206.546	-179
206.614	-373
206.682	-208
206.750	-374
206.818	231
206.885	-302
206.953	-364
207.021	87
207.089	173
207.157	-494
207.225	-91
207.292	-139
207.360	-87
207.428	-768
207.496	153
207.563	-205
207.631	-333
207.699	-477
207.767	-237
207.834	-594
207.902	-521
207.970	-237
208.038	218
208.105	60
208.173	241
208.241	-401
208.309	-1
208.376	-6
208.444	685
208.512	-260
208.579	-1192
208.647	252
208.715	221
208.782	-164
208.850	-536
208.918	-319
208.985	1
209.053	-682
209.120	-706
209.188	-290
209.256	395
209.323	-793
209.391	-805
209.459	474
209.526	349
209.594	1
209.661	413
209.729	-125
209.796	568
209.864	-13
209.932	-733
209.999	33
210.067	323
210.134	-181
210.202	-526
210.269	-348
210.337	-227
210.404	-484
210.472	-96
210.539	-304
210.607	120
210.674	-387
210.742	-538
210.809	-737
210.877	-344
210.944	-203
211.012	-169
211.079	-86
211.146	370
211.214	-826
211.281	-106
211.349	-16
211.416	-331
211.484	-19
211.551	-345
211.618	-188
211.686	256
211.753	-273
211.821	325
211.888	-656
211.955	21
212.023	-1409
212.090	-653
212.157	-483
212.225	-453
212.292	329
212.359	268
212.427	-169
212.494	-15
212.561	-276
212.629	140
212.696	-179
212.763	-143
212.831	-548
212.898	-248
212.965	-361
213.032	-140
213.100	-421
213.167	30
213.234	140
213.301	-116
213.369	-650
213.436	125
213.503	-252
213.570	200
213.638	-450
213.705	83
213.772	-948
213.839	112
213.906	-70
213.973	31
214.041	-588
214.108	298
214.175	-664
214.242	-292
214.309	154
214.376	-366
214.444	-684
214.511	-381
214.578	-547
214.645	248
214.712	-6
214.779	300
214.846	-216
214.913	-940
214.980	-216
215.048	327
215.115	-263
215.182	-374
215.249	-274
215.316	-553
215.383	-1275
215.450	-48
215.517	62
215.584	225
215.651	-445
215.718	-785
215.785	-910
215.852	-837
215.919	-1106
215.986	450
216.053	-365
216.120	-257
216.187	-65
216.254	-186
216.321	-72
216.388	-707
216.455	-1000
216.522	-432
216.589	201
216.656	-213
216.722	-347
216.789	-33
216.856	-407
216.923	-407
216.990	-349
217.057	-291
217.124	-441
217.191	-560
217.258	-531
217.324	-979
217.391	-283
217.458	297
217.525	-396
217.592	-270
217.659	-679
217.725	282
217.792	-547
217.859	-415
217.926	-712
217.993	-377
218.059	-316
218.126	-144
218.193	399
218.260	-369
218.327	-728
218.393	-391
218.460	-348
218.527	63
218.594	-998
218.660	-436
218.727	326
218.794	-91
218.860	-133
218.927	-353
218.994	-525
219.061	76
219.127	-440
219.194	-399
219.261	-15
219.327	-695
219.394	-520
219.461	-457
219.527	-337
219.594	-361
219.661	-102
219.727	-550
219.794	-464
219.860	109
219.927	-457
219.994	-60
220.060	117
220.127	795
220.193	573
220.260	402
220.326	-11
220.393	-346
220.460	-630
220.526	-246
220.593	385
220.659	297
220.726	-453
220.792	250
220.859	-219
220.925	149
220.992	150
221.058	498
221.125	281
221.191	106
221.258	-711
221.324	-36
221.391	-807
221.457	-353
221.524	-648
221.590	-481
221.657	-281
221.723	682
221.789	-808
221.856	-312
221.922	-304
221.989	-644
222.055	21
222.121	-470
222.188	199
222.254	192
222.321	-440
222.387	-353
222.453	-128
222.520	138
222.586	60
222.652	265
222.719	-621
222.785	-876
222.851	-31
222.918	-831
222.984	12
223.050	-591
223.116	-566
223.183	-251
223.249	-1147
223.315	-130
223.382	-12
223.448	-463
223.514	-655
223.580	-91
223.647	-539
223.713	-820
223.779	-442
223.845	-157
223.911	-812
223.978	-65
224.044	-557
224.110	-262
224.176	-377
224.242	63
224.309	-552
224.375	-671
224.441	-354
224.507	-219
224.573	171
224.639	-4
224.705	-844
224.772	97
224.838	-707
224.904	-239
224.970	-259
225.036	410
225.102	-294
225.168	-272
225.234	-185
225.300	-257
225.366	-484
225.432	-208
225.499	-330
225.565	17
225.631	-308
225.697	-259
225.763	-720
225.829	-181
225.895	-253
225.961	-24
226.027	-838
226.093	-337
226.159	-93
226.225	-147
226.291	555
226.357	642
226.423	-142
226.489	-470
226.554	-879
226.620	512
226.686	-389
226.752	-110
226.818	468
226.884	1292
226.950	555
227.016	446
227.082	-174
227.148	-420
227.214	41
227.279	-330
227.345	-670
227.411	33
227.477	791
227.543	1201
227.609	951
227.674	144
227.740	-464
227.806	-776
227.872	-299
227.938	-98
228.003	-27
228.069	-683
228.135	-663
228.201	-806
228.267	-242
228.332	-436
228.398	-207
228.464	-349
228.530	-444
228.595	128
228.661	-745
228.727	-309
228.792	-854
228.858	-651
228.924	-927
228.990	-322
229.055	-316
229.121	-142
229.187	-1189
229.252	-272
229.318	-1223
229.384	-539
229.449	-913
229.515	-1025
229.581	-969
229.646	452
229.712	99
229.777	-68
229.843	-735
229.909	-360
229.974	-1172
230.040	76
230.105	-818
230.171	-554
230.236	-726
230.302	-67
230.368	-476
230.433	-609
230.499	-903
230.564	26
230.630	-833
230.695	3
230.761	-653
230.826	-1225
230.892	-737
230.957	-517
231.023	-780
231.088	-896
231.154	-814
231.219	-236
231.284	217
231.350	-240
231.415	-1084
231.481	-168
231.546	-1260
231.612	-457
231.677	-1052
231.742	-834
231.808	-854
231.873	-428
231.939	-972
232.004	-671
232.069	-696
232.135	-535
232.200	-1153
232.265	-443
232.331	-392
232.396	-831
232.461	-1015
232.527	-576
232.592	-339
232.657	-459
232.723	-333
232.788	-1077
232.853	-352
232.918	-566
232.984	-942
233.049	-324
233.114	-498
233.179	237
233.245	-849
233.310	-835
233.375	-860
233.440	-324
233.506	-560
233.571	-1448
233.636	-164
233.701	-720
233.766	-557
233.832	-837
233.897	-758
233.962	-477
234.027	-634
234.092	-145
234.157	-1149
234.222	-395
234.288	-725
234.353	208
234.418	-359
234.483	-143
234.548	116
234.613	-402
234.678	-235
234.743	-756
234.808	-1245
234.873	-52
234.938	165
235.004	-627
235.069	-1224
235.134	-25
235.199	-665
235.264	-388
235.329	-1400
235.394	3
235.459	-905
235.524	-428
235.589	-772
235.654	-598
235.719	-1018
235.784	132
235.849	-200
235.913	-533
235.978	-880
236.043	-406
236.108	-544
236.173	-83
236.238	-1049
236.303	-340
236.368	-283
236.433	-455
236.498	-988
236.563	-267
236.627	-478
236.692	345
236.757	-35
236.822	-719
236.887	-309
236.952	-97
237.017	-707
237.081	-554
237.146	-566
237.211	-167
237.276	1556
237.341	1652
237.405	-584
237.470	-345
237.535	-517
237.600	334
237.664	-663
237.729	-1357
237.794	-24
237.859	-317
237.923	-702
237.988	-109
238.053	-739
238.118	-1318
238.182	-186
238.247	-488
238.312	-936
238.376	-153
238.441	-962
238.506	306
238.570	-1121
238.635	93
238.700	-704
238.764	-701
238.829	-425
238.893	-76
238.958	-417
239.023	-373
239.087	-1212
239.152	-423
239.216	-688
239.281	3
239.346	-1457
239.410	-42
239.475	-504
239.539	5
239.604	-865
239.668	34
239.733	-94
239.797	818
239.862	1766
239.926	675
239.991	-414
240.055	-1102
240.120	-982
240.184	-157
240.249	-910
240.313	-263
240.378	-524
240.442	-25
240.507	-918
240.571	157
240.635	-91
240.700	-392
240.764	-654
240.829	-541
240.893	-877
240.957	-327
241.022	-533
241.086	-45
241.151	-903
241.215	-856
241.279	-644
241.344	-660
241.408	-1310
241.472	-207
241.537	-167
241.601	-814
241.665	-1364
241.730	-634
241.794	-493
241.858	-424
241.922	-837
241.987	-338
242.051	-672
242.115	-531
242.179	-331
242.244	-1149
242.308	-597
242.372	-536
242.436	-978
242.501	-523
242.565	-900
242.629	-542
242.693	-1179
242.757	484
242.822	-476
242.886	-664
242.950	-221
243.014	-447
243.078	-415
243.142	-798
243.206	-715
243.271	-825
243.335	-581
243.399	-70
243.463	-82
243.527	797
243.591	-1135
243.655	-252
243.719	-570
243.783	-798
243.847	-605
243.911	-623
243.975	-478
244.040	-1165
244.104	-1218
244.168	-1373
244.232	-1016
244.296	-1038
244.360	-733
244.424	-736
244.488	-527
244.552	-152
244.615	-628
244.679	-835
244.743	-943
244.807	-1396
244.871	-459
244.935	-881
244.999	-1539
245.063	-357
245.127	-279
245.191	-854
245.255	-749
245.319	-618
245.383	-910
245.446	-49
245.510	-923
245.574	-120
245.638	-1335
245.702	-1277
245.766	-92
245.829	-857
245.893	-619
245.957	-820
246.021	-586
246.085	-693
246.149	-1211
246.212	-203
246.276	-1224
246.340	-469
246.404	-1139
246.467	-499
246.531	-1094
246.595	-320
246.659	-766
246.722	-208
246.786	-108
246.850	-577
246.913	-297
246.977	-677
247.041	-926
247.104	-735
247.168	-1600
247.232	111
247.295	-542
247.359	-13
247.423	-743
247.486	-861
247.550	-567
247.614	-742
247.677	-733
247.741	-407
247.804	-32
247.868	-1032
247.932	-843
247.995	570
248.059	-1251
248.122	-1423
248.186	-590
248.249	-618
248.313	-203
248.376	-168
248.440	-389
248.503	-885
248.567	-443
248.630	-614
248.694	-1413
248.757	-250
248.821	-276
248.884	902
248.948	-168
249.011	-262
249.075	54
249.138	197
249.202	-322
249.265	-502
249.328	-150
249.392	-617
249.455	-1001
249.519	-37
249.582	-1594
249.645	-822
249.709	-848
249.772	-425
249.835	-1279
249.899	-287
249.962	-649
250.025	-1194
250.089	-1074
250.152	-536
250.215	-478
250.279	-400
250.342	-512
250.405	-971
250.468	-1286
250.532	-66
250.595	-146
250.658	1677
250.721	1189
250.785	-1048
250.848	433
250.911	-886
250.974	-143
251.038	-390
251.101	-445
251.164	-1200
251.227	-447
251.290	72
251.354	-480
251.417	2216
251.480	277
251.543	1288
251.606	4636
251.669	1427
251.732	-156
251.795	34
251.859	200
251.922	2269
251.985	507
252.048	-226
252.111	-363
252.174	-483
252.237	-12
252.300	1104
252.363	1305
252.426	3172
252.489	-811
252.552	-492
252.615	-397
252.678	484
252.741	564
252.804	1306
252.867	2597
252.930	313
252.993	-724
253.056	731
253.119	-974
253.182	-565
253.245	-997
253.308	198
253.371	-915
253.434	-277
253.497	-642
253.559	715
253.622	-902
253.685	-392
253.748	-654
253.811	-955
253.874	-505
253.937	-1054
254.000	115
254.062	-720
254.125	-610
254.188	-572
254.251	-1069
254.314	-762
254.376	-1114
254.439	-179
254.502	-817
254.565	156
254.628	20
254.690	-1071
254.753	-626
254.816	-605
254.878	-404
254.941	-35
255.004	-419
255.067	-505
255.129	-1037
255.192	-312
255.255	-1723
255.317	35
255.380	-1278
255.443	-336
255.505	-1452
255.568	-684
255.631	-1029
255.693	107
255.756	-1098
255.819	-381
255.881	-621
255.944	-1231
256.006	-977
256.069	-1055
256.132	-1218
256.194	-972
256.257	-215
256.319	-558
256.382	-746
256.444	-242
256.507	-606
256.569	-946
256.632	-1158
256.694	-1011
256.757	218
256.819	1352
256.882	-543
256.944	-935
257.007	-165
257.069	-842
257.132	-76
257.194	19
257.257	-774
257.319	-1482
257.381	-708
257.444	-5
257.506	2237
257.569	1804
257.631	-698
257.693	-471
257.756	-334
257.818	-1180
257.880	-326
257.943	-461
258.005	-1132
258.067	-1364
258.130	-1280
258.192	-479
258.254	-912
258.317	-1640
258.379	-499
258.441	-514
258.503	-551
258.566	255
258.628	-754
258.690	-847
258.753	-287
258.815	-726
258.877	-717
258.939	-965
259.001	-545
259.064	-963
259.126	-2020
259.188	-309
259.250	-699
259.312	-594
259.375	-956
259.437	-829
259.499	-569
259.561	-1026
259.623	-854
259.685	-583
259.747	-1352
259.809	-751
259.872	-393
259.934	99
259.996	-400
260.058	-1623
260.120	-844
260.182	-485
260.244	-348
260.306	-821
260.368	-541
260.430	-681
260.492	-369
260.554	-321
260.616	-1042
260.678	-899
260.740	-1331
260.802	-821
260.864	-831
260.926	-871
260.988	-59
261.050	-785
261.112	-1342
261.174	-254
261.236	-362
261.298	-1146
261.359	-1421
261.421	-617
261.483	-661
261.545	-334
261.607	-1923
261.669	-1022
261.731	-716
261.793	-502
261.854	-1132
261.916	-163
261.978	-1113
262.040	-739
262.102	-52
262.164	-658
262.225	-808
262.287	-559
262.349	-636
262.411	-665
262.472	-917
262.534	-808
262.596	-1575
262.658	-639
262.719	-1021
262.781	-808
262.843	-955
262.904	-726
262.966	-1044
263.028	-1608
263.090	-48
263.151	170
263.213	-1088
263.275	-1194
263.336	-1443
263.398	-266
263.459	-1691
263.521	-400
263.583	-281
263.644	-906
263.706	-674
263.767	-1244
263.829	-664
263.891	-1667
263.952	-788
264.014	-741
264.075	-649
264.137	-352
264.198	-684
264.260	-794
264.321	-1010
264.383	-588
264.444	-110
264.506	-809
264.567	-1286
264.629	-483
264.690	-1509
264.752	-1111
264.813	-1013
264.875	-750
264.936	-541
264.998	-844
265.059	-770
265.120	-590
265.182	-916
265.243	-92
265.305	-796
265.366	-492
265.427	-480
265.489	-619
265.550	-1183
265.611	-966
265.673	-928
265.734	-487
265.795	-488
265.857	-758
265.918	-1078
265.979	-154
266.040	1494
266.102	248
266.163	-658
266.224	-446
266.286	-782
266.347	-992
266.408	-1146
266.469	-722
266.530	-928
266.592	-655
266.653	-1084
266.714	-539
266.775	-1040
266.836	-882
266.898	-1219
266.959	-1137
267.020	-709
267.081	-663
267.142	-1250
267.203	-887
267.264	-1125
267.326	-871
267.387	-898
267.448	-1641
267.509	-1428
267.570	-461
267.631	-1278
267.692	-1297
267.753	-1390
267.814	-1249
267.875	-474
267.936	-402
267.997	-1204
268.058	-372
268.119	-855
268.180	-1291
268.241	-1470
268.302	-618
268.363	-1223
268.424	-421
268.485	-1223
268.546	-1541
268.607	-1234
268.668	-862
268.729	-1757
268.790	-745
268.851	-1563
268.912	-724
268.972	-1073
269.033	-748
269.094	-1613
269.155	-690
269.216	-723
269.277	-1411
269.338	-1595
269.398	-1235
269.459	-2047
269.520	-392
269.581	-1590
269.642	-1032
269.702	-1686
269.763	-684
269.824	-951
269.885	-393
269.945	-983
270.006	-830
270.067	-1496
270.128	-1428
270.188	-1179
270.249	-1680
270.310	-1568
270.370	-304
270.431	-1397
270.492	-1512
270.553	-669
270.613	-795
270.674	-1059
270.734	-1389
270.795	-1208
270.856	46
270.916	-1595
270.977	-352
271.038	-836
271.098	-631
271.159	-1449
271.219	-1056
271.280	-617
271.340	-624
271.401	-1735
271.462	-522
271.522	-1167
271.583	-1269
271.643	-1640
271.704	-2182
271.764	-659
271.825	-911
271.885	25
271.946	139
272.006	-983
272.066	-357
272.127	153
272.187	-18
272.248	-592
272.308	17
272.369	-132
272.429	-987
272.489	-1099
272.550	-1209
272.610	-992
272.671	-480
272.731	-493
272.791	-1476
272.852	-549
272.912	-349
272.972	-770
273.033	-474
273.093	-2046
273.153	-750
273.214	-1017
273.274	-825
273.334	-834
273.394	-561
273.455	-1366
273.515	-292
273.575	-1211
273.635	-319
273.696	422
273.756	-416
273.816	-1010
273.876	-780
273.936	-559
273.997	-704
274.057	-1726
274.117	-1013
274.177	-1087
274.237	671
274.297	-536
274.358	-478
274.418	-671
274.478	-761
274.538	-787
274.598	-1080
274.658	-716
274.718	-1387
274.778	-765
274.838	-1011
274.898	-1178
274.958	-542
275.018	-908
275.078	-68
275.138	-1281
275.198	-1495
275.258	-1813
275.318	-1057
275.378	-1092
275.438	-445
275.498	-489
275.558	-122
275.618	-589
275.678	-1166
275.738	-484
275.798	-742
275.858	-605
275.918	-580
275.978	-433
276.038	-929
276.098	-1165
276.157	-734
276.217	-107
276.277	-110
276.337	-1555
276.397	-531
276.457	-1433
276.517	-596
276.576	-981
276.636	-1543
276.696	-1321
276.756	-567
276.815	-1360
276.875	-539
276.935	-650
276.995	-124
277.055	-1304
277.114	-576
277.174	-709
277.234	-1127
277.293	-915
277.353	-1145
277.413	-1197
277.472	-896
277.532	-846
277.592	-716
277.651	237
277.711	769
277.771	-1297
277.830	1572
277.890	-192
277.950	1349
278.009	2323
278.069	233
278.128	1109
278.188	245
278.248	-267
278.307	1217
278.367	-145
278.426	-1387
278.486	-1107
278.545	-944
278.605	-945
278.664	-735
278.724	-480
278.783	116
278.843	-513
278.902	-574
278.962	-939
279.021	-312
279.081	-327
279.140	-814
279.199	-1337
279.259	-1125
279.318	-839
279.378	-1062
279.437	-712
279.496	3591
279.556	15198
279.615	5765
279.675	-412
279.734	211
279.793	550
279.853	970
279.912	-252
279.971	25
280.031	-1660
280.090	2
280.149	82
280.208	1967
280.268	11119
280.327	5064
280.386	55
280.445	-42
280.505	-961
280.564	-147
280.623	-1195
280.682	-900
280.742	-397
280.801	-1019
280.860	-1492
280.919	-848
280.978	-1279
281.037	-852
281.097	-1227
281.156	-775
281.215	-1631
281.274	-330
281.333	264
281.392	-1657
281.451	-715
281.510	-438
281.569	-1631
281.628	-923
281.688	-912
281.747	-948
281.806	-491
281.865	-811
281.924	-1713
281.983	-516
282.042	-1596
282.101	-751
282.160	-900
282.219	-1362
282.278	-904
282.337	-635
282.396	-1177
282.454	-613
282.513	-1563
282.572	-954
282.631	-1337
282.690	-1387
282.749	-1721
282.808	-719
282.867	-1652
282.926	-1061
282.985	-856
283.043	-1892
283.102	-508
283.161	-834
283.220	-993
283.279	-1716
283.338	-727
283.396	-1281
283.455	-722
283.514	25
283.573	-1319
283.631	-238
283.690	-1109
283.749	-754
283.808	-982
283.866	-798
283.925	-1054
283.984	-485
284.043	-1195
284.101	-277
284.160	-1081
284.219	-157
284.277	-887
284.336	-877
284.395	-361
284.453	-507
284.512	-1273
284.570	-281
284.629	-139
284.688	-853
284.746	-282
284.805	-123
284.863	-1062
284.922	1029
284.981	286
285.039	1692
285.098	4032
285.156	10316
285.215	14120
285.273	12218
285.332	7191
285.390	3370
285.449	1586
285.507	879
285.566	88
285.624	-95
285.683	-32
285.741	-909
285.799	-700
285.858	-495
285.916	-930
285.975	-205
286.033	-1029
286.091	-1095
286.150	-1093
286.208	-860
286.267	-157
286.325	-1093
286.383	-1759
286.442	-1081
286.500	-1502
286.558	-385
286.616	-1411
286.675	-107
286.733	-888
286.791	-1189
286.850	-980
286.908	-1076
286.966	-1879
287.024	-220
287.083	-851
287.141	-100
287.199	-641
287.257	-920
287.315	-206
287.374	-618
287.432	-1138
287.490	-396
287.548	-850
287.606	-1211
287.664	-19
287.723	-577
287.781	-655
287.839	-1433
287.897	-1084
287.955	-996
288.013	-1061
288.071	73
288.129	4753
288.187	9977
288.245	2262
288.303	221
288.361	-367
288.419	-624
288.477	-613
288.535	-810
288.593	-1312
288.651	-816
288.709	-718
288.767	-569
288.825	-1346
288.883	-710
288.941	-881
288.999	-596
289.057	-1214
289.115	-1835
289.173	-1823
289.231	-218
289.289	-1422
289.346	-968
289.404	-1031
289.462	-929
289.520	-1463
289.578	-1125
289.636	-1588
289.694	-551
289.751	-1254
289.809	-656
289.867	-1462
289.925	-516
289.983	-950
290.040	-868
290.098	-770
290.156	-1043
290.214	-896
290.271	-519
290.329	-842
290.387	-631
290.444	-989
290.502	-1497
290.560	-169
290.617	-1300
290.675	-1039
290.733	-750
290.790	-495
290.848	-991
290.906	-841
290.963	-687
291.021	-923
291.078	-649
291.136	-1183
291.194	-903
291.251	-852
291.309	-637
291.366	-820
291.424	-1048
291.481	-550
291.539	-636
291.596	-1137
291.654	-766
291.711	-1730
291.769	-1440
291.826	-590
291.884	-356
291.941	-2106
291.999	-1910
292.056	-269
292.114	-1321
292.171	-1619
292.228	331
292.286	-268
292.343	-849
292.401	-766
292.458	-791
292.515	-1065
292.573	-575
292.630	-831
292.687	-747
292.745	-693
292.802	-1635
292.859	-273
292.917	-237
292.974	-958
293.031	-1062
293.089	-1084
293.146	-723
293.203	-942
293.260	-803
293.318	-921
293.375	-746
293.432	-1481
293.489	-519
293.546	-815
293.604	-1241
293.661	-691
293.718	20
293.775	-734
293.832	-612
293.889	-1394
293.947	-457
294.004	-1124
294.061	-595
294.118	-332
294.175	-613
294.232	73
294.289	-386
294.346	-759
294.403	-418
294.460	-426
294.517	-786
294.574	-764
294.631	-1097
294.688	-1150
294.745	-345
294.802	1013
294.859	-181
294.916	-320
294.973	-628
295.030	-1123
295.087	-742
295.144	-780
295.201	-594
295.258	-1244
295.315	-422
295.372	-839
295.429	88
295.486	-988
295.542	-1185
295.599	-316
295.656	158
295.713	122
295.770	-220
295.827	-1602
295.883	-20
295.940	-1520
295.997	-864
296.054	-1306
296.111	-744
296.167	-1555
296.224	-986
296.281	-448
296.338	-919
296.394	-964
296.451	-326
296.508	-688
296.564	-565
296.621	-601
296.678	949
296.734	124
296.791	-697
296.848	-1290
296.904	-1243
296.961	-951
297.018	157
297.074	-348
297.131	5
297.187	-634
297.244	-387
297.301	518
297.357	891
297.414	-653
297.470	-367
297.527	-1364
297.583	-275
297.640	-1028
297.696	-733
297.753	-1097
297.809	-694
297.866	-1349
297.922	-566
297.979	-1687
298.035	-1517
298.092	-487
298.148	-450
298.204	-1090
298.261	-424
298.317	425
298.374	1025
298.430	-999
298.486	-820
298.543	-1381
298.599	-304
298.656	-1180
298.712	-176
298.768	-351
298.824	-1009
298.881	-1563
298.937	-642
298.993	-876
299.050	-849
299.106	-464
299.162	-1112
299.218	-967
299.275	-1027
299.331	-993
299.387	-98
299.443	1783
299.500	3976
299.556	1575
299.612	350
299.668	531
299.724	3358
299.780	2360
299.837	512
299.893	608
299.949	2790
300.005	2385
300.061	2896
300.117	4171
300.173	1328
300.229	-191
300.285	-1013
300.341	-1112
300.397	109
300.453	-542
300.510	-776
300.566	-1045
300.622	1234
300.678	6266
300.734	4800
300.790	1833
300.845	1222
300.901	2389
300.957	3514
301.013	822
301.069	158
301.125	-994
301.181	-419
301.237	-893
301.293	-1133
301.349	-1279
301.405	-1026
301.461	-1305
301.516	-955
301.572	-852
301.628	-711
301.684	-797
301.740	-875
301.796	-682
301.851	-419
301.907	-1030
301.963	-220
302.019	1077
302.074	3315
302.130	2481
302.186	82
302.242	-994
302.297	-960
302.353	-1656
302.409	-240
302.464	-1171
302.520	-872
302.576	228
302.631	-588
302.687	-928
302.743	-495
302.798	-996
302.854	-879
302.910	-716
302.965	-950
303.021	-881
303.076	-325
303.132	-753
303.187	-449
303.243	-1502
303.299	-834
303.354	-969
303.410	-982
303.465	-1861
303.521	-54
303.576	-872
303.632	-1193
303.687	-547
303.743	303
303.798	-368
303.853	-812
303.909	-814
303.964	-340
304.020	-754
304.075	-1848
304.130	-1187
304.186	-585
304.241	-544
304.297	-472
304.352	-1135
304.358	-1118
304.407	-979
304.449	-490
304.463	-326
304.518	-126
304.539	-418
304.573	-892
304.629	-1186
304.630	-1170
304.684	-477
304.720	-30
304.739	185
304.794	440
304.811	252
304.850	-201
304.902	-603
304.905	-630
304.960	-263
304.992	-434
305.015	-583
305.071	-846
305.083	-814
305.126	-678
305.173	-825
305.181	-836
305.236	-959
305.264	-760
305.292	-607
305.347	-520
305.354	-502
305.402	-342
305.445	-734
305.457	-868
305.512	-842
305.535	-777
305.567	-610
305.622	-973
305.626	-937
305.678	-453
305.716	304
305.733	685
305.788	656
305.807	656
305.843	482
305.897	525
305.898	527
305.953	254
305.988	50
306.008	-96
306.063	-170
306.078	-222
306.118	-204
306.168	-357
306.173	-387
306.228	-682
306.259	-635
306.283	-545
306.338	-1069
306.349	-934
306.393	-344
306.440	-463
306.448	-478
306.503	-453
306.530	-314
306.558	-253
306.613	-744
306.620	-677
306.668	-45
306.711	404
306.723	454
306.778	-367
306.801	-124
306.833	316
306.888	-264
306.892	-272
306.943	-263
306.982	-124
306.997	-95
307.052	-193
307.072	-243
307.107	-384
307.162	-257
307.163	-261
307.217	-256
307.253	-155
307.272	-228
307.327	-874
307.343	-760
307.381	-139
307.434	-142
307.436	-154
307.491	125
307.524	156
307.546	240
307.600	543
307.614	487
307.655	12
307.704	-175
307.710	-150
307.765	-201
307.795	-2
307.819	127
307.874	201
307.885	119
307.929	-132
307.975	683
307.984	825
308.038	542
308.065	913
308.093	1831
308.148	4987
308.156	5826
308.202	11988
308.246	14161
308.257	13483
308.312	6831
308.336	4539
308.366	3031
308.421	1105
308.426	925
308.475	152
308.517	51
308.530	-2
308.585	-172
308.607	-283
308.639	-130
308.694	300
308.697	318
308.748	431
308.787	477
308.803	444
308.857	419
308.877	404
308.912	684
308.967	887
308.967	889
309.021	1262
309.058	1669
309.076	1866
309.130	2875
309.148	3373
309.185	6987
309.238	14705
309.239	14839
309.293	20458
309.328	20378
309.348	17020
309.402	7337
309.418	5100
309.457	3534
309.508	1907
309.511	1866
309.566	1855
309.598	1864
309.620	2107
309.674	2867
309.688	3064
309.729	2994
309.778	2706
309.783	2637
309.837	1259
309.868	818
309.892	963
309.946	1108
309.959	1190
310.001	1423
310.049	1646
310.055	1590
310.109	1110
310.139	722
310.163	683
310.218	816
310.229	800
310.272	703
310.319	594
310.326	556
310.381	417
310.409	337
310.435	524
310.489	792
310.499	854
310.543	753
310.589	454
310.598	442
310.652	641
310.679	665
310.706	663
310.760	636
310.769	603
310.814	400
310.859	296
310.868	291
310.923	198
310.948	218
310.977	401
311.031	739
311.038	763
311.085	505
311.128	198
311.139	192
311.193	371
311.218	351
311.247	277
311.301	260
311.308	242
311.356	249
311.398	317
311.410	368
311.464	499
311.488	630
311.518	664
311.572	568
311.578	559
311.626	262
311.668	-21
311.680	-32
311.734	-102
311.758	-139
311.788	121
311.842	658
311.847	708
311.896	486
311.937	279
311.950	367
312.004	752
312.027	926
312.058	1006
312.112	1125
312.117	1133
312.165	587
312.207	114
312.297	269
312.386	848
312.476	284
312.566	162
312.656	1026
312.745	-134
312.835	474
312.925	164
313.015	844
313.104	1267
313.194	221
313.284	914
313.374	1573
313.463	1689
313.553	1077
313.643	-1
313.732	823
313.822	848
313.912	1222
314.001	1129
314.091	504
314.180	1017
314.270	1118
314.360	570
314.449	1012
314.539	816
314.628	1080
314.718	1383
314.808	1646
314.897	917
314.987	1324
315.076	1296
315.166	1335
315.255	995
315.345	1376
315.434	615
315.524	1093
315.613	351
315.703	1434
315.792	2930
315.881	9481
315.971	5603
316.060	2602
316.150	1530
316.239	1775
316.328	971
316.418	1245
316.507	989
316.597	1146
316.686	1428
316.775	1604
316.865	1144
316.954	897
317.043	771
317.133	464
317.222	1222
317.311	1414
317.400	337
317.490	1452
317.579	718
317.668	1227
317.757	1448
317.847	3962
317.936	15622
318.025	8616
318.114	4092
318.203	2820
318.293	1068
318.382	1457
318.471	2423
318.560	2197
318.649	2654
318.738	1913
318.828	1125
318.917	423
319.006	982
319.095	1600
319.184	2398
319.273	2313
319.362	1374
319.451	856
319.540	-27
319.629	54
319.718	651
319.807	680
319.896	608
319.985	3032
320.074	2413
320.163	932
320.252	831
320.341	1019
320.430	592
320.519	955
320.608	1742
320.697	1206
320.786	373
320.875	1415
320.964	1242
321.053	1815
321.142	1604
321.230	2235
321.319	1933
321.408	3162
321.497	2981
321.586	2422
321.675	2244
321.764	2689
321.852	1295
321.941	1593
322.030	1924
322.119	2368
322.207	1928
322.296	3294
322.385	2339
322.474	3586
322.562	3648
322.651	3606
322.740	2027
322.829	2117
322.917	1549
323.006	1804
323.095	1494
323.183	1777
323.272	1055
323.361	1026
323.449	2671
323.538	1393
323.626	1249
323.715	1996
323.804	918
323.892	1441
323.981	922
324.069	1217
324.158	1200
324.246	1006
324.335	1138
324.424	502
324.512	487
324.601	719
324.689	620
324.778	1611
324.866	1100
324.954	981
325.043	258
325.131	592
325.220	1062
325.308	920
325.397	1247
325.485	1076
325.574	328
325.662	123
325.750	-228
325.839	522
325.927	585
326.015	-137
326.104	504
326.192	586
326.280	556
326.369	-152
326.457	292
326.545	259
326.634	-119
326.722	354
326.810	34
326.898	891
326.987	1386
327.075	916
327.163	1076
327.251	588
327.340	604
327.428	846
327.516	691
327.604	814
327.692	627
327.781	266
327.869	439
327.957	-15
328.045	245
328.133	669
328.221	-54
328.309	660
328.397	-277
328.485	897
328.574	850
328.662	2156
328.750	1098
328.838	270
328.926	151
329.014	1072
329.102	-436
329.190	1214
329.278	453
329.366	-52
329.454	-154
329.542	378
329.630	744
329.718	135
329.806	-416
329.893	552
329.981	172
330.069	34
330.157	92
330.245	245
330.333	905
330.421	-357
330.509	-461
330.597	499
330.684	478
330.772	872
330.860	-12
330.948	514
331.036	437
331.123	183
331.211	-220
331.299	1066
331.387	-27
331.475	1119
331.562	399
331.650	475
331.738	-57
331.825	416
331.913	-154
332.001	698
332.089	127
332.176	1037
332.264	1144
332.352	857
332.439	451
332.527	314
332.614	46
332.702	309
332.790	982
332.877	392
332.965	1084
333.052	411
333.140	-33
333.228	763
333.315	-35
333.403	915
333.490	746
333.578	810
333.665	1555
333.753	1055
333.840	316
333.928	409
334.015	904
334.103	1933
334.190	3475
334.278	3390
334.365	3433
334.452	3500
334.540	1798
334.627	1850
334.715	2365
334.802	3722
334.889	6738
334.977	11331
335.064	7284
335.151	2885
335.239	1657
335.326	1336
335.413	1912
335.501	3563
335.588	1441
335.675	1745
335.762	1755
335.850	2904
335.937	4466
336.024	6789
336.111	13243
336.199	14494
336.286	6417
336.373	3199
336.460	1509
336.547	1031
336.635	380
336.722	1322
336.809	215
336.896	1226
336.983	1245
337.070	2193
337.157	3837
337.245	2342
337.332	2024
337.419	1230
337.506	170
337.593	477
337.680	411
337.767	1843
337.854	984
337.941	436
338.028	-352
338.115	370
338.202	613
338.289	538
338.376	638
338.463	936
338.550	390
338.637	1705
338.724	805
338.811	1058
338.898	190
338.984	162
339.071	-360
339.158	1071
339.245	68
339.332	683
339.419	837
339.506	387
339.593	-180
339.679	501
339.766	-324
339.853	475
339.940	148
340.027	546
340.113	-72
340.200	406
340.287	269
340.374	345
340.460	-125
340.547	485
340.634	-208
340.720	378
340.807	-108
340.894	43
340.980	103
341.067	305
341.154	-15
341.240	171
341.327	-369
341.414	301
341.500	1142
341.587	546
341.674	-604
341.760	537
341.847	358
341.933	254
342.020	-136
342.106	678
342.193	-366
342.279	353
342.366	108
342.452	-710
342.539	322
342.625	81
342.712	238
342.798	757
342.885	360
342.971	-541
343.058	-217
343.144	158
343.230	223
343.317	462
343.403	-342
343.490	-49
343.576	52
343.662	207
343.749	213
343.835	586
343.921	222
344.008	2046
344.094	7357
344.180	2763
344.267	51
344.353	1464
344.439	1972
344.525	211
344.612	219
344.698	331
344.784	-82
344.870	-273
344.957	-741
345.043	656
345.129	101
345.215	39
345.301	-713
345.387	532
345.474	-411
345.560	317
345.646	-377
345.732	54
345.818	18
345.904	503
345.990	-100
346.076	243
346.162	-114
346.249	479
346.335	-226
346.421	458
346.507	-574
346.593	2281
346.679	-414
346.765	-102
346.851	1087
346.937	680
347.023	-267
347.108	552
347.194	-202
347.280	233
347.366	45
347.452	1920
347.538	4188
347.624	2673
347.710	1332
347.796	94
347.882	461
347.967	-481
348.053	110
348.139	-51
348.225	-508
348.311	56
348.397	-448
348.482	285
348.568	339
348.654	-10
348.740	1401
348.825	3934
348.911	1408
348.997	951
349.083	2609
349.168	466
349.254	-318
349.340	502
349.425	136
349.511	278
349.597	-145
349.682	392
349.768	823
349.854	311
349.939	23
350.025	-366
350.110	-156
350.196	-12
350.282	258
350.367	299
350.453	-534
350.538	280
350.624	315
350.709	221
350.795	-1257
350.880	-510
350.966	-250
351.051	528
351.137	-168
351.222	159
351.308	-629
351.393	654
351.479	-324
351.564	56
351.649	226
351.735	122
351.820	-424
351.906	-297
351.991	-826
352.076	15
352.162	585
352.247	509
352.332	-141
352.418	14
352.503	373
352.588	591
352.673	1306
352.759	193
352.844	-576
352.929	-43
353.014	-647
353.100	-271
353.185	-742
353.270	706
353.355	-122
353.441	63
353.526	-53
353.611	-266
353.696	-299
353.781	1049
353.866	-777
353.952	-131
354.037	-235
354.122	443
354.207	-331
354.292	869
354.377	5
354.462	-854
354.547	-285
354.632	-568
354.717	-62
354.802	163
354.887	39
354.972	-303
355.057	-948
355.142	65
355.227	-182
355.312	-385
355.397	-450
355.482	-240
355.567	-61
355.652	124
355.737	-478
355.822	318
355.907	1373
355.991	124
356.076	-41
356.161	-366
356.246	-19
356.331	-51
356.416	-21
356.501	2165
356.585	2733
356.670	1006
356.755	30
356.840	361
356.924	922
357.009	6238
357.094	3324
357.179	189
357.263	-292
357.348	600
357.433	65
357.517	144
357.602	-523
357.687	401
357.771	362
357.856	500
357.941	636
358.025	965
358.110	7136
358.195	5766
358.279	-312
358.364	44
358.448	-13
358.533	1759
358.617	1538
358.702	1244
358.787	-111
358.871	-60
358.956	-762
359.040	-145
359.125	403
359.209	918
359.294	-49
359.378	1640
359.462	586
359.547	426
359.631	321
359.716	41
359.800	224
359.885	617
359.969	-239
360.053	366
360.138	-154
360.222	264
360.306	-932
360.391	311
360.475	-109
360.559	1029
360.644	1063
360.728	498
360.812	401
360.896	4014
360.981	1788
361.065	836
361.149	587
361.233	-53
361.318	497
361.402	427
361.486	-64
361.570	989
361.654	229
361.739	210
361.823	1763
361.907	6148
361.991	1652
362.075	361
362.159	1281
362.243	3173
362.327	6226
362.411	14825
362.495	7621
362.580	3055
362.664	1749
362.748	2097
362.832	3029
362.916	6113
363.000	18466
363.084	36821
363.168	22526
363.252	6080
363.336	2238
363.420	2092
363.503	2509
363.587	4332
363.671	1153
363.755	1149
363.839	1259
363.923	1410
364.007	1568
364.091	2417
364.175	3052
364.258	10616
364.342	20827
364.426	46839
364.510	37169
364.594	10020
364.677	4277
364.761	4106
364.845	4588
364.929	1892
365.013	1272
365.096	328
365.180	708
365.264	974
365.347	3794
365.431	2814
365.515	298
365.598	38
365.682	458
365.766	-261
365.849	240
365.933	374
366.017	717
366.100	-384
366.184	343
366.267	377
366.351	-222
366.435	-521
366.518	143
366.602	1329
366.685	-109
366.769	163
366.852	1035
366.936	882
367.019	-557
367.103	-290
367.186	499
367.270	38
367.353	-27
367.436	600
367.520	69
367.603	281
367.687	93
367.770	-60
367.853	59
367.937	648
368.020	1718
368.104	638
368.187	205
368.270	584
368.353	-179
368.437	-95
368.520	825
368.603	898
368.687	59
368.770	1469
368.853	283
368.936	9
369.020	624
369.103	241
369.186	-650
369.269	-51
369.352	-458
369.436	474
369.519	-254
369.602	-465
369.685	125
369.768	419
369.851	365
369.934	139
370.018	210
370.101	-280
370.184	454
370.267	70
370.350	-116
370.433	357
370.516	1515
370.599	7264
370.682	2902
370.765	1302
370.848	1154
370.931	1424
371.014	1584
371.097	-827
371.180	148
371.263	358
371.346	10
371.429	617
371.511	-162
371.594	-411
371.677	453
371.760	776
371.843	356
371.926	1667
372.009	7068
372.091	3784
372.174	367
372.257	3291
372.340	1502
372.423	880
372.505	824
372.588	347
372.671	475
372.754	1800
372.836	2005
372.919	675
373.002	1815
373.085	1442
373.167	72
373.250	501
373.332	2453
373.415	3817
373.498	9055
373.580	5374
373.663	6712
373.746	14820
373.828	2929
373.911	620
373.993	357
374.076	1677
374.159	2731
374.241	575
374.324	1774
374.406	1113
374.489	1214
374.571	7064
374.654	4021
374.736	260
374.819	3040
374.901	6151
374.983	7912
375.066	2154
375.148	422
375.231	1157
375.313	3447
375.395	2045
375.478	992
375.560	873
375.643	1290
375.725	1458
375.807	3528
375.890	5276
375.972	756
376.054	292
376.136	702
376.219	282
376.301	432
376.383	3354
376.465	1201
376.548	1076
376.630	477
376.712	2068
376.794	1649
376.877	440
376.959	-322
377.041	-429
377.123	76
377.205	-75
377.287	-376
377.369	62
377.452	-254
377.534	516
377.616	-146
377.698	-428
377.780	-907
377.862	354
377.944	21
378.026	228
378.108	-1
378.190	-88
378.272	-102
378.354	26
378.436	-336
378.518	-129
378.600	-122
378.682	1301
378.764	247
378.846	1074
378.928	-265
379.010	-669
379.091	-384
379.173	-2
379.255	-224
379.337	670
379.419	-179
379.501	1158
379.583	956
379.664	264
379.746	-320
379.828	827
379.910	870
379.991	1057
380.073	-395
380.155	487
380.237	101
380.318	-157
380.400	-439
380.482	-1
380.564	627
380.645	-232
380.727	-97
380.809	692
380.890	-465
380.972	-567
381.053	-40
381.135	-172
381.217	90
381.298	626
381.380	515
381.461	855
381.543	1323
381.624	4253
381.706	763
381.787	905
381.869	615
381.951	315
382.032	5175
382.113	6600
382.195	-141
382.276	74
382.358	207
382.439	2349
382.521	3047
382.602	6753
382.684	3532
382.765	2882
382.846	4771
382.928	10867
383.009	8262
383.090	3226
383.172	10826
383.253	26519
383.334	10324
383.416	5498
383.497	4099
383.578	1438
383.659	2555
383.741	7716
383.822	33605
383.903	27433
383.984	4839
384.066	5819
384.147	3428
384.228	1688
384.309	850
384.390	1466
384.471	934
384.553	1015
384.634	545
384.715	1255
384.796	427
384.877	1161
384.958	854
385.039	1367
385.120	-75
385.201	1028
385.282	155
385.363	656
385.444	-30
385.525	829
385.606	1962
385.687	3800
385.768	1122
385.849	568
385.930	2424
386.011	7281
386.092	2316
386.173	1402
386.254	343
386.335	389
386.416	656
386.496	509
386.577	1843
386.658	880
386.739	898
386.820	1060
386.901	-285
386.981	1128
387.062	1245
387.143	1467
387.224	1333
387.304	3504
387.385	2109
387.466	1220
387.547	2380
387.627	2450
387.708	1689
387.789	2743
387.869	4669
387.950	2054
388.031	741
388.111	-361
388.192	1227
388.273	1928
388.353	1039
388.434	980
388.514	646
388.595	2585
388.676	3804
388.756	2142
388.837	1342
388.917	616
388.998	218
389.078	905
389.159	101
389.239	-165
389.320	513
389.400	-517
389.480	-30
389.561	565
389.641	1616
389.722	681
389.802	-429
389.883	538
389.963	1996
390.043	1229
390.124	-243
390.204	891
390.284	579
390.365	604
390.445	-207
390.525	1994
390.605	2116
390.686	772
390.766	743
390.846	685
390.927	94
391.007	-211
391.087	959
391.167	278
391.247	60
391.328	1402
391.408	438
391.488	1123
391.568	435
391.648	58
391.728	296
391.808	1642
391.888	592
391.969	581
392.049	1419
392.129	1711
392.209	1315
392.289	2565
392.369	2019
392.449	2117
392.529	1972
392.609	2977
392.689	2845
392.769	3374
392.849	5567
392.929	6278
393.009	8206
393.089	11527
393.169	18595
393.248	39111
393.328	97234
393.408	134004
393.488	76008
393.568	29795
393.648	14671
393.728	8913
393.807	5796
393.887	5191
393.967	3593
394.047	2476
394.127	1513
394.206	2940
394.286	3090
394.366	14778
394.446	30761
394.525	10192
394.605	2257
394.685	1903
394.764	1519
394.844	2806
394.924	5642
395.003	3063
395.083	1096
395.163	1817
395.242	828
395.322	1439
395.402	264
395.481	1497
395.561	892
395.640	3566
395.720	12009
395.799	9760
395.879	3915
395.958	2439
396.038	3783
396.117	19721
396.197	39310
396.276	13580
396.356	4384
396.435	3566
396.515	4682
396.594	7479
396.673	12346
396.753	32706
396.832	92075
396.912	102137
396.991	38768
397.070	14975
397.150	6976
397.229	5791
397.308	6724
397.388	18518
397.467	13357
397.546	3772
397.625	944
397.705	2760
397.784	764
397.863	1684
397.942	858
398.022	1311
398.101	222
398.180	2336
398.259	2153
398.338	1223
398.417	165
398.497	94
398.576	647
398.655	343
398.734	533
398.813	-32
398.892	860
398.971	1871
399.050	1330
399.129	-146
399.208	39
399.287	560
399.366	179
399.445	323
399.524	307
399.603	8
399.682	453
399.761	347
399.840	1797
399.919	2334
399.998	-247
400.077	31
400.156	-1086
400.235	1361
400.313	-205
400.392	260
400.471	406
400.550	269
400.629	192
400.708	370
400.786	-269
400.865	-170
400.944	-471
401.023	924
401.102	62
401.180	-140
401.259	-202
401.338	583
401.416	-309
401.495	-4
401.574	22
401.652	-265
401.731	-39
401.810	150
401.888	55
401.967	-216
402.046	-363
402.124	178
402.203	-226
402.281	2
402.360	-1005
402.438	-250
402.517	-469
402.596	48
402.674	-760
402.753	-405
402.831	129
402.910	-695
402.988	-971
403.066	151
403.145	162
403.223	420
403.302	-40
403.380	-54
403.459	-286
403.537	352
403.615	407
403.694	-185
403.772	-266
403.850	-241
403.929	87
404.007	-439
404.085	110
404.164	500
404.242	-480
404.320	343
404.398	1249
404.477	1984
404.555	2440
404.633	4477
404.711	2127
404.789	1534
404.868	34
404.946	-557
405.024	-194
405.102	-872
405.180	-561
405.258	-476
405.336	-336
405.415	-119
405.493	-203
405.571	-78
405.649	-849
405.727	-563
405.805	230
405.883	-87
405.961	-768
406.039	-711
406.117	-1502
406.195	116
406.273	-1478
406.351	2050
406.429	1844
406.507	-92
406.585	-656
406.663	-64
406.740	-799
406.818	-806
406.896	-743
406.974	24
407.052	-589
407.130	542
407.208	1574
407.285	108
407.363	-579
407.441	374
407.519	-961
407.596	-490
407.674	-172
407.752	2265
407.830	4694
407.907	1280
407.985	-1020
408.063	84
408.141	-1081
408.218	-68
408.296	-897
408.373	-316
408.451	-670
408.529	-316
408.606	-754
408.684	-71
408.762	-48
408.839	-19
408.917	-629
408.994	229
409.072	-210
409.149	612
409.227	284
409.304	1971
409.382	2463
409.459	2642
409.537	3493
409.614	4054
409.692	2022
409.769	2152
409.846	3516
409.924	6210
410.001	4096
410.079	2881
410.156	1589
410.233	1041
410.311	609
410.388	375
410.465	333
410.543	747
410.620	395
410.697	761
410.775	228
410.852	187
410.929	606
411.006	699
411.083	346
411.161	64
411.238	-95
411.315	-9
411.392	-237
411.469	183
411.547	-5
411.624	-304
411.701	-553
411.778	-197
411.855	-870
411.932	-869
412.009	-661
412.086	-460
412.163	-421
412.240	-446
412.317	-271
412.394	-482
412.471	-440
412.548	466
412.625	-752
412.702	-323
412.779	-386
412.856	-692
412.933	-1013
413.010	-417
413.087	-156
413.164	-326
413.241	215
413.318	-1705
413.395	-21
413.471	-1308
413.548	-491
413.625	150
413.702	-701
413.779	60
413.855	-815
413.932	-497
414.009	-1468
414.086	-201
414.162	-843
414.239	413
414.316	-695
414.393	595
414.469	-667
414.546	-980
414.623	-245
414.699	-763
414.776	-1285
414.853	-1117
414.929	-591
415.006	-761
415.082	-902
415.159	-383
415.236	-385
415.312	-959
415.389	224
415.465	-475
415.542	-790
415.618	-1154
415.695	-333
415.771	-362
415.848	-971
415.924	-629
416.000	-659
416.077	-756
416.153	-1455
416.230	-1123
416.306	-1431
416.383	-702
416.459	-982
416.535	-1064
416.612	-787
416.688	-564
416.764	-1162
416.841	-464
416.917	-551
416.993	-435
417.069	-798
417.146	-904
417.222	-786
417.298	-796
417.374	-271
417.451	-806
417.527	-1828
417.603	-1780
417.679	-1162
417.755	-605
417.831	-1501
417.908	360
417.984	-792
418.060	-1259
418.136	-694
418.212	-405
418.288	-788
418.364	106
418.440	-1469
418.516	-203
418.592	-130
418.668	-373
418.744	-363
418.820	-47
418.896	-1580
418.972	-364
419.048	-1280
419.124	-452
419.200	-1687
419.276	-553
419.352	-1405
419.428	-659
419.504	-1560
419.579	420
419.655	-466
419.731	-554
419.807	-91
419.883	-433
419.959	-540
420.034	-328
420.110	-1451
420.186	285
420.262	471
420.337	524
420.413	-757
420.489	261
420.565	80
420.640	-277
420.716	-30
420.792	-534
420.867	510
420.943	501
421.019	362
421.094	808
421.170	522
421.245	375
421.321	1146
421.397	782
421.472	2086
421.548	3053
421.623	4409
421.699	2977
421.774	2659
421.850	2187
421.925	3224
422.001	4353
422.076	5859
422.152	6778
422.227	9325
422.302	13844
422.378	18468
422.453	26706
422.529	41814
422.604	57849
422.679	56429
422.755	54808
422.830	57878
422.905	42081
422.981	27351
423.056	19704
423.131	14960
423.207	11431
423.282	8860
423.357	6707
423.432	4783
423.508	4634
423.583	3378
423.658	3328
423.733	2501
423.808	2630
423.883	1887
423.959	2645
424.034	1753
424.109	2537
424.184	1235
424.259	811
424.334	200
424.409	1034
424.484	14
424.559	528
424.634	-180
424.709	398
424.784	402
424.859	204
424.934	71
425.009	377
425.084	237
425.159	-510
425.234	358
425.309	147
425.384	-112
425.459	-370
425.534	-850
425.609	-212
425.683	-398
425.758	-844
425.833	-579
425.908	246
425.983	-618
426.058	585
426.132	-138
426.207	130
426.282	341
426.357	-530
426.431	-217
426.506	362
426.581	-398
426.655	111
426.730	-1274
426.805	-689
426.879	-750
426.954	-516
427.029	-1269
427.103	-376
427.178	292
427.253	1186
427.327	-433
427.402	-284
427.476	-576
427.551	-580
427.625	-859
427.700	-130
427.774	-177
427.849	-326
427.923	-529
427.998	-434
428.072	-746
428.147	397
428.221	2097
428.296	16696
428.370	21157
428.444	3643
428.519	-634
428.593	-130
428.667	-267
428.742	524
428.816	-31
428.890	6003
428.965	23540
429.039	12734
429.113	1771
429.188	-265
429.262	-576
429.336	-932
429.410	-346
429.485	-451
429.559	-576
429.633	-287
429.707	1
429.781	714
429.855	5252
429.930	21898
430.004	10359
430.078	2550
430.152	4603
430.226	19163
430.300	38007
430.374	15134
430.448	2140
430.522	1160
430.596	1141
430.670	2857
430.744	8393
430.818	25323
430.892	9417
430.966	239
431.040	-102
431.114	-1041
431.188	-811
431.262	-405
431.336	-1279
431.410	-210
431.484	-1286
431.557	429
431.631	-1248
431.705	-270
431.779	1530
431.853	14454
431.927	23324
432.000	5025
432.074	-192
432.148	1
432.222	-852
432.295	-785
432.369	-892
432.443	-900
432.516	-407
432.590	1416
432.664	1026
432.737	-1194
432.811	-857
432.885	-845
432.958	-917
433.032	-767
433.106	-932
433.179	-922
433.253	-1109
433.326	-1384
433.400	-1508
433.473	-254
433.547	-2085
433.620	-477
433.694	-1911
433.767	-381
433.841	-1258
433.914	-453
433.988	-886
434.061	-618
434.134	-657
434.208	-1430
434.281	-1421
434.355	-1205
434.428	-1076
434.501	-849
434.575	-1310
434.648	-994
434.721	-1352
434.795	-921
434.868	-905
434.941	-1134
435.014	-1085
435.088	-809
435.161	-686
435.234	-79
435.307	-594
435.381	214
435.454	-92
435.527	1768
435.600	2556
435.673	2012
435.746	893
435.819	562
435.892	134
435.966	-222
436.039	-1711
436.112	126
436.185	-464
436.258	-502
436.331	-1904
436.404	-1115
436.477	-1072
436.550	-958
436.623	-803
436.696	-944
436.769	-725
436.842	-744
436.915	-658
436.987	-1598
437.060	-1178
437.133	-730
437.206	-1235
437.279	-628
437.352	-840
437.425	-1370
437.498	-637
437.570	-629
437.643	-1070
437.716	-672
437.789	-659
437.861	-1689
437.934	-1383
438.007	-159
438.080	-1087
438.152	-368
438.225	-817
438.298	-980
438.370	1862
438.443	3131
438.516	-131
438.588	-607
438.661	-877
438.734	-138
438.806	-864
438.879	-814
438.951	-1347
439.024	-457
439.096	-1800
439.169	-789
439.241	-769
439.314	-755
439.386	-809
439.459	-709
439.531	-982
439.604	-1392
439.676	-707
439.749	-577
439.821	-1137
439.893	-409
439.966	-577
440.038	-1116
440.110	-1284
440.183	-1059
440.255	-2011
440.327	155
440.400	-1102
440.472	165
440.544	1242
440.617	-683
440.689	-953
440.761	-1218
440.833	-1091
440.905	-521
440.978	-1449
441.050	-582
441.122	-742
441.194	-1609
441.266	-1575
441.338	-899
441.411	-526
441.483	-546
441.555	-15
441.627	-437
441.699	-732
441.771	-704
441.843	-946
441.915	-345
441.987	-916
442.059	-1068
442.131	-200
442.203	669
442.275	-285
442.347	1220
442.419	2039
442.491	7638
442.563	33662
442.635	32739
442.706	7696
442.778	2706
442.850	174
442.922	-497
442.994	364
443.066	-39
443.137	125
443.209	1015
443.281	959
443.353	3947
443.425	11018
443.496	39987
443.568	70373
443.640	50300
443.711	14684
443.783	3663
443.855	1174
443.926	702
443.998	-183
444.070	327
444.141	-253
444.213	372
444.285	71
444.356	-766
444.428	-234
444.499	-35
444.571	-543
444.642	585
444.714	-879
444.785	-195
444.857	-123
444.928	-138
445.000	572
445.071	1406
445.143	949
445.214	1798
445.285	3272
445.357	7086
445.428	23257
445.500	64514
445.571	69817
445.642	56071
445.714	28436
445.785	9519
445.856	2541
445.928	1595
445.999	425
446.070	-176
446.141	-28
446.213	175
446.284	-877
446.355	548
446.426	-1293
446.497	-553
446.569	-464
446.640	-1163
446.711	-666
446.782	-756
446.853	-1459
446.924	-897
446.995	-1202
447.066	-578
447.138	-976
447.209	-202
447.280	-1129
447.351	-630
447.422	-1515
447.493	-811
447.564	-853
447.635	-1675
447.706	-1150
447.777	-1570
447.847	-944
447.918	-1072
447.989	-1163
448.060	-230
448.131	-1477
448.202	-1072
448.273	-776
448.344	-1240
448.414	-725
448.485	-1111
448.556	-1171
448.627	-1165
448.698	-92
448.768	-1072
448.839	-1566
448.910	-1350
448.981	-1246
449.051	-224
449.122	-1458
449.193	-1220
449.263	-432
449.334	-855
449.405	-1138
449.475	-820
449.546	-1044
449.616	-150
449.687	-842
449.758	-947
449.828	-1983
449.899	-1339
449.969	-934
450.040	-1331
450.110	-426
450.181	-1586
450.251	-1710
450.322	-853
450.392	-382
450.463	-938
450.533	-769
450.604	-806
450.674	-1507
450.744	-968
450.815	-1331
450.885	-1381
450.955	-1543
451.026	-852
451.096	-1356
451.166	-722
451.237	-791
451.307	-857
451.377	-230
451.447	-1125
451.518	-1106
451.588	-718
451.658	-1006
451.728	-534
451.799	-962
451.869	-63
451.939	-743
452.009	-172
452.079	-1965
452.149	-556
452.219	-1542
452.289	-715
452.360	-872
452.430	-178
452.500	-816
452.570	37
452.640	-42
452.710	3781
452.780	8554
452.850	6381
452.920	1499
452.990	1634
453.060	-88
453.129	-1162
453.199	-710
453.269	-98
453.339	786
453.409	1673
453.479	992
453.549	1446
453.619	1823
453.688	1015
453.758	-459
453.828	-1172
453.898	-941
453.968	-836
454.037	-434
454.087	-932
454.107	-1143
454.168	-887
454.177	-861
454.247	-915
454.249	-905
454.316	-864
454.330	-902
454.386	-1119
454.411	-1029
454.456	-929
454.492	-817
454.525	-709
454.574	-742
454.595	-779
454.655	-933
454.665	-971
454.734	-879
454.736	-858
454.804	-290
454.817	-365
454.873	-771
454.898	-522
454.943	-160
454.979	-291
455.013	-360
455.060	-347
455.082	-375
455.141	-828
455.152	-916
455.221	-435
455.222	-423
455.291	-443
455.303	-368
455.360	-152
455.384	186
455.430	677
455.465	838
455.499	956
455.546	209
455.569	-113
455.627	-33
455.638	-41
455.707	-534
455.708	-525
455.777	-370
455.789	-404
455.846	-684
455.869	-560
455.916	-261
455.950	-609
455.985	-1039
456.031	-443
456.054	-160
456.112	-573
456.124	-641
456.193	-388
456.193	-397
456.262	-781
456.274	-727
456.332	-265
456.355	-334
456.401	-675
456.436	-425
456.470	-105
456.516	-182
456.540	-291
456.597	-350
456.609	-367
456.678	-141
456.678	-148
456.747	79
456.759	-13
456.817	-558
456.840	-539
456.886	-531
456.920	-495
456.955	-508
457.001	-304
457.024	-162
457.082	-149
457.093	-154
457.162	182
457.163	191
457.232	-234
457.243	-74
457.301	496
457.324	367
457.370	315
457.405	111
457.439	-74
457.485	405
457.508	565
457.566	653
457.577	708
457.646	1694
457.647	1714
457.715	4637
457.727	5103
457.784	10429
457.808	13858
457.853	17466
457.889	22558
457.922	21995
457.969	16323
457.991	18029
458.050	18292
458.060	19012
458.129	30820
458.130	31353
458.198	32537
458.211	31277
458.267	23754
458.292	16463
458.336	10084
458.372	7776
458.405	8317
458.453	11278
458.474	15653
458.533	30805
458.543	32242
458.611	50367
458.614	51245
458.680	38262
458.694	31406
458.749	19046
458.775	12810
458.818	6043
458.855	4235
458.887	2868
458.936	2187
458.955	2009
459.016	1454
459.024	1410
459.093	1774
459.097	1742
459.162	819
459.177	860
459.230	1162
459.257	1199
459.299	1177
459.338	958
459.368	776
459.418	537
459.437	461
459.499	429
459.505	443
459.574	670
459.579	731
459.643	1110
459.659	1060
459.711	1011
459.740	1026
459.780	1007
459.820	1005
459.849	949
459.900	935
459.917	999
459.981	1020
459.986	1004
460.054	1072
460.061	1064
460.123	770
460.141	707
460.191	796
460.222	989
460.260	1415
460.302	1757
460.328	1677
460.382	1593
460.397	1659
460.462	1537
460.465	1536
460.534	1926
460.543	1980
460.602	6425
460.623	8182
460.671	15513
460.703	20886
460.739	18328
460.783	16556
460.808	14395
460.864	4811
460.876	4366
460.944	1236
460.945	1204
461.013	998
461.024	995
461.081	738
461.104	795
461.150	958
461.184	778
461.218	585
461.264	829
461.286	973
461.345	822
461.355	790
461.423	984
461.425	984
461.491	857
461.505	871
461.559	867
461.585	887
461.628	1278
461.665	1553
461.696	1565
461.745	1721
461.764	1708
461.825	1320
461.832	1276
461.901	949
461.905	934
461.969	1260
461.985	1317
462.037	1307
462.065	1318
462.105	1062
462.145	873
462.173	1094
462.225	1457
462.241	1391
462.305	1142
462.310	1165
462.378	1547
462.385	1582
462.446	1619
462.465	1653
462.514	1402
462.545	1253
462.582	1376
462.625	1417
462.650	1339
462.705	1229
462.718	1214
462.785	1324
462.786	1327
462.854	1187
462.865	1161
462.922	1175
462.945	1175
462.990	1086
463.025	1032
463.058	1283
463.104	1618
463.126	1498
463.184	1408
463.194	1408
463.262	894
463.264	904
463.330	1543
463.344	1511
463.398	1498
463.424	1515
463.466	1386
463.504	1492
463.533	1327
463.583	843
463.601	961
463.663	1313
463.669	1328
463.737	1733
463.743	1745
463.805	1649
463.823	1654
463.873	1774
463.903	1854
463.940	1892
463.982	1947
464.008	1765
464.062	1106
464.076	1103
464.142	1397
464.144	1410
464.211	1701
464.221	1719
464.279	1437
464.301	1373
464.347	1668
464.381	1908
464.414	1442
464.461	744
464.482	1048
464.540	1871
464.550	1812
464.617	1111
464.620	1098
464.685	1885
464.699	2002
464.753	2227
464.779	2329
464.820	2736
464.859	3132
464.888	2665
464.938	1872
464.956	1957
465.018	2177
465.023	2159
465.091	1998
465.098	1955
465.158	1899
465.177	1895
465.226	1945
465.257	2029
465.293	1806
465.336	1453
465.361	1621
465.416	1882
465.428	1946
465.495	2614
465.496	2614
465.563	1422
465.575	1279
465.631	2397
465.654	2845
465.698	2240
465.734	1693
465.765	1831
465.813	1981
465.833	1944
465.893	1925
465.900	1962
465.968	2136
465.972	2145
466.035	1979
466.052	1932
466.102	2066
466.131	2130
466.170	2170
466.210	2206
466.237	2017
466.290	1587
466.304	1779
466.369	2657
466.372	2649
466.439	2183
466.449	2111
466.506	2238
466.528	2283
466.573	2344
466.607	2350
466.641	2805
466.687	3493
466.708	3652
466.766	4027
466.775	3843
466.842	2387
466.845	2312
466.909	2367
466.925	2380
466.977	2526
467.004	2602
467.044	2850
467.083	3082
467.111	3081
467.163	3052
467.178	3047
467.242	3010
467.245	2999
467.312	2676
467.321	2629
467.379	3166
467.400	3352
467.446	3481
467.480	3564
467.559	2798
467.638	2368
467.717	2596
467.796	3320
467.875	3165
467.955	3082
468.034	3506
468.113	5413
468.192	6386
468.271	5706
468.350	7376
468.429	10400
468.508	12660
468.588	8503
468.667	4988
468.746	4045
468.825	3379
468.904	3338
468.983	3384
469.062	2967
469.141	2924
469.220	2710
469.299	2995
469.378	2273
469.456	3741
469.535	2742
469.614	3450
469.693	2484
469.772	3991
469.851	3240
469.930	3293
470.009	2922
470.088	3160
470.166	3144
470.245	3863
470.324	4681
470.403	3577
470.482	3089
470.560	3313
470.639	2542
470.718	2810
470.797	3042
470.875	2499
470.954	2770
471.033	3481
471.111	2091
471.190	2674
471.269	3309
471.347	2772
471.426	2903
471.505	3442
471.583	2810
471.662	3240
471.740	2691
471.819	3299
471.898	2799
471.976	3404
472.055	2529
472.133	2818
472.212	3520
472.290	2793
472.369	1997
472.447	3418
472.526	2551
472.604	2948
472.683	2180
472.761	2588
472.839	2616
472.918	2967
472.996	2730
473.075	3336
473.153	2105
473.231	2736
473.310	3354
473.388	2370
473.466	2127
473.545	3058
473.623	2259
473.701	3086
473.780	2604
473.858	2736
473.936	3184
474.014	3313
474.093	3033
474.171	3653
474.249	3206
474.327	3544
474.405	1986
474.484	3718
474.562	2040
474.640	2562
474.718	2622
474.796	1891
474.874	2918
474.952	2447
475.030	2426
475.108	2560
475.187	2465
475.265	2177
475.343	1441
475.421	3054
475.499	2228
475.577	1750
475.655	2974
475.733	3374
475.811	3205
475.889	2348
475.966	3275
476.044	2912
476.122	1889
476.200	2375
476.278	2076
476.356	2355
476.434	1298
476.512	2122
476.590	2910
476.667	2884
476.745	2085
476.823	2267
476.901	2804
476.979	2368
477.056	2295
477.134	1828
477.212	1981
477.290	2088
477.367	2238
477.445	2821
477.523	1713
477.601	2617
477.678	1703
477.756	2796
477.834	2137
477.911	2261
477.989	2238
478.066	2413
478.144	1607
478.222	1835
478.299	1723
478.377	1941
478.454	2713
478.532	2702
478.609	2302
478.687	2616
478.764	1690
478.842	2643
478.919	2219
478.997	2798
479.074	1792
479.152	1797
479.229	2279
479.307	2354
479.384	1536
479.461	1694
479.539	2586
479.616	2453
479.694	2374
479.771	1927
479.848	1786
479.926	1386
480.003	2386
480.080	2307
480.157	2172
480.235	1896
480.312	3103
480.389	2004
480.467	2390
480.544	2526
480.621	1793
480.698	2377
480.775	1427
480.853	3017
480.930	2105
481.007	2019
481.084	2461
481.161	3446
481.238	2262
481.315	2032
481.392	2340
481.470	1284
481.547	1997
481.624	2767
481.701	1501
481.778	2524
481.855	2330
481.932	2611
482.009	3126
482.086	2455
482.163	2998
482.240	3832
482.317	3593
482.393	3486
482.470	3039
482.547	3283
482.624	2632
482.701	2401
482.778	2708
482.855	2006
482.932	2955
483.009	3300
483.085	3792
483.162	3657
483.239	4261
483.316	3600
483.393	3249
483.469	3582
483.546	3017
483.623	2721
483.699	2610
483.776	2246
483.853	2103
483.930	2207
484.006	3004
484.083	3951
484.160	4289
484.236	7021
484.313	5700
484.389	4973
484.466	4909
484.543	5803
484.619	6312
484.696	8165
484.772	6034
484.849	4873
484.925	4473
485.002	3997
485.078	3786
485.155	3572
485.231	4041
485.308	3091
485.384	3442
485.461	3876
485.537	3880
485.614	4740
485.690	3376
485.766	3573
485.843	3868
485.919	3312
485.995	3571
486.072	2899
486.148	2710
486.224	3478
486.301	3359
486.377	3697
486.453	3363
486.530	3184
486.606	4412
486.682	4226
486.758	4255
486.835	4156
486.911	3642
486.987	5934
487.063	4708
487.139	4316
487.215	4933
487.292	5169
487.368	5708
487.444	7066
487.520	11198
487.596	16279
487.672	30346
487.748	97684
487.824	190446
487.900	67730
487.976	17028
488.052	8886
488.128	6669
488.204	5294
488.280	4305
488.356	4818
488.432	4057
488.508	5085
488.584	2852
488.660	3806
488.736	2350
488.812	3233
488.888	3971
488.964	3106
489.039	3342
489.115	4716
489.191	4161
489.267	3668
489.343	2698
489.418	3295
489.494	3233
489.570	2095
489.646	2174
489.722	2971
489.797	3017
489.873	3711
489.949	3725
490.024	3942
490.100	2315
490.176	3089
490.251	2828
490.327	3030
490.403	2741
490.478	2902
490.554	2757
490.629	2389
490.705	3633
490.781	3178
490.856	2309
490.932	2819
491.007	2274
491.083	2069
491.158	2305
491.234	2740
491.309	3053
491.385	2667
491.460	2304
491.536	2912
491.611	1968
491.686	2056
491.762	2554
491.837	2923
491.913	2704
491.988	3532
492.063	2714
492.139	2783
492.214	1833
492.289	2271
492.365	2133
492.440	2268
492.515	1922
492.590	1655
492.666	1268
492.741	2209
492.816	2078
492.891	2029
492.967	2156
493.042	1641
493.117	2214
493.192	2102
493.267	2151
493.342	3723
493.418	7164
493.493	2684
493.568	1916
493.643	1697
493.718	1897
493.793	1708
493.868	2055
493.943	2204
494.018	2196
494.093	1816
494.168	2537
494.243	1817
494.318	1792
494.393	1816
494.468	1783
494.543	1794
494.618	1491
494.693	1836
494.768	1441
494.842	1935
494.917	1940
494.992	1652
495.067	1430
495.142	2016
495.217	1645
495.292	1282
495.366	1185
495.441	1791
495.516	2016
495.591	1920
495.665	2428
495.740	4522
495.815	2725
495.890	2224
495.964	1762
496.039	2566
496.114	2066
496.188	2107
496.263	2509
496.338	1558
496.412	1685
496.487	1461
496.561	1294
496.636	1672
496.710	1553
496.785	2003
496.860	1529
496.934	1897
497.009	977
497.083	1795
497.158	1478
497.232	1660
497.307	1971
497.381	2173
497.455	1911
497.530	1987
497.604	2004
497.679	1102
497.753	1880
497.827	1968
497.902	2533
497.976	3147
498.050	3524
498.125	11689
498.199	14968
498.273	3168
498.348	3122
498.422	2152
498.496	1835
498.570	3029
498.645	1298
498.719	1885
498.793	1601
498.867	1970
498.941	2314
499.016	4688
499.090	13417
499.164	6745
499.238	2843
499.312	2084
499.386	1807
499.460	1821
499.534	2399
499.609	2338
499.683	2164
499.757	2427
499.831	2671
499.905	7689
499.979	9021
500.053	2997
500.127	2541
500.201	2094
500.275	1710
500.349	2269
500.422	2110
500.496	1781
500.570	2807
500.644	4816
500.718	9303
500.792	3828
500.866	1955
500.940	2034
501.013	2710
501.087	1897
501.161	2405
501.235	2556
501.309	2531
501.382	6363
501.456	7571
501.530	2778
501.603	2750
501.677	1857
501.751	1316
501.825	2612
501.898	2039
501.972	3571
502.046	2754
502.119	1974
502.193	2010
502.266	3789
502.340	2842
502.413	2538
502.487	3523
502.561	2406
502.634	1770
502.708	1797
502.781	2537
502.855	1963
502.928	1334
503.002	1837
503.075	1363
503.149	1704
503.222	2043
503.295	1155
503.369	1580
503.442	1443
503.516	3040
503.589	5790
503.662	5476
503.736	3878
503.809	5947
503.882	7816
503.956	11158
504.029	18633
504.102	50200
504.175	96795
504.249	39078
504.322	12609
504.395	5269
504.468	4746
504.542	2713
504.615	2577
504.688	1716
504.761	1011
504.834	1912
504.907	1717
504.980	1552
505.053	1885
505.127	1153
505.200	2927
505.273	1579
505.346	1859
505.419	1023
505.492	1359
505.565	1422
505.638	1215
505.711	1172
505.784	1282
505.857	1053
505.930	1720
506.003	758
506.076	2205
506.149	1332
506.221	1121
506.294	1700
506.367	1999
506.440	3793
506.513	3584
506.586	377
506.659	1474
506.731	618
506.804	1512
506.877	1054
506.950	1693
507.022	1364
507.095	2053
507.168	757
507.241	559
507.313	409
507.386	1255
507.459	1382
507.531	899
507.604	1160
507.677	729
507.749	604
507.822	636
507.894	1759
507.967	2790
508.040	1374
508.112	2201
508.185	1540
508.257	1128
508.330	2068
508.402	1264
508.475	1500
508.547	1348
508.620	814
508.692	1490
508.765	1658
508.837	1092
508.909	1200
508.982	329
509.054	1313
509.127	665
509.199	769
509.271	730
509.344	451
509.416	957
509.488	564
509.560	1381
509.633	724
509.705	591
509.777	1072
509.849	1127
509.922	-113
509.994	1353
510.066	1438
510.138	101
510.210	1778
510.283	1711
510.355	1200
510.427	1251
510.499	1068
510.571	896
510.643	1281
510.715	1644
510.787	980
510.859	1740
510.931	1238
511.003	1317
511.076	874
511.148	1327
511.219	497
511.291	1418
511.363	1067
511.435	1144
511.507	-392
511.579	1028
511.651	1203
511.723	1471
511.795	1163
511.867	1598
511.939	1365
512.010	1542
512.082	735
512.154	529
512.226	1096
512.298	2037
512.369	2260
512.441	1476
512.513	1714
512.585	1206
512.656	1216
512.728	1338
512.800	1186
512.871	1643
512.943	470
513.015	1156
513.086	1120
513.158	1162
513.230	1111
513.301	1918
513.373	1253
513.444	1492
513.516	1060
513.588	1292
513.659	571
513.731	1101
513.802	1148
513.874	2059
513.945	1667
514.016	1333
514.088	1813
514.159	939
514.231	1042
514.302	1595
514.374	1522
514.445	1380
514.516	3106
514.588	2051
514.659	1399
514.730	1603
514.802	1583
514.873	561
514.944	2145
515.016	1312
515.087	1032
515.158	1126
515.229	1883
515.301	1538
515.372	1200
515.443	1431
515.514	1632
515.585	1338
515.656	2164
515.728	1489
515.799	1929
515.870	1795
515.941	1695
516.012	1403
516.083	1511
516.154	1156
516.225	2055
516.296	2398
516.367	1218
516.438	2173
516.509	2890
516.580	3894
516.651	7565
516.722	28724
516.793	16509
516.864	3193
516.935	3430
517.006	3385
517.077	5812
517.148	8987
517.219	33049
517.289	79414
517.360	13375
517.431	5274
517.502	2422
517.573	2051
517.643	1542
517.714	2762
517.785	1996
517.856	1982
517.926	3748
517.997	3579
518.068	5240
518.138	7473
518.209	10166
518.280	23469
518.350	107995
518.421	58149
518.492	10038
518.562	8913
518.633	11661
518.703	17030
518.774	33678
518.845	93651
518.915	118072
518.986	31728
519.056	11766
519.127	7363
519.197	5694
519.268	6399
519.338	5661
519.408	2837
519.479	2398
519.549	2594
519.620	3098
519.690	2122
519.760	1997
519.831	2188
519.901	1754
519.971	2176
520.042	1601
520.112	2185
520.182	2040
520.253	2013
520.323	1459
520.393	1387
520.463	3042
520.534	715
520.604	2421
520.674	2030
520.744	1310
520.814	2092
520.885	2102
520.955	2076
521.025	4621
521.095	3356
521.165	1831
521.235	1541
521.305	1439
521.375	1151
521.445	1766
521.515	1208
521.585	1965
521.655	1376
521.725	1724
521.795	2133
521.865	1380
521.935	2074
522.005	979
522.075	885
522.145	1940
522.215	855
522.285	1237
522.355	1488
522.424	2246
522.494	2401
522.564	1537
522.634	2033
522.704	2807
522.774	2087
522.843	875
522.913	1149
522.983	1129
523.053	1214
523.122	1566
523.192	1239
523.262	914
523.331	1469
523.401	2122
523.471	1317
523.540	1728
523.610	514
523.680	1692
523.749	1811
523.819	1252
523.888	1995
523.958	1481
524.027	1405
524.097	1281
524.166	1390
524.236	1552
524.305	2461
524.375	750
524.444	1237
524.514	1898
524.583	1672
524.653	927
524.722	2549
524.791	1590
524.861	1708
524.930	1767
524.999	1924
525.069	1475
525.138	1315
525.207	921
525.277	1780
525.346	2216
525.415	2458
525.484	2512
525.554	2768
525.623	3178
525.692	4192
525.761	5055
525.830	6497
525.900	10366
525.969	16766
526.038	33223
526.107	54711
526.176	183854
526.245	188272
526.314	49884
526.383	80382
526.452	148126
526.522	156663
526.591	216077
526.660	34789
526.729	17895
526.797	20350
526.867	26501
526.935	61974
527.004	249782
527.073	240971
527.142	30350
527.211	11277
527.280	7873
527.349	4824
527.418	3502
527.487	3392
527.555	2724
527.624	2704
527.693	1808
527.762	3268
527.831	1457
527.899	2365
527.968	2264
528.037	1806
528.106	2007
528.174	2618
528.243	2778
528.312	2936
528.380	1694
528.449	1760
528.518	2330
528.586	1375
528.655	2142
528.723	2632
528.792	1108
528.861	1615
528.929	1213
528.998	2330
529.066	2030
529.135	3401
529.203	3812
529.272	3491
529.340	6471
529.409	5592
529.477	4964
529.545	4570
529.614	5134
529.682	5539
529.751	6426
529.819	7344
529.887	7576
529.956	7111
530.024	7258
530.092	5968
530.161	6552
530.229	6839
530.297	7651
530.365	7668
530.434	7193
530.502	8175
530.570	7005
530.638	4839
530.707	5718
530.775	6966
530.843	5402
530.911	6779
530.979	5701
531.047	6710
531.115	7540
531.183	6340
531.252	7100
531.320	5631
531.388	5709
531.456	6234
531.524	6712
531.592	7673
531.660	8605
531.728	7972
531.796	6761
531.864	7593
531.932	7226
532.000	7441
532.067	7259
532.135	8415
532.203	8929
532.271	9336
532.339	9231
532.407	9282
532.475	8299
532.542	8795
532.610	8245
532.678	7914
532.746	10250
532.814	12164
532.881	10175
532.949	7515
533.017	8551
533.084	7477
533.152	8181
533.220	7399
533.287	7792
533.355	8165
533.423	8062
533.490	7725
533.558	7676
533.625	7368
533.693	7514
533.761	7154
533.828	7680
533.896	6660
533.963	8767
534.031	8343
534.098	8389
534.166	8616
534.233	8729
534.300	8580
534.368	8541
534.435	8456
534.503	9555
534.570	9607
534.637	10868
534.705	12471
534.772	14597
534.840	19501
534.907	65937
534.974	130752
535.041	21833
535.109	9753
535.176	7603
535.243	8739
535.310	7924
535.378	7413
535.445	7273
535.512	7290
535.579	7113
535.646	6756
535.714	7346
535.781	7226
535.848	8409
535.915	6450
535.982	6743
536.049	6723
536.116	6682
536.183	6909
536.250	5616
536.317	6082
536.384	6236
536.451	7112
536.518	6798
536.585	6075
536.652	6587
536.719	6507
536.786	6043
536.853	5911
536.920	6494
536.987	5207
537.053	5418
537.120	8202
537.187	7948
537.254	6500
537.321	6135
537.388	7577
537.454	5909
537.521	5653
537.588	6054
537.654	6095
537.721	6471
537.788	6565
537.855	6437
537.921	5991
537.988	5418
538.055	5736
538.121	5275
538.188	5402
538.254	4996
538.321	5013
538.388	4973
538.454	6679
538.521	6627
538.587	6621
538.654	5957
538.720	6373
538.787	6335
538.853	6326
538.920	5645
538.986	5511
539.053	4629
539.119	4773
539.185	5366
539.252	5850
539.318	6172
539.385	6343
539.451	5691
539.517	6120
539.583	5888
539.650	5371
539.716	6122
539.782	5379
539.849	4973
539.915	5198
539.981	5152
540.047	5433
540.114	5332
540.180	5945
540.246	5656
540.312	5512
540.378	5408
540.444	6843
540.510	5791
540.576	6377
540.643	5841
540.709	5140
540.775	5417
540.841	4594
540.907	5129
540.973	5545
541.039	5617
541.105	5221
541.171	5312
541.237	5520
541.303	5368
541.369	6919
541.435	6025
541.500	5611
541.566	4760
541.632	5296
541.698	5249
541.764	5317
541.830	5723
541.896	5364
541.961	6219
542.027	5210
542.093	5350
542.159	6460
542.224	5508
542.290	5672
542.356	4887
542.421	4779
542.487	4821
542.553	4497
542.618	5425
542.684	5062
542.750	4837
542.815	5514
542.881	5289
542.947	6060
543.012	7241
543.078	4774
543.143	4276
543.209	5672
543.274	4661
543.340	5404
543.405	4898
543.471	5644
543.536	4580
543.602	5626
543.667	4108
543.732	6193
543.798	5921
543.863	4700
543.928	5297
543.994	5777
544.059	6074
544.124	5762
544.190	4864
544.255	5942
544.320	5655
544.386	5572
544.451	6397
544.516	5180
544.581	6110
544.646	6308
544.712	7153
544.777	6715
544.842	6892
544.907	6722
544.972	7038
545.037	6077
545.102	7024
545.168	5772
545.233	7519
545.298	7097
545.363	7302
545.428	7995
545.493	7700
545.558	7064
545.623	7691
545.688	8209
545.753	7719
545.818	8295
545.883	9281
545.947	8262
546.012	9176
546.077	7958
546.142	10461
546.207	9612
546.272	10356
546.337	10020
546.401	10449
546.466	11844
546.531	11544
546.596	12949
546.661	13496
546.725	13468
546.790	14502
546.855	15617
546.919	16595
546.984	19657
547.049	21210
547.113	23590
547.178	26935
547.243	29707
547.307	34086
547.372	38502
547.436	37839
547.501	40272
547.565	44953
547.630	41491
547.695	39816
547.759	40086
547.823	39455
547.888	40507
547.952	41282
548.017	42687
548.081	44828
548.146	43669
548.210	44619
548.274	48156
548.339	48117
548.403	44788
548.468	42155
548.532	39730
548.596	42310
548.660	42532
548.725	44198
548.789	49942
548.853	48988
548.917	47311
548.982	45533
549.046	42239
549.110	37554
549.174	37904
549.238	41984
549.303	48286
549.367	50686
549.431	48383
549.495	46129
549.559	45468
549.623	50104
549.687	57855
549.751	55240
549.815	64038
549.879	69545
549.943	64190
550.007	67196
550.071	68102
550.135	63158
550.199	58393
550.263	57936
550.327	56208
550.391	54251
550.455	60616
550.519	65851
550.582	67824
550.646	75167
550.710	78651
550.774	78332
550.838	77872
550.901	79505
550.965	86293
551.029	87469
551.093	93059
551.156	98938
551.220	106519
551.284	117728
551.347	102639
551.411	85954
551.475	83438
551.538	86638
551.602	82862
551.666	78220
551.729	75011
551.793	72794
551.856	72645
551.920	71469
551.983	72750
552.047	70407
552.110	70683
552.174	70952
552.237	74016
552.301	70226
552.364	67426
552.428	64881
552.491	65445
552.554	68409
552.618	66407
552.681	69657
552.745	65790
552.808	67793
552.871	71633
552.934	69375
552.998	68051
553.061	66308
553.124	65740
553.187	64808
553.251	66918
553.314	67132
553.377	67341
553.440	71802
553.503	75251
553.567	78698
553.630	75730
553.693	74401
553.756	75507
553.819	74807
553.882	73358
553.945	72091
554.008	73909
554.071	74646
554.134	76462
554.197	72980
554.260	71431
554.323	72293
554.386	73295
554.449	75159
554.512	75702
554.575	73479
554.638	71199
554.701	72106
554.764	71842
554.827	68458
554.889	68180
554.952	65089
555.015	61617
555.078	62136
555.141	63620
555.203	62469
555.266	62754
555.329	62630
555.391	60005
555.454	59218
555.517	56952
555.580	54333
555.642	53006
555.705	51209
555.768	52174
555.830	50478
555.893	46396
555.955	46992
556.018	45477
556.080	44018
556.143	45942
556.206	45215
556.268	44159
556.330	42835
556.393	42016
556.455	41366
556.518	39864
556.580	39468
556.643	38227
556.705	36824
556.767	35445
556.830	35944
556.892	34485
556.955	33580
557.017	33141
557.079	33253
557.142	32258
557.204	30972
557.266	31044
557.328	29446
557.391	27588
557.453	25936
557.515	26703
557.577	26836
557.639	25742
557.701	26215
557.764	25540
557.826	26059
557.888	27318
557.950	27662
558.012	30254
558.074	33860
558.136	52342
558.198	127047
558.260	77626
558.322	28297
558.384	26528
558.446	28332
558.508	30621
558.570	33945
558.632	37576
558.694	47500
558.756	67577
558.818	132968
558.880	343494
558.942	199748
559.003	134059
559.065	99786
559.127	35775
559.189	33275
559.251	37386
559.312	46290
559.374	78220
559.436	226694
559.498	194103
559.559	44541
559.621	33149
559.683	36919
559.744	50084
559.806	107204
559.868	226753
559.929	78005
559.991	36201
560.052	45691
560.114	111651
560.176	110872
560.237	59911
560.299	124653
560.360	47190
560.422	17096
560.483	13878
560.545	13180
560.606	13093
560.667	11461
560.729	11636
560.790	11350
560.852	11124
560.913	10339
560.974	10102
561.036	9580
561.097	9420
561.158	9515
561.220	10437
561.281	10475
561.342	10166
561.403	9364
561.465	10171
561.526	8433
561.587	10065
561.648	8752
561.709	9355
561.771	7831
561.832	8718
561.893	8576
561.954	7402
562.015	7921
562.076	7887
562.137	7309
562.198	7676
562.259	8319
562.320	7475
562.381	7280
562.442	7330
562.503	7657
562.564	7470
562.625	8031
562.686	8030
562.747	6425
562.808	7303
562.869	7323
562.930	8882
562.991	5785
563.051	6397
563.112	7160
563.173	7517
563.234	5771
563.294	6916
563.355	5921
563.416	6750
563.477	7151
563.537	6492
563.598	6742
563.659	6095
563.720	6148
563.780	6942
563.841	6180
563.901	6021
563.962	6661
564.023	5790
564.083	5577
564.144	6279
564.204	5241
564.265	5966
564.325	6214
564.386	6699
564.446	5838
564.507	5941
564.567	6246
564.628	5543
564.688	5498
564.749	5598
564.809	5435
564.869	5450
564.930	5390
564.990	6157
565.050	4618
565.111	5855
565.171	6191
565.231	5058
565.292	5677
565.352	4817
565.412	5804
565.472	5767
565.532	5169
565.593	6130
565.653	6463
565.713	5321
565.773	6016
565.833	5732
565.893	5981
565.953	5154
566.013	5279
566.074	6011
566.134	5358
566.194	5115
566.254	5620
566.314	5393
566.374	5000
566.434	4766
566.494	5166
566.554	5237
566.614	5370
566.673	5241
566.733	6238
566.793	5329
566.853	6482
566.913	5339
566.973	6076
567.033	5115
567.092	4636
567.152	5670
567.212	5138
567.272	5477
567.331	5761
567.391	6145
567.451	6272
567.511	5569
567.570	5625
567.630	6352
567.690	5671
567.749	5023
567.809	5431
567.868	6570
567.928	6234
567.988	5626
568.047	5813
568.107	5944
568.166	5589
568.226	6598
568.285	5867
568.345	6242
568.404	5911
568.464	5849
568.523	5499
568.582	5742
568.642	5221
568.701	5840
568.761	6273
568.820	6115
568.879	6510
568.939	6683
568.998	6292
569.057	6043
569.116	6143
569.176	5898
569.235	5503
569.294	6256
569.353	6037
569.413	5913
569.472	5033
569.531	5140
569.590	5077
569.649	5326
569.708	5397
569.767	5503
569.827	5209
569.886	5310
569.945	5596
570.004	5114
570.063	5407
570.122	6081
570.181	6318
570.240	5277
570.299	6513
570.358	6124
570.417	5530
570.475	6051
570.534	6004
570.593	5806
570.652	5327
570.711	6297
570.770	5383
570.829	6294
570.887	5614
570.946	5960
571.005	5709
571.064	6701
571.122	5909
571.181	5554
571.240	6393
571.299	5900
571.357	5611
571.416	5472
571.475	5330
571.533	5997
571.592	6506
571.650	6301
571.709	6025
571.768	7359
571.826	7064
571.885	6553
571.943	6416
572.002	6124
572.060	6381
572.119	6498
572.177	6141
572.236	6358
572.294	5463
572.352	6640
572.411	6863
572.469	6584
572.528	6510
572.586	5820
572.644	5739
572.703	6274
572.761	4730
572.819	5923
572.877	5490
572.936	5730
572.994	5324
573.052	5618
573.110	5487
573.169	6627
573.227	5667
573.285	6325
573.343	5762
573.401	6323
573.459	6011
573.517	5288
573.576	6021
573.634	6076
573.692	5431
573.750	5510
573.808	5490
573.866	4938
573.924	5449
573.982	5523
574.040	5240
574.098	5589
574.155	4480
574.213	5179
574.271	5461
574.329	5009
574.387	4905
574.445	5738
574.503	4727
574.560	4971
574.618	4841
574.676	4813
574.734	4030
574.792	5589
574.849	4942
574.907	4754
574.965	4335
575.022	4126
575.080	3706
575.138	4216
575.195	4197
575.253	4150
575.311	4248
575.368	4883
575.426	4287
575.483	4442
575.541	4138
575.598	3578
575.656	4158
575.713	4498
575.771	4700
575.828	4547
575.886	3965
575.943	4409
576.001	3685
576.058	3169
576.115	3855
576.173	4397
576.230	4720
576.287	4755
576.345	4082
576.402	4332
576.459	4015
576.517	3995
576.574	4350
576.631	3701
576.688	3927
576.746	3665
576.803	3519
576.860	3542
576.917	3978
576.974	4275
577.031	3044
577.089	3764
577.146	3851
577.203	3900
577.260	4328
577.317	3407
577.374	3290
577.431	3439
577.488	3519
577.545	3205
577.602	4097
577.659	4265
577.716	4016
577.773	4036
577.830	3906
577.886	3785
577.943	4082
578.000	3440
578.057	3056
578.114	3254
578.171	3325
578.227	4331
578.284	3614
578.341	4221
578.398	3588
578.454	4283
578.511	4116
578.568	3387
578.625	3798
578.681	3988
578.738	3594
578.794	3526
578.851	4424
578.908	3107
578.964	3461
579.021	4548
579.077	3837
579.134	3552
579.190	3326
579.247	4147
579.303	3695
579.360	4459
579.416	3521
579.473	3354
579.529	4048
579.586	4325
579.642	3753
579.698	3996
579.755	3513
579.811	3810
579.867	4249
579.924	4147
579.980	4241
580.036	3933
580.093	4696
580.149	5128
580.205	5027
580.261	5773
580.317	5052
580.374	4672
580.430	4962
580.486	4353
580.542	3847
580.598	5440
580.619	5128
580.654	4591
580.692	4992
580.710	5199
580.765	4387
580.767	4365
580.823	5468
580.838	5320
580.879	4935
580.911	4813
580.935	4735
580.984	4875
580.991	4898
581.047	5515
581.057	5315
581.103	4462
581.130	4620
581.159	4774
581.203	4691
581.215	4676
581.270	5537
581.276	5444
581.326	4558
581.349	4889
581.382	5385
581.422	5328
581.438	5315
581.494	5418
581.494	5418
581.550	5665
581.567	5481
581.606	4967
581.640	4828
581.661	4817
581.713	5967
581.717	6057
581.773	5424
581.786	5464
581.829	5578
581.859	5516
581.885	5490
581.932	5512
581.940	5507
581.996	6210
582.004	6099
582.052	5552
582.077	5725
582.107	5932
582.150	6207
582.163	6293
582.219	5511
582.223	5551
582.274	6091
582.296	6086
582.330	6052
582.368	6223
582.386	6293
582.441	5142
582.441	5141
582.497	6377
582.514	6390
582.552	6455
582.587	6969
582.608	7253
582.659	6895
582.663	6870
582.719	6639
582.732	6750
582.774	7143
582.805	7216
582.830	7255
582.877	6814
582.885	6757
582.941	8258
582.950	8293
582.996	8458
583.023	8768
583.052	9126
583.095	8517
583.107	8317
583.162	9330
583.168	9282
583.218	8755
583.240	8506
583.273	8214
583.313	8217
583.328	8241
583.384	7397
583.385	7380
583.439	6899
583.458	6885
583.494	6687
583.531	6630
583.549	6691
583.603	6747
583.605	6749
583.660	7007
583.676	6984
583.715	6796
583.748	7122
583.770	7413
583.820	7043
583.825	7014
583.881	6660
583.893	6750
583.936	6940
583.965	7092
583.991	7242
584.038	7538
584.046	7576
584.101	7140
584.110	7117
584.156	7051
584.183	6871
584.211	6666
584.255	7328
584.266	7467
584.321	6830
584.328	6875
584.376	7640
584.400	7729
584.431	7841
584.472	7857
584.486	7745
584.541	8734
584.545	8711
584.596	8554
584.617	8460
584.651	8373
584.689	8406
584.706	8424
584.761	8799
584.762	8800
584.816	8696
584.834	8676
584.871	8913
584.906	9402
584.926	9526
584.978	9562
584.980	9575
585.035	9635
585.051	9928
585.090	11009
585.123	11385
585.145	11390
585.195	11937
585.200	12055
585.254	13398
585.267	14083
585.309	16162
585.340	17389
585.364	18647
585.412	21923
585.419	22401
585.473	26761
585.484	27895
585.528	32975
585.556	37808
585.583	46092
585.628	65930
585.637	74494
585.692	144579
585.700	160179
585.747	267912
585.772	284857
585.801	236073
585.845	127913
585.856	103966
585.910	40464
585.917	34198
585.965	24417
585.989	20282
586.019	18006
586.061	15948
586.074	15509
586.128	14329
586.133	14188
586.183	13258
586.205	13273
586.237	13334
586.277	12946
586.292	12764
586.346	11875
586.349	11862
586.401	12065
586.421	11922
586.455	11664
586.493	11677
586.509	11733
586.564	11898
586.565	11891
586.618	11974
586.637	12127
586.672	12902
586.709	13960
586.727	14533
586.781	16322
586.781	16335
586.835	15921
586.853	15534
586.889	13750
586.925	12033
586.944	11438
586.996	11279
586.998	11302
587.052	11009
587.068	11097
587.106	11371
587.140	11342
587.161	11280
587.212	11344
587.215	11335
587.269	11110
587.284	10884
587.323	11042
587.356	11464
587.377	11639
587.427	12227
587.431	12259
587.485	12256
587.499	12317
587.539	12539
587.571	12400
587.593	12658
587.643	13689
587.648	13711
587.702	13860
587.715	13787
587.755	13752
587.786	13678
587.810	13790
587.858	14180
587.864	14214
587.917	14586
587.930	14553
587.971	14165
588.001	13951
588.025	14101
588.073	14640
588.079	14706
588.133	14870
588.145	14920
588.187	14646
588.217	14487
588.241	14773
588.288	15623
588.295	15736
588.348	16216
588.360	16354
588.402	17359
588.431	17726
588.456	17739
588.503	18665
588.510	18885
588.564	20622
588.575	20978
588.617	22359
588.646	23433
588.671	24548
588.718	27072
588.725	27592
588.778	32341
588.789	33607
588.832	43620
588.861	52344
588.886	71257
588.932	112531
588.939	122444
588.993	204441
589.004	214358
589.047	166916
589.075	130115
589.100	94987
589.147	41162
589.154	39373
589.207	29883
589.218	28185
589.261	27053
589.290	26510
589.314	27069
589.361	28719
589.368	29148
589.421	33345
589.433	34717
589.475	51411
589.504	64717
589.528	90547
589.576	147882
589.582	150610
589.635	154180
589.647	151831
589.689	82840
589.718	40392
589.742	33580
589.790	22645
589.795	22248
589.849	19001
589.861	18301
589.902	18379
589.932	18423
589.955	18286
590.004	17883
590.009	17803
590.062	16780
590.075	16493
590.115	16323
590.146	16277
590.168	16243
590.218	16021
590.222	16053
590.275	16309
590.289	16362
590.328	16587
590.360	16694
590.381	16852
590.431	17029
590.435	17059
590.488	17303
590.503	17373
590.541	17549
590.574	17549
590.594	17796
590.645	18580
590.647	18605
590.700	18503
590.716	18411
590.753	18830
590.787	19228
590.806	19253
590.859	19492
590.859	19523
590.912	19925
590.930	20073
590.965	20384
591.001	20632
591.018	20707
591.071	20902
591.072	20874
591.124	20216
591.143	19978
591.177	20000
591.214	20022
591.230	20429
591.283	21674
591.285	21688
591.336	21053
591.356	20775
591.389	20932
591.427	21111
591.442	21061
591.495	20690
591.498	20635
591.547	21017
591.569	21162
591.600	21175
591.640	21121
591.653	21210
591.706	21462
591.711	21460
591.759	22354
591.782	22789
591.811	22880
591.853	22888
591.864	23149
591.917	24296
591.924	24433
591.969	24022
591.995	23708
592.022	23660
592.066	23461
592.075	23639
592.127	24605
592.137	24753
592.180	25425
592.208	25797
592.233	25957
592.279	26086
592.285	26165
592.338	26568
592.350	26624
592.390	26644
592.421	26568
592.443	26629
592.491	26662
592.495	26738
592.548	27303
592.562	27424
592.600	27780
592.633	28025
592.653	27986
592.704	27642
592.705	27814
592.775	28519
592.846	28973
592.916	30645
592.987	29404
593.058	29830
593.128	30459
593.199	30546
593.270	29308
593.341	30782
593.411	31850
593.482	33596
593.553	34574
593.623	34219
593.694	35089
593.764	35846
593.835	36472
593.906	36139
593.976	36545
594.047	37731
594.117	38083
594.188	40380
594.258	41013
594.329	41237
594.399	41082
594.470	42952
594.540	43873
594.611	44782
594.681	45050
594.751	44953
594.822	47028
594.892	47236
594.963	49286
595.033	49433
595.103	52486
595.174	53038
595.244	54449
595.314	56197
595.384	57451
595.455	58869
595.525	60413
595.595	62604
595.665	64850
595.736	63044
595.806	63092
595.876	65155
595.946	63748
596.016	66222
596.087	69428
596.157	71387
596.227	69694
596.297	71707
596.367	75172
596.437	81169
596.507	82337
596.577	83270
596.647	83392
596.717	87557
596.787	89984
596.857	90992
596.927	90743
596.997	90563
597.067	92004
597.137	92830
597.207	93729
597.277	95698
597.347	93402
597.417	91104
597.487	88212
597.557	89063
597.626	92059
597.696	95150
597.766	93186
597.836	92908
597.906	88545
597.975	84122
598.045	84880
598.115	87137
598.185	90413
598.254	100149
598.324	110634
598.394	116053
598.464	115934
598.533	111466
598.603	108236
598.672	102964
598.742	103100
598.812	104161
598.881	106976
598.951	108178
599.020	106916
599.090	111602
599.159	115525
599.229	112529
599.299	109425
599.368	110990
599.437	112907
599.507	107619
599.576	101070
599.646	100959
599.715	99103
599.785	98502
599.854	96507
599.924	94653
599.993	94831
600.062	96825
600.132	98997
600.201	102245
600.270	111526
600.340	124916
600.409	124966
600.478	124435
600.547	123133
600.617	125803
600.686	106781
600.755	94134
600.824	88975
600.894	86646
600.963	86786
601.032	88125
601.101	87030
601.170	85397
601.239	82722
601.308	82877
601.378	82314
601.447	83945
601.516	84911
601.585	87501
601.654	88318
601.723	90181
601.792	90737
601.861	93294
601.930	96803
601.999	99938
602.068	99733
602.137	101306
602.206	100970
602.275	102816
602.343	103116
602.412	104946
602.481	105714
602.550	106133
602.619	106960
602.688	109736
602.756	110253
602.825	109506
602.894	111667
602.963	115882
603.032	113960
603.100	117752
603.169	114647
603.238	117107
603.307	117082
603.375	115593
603.444	119720
603.513	120424
603.581	118705
603.650	121450
603.719	120698
603.787	113228
603.856	114710
603.924	118379
603.993	120922
604.061	124572
604.130	129826
604.198	134501
604.267	134726
604.335	138255
604.404	138387
604.472	142906
604.541	141916
604.609	145664
604.678	147097
604.746	146482
604.815	153030
604.883	156053
604.951	152127
605.020	152761
605.088	157808
605.156	150941
605.225	154650
605.293	153486
605.361	154744
605.429	154890
605.498	157254
605.566	160541
605.634	164561
605.702	170688
605.771	174550
605.839	177318
605.907	176432
605.975	170507
606.043	168721
606.111	162800
606.180	165327
606.248	167565
606.316	159708
606.384	162895
606.452	162553
606.520	151446
606.588	154843
606.656	159725
606.724	160431
606.792	153115
606.860	142119
606.928	128849
606.996	121224
607.064	117268
607.132	117435
607.200	119873
607.267	129971
607.335	132388
607.403	138040
607.471	133942
607.539	127967
607.607	131665
607.674	120384
607.742	112435
607.810	113918
607.878	113937
607.946	114040
608.013	118489
608.081	122824
608.149	122595
608.216	123639
608.284	131893
608.352	129912
608.419	132127
608.487	129411
608.555	125634
608.622	126384
608.690	130810
608.757	142553
608.825	154598
608.893	149959
608.960	144602
609.028	135489
609.095	133218
609.163	134922
609.230	129337
609.298	112905
609.365	111582
609.432	120081
609.500	129306
609.567	143611
609.635	163520
609.702	181404
609.769	180548
609.837	160325
609.904	123679
609.971	121214
610.039	125557
610.106	138845
610.173	186230
610.241	351681
610.308	485965
610.375	209919
610.442	143076
610.509	128227
610.577	125518
610.644	127206
610.711	128207
610.778	133107
610.845	137013
610.912	141628
610.980	149894
611.047	154347
611.114	153442
611.181	148910
611.248	146310
611.315	149345
611.382	156110
611.449	158440
611.516	164301
611.583	163476
611.650	161635
611.717	164244
611.784	164499
611.851	168295
611.918	172882
611.984	182704
612.051	212644
612.118	288348
612.185	511629
612.252	730381
612.319	344828
612.386	223213
612.452	204870
612.519	190296
612.586	183387
612.653	184328
612.719	186816
612.786	190311
612.853	180921
612.919	169020
612.986	171089
613.053	168838
613.120	160100
613.186	150797
613.253	151318
613.319	148878
613.386	152505
613.453	151127
613.519	153750
613.586	153020
613.652	151998
613.719	152081
613.785	152767
613.852	155740
613.918	155488
613.985	152922
614.051	159903
614.118	161964
614.184	160649
614.250	153750
614.317	158996
614.383	156502
614.449	157269
614.516	158455
614.582	158911
614.648	157806
614.715	155471
614.781	156238
614.847	151691
614.914	152403
614.980	150259
615.046	147813
615.112	149676
615.179	153925
615.245	152226
615.311	153620
615.377	153786
615.443	157293
615.509	156840
615.575	160742
615.642	163132
615.708	162519
615.774	167541
615.840	173445
615.906	178434
615.972	188931
616.038	225048
616.104	324063
616.170	569127
616.236	850681
616.302	471048
616.368	280594
616.434	233780
616.500	192280
616.565	190210
616.631	221478
616.697	233292
616.763	203082
616.829	229020
616.895	350697
616.961	483229
617.026	332138
617.092	193482
617.158	169603
617.224	163258
617.289	156621
617.355	149312
617.421	143814
617.487	144272
617.552	139847
617.618	135755
617.684	136195
617.749	138352
617.815	135417
617.880	130292
617.946	129814
618.012	130089
618.077	135656
618.143	133271
618.208	130006
618.274	134293
618.339	143747
618.405	130804
618.470	117154
618.536	122110
618.601	118880
618.667	115957
618.732	108725
618.798	106100
618.863	105258
618.928	102700
618.994	104469
619.059	103570
619.124	103999
619.190	104884
619.255	103284
619.320	103956
619.386	104872
619.451	104673
619.516	102820
619.581	103298
619.647	105409
619.712	107160
619.777	104074
619.842	102971
619.907	105117
619.972	107240
620.038	106598
620.103	104554
620.168	103487
620.233	104205
620.298	105669
620.363	106174
620.428	107221
620.493	112001
620.558	112833
620.623	113812
620.688	115996
620.753	113902
620.818	114240
620.883	115690
620.948	115406
621.013	114817
621.078	115220
621.143	112019
621.207	115856
621.272	114303
621.337	111597
621.402	110897
621.467	111123
621.532	110226
621.596	109825
621.661	109298
621.726	106279
621.791	107224
621.855	107544
621.920	106155
621.985	107919
622.049	108698
622.114	109831
622.179	110918
622.243	112488
622.308	114077
622.373	118124
622.437	118956
622.502	114540
622.566	111650
622.631	110585
622.695	111546
622.760	112340
622.824	110482
622.889	111764
622.953	112186
623.018	114480
623.082	119494
623.147	118193
623.211	115222
623.276	115220
623.340	114891
623.404	108881
623.469	108211
623.533	109548
623.597	110240
623.662	107180
623.726	105667
623.790	98802
623.854	96595
623.919	96633
623.983	96453
624.047	96939
624.111	97651
624.176	99648
624.240	100022
624.304	102618
624.368	102967
624.432	99006
624.496	100281
624.560	102863
624.625	106375
624.689	103506
624.753	106747
624.817	108973
624.881	101872
624.945	99435
625.009	91152
625.073	92739
625.137	93960
625.201	94736
625.265	98902
625.329	96224
625.393	94206
625.456	94990
625.520	96561
625.584	97835
625.648	100318
625.712	101421
625.776	103652
625.839	101876
625.903	93376
625.967	80050
626.031	80638
626.095	88983
626.158	96863
626.222	81748
626.286	70011
626.349	68204
626.413	67032
626.477	61693
626.540	62944
626.604	62568
626.668	62090
626.731	60268
626.795	60085
626.858	59430
626.922	59192
626.986	58453
627.049	58071
627.113	59192
627.176	60070
627.240	57528
627.303	55756
627.366	56034
627.430	54945
627.493	56981
627.557	55216
627.620	54566
627.684	56385
627.747	56969
627.810	55779
627.874	51016
627.937	47113
628.000	47468
628.064	47884
628.127	44658
628.190	41840
628.253	41524
628.317	40339
628.380	38140
628.443	36848
628.506	36722
628.569	35490
628.632	33997
628.696	33167
628.759	33452
628.822	32818
628.885	30877
628.948	30883
629.011	30153
629.074	29389
629.137	27907
629.200	27938
629.263	27269
629.326	27097
629.389	27101
629.452	26411
629.515	25817
629.578	25591
629.641	25296
629.704	26440
629.767	25202
629.830	24903
629.892	23731
629.955	23847
630.018	24253
630.081	24600
630.144	24452
630.207	23964
630.269	23422
630.332	23192
630.395	21809
630.458	22253
630.520	20942
630.583	22190
630.646	21154
630.708	21645
630.771	22715
630.834	23091
630.896	22338
630.959	22113
631.021	21257
631.084	21620
631.146	21423
631.209	21768
631.272	22779
631.334	21358
631.397	21686
631.459	22310
631.522	21869
631.584	22776
631.646	23750
631.709	24659
631.771	24377
631.834	25270
631.896	23866
631.958	23466
632.021	21615
632.083	21142
632.145	21323
632.208	21238
632.270	20475
632.332	20201
632.395	18832
632.457	20041
632.519	20394
632.581	19240
632.643	19145
632.706	19988
632.768	19456
632.830	18900
632.892	19199
632.954	20585
633.016	19996
633.078	20455
633.141	19761
633.203	19825
633.265	19119
633.327	20102
633.389	19491
633.451	19371
633.513	19643
633.575	20544
633.637	20135
633.698	20569
633.760	20896
633.822	21245
633.884	21443
633.946	22605
634.008	22778
634.070	23403
634.132	24124
634.193	25408
634.255	26955
634.317	28096
634.379	29608
634.441	26571
634.502	25392
634.564	22802
634.626	20560
634.687	20160
634.749	20020
634.811	18813
634.873	19229
634.934	19692
634.996	19340
635.057	19075
635.119	18762
635.181	19815
635.242	20112
635.304	19362
635.365	20533
635.427	19461
635.488	19509
635.550	19131
635.611	19722
635.673	19133
635.734	19452
635.796	20831
635.857	22310
635.918	24115
635.980	25885
636.041	26557
636.102	28862
636.164	31062
636.225	29679
636.286	26479
636.348	24193
636.409	22085
636.470	20362
636.531	20218
636.593	20287
636.654	19139
636.715	17900
636.776	18480
636.838	18191
636.899	17133
636.960	17307
637.021	16607
637.082	16281
637.143	16922
637.204	15785
637.265	16344
637.326	16418
637.387	16954
637.448	16819
637.509	16492
637.570	16800
637.631	16066
637.692	15581
637.753	15977
637.814	15723
637.875	16222
637.936	15412
637.997	15274
638.058	16198
638.119	16276
638.179	15522
638.240	15530
638.301	15911
638.362	15381
638.423	15200
638.483	14754
638.544	14904
638.605	15306
638.666	13890
638.726	14956
638.787	14585
638.848	14973
638.908	14812
638.969	14612
639.030	14065
639.090	13626
639.151	14279
639.211	14326
639.272	14369
639.332	15000
639.393	15162
639.453	14669
639.514	15482
639.574	15411
639.635	14015
639.695	13096
639.756	13006
639.816	14104
639.877	13493
639.937	13151
639.997	12986
640.058	13207
640.118	13045
640.178	13004
640.239	12786
640.299	12796
640.359	13056
640.420	14283
640.480	14357
640.540	15384
640.600	18057
640.661	16928
640.721	15000
640.781	15753
640.841	13776
640.901	14334
640.961	13500
641.021	13563
641.082	14043
641.142	15230
641.202	14069
641.262	12560
641.322	12062
641.382	13561
641.442	12780
641.502	11771
641.562	13085
641.622	12782
641.682	12966
641.742	14918
641.802	15479
641.861	14197
641.921	12132
641.981	12162
642.041	11350
642.101	11789
642.161	12528
642.221	11529
642.280	11623
642.340	11348
642.400	11801
642.460	12389
642.519	12324
642.579	11678
642.639	12062
642.698	11029
642.758	13836
642.818	12402
642.877	12984
642.937	13029
642.997	12189
643.056	12288
643.116	11799
643.175	11882
643.235	13270
643.294	12666
643.354	13233
643.414	13272
643.473	14102
643.532	17068
643.592	19892
643.651	25257
643.711	38272
643.770	65525
643.830	124722
643.889	304520
643.948	325781
644.008	69688
644.067	27766
644.126	20635
644.186	16429
644.245	15666
644.304	12213
644.363	13159
644.423	12066
644.482	12096
644.541	12388
644.600	12782
644.659	13953
644.719	16093
644.778	20550
644.837	30222
644.896	53108
644.955	114808
645.014	157188
645.073	33370
645.132	16199
645.191	14749
645.250	12662
645.309	12753
645.368	13730
645.427	15801
645.486	21533
645.545	42069
645.604	41240
645.663	13725
645.722	12150
645.781	12220
645.840	12399
645.898	14123
645.957	18007
646.016	22444
646.075	35336
646.134	60352
646.192	119083
646.251	301939
646.310	211312
646.369	41349
646.427	21579
646.486	19548
646.545	14308
646.603	12635
646.662	11957
646.721	10858
646.779	11356
646.838	11000
646.896	11629
646.955	14831
647.014	20269
647.072	32625
647.131	67868
647.189	128990
647.248	30861
647.306	11924
647.365	10231
647.423	8462
647.481	9609
647.540	7050
647.598	8308
647.657	9051
647.715	8730
647.773	8077
647.832	8713
647.890	7319
647.948	7827
648.007	7761
648.065	6773
648.123	6290
648.181	6967
648.240	7582
648.298	6625
648.356	6483
648.414	6799
648.472	6808
648.531	6286
648.589	6925
648.647	6365
648.705	6612
648.763	6267
648.821	6316
648.879	7042
648.937	6967
648.995	7180
649.053	9582
649.111	11782
649.169	17592
649.227	29332
649.285	52429
649.343	121090
649.401	229016
649.459	55748
649.516	15782
649.574	9997
649.632	10055
649.690	10279
649.748	10888
649.806	12939
649.863	23189
649.921	45191
649.979	104615
650.037	33318
650.094	8164
650.152	6096
650.210	6181
650.268	5540
650.325	5381
650.383	5579
650.440	4663
650.498	5038
650.556	4626
650.613	4952
650.671	4819
650.728	4643
650.786	4659
650.843	4871
650.901	6748
650.958	5273
651.016	4458
651.073	4502
651.131	3593
651.188	3089
651.246	4139
651.303	3821
651.360	3630
651.418	3497
651.475	3492
651.532	2936
651.590	3516
651.647	2512
651.704	2866
651.762	3399
651.819	3464
651.876	3099
651.933	2782
651.990	2965
652.048	3310
652.105	3428
652.162	3452
652.219	2628
652.276	3088
652.333	3418
652.390	2309
652.448	3275
652.505	2568
652.562	3300
652.619	2400
652.676	2728
652.733	3506
652.790	2574
652.847	2042
652.904	2998
652.961	2577
653.017	2255
653.074	3463
653.131	2149
653.188	2212
653.245	2619
653.302	2592
653.359	2090
653.415	2662
653.472	1674
653.529	2437
653.586	1910
653.642	2608
653.699	2549
653.756	2343
653.813	2301
653.869	1696
653.926	2470
653.983	2183
654.039	3314
654.096	2985
654.152	2512
654.209	1758
654.266	3211
654.322	1884
654.379	1998
654.435	1338
654.492	3156
654.548	1770
654.605	2022
654.661	2642
654.717	2254
654.774	2452
654.830	2243
654.887	2051
654.943	2284
655.000	2802
655.056	2149
655.112	2408
655.168	2085
655.225	2087
655.281	2192
655.337	2430
655.394	2519
655.450	2073
655.506	1604
655.562	2071
655.618	2698
655.675	1422
655.731	1778
655.787	1387
655.843	1936
655.899	1795
655.955	2536
656.011	1805
656.067	1310
656.123	2812
656.179	1828
656.235	2935
656.291	1904
656.347	2785
656.403	1895
656.459	1703
656.515	1548
656.571	1696
656.627	1734
656.683	1364
656.739	2178
656.795	1651
656.850	1907
656.906	2371
656.962	2511
657.018	1620
657.074	2838
657.129	2894
657.185	5003
657.241	8562
657.297	17467
657.352	5361
657.408	1905
657.464	2308
657.519	2638
657.575	782
657.630	1128
657.686	1648
657.742	1483
657.797	966
657.853	1053
657.908	2203
657.964	1450
658.019	1576
658.075	1921
658.130	2568
658.186	1414
658.241	1644
658.297	1721
658.352	1326
658.407	2067
658.463	1287
658.518	1621
658.573	1785
658.629	1297
658.684	948
658.739	1361
658.795	598
658.850	2090
658.905	1889
658.960	1427
659.016	1209
659.071	967
659.126	1441
659.181	1180
659.236	1998
659.291	1454
659.346	1219
659.401	1598
659.457	1816
659.512	1779
659.567	2493
659.622	1969
659.677	1071
659.732	483
659.787	1305
659.842	1378
659.897	980
659.952	1614
660.007	1580
660.061	676
660.116	1105
660.171	687
660.226	1566
660.281	1678
660.336	879
660.391	585
660.445	1278
660.500	1493
660.555	1592
660.610	816
660.664	2261
660.719	1332
660.774	1274
660.828	1327
660.883	1355
660.938	1288
660.992	1331
661.047	1471
661.101	764
661.156	1129
661.211	435
661.265	1170
661.320	1132
661.374	623
661.429	1501
661.483	1625
661.538	535
661.592	1175
661.647	1603
661.701	1524
661.755	1916
661.810	1276
661.864	1417
661.919	588
661.973	1109
662.027	1284
662.081	602
662.136	1068
662.190	1963
662.244	464
662.299	541
662.353	740
662.407	1075
662.461	708
662.515	1122
662.569	876
662.624	1660
662.678	925
662.732	1075
662.786	628
662.840	1203
662.894	1165
662.948	498
663.002	1185
663.056	1592
663.110	674
663.164	670
663.218	1315
663.272	1481
663.326	425
663.380	1192
663.434	1684
663.488	760
663.542	1245
663.595	2082
663.649	441
663.703	1259
663.757	923
663.811	623
663.864	1057
663.918	1750
663.972	614
664.026	1443
664.079	628
664.133	1149
664.187	1282
664.240	1336
664.294	870
664.348	1326
664.401	1021
664.455	1398
664.508	1261
664.562	1658
664.615	1129
664.669	1014
664.722	1493
664.776	753
664.829	1271
664.883	1397
664.936	229
664.990	1707
665.043	512
665.097	1196
665.150	1569
665.203	1185
665.257	968
665.310	1338
665.363	-85
665.417	1221
665.470	1011
665.523	1005
665.576	1307
665.630	1155
665.683	1215
665.736	1236
665.789	1007
665.842	424
665.895	1279
665.949	2141
666.002	1161
666.055	1497
666.108	1438
666.161	1267
666.214	667
666.267	806
666.320	1510
666.373	1712
666.426	828
666.479	824
666.532	1560
666.585	910
666.638	2131
666.691	1065
666.744	996
666.796	783
666.849	974
666.902	1090
666.955	992
667.008	1084
667.060	729
667.113	1043
667.166	1253
667.219	1471
667.271	1143
667.324	1471
667.377	1260
667.430	1479
667.482	567
667.535	1486
667.587	872
667.640	2115
667.693	716
667.745	627
667.798	1509
667.850	1084
667.903	374
667.955	869
668.008	1037
668.060	1207
668.113	999
668.165	1569
668.218	1493
668.270	812
668.322	1593
668.375	673
668.427	1836
668.479	589
668.532	1279
668.584	1277
668.636	1138
668.689	1229
668.741	213
668.793	1569
668.845	930
668.898	922
668.950	456
669.002	1057
669.054	-281
669.106	625
669.158	273
669.211	670
669.263	266
669.315	865
669.367	934
669.419	-80
669.471	1064
669.523	917
669.575	926
669.627	679
669.679	460
669.731	612
669.783	407
669.835	785
669.886	358
669.938	1216
669.990	517
670.042	730
670.094	1097
670.146	854
670.197	1279
670.249	1838
670.301	1264
670.353	2036
670.404	1805
670.456	2311
670.508	3776
670.560	6775
670.611	12551
670.663	22498
670.715	41232
670.766	102292
670.818	114261
670.869	22577
670.921	5114
670.972	3566
671.024	2966
671.075	2250
671.127	1456
671.178	1429
671.230	1031
671.281	1364
671.333	2721
671.384	1436
671.436	2420
671.487	2842
671.538	5047
671.590	7412
671.641	12812
671.692	21957
671.744	42018
671.795	69597
671.846	35529
671.897	12442
671.949	6099
672.000	4096
672.051	3040
672.102	2266
672.153	1293
672.204	1533
672.256	1402
672.307	958
672.358	1197
672.409	891
672.460	760
672.511	700
672.562	968
672.613	506
672.664	939
672.715	355
672.766	746
672.817	351
672.868	84
672.919	488
672.970	-74
673.021	-19
673.071	-746
673.122	394
673.173	266
673.224	-288
673.275	85
673.326	488
673.376	286
673.427	432
673.478	598
673.528	784
673.579	-50
673.630	240
673.680	111
673.731	-47
673.782	1107
673.832	228
673.883	154
673.934	-13
673.984	241
674.035	-659
674.085	883
674.136	868
674.186	622
674.237	389
674.287	-29
674.338	627
674.388	601
674.438	195
674.489	76
674.539	320
674.589	758
674.640	339
674.690	142
674.740	-5
674.791	-107
674.841	366
674.891	409
674.942	638
674.992	-85
675.042	261
675.092	-89
675.142	196
675.193	758
675.243	-508
675.293	-267
675.343	-185
675.393	595
675.443	648
675.493	-118
675.543	-567
675.593	131
675.643	352
675.693	-5
675.743	554
675.793	402
675.843	-608
675.893	-262
675.943	-27
675.993	-554
676.043	-6
676.093	-125
676.142	-331
676.192	199
676.242	-446
676.292	535
676.341	-452
676.391	-501
676.441	390
676.491	-281
676.540	-582
676.590	-91
676.640	-57
676.689	289
676.739	-491
676.789	-172
676.838	82
676.888	-30
676.937	-446
676.987	40
677.037	-420
677.086	16
677.136	165
677.185	-16
677.235	388
677.284	-693
677.333	-442
677.383	-108
677.432	-540
677.482	-257
677.531	-530
677.580	-585
677.630	-130
677.679	139
677.728	-131
677.778	395
677.827	-647
677.876	-603
677.925	-588
677.975	-121
678.024	247
678.073	-318
678.122	-671
678.171	-432
678.220	114
678.269	-236
678.319	533
678.368	288
678.417	269
678.466	306
678.515	-332
678.564	-1433
678.613	-39
678.662	57
678.711	-538
678.760	-871
678.809	-809
678.857	-287
678.906	1
678.955	-282
679.004	-600
679.053	200
679.102	-989
679.151	0
679.199	67
679.248	-215
679.297	219
679.346	-333
679.394	-274
679.443	-330
679.492	-148
679.540	329
679.589	-211
679.638	-246
679.686	-296
679.735	7
679.784	222
679.832	194
679.881	515
679.929	-87
679.978	17
680.026	-377
680.075	-742
680.123	87
680.172	-378
680.220	-1070
680.268	6
680.317	-402
680.365	-756
680.414	-638
680.462	-592
680.510	-1175
680.559	-130
680.607	-1117
680.655	-560
680.703	-394
680.752	-60
680.800	146
680.848	-293
680.896	-946
680.945	-759
680.993	-383
681.041	-1300
681.089	-760
681.137	-90
681.185	-1034
681.233	-1134
681.258	-832
681.281	-583
681.329	-684
681.377	-251
681.380	-221
681.425	-351
681.473	200
681.502	-1
681.521	-204
681.569	-326
681.617	127
681.624	251
681.665	773
681.713	578
681.745	346
681.761	174
681.809	118
681.857	447
681.867	500
681.904	540
681.952	342
681.989	565
682.000	587
682.048	693
682.096	700
682.111	769
682.143	782
682.191	533
682.233	576
682.239	553
682.286	767
682.334	1012
682.354	1469
682.382	1959
682.430	1343
682.476	1850
682.477	1830
682.525	1540
682.572	1243
682.598	1266
682.620	1234
682.667	1831
682.715	1444
682.720	1541
682.763	2068
682.810	1383
682.841	1735
682.857	1889
682.905	1765
682.952	2464
682.963	2372
683.000	1859
683.047	1924
683.085	2070
683.095	2084
683.142	2942
683.190	2272
683.206	2381
683.237	2473
683.284	2739
683.328	2613
683.332	2570
683.379	2774
683.426	3009
683.449	2765
683.473	2493
683.521	3197
683.568	2838
683.571	2902
683.615	3399
683.662	3115
683.693	3232
683.709	3247
683.757	3147
683.804	3668
683.814	3699
683.851	3644
683.898	2939
683.936	3253
683.945	3323
683.992	4081
684.039	3495
684.057	3736
684.086	4053
684.133	4565
684.179	3665
684.180	3615
684.227	4050
684.274	4183
684.300	4494
684.321	4635
684.368	4284
684.415	4118
684.422	4325
684.462	5587
684.509	4512
684.543	5205
684.556	5396
684.603	5273
684.649	4683
684.665	4814
684.696	5103
684.743	5429
684.786	5275
684.790	5235
684.837	5537
684.883	5336
684.908	5567
684.930	5702
684.977	5823
685.023	5612
685.029	5549
685.070	5144
685.117	6001
685.150	6386
685.164	6482
685.210	6026
685.257	6454
685.272	6394
685.303	6228
685.350	6186
685.393	6376
685.396	6383
685.443	5932
685.490	6631
685.514	6618
685.536	6469
685.583	6546
685.629	6430
685.636	6395
685.675	6280
685.722	6175
685.757	6519
685.768	6592
685.815	6419
685.861	6635
685.878	6588
685.908	6568
685.954	6649
686.000	6921
686.000	6917
686.047	6578
686.093	7094
686.121	7293
686.139	7406
686.185	7511
686.232	7351
686.242	7499
686.278	7930
686.324	7790
686.363	7485
686.370	7406
686.416	7891
686.463	7775
686.484	7747
686.509	7778
686.555	7671
686.601	8125
686.606	8147
686.647	8285
686.693	7922
686.727	8248
686.739	8309
686.785	8363
686.831	7698
686.848	7675
686.877	7797
686.923	8150
686.969	8376
686.969	8375
687.015	8314
687.061	8651
687.090	8439
687.107	8378
687.153	8642
687.199	9280
687.211	9443
687.245	9562
687.291	8694
687.332	9064
687.336	9110
687.382	9311
687.428	8798
687.453	8798
687.474	8899
687.520	9106
687.565	9565
687.574	9563
687.611	9544
687.657	9316
687.695	9713
687.702	9789
687.748	10082
687.794	10953
687.816	10781
687.839	10701
687.885	10751
687.931	10683
687.937	10791
687.976	11023
688.022	10947
688.058	10817
688.067	10839
688.113	10512
688.158	11039
688.179	10942
688.204	10704
688.249	10419
688.295	10451
688.300	10373
688.340	9954
688.386	10085
688.421	10136
688.431	10227
688.477	10213
688.522	10680
688.542	10733
688.567	10862
688.613	10908
688.658	11500
688.663	11544
688.703	11745
688.749	11495
688.784	11444
688.794	11403
688.839	10952
688.884	11144
688.905	11098
688.930	11270
688.975	11600
689.020	11750
689.026	11786
689.065	11840
689.110	11620
689.146	11433
689.155	11431
689.201	11579
689.246	11570
689.267	11574
689.291	11596
689.336	11899
689.381	11440
689.388	11446
689.426	11592
689.471	11893
689.509	11897
689.516	11927
689.561	11790
689.606	11633
689.630	11962
689.651	12204
689.696	11811
689.741	12043
689.750	12010
689.785	12134
689.830	12297
689.871	12595
689.875	12631
689.920	12436
689.965	12732
689.992	12642
690.010	12649
690.054	12749
690.099	13027
690.112	13051
690.144	12997
690.189	12789
690.233	12595
690.233	12613
690.278	12755
690.323	12467
690.354	12449
690.367	12541
690.412	12749
690.457	12858
690.474	12906
690.501	12828
690.546	12538
690.590	12216
690.595	12203
690.635	12621
690.680	12713
690.716	12778
690.724	12793
690.769	13096
690.813	13064
690.836	13084
690.857	13261
690.902	13530
690.946	13875
690.957	13895
690.991	15156
691.035	16921
691.077	18734
691.080	18922
691.124	22030
691.168	24757
691.198	26494
691.213	25521
691.257	22628
691.301	19776
691.318	18521
691.346	17555
691.390	16332
691.434	14745
691.439	14600
691.478	14707
691.522	13858
691.559	13784
691.567	13873
691.611	14322
691.655	14252
691.680	14236
691.699	14283
691.743	14704
691.787	14897
691.800	14946
691.831	15015
691.875	15063
691.919	15326
691.921	15282
691.964	14740
692.008	14770
692.041	14789
692.052	14786
692.096	14515
692.139	14306
692.162	14154
692.183	14165
692.227	14298
692.271	14098
692.282	14034
692.315	14005
692.359	14093
692.402	13944
692.403	13973
692.447	14360
692.490	14366
692.523	14560
692.534	14618
692.578	14477
692.622	14475
692.643	14313
692.666	14177
692.709	14103
692.753	13961
692.763	13957
692.797	14273
692.840	14311
692.884	14841
692.884	14872
692.928	13954
692.971	13542
693.004	13342
693.015	13458
693.059	13987
693.102	14142
693.124	14351
693.146	14508
693.189	14297
693.233	14491
693.245	14483
693.276	14810
693.320	14978
693.363	15218
693.365	15202
693.407	15275
693.450	15114
693.485	14837
693.493	14950
693.537	15540
693.580	16317
693.605	16530
693.624	16850
693.667	17633
693.710	18158
693.725	18489
693.753	20528
693.797	23220
693.840	26579
693.845	26899
693.883	33711
693.926	40882
693.966	47616
693.970	46961
694.013	39014
694.056	31082
694.086	25656
694.099	24833
694.142	21833
694.185	18882
694.206	17365
694.229	17053
694.272	16789
694.315	16259
694.326	16070
694.358	16190
694.401	16250
694.444	16575
694.446	16540
694.487	16437
694.530	16481
694.566	16299
694.573	16301
694.616	16129
694.659	15975
694.686	15826
694.702	15901
694.745	16187
694.787	16111
694.806	16078
694.830	16110
694.873	16403
694.916	16413
694.926	16388
694.959	16217
695.002	16091
695.044	15734
695.046	15683
695.087	16169
695.130	16684
695.166	17049
695.172	17133
695.215	17346
695.258	17617
695.286	17761
695.301	17850
695.343	17894
695.386	18194
695.406	18083
695.428	18117
695.471	18501
695.514	18633
695.526	18668
695.556	19853
695.599	21350
695.641	22996
695.646	23110
695.684	24002
695.726	24928
695.766	25632
695.769	25602
695.811	24393
695.854	23055
695.886	21981
695.896	21980
695.938	21825
695.981	21827
696.005	21577
696.023	21716
696.065	22063
696.108	22360
696.125	22497
696.150	23158
696.192	23955
696.235	24865
696.245	25047
696.277	25557
696.319	25992
696.361	26501
696.365	26472
696.404	26701
696.446	26950
696.485	27007
696.488	27021
696.530	26418
696.572	25782
696.604	25145
696.614	25193
696.656	25183
696.698	25119
696.724	25075
696.740	25163
696.783	25199
696.825	25198
696.844	25145
696.867	25422
696.909	25825
696.951	26143
696.964	26215
696.992	26287
697.034	26112
697.076	26003
697.083	25927
697.118	26394
697.160	26857
697.202	27312
697.203	27250
697.244	27666
697.286	28114
697.323	28460
697.327	28529
697.369	28388
697.411	28357
697.442	28175
697.453	28288
697.494	28499
697.536	28642
697.562	28688
697.578	28600
697.620	28160
697.661	27658
697.682	27381
697.703	27701
697.744	28140
697.786	28631
697.801	28693
697.828	29096
697.869	29659
697.911	30251
697.921	30311
697.952	30104
697.994	29695
698.035	29335
698.040	29206
698.077	29205
698.118	29158
698.160	29101
698.160	29022
698.201	29635
698.243	30135
698.279	30564
698.284	30723
698.325	31402
698.367	32118
698.399	32530
698.408	32741
698.449	33325
698.491	33931
698.518	34244
698.532	34313
698.573	34225
698.614	34150
698.638	33993
698.656	34015
698.697	33886
698.738	33755
698.757	33587
698.779	33752
698.820	33902
698.862	34054
698.877	34018
698.903	34276
698.944	34532
698.985	34790
698.996	34768
699.026	34553
699.067	34123
699.116	33519
699.235	33965
699.354	34642
699.474	33626
699.593	31478
699.713	32670
699.832	31629
699.951	32725
700.070	32819
700.190	32267
700.309	30713
700.428	29351
700.547	29439
700.667	29128
700.786	29338
700.905	28876
701.024	27774
701.143	29380
701.262	27902
701.381	29257
701.500	28885
701.619	29538
701.738	28804
701.857	29180
701.976	28067
702.095	27425
702.214	28679
702.333	28644
702.452	27253
702.571	28835
702.690	29427
702.809	28182
702.928	28368
703.047	26298
703.165	25246
703.284	27129
703.403	25973
703.522	26497
703.640	24974
703.759	25104
703.878	24830
703.997	23827
704.115	25695
704.234	26252
704.353	24469
704.471	25603
704.590	22597
704.708	23355
704.827	22351
704.946	23359
705.064	23070
705.183	23708
705.301	21891
705.420	23973
705.538	22773
705.656	22287
705.775	20658
705.893	21447
706.012	23965
706.130	22543
706.249	20695
706.367	22329
706.485	20537
706.604	21297
706.722	20377
706.840	21434
706.958	22062
707.077	24040
707.195	20331
707.313	20302
707.431	19580
707.549	19882
707.668	19135
707.786	18321
707.904	20814
708.022	18789
708.140	19815
708.258	19372
708.376	18697
708.494	18574
708.612	18072
708.730	20265
708.848	19640
708.966	18548
709.084	18530
709.202	18746
709.320	18700
709.438	17387
709.556	18205
709.674	18565
709.791	16633
709.909	17184
710.027	17332
710.145	17373
710.263	15793
710.380	16665
710.498	16704
710.616	15608
710.733	15672
710.851	14866
710.969	15422
711.086	16357
711.204	15502
711.322	16084
711.439	15042
711.557	16668
711.674	14397
711.792	15550
711.909	15778
712.027	14457
712.144	14513
712.262	14369
712.379	14586
712.497	15703
712.614	14821
712.732	14978
712.849	15547
712.966	14145
713.084	14843
713.201	15311
713.318	13381
713.436	15366
713.553	15126
713.670	15015
713.787	15502
713.905	15514
714.022	14909
714.139	14422
714.256	16517
714.373	18722
714.490	23540
714.608	38314
714.725	101751
714.842	360209
714.959	219815
715.076	32260
715.193	18948
715.310	17854
715.427	15040
715.544	13234
715.661	14295
715.778	12992
715.895	13112
716.011	14019
716.128	13037
716.245	13070
716.362	13234
716.479	12748
716.596	11700
716.713	12976
716.829	12513
716.946	12721
717.063	12136
717.180	11755
717.296	11423
717.413	11567
717.530	12501
717.646	11245
717.763	10997
717.880	11691
717.996	11718
718.113	10212
718.229	10923
718.346	11452
718.462	10490
718.579	11476
718.695	11393
718.812	11208
718.928	10585
719.045	10971
719.161	10328
719.277	10500
719.394	11487
719.510	12493
719.626	10614
719.743	12182
719.859	13518
719.975	20343
720.092	37700
720.208	142792
720.324	211118
720.440	25674
720.557	13129
720.673	12751
720.789	11170
720.905	11888
721.021	11984
721.137	10155
721.253	9749
721.369	10074
721.486	8933
721.602	10702
721.718	9672
721.834	9161
721.950	9624
722.066	8253
722.181	8860
722.297	9229
722.413	9243
722.529	8889
722.645	9184
722.761	8338
722.877	9185
722.993	9890
723.108	10205
723.224	11637
723.340	9016
723.456	9229
723.571	8351
723.687	8289
723.803	7679
723.918	8488
724.034	7780
724.150	8415
724.265	8574
724.381	7686
724.497	8984
724.612	8795
724.728	8337
724.843	8349
724.959	7520
725.074	8153
725.190	8191
725.305	9489
725.421	7714
725.536	8700
725.651	8603
725.767	8466
725.882	8028
725.997	8534
726.113	8030
726.228	8737
726.343	8064
726.459	7937
726.574	7681
726.689	7848
726.804	7532
726.920	7090
727.035	7241
727.150	8523
727.265	8345
727.380	8177
727.495	8045
727.610	8026
727.725	7314
727.841	7621
727.956	8017
728.071	8621
728.186	7654
728.301	7108
728.416	6902
728.531	8137
728.645	7512
728.760	7381
728.875	7456
728.990	7933
729.105	7528
729.220	7570
729.335	6887
729.449	7455
729.564	7433
729.679	6851
729.794	7457
729.908	7404
730.023	8022
730.138	8225
730.253	7821
730.367	8052
730.482	7271
730.596	7371
730.711	7319
730.826	8805
730.940	10997
731.055	9985
731.169	9104
731.284	9181
731.398	9755
731.513	9541
731.627	9887
731.742	10438
731.856	13254
731.970	15495
732.085	15023
732.199	16672
732.313	23256
732.428	38859
732.542	98943
732.656	255182
732.771	106903
732.885	29016
732.999	20422
733.113	20022
733.227	20365
733.342	19142
733.456	19120
733.570	19176
733.684	18313
733.798	17056
733.912	16720
734.026	17151
734.140	17046
734.254	17111
734.368	16293
734.482	17566
734.596	16197
734.710	16200
734.824	15519
734.938	15160
735.052	14775
735.166	16208
735.280	15838
735.393	14773
735.507	14760
735.621	15355
735.735	14987
735.849	15304
735.962	14474
736.076	14041
736.190	14613
736.303	13826
736.417	14462
736.531	14432
736.644	13888
736.758	14141
736.872	14210
736.985	12534
737.099	13678
737.212	12959
737.326	13399
737.439	12047
737.553	13809
737.666	12515
737.780	12738
737.893	12234
738.007	13376
738.120	12537
738.233	12782
738.347	12090
738.460	12161
738.573	11724
738.687	13153
738.800	12176
738.913	12805
739.026	13729
739.140	12158
739.253	12541
739.366	12104
739.479	11834
739.592	11193
739.705	12253
739.818	11009
739.932	12739
740.045	10740
740.158	12292
740.271	11201
740.384	12179
740.497	10979
740.610	10237
740.723	11284
740.836	11250
740.949	10400
741.062	11282
741.174	11399
741.287	10383
741.400	10431
741.513	10716
741.626	9892
741.739	11170
741.851	10693
741.964	10782
742.077	10410
742.189	11089
742.302	8959
742.415	10280
742.527	9959
742.640	9845
742.753	10176
742.865	8783
742.978	10157
743.090	10374
743.203	9015
743.316	9413
743.428	8129
743.541	10346
743.653	8925
743.766	9251
743.878	9619
743.990	9519
744.103	8667
744.215	9459
744.327	8943
744.440	9206
744.552	10158
744.664	9270
744.777	8403
744.889	9860
745.001	9418
745.113	8258
745.226	9878
745.338	9188
745.450	7664
745.562	10446
745.674	7836
745.786	7836
745.898	9425
746.010	8933
746.122	7850
746.234	8922
746.347	8601
746.459	9176
746.570	8282
746.682	7332
746.794	9196
746.906	9137
747.018	7001
747.130	8679
747.242	8749
747.354	7146
747.466	7614
747.577	8445
747.689	7766
747.801	7840
747.913	7788
748.024	7400
748.136	6578
748.248	7720
748.359	7557
748.471	7351
748.583	7228
748.694	6999
748.806	6920
748.918	7914
749.029	6106
749.141	7531
749.252	7810
749.364	7623
749.475	6229
749.587	6689
749.698	6056
749.809	7255
749.921	6727
750.032	7140
750.144	6342
750.255	6288
750.366	6693
750.478	6830
750.589	7078
750.700	6382
750.811	6223
750.923	7001
751.034	5796
751.145	6624
751.256	7301
751.367	7238
751.479	5777
751.590	6251
751.701	6418
751.812	6077
751.923	6254
752.034	5379
752.145	6519
752.256	6844
752.367	6916
752.478	5840
752.589	6925
752.700	6979
752.811	6319
752.922	5772
753.032	6368
753.143	7097
753.254	6743
753.365	5905
753.476	6660
753.586	6611
753.697	5980
753.808	5988
753.919	5883
754.029	5686
754.140	6758
754.251	5780
754.361	6173
754.472	6363
754.582	6690
754.693	5790
754.804	5611
754.914	5967
755.025	5875
755.135	4911
755.246	6279
755.356	6731
755.466	6135
755.577	5294
755.687	5431
755.798	5599
755.908	5331
756.018	5206
756.129	5595
756.239	5506
756.349	6524
756.460	6008
756.570	6104
756.680	5775
756.790	5627
756.900	6689
757.011	5914
757.121	5941
757.231	5320
757.341	6205
757.451	6313
757.561	5156
757.671	5266
757.781	6132
757.891	5172
758.001	5925
758.111	5730
758.221	6370
758.331	5525
758.441	6353
758.551	5882
758.661	5857
758.771	6366
758.880	5657
758.990	5866
759.100	5621
759.210	6117
759.320	6763
759.429	6069
759.539	5868
759.649	6223
759.758	5465
759.868	6644
759.978	7584
760.087	7389
760.197	8053
760.307	6372
760.416	6939
760.526	6332
760.635	6562
760.745	6888
760.854	7467
760.964	7286
761.073	9332
761.182	7537
761.292	8219
761.401	6903
761.511	6645
761.620	5846
761.729	6651
761.839	6438
761.948	6719
762.057	5602
762.166	6370
762.276	5438
762.385	7143
762.494	5800
762.603	5803
762.712	6102
762.822	6380
762.931	6243
763.040	6736
763.149	6135
763.258	6613
763.367	5436
763.476	6676
763.585	6694
763.694	6281
763.803	6969
763.912	7448
764.021	7471
764.130	7432
764.238	7407
764.347	8437
764.456	7549
764.565	8912
764.674	8891
764.783	9661
764.891	9974
765.000	11693
765.109	11937
765.217	12514
765.326	14746
765.435	16692
765.543	18575
765.652	22310
765.761	28014
765.869	34145
765.978	47955
766.086	66807
766.195	101047
766.303	156982
766.412	218842
766.520	187631
766.629	189781
766.737	201602
766.846	134595
766.954	89203
767.062	60238
767.171	45016
767.279	34720
767.387	28740
767.496	23024
767.604	20412
767.712	17065
767.820	16523
767.928	14555
768.037	14394
768.145	12326
768.253	12120
768.361	11499
768.469	11601
768.577	11308
768.685	11571
768.793	12361
768.901	12960
769.009	14249
769.117	15392
769.225	17930
769.333	22404
769.441	29564
769.549	43781
769.657	72161
769.765	129102
769.873	197694
769.981	167990
770.088	177865
770.196	107691
770.304	61995
770.412	41817
770.519	30611
770.627	25575
770.735	19809
770.842	17263
770.950	14394
771.058	13630
771.165	12446
771.273	12158
771.380	12748
771.488	12239
771.595	13426
771.703	15327
771.810	13938
771.918	11931
772.025	12907
772.133	13798
772.240	15445
772.348	14571
772.455	15765
772.562	14899
772.670	14211
772.777	13322
772.884	14028
772.991	14126
773.099	12572
773.206	13742
773.313	12395
773.420	12863
773.528	11947
773.635	11914
773.742	11798
773.849	12375
773.956	10454
774.063	12515
774.170	11005
774.277	12295
774.384	11190
774.491	11384
774.598	11478
774.705	11362
774.812	10977
774.919	12072
775.026	10776
775.133	10337
775.239	10909
775.346	11393
775.453	10156
775.560	10976
775.667	8935
775.773	10725
775.880	9893
775.987	10255
776.093	9593
776.200	9526
776.307	9822
776.413	8669
776.520	8302
776.627	11017
776.733	9103
776.840	8481
776.946	8761
777.053	11520
777.159	9127
777.266	9310
777.372	9246
777.478	8676
777.585	10219
777.691	9707
777.798	7323
777.904	9803
778.010	8098
778.117	7367
778.223	8447
778.329	7518
778.435	8626
778.542	7611
778.648	9415
778.754	7712
778.860	8150
778.966	8273
779.072	7716
779.178	7275
779.284	8626
779.391	6057
779.497	6898
779.603	9117
779.708	7726
779.815	9183
779.920	10213
780.026	27103
780.132	40901
780.238	10088
780.344	7457
780.450	6468
780.556	9360
780.661	5380
780.767	6667
780.873	8764
780.979	5441
781.085	6086
781.190	8455
781.296	6280
781.402	5786
781.507	7167
781.613	6237
781.719	4837
781.824	6165
781.930	8039
782.035	5613
782.141	7469
782.246	7096
782.352	5609
782.457	6480
782.563	6627
782.668	5862
782.773	6089
782.879	5570
782.984	6391
783.090	5855
783.195	5286
783.300	6341
783.405	7115
783.511	5213
783.616	5651
783.721	5484
783.826	6100
783.932	5511
784.037	5311
784.142	6296
784.247	6810
784.352	6178
784.457	5878
784.562	4231
784.667	6276
784.772	6535
784.877	4721
784.982	4089
785.087	5797
785.192	6083
785.297	4273
785.402	5250
785.507	6454
785.611	6104
785.716	5484
785.821	4353
785.926	5086
786.031	5513
786.135	5177
786.240	5304
786.345	5645
786.450	5118
786.554	3583
786.659	4117
786.763	4218
786.868	5951
786.973	4914
787.077	5351
787.182	4634
787.286	3777
787.391	4738
787.495	5610
787.600	4014
787.704	3057
787.809	5519
787.913	5681
788.017	4462
788.122	4309
788.226	5188
788.330	4029
788.435	3300
788.539	4376
788.643	4422
788.747	3403
788.852	3489
788.956	4136
789.060	4708
789.164	5110
789.268	4155
789.372	4241
789.476	4495
789.580	3561
789.684	3191
789.788	2784
789.892	5221
789.996	4443
790.100	2163
790.204	3555
790.308	3851
790.412	4528
790.516	4147
790.620	3047
790.724	3887
790.828	4296
790.931	3971
791.035	2413
791.139	3189
791.242	2998
791.346	4587
791.450	3185
791.554	4503
791.657	3271
791.761	3037
791.864	3604
791.968	4390
792.072	4507
792.175	4406
792.279	3460
792.382	3899
792.486	3204
792.589	3032
792.693	4099
792.796	4088
792.899	3550
793.003	3289
793.106	3575
793.209	3334
793.313	3052
793.416	2191
793.519	3267
793.623	2718
793.726	4718
793.829	3533
793.932	2450
794.035	1574
794.138	3137
794.242	3831
794.345	4090
794.448	3262
794.551	2952
794.654	5512
794.757	12808
794.860	23298
794.963	5254
795.066	3756
795.169	2908
795.272	3732
795.375	3695
795.477	3240
795.580	3467
795.683	2556
795.786	3121
795.889	3766
795.991	3701
796.094	3064
796.197	2548
796.300	3404
796.402	3186
796.505	2729
796.608	2010
796.710	3063
796.813	2375
796.915	3296
797.018	4148
797.120	3098
797.223	2234
797.326	3560
797.428	3086
797.530	2488
797.633	1749
797.735	2908
797.838	2833
797.940	2831
798.042	3279
798.145	2303
798.247	2771
798.349	2785
798.452	2012
798.554	2233
798.656	2612
798.758	2811
798.860	2960
798.962	2775
799.065	2294
799.167	2380
799.269	2313
799.371	1927
799.473	2838
799.575	3242
799.677	2228
799.779	2634
799.881	1525
799.983	3336
800.085	2781
800.187	1880
800.289	1613
800.390	2116
800.492	2836
800.594	3894
800.696	1723
800.798	2172
800.899	2137
801.001	2877
801.103	2683
801.205	2221
801.306	2631
801.408	2366
801.509	2386
801.611	2927
801.713	3000
801.814	2461
801.916	1185
802.017	2240
802.119	1359
802.220	2358
802.322	1271
802.423	3565
802.525	841
802.626	1855
802.727	1328
802.829	2505
802.930	1977
803.031	1924
803.133	2013
803.234	2232
803.335	2125
803.436	3100
803.538	2430
803.639	2491
803.740	2269
803.841	2550
803.942	1612
804.043	2559
804.144	2042
804.245	1646
804.346	2112
804.447	2339
804.548	1665
804.649	2546
804.750	2617
804.851	2166
804.952	1773
805.053	1924
805.154	1554
805.255	1492
805.355	2002
805.456	1819
805.557	1757
805.658	2021
805.758	2434
805.859	2644
805.960	2353
806.061	2236
806.161	1853
806.262	2202
806.362	1460
806.463	1732
806.564	1631
806.664	2703
806.765	1977
806.865	2026
806.966	1496
807.066	1097
807.166	2219
807.267	1613
807.367	1828
807.468	2047
807.568	1414
807.668	2189
807.769	1909
807.869	2015
807.969	2201
808.069	2103
808.170	1200
808.270	1482
808.370	2077
808.470	2307
808.570	1608
808.670	1819
808.770	1965
808.870	2059
808.970	1963
809.070	1867
809.170	1539
809.271	2332
809.370	1179
809.470	1815
809.570	1643
809.670	1410
809.770	1387
809.870	1527
809.970	1988
810.070	1845
810.169	2042
810.269	1474
810.369	2001
810.469	1209
810.568	954
810.668	1795
810.768	1392
810.867	1920
810.967	1292
811.066	1283
811.166	2014
811.265	1454
811.365	1032
811.464	1359
811.564	2024
811.663	2008
811.763	805
811.862	2077
811.962	1946
812.061	1168
812.160	1888
812.260	1530
812.359	1123
812.458	1972
812.557	2068
812.657	2731
812.756	3312
812.855	2140
812.954	1879
813.053	1782
813.153	1555
813.252	1969
813.351	2028
813.450	1014
813.549	2001
813.648	1375
813.747	1968
813.846	2114
813.945	1234
814.044	1857
814.143	2282
814.242	1883
814.341	1703
814.439	2164
814.538	2543
814.637	1488
814.736	2350
814.835	2174
814.933	1428
815.032	2184
815.131	3160
815.229	3686
815.328	7449
815.427	10172
815.525	7666
815.624	6727
815.722	4774
815.821	7195
815.919	7594
816.018	6603
816.116	6665
816.215	5739
816.313	6892
816.412	7567
816.510	8874
816.609	9450
816.707	8850
816.805	8919
816.904	8176
817.002	8517
817.100	8384
817.198	9170
817.296	8802
817.395	7922
817.493	8317
817.591	7288
817.689	8284
817.787	7598
817.885	8248
817.983	8077
818.081	7797
818.179	9035
818.277	10674
818.375	19647
818.473	13855
818.571	9520
818.669	7305
818.767	8120
818.865	8371
818.963	6827
819.061	5780
819.158	8079
819.256	8099
819.354	10946
819.452	14549
819.549	26414
819.647	17557
819.745	9030
819.842	6752
819.940	6675
820.038	6498
820.135	7463
820.233	5817
820.330	7169
820.428	6769
820.525	6720
820.623	6734
820.720	6496
820.818	5950
820.915	7233
821.012	6643
821.110	5642
821.207	6566
821.304	5896
821.402	5968
821.499	7008
821.596	5552
821.693	5099
821.791	6373
821.888	5729
821.985	5830
822.082	6920
822.179	4912
822.276	5333
822.373	6358
822.470	5695
822.567	5354
822.664	6145
822.761	5465
822.858	4307
822.955	6042
823.052	6523
823.149	4613
823.246	5392
823.343	6099
823.440	4929
823.536	4504
823.633	6096
823.730	5408
823.827	4825
823.923	6041
824.020	5903
824.117	4047
824.213	5925
824.310	5561
824.407	4347
824.503	3446
824.600	5905
824.696	4919
824.793	4615
824.889	5248
824.986	5997
825.082	4741
825.179	3660
825.275	3230
825.371	5954
825.468	6730
825.564	4146
825.660	3014
825.757	5103
825.853	6593
825.949	3479
826.045	4389
826.142	3939
826.238	4888
826.334	5334
826.430	4770
826.526	5688
826.622	2203
826.718	3084
826.814	4966
826.910	5791
827.006	4991
827.102	2336
827.198	3232
827.294	4352
827.390	5733
827.486	5051
827.582	3076
827.678	2720
827.774	3886
827.869	5499
827.965	3923
828.061	3429
828.157	3090
828.252	5224
828.348	4311
828.444	4197
828.539	2149
828.635	3516
828.731	4245
828.826	3030
828.922	3832
829.017	4034
829.113	4769
829.208	4708
829.304	3049
829.399	3609
829.495	4157
829.590	3559
829.685	3008
829.781	3919
829.876	3931
829.971	5099
830.066	1557
830.162	1953
830.257	3363
830.352	5583
830.447	3702
830.543	2239
830.638	2301
830.733	4209
830.828	3970
830.923	2533
831.018	2864
831.113	3513
831.208	4593
831.303	2816
831.398	1971
831.493	2782
831.588	3453
831.683	5404
831.778	3497
831.873	1328
831.967	2652
832.062	3309
832.157	4460
832.252	4224
832.346	1898
832.441	3446
832.536	3653
832.631	3278
832.725	2486
832.820	2339
832.914	3221
833.009	2944
833.104	2085
833.198	2219
833.293	1336
833.387	2512
833.482	3888
833.576	3347
833.670	4027
833.765	3005
833.859	2675
833.954	4479
834.048	3318
834.142	2602
834.237	1876
834.331	1156
834.425	2783
834.519	1922
834.613	2939
834.708	1552
834.802	2476
834.896	1308
834.990	2699
835.084	3426
835.178	1358
835.272	1626
835.366	2512
835.460	3881
835.554	3349
835.648	2291
835.742	2173
835.836	945
835.930	1212
836.024	3324
836.117	3011
836.211	2519
836.305	2661
836.399	2040
836.493	717
836.586	2320
836.680	2581
836.774	3009
836.867	2082
836.961	1137
837.055	1301
837.148	1994
837.242	1302
837.335	2157
837.429	1826
837.522	1663
837.616	1611
837.709	2003
837.803	1054
837.896	2092
837.989	2293
838.083	3401
838.176	698
838.269	735
838.363	1379
838.456	2269
838.549	1728
838.642	2023
838.735	2357
838.829	1580
838.922	1956
839.015	1864
839.108	1202
839.201	1632
839.294	2001
839.387	2118
839.480	2228
839.573	563
839.666	976
839.759	753
839.852	867
839.945	1845
840.038	1902
840.131	1833
840.223	742
840.316	1678
840.409	1714
840.502	2279
840.594	3419
840.687	812
840.780	1244
840.873	776
840.965	641
841.058	915
841.150	1260
841.243	1496
841.336	1199
841.428	1246
841.521	1482
841.613	1120
841.706	1548
841.798	1293
841.890	1354
841.983	1665
842.075	1541
842.167	1018
842.260	1243
842.352	2500
842.444	2267
842.537	1691
842.629	1133
842.721	1210
842.813	1883
842.905	793
842.997	2371
843.090	1879
843.182	2130
843.274	1497
843.366	894
843.458	1492
843.550	2390
843.642	1873
843.734	670
843.826	979
843.918	1074
844.009	1059
844.101	1678
844.193	1432
844.285	1072
844.377	2279
844.469	1583
844.560	1122
844.652	423
844.744	1121
844.835	584
844.927	1474
845.019	1183
845.110	2158
845.202	917
845.293	1566
845.385	1159
845.476	560
845.568	1589
845.659	1195
845.751	1142
845.842	963
845.934	595
846.025	1921
846.116	1823
846.208	1260
846.299	881
846.390	947
846.482	1
846.573	1268
846.664	1156
846.755	1888
846.846	576
846.937	853
847.029	210
847.120	790
847.211	665
847.302	1313
847.393	1337
847.484	1237
847.575	835
847.666	756
847.757	802
847.847	946
847.938	926
848.029	1415
848.120	1610
848.211	2003
848.302	734
848.392	488
848.483	819
848.574	1139
848.664	1135
848.755	1995
848.846	1018
848.936	1373
849.027	1094
849.118	444
849.208	220
849.299	1557
849.389	1387
849.480	3380
849.570	5030
849.661	8393
849.751	14621
849.841	25723
849.932	9474
850.022	2161
850.112	1538
850.203	1409
850.293	1401
850.383	1570
850.474	630
850.564	1037
850.654	471
850.744	210
850.834	19
850.924	1030
851.014	795
851.104	1788
851.194	1487
851.284	969
851.374	409
851.464	646
851.554	445
851.644	1042
851.734	1251
851.824	1209
851.914	915
852.004	2016
852.094	1919
852.183	1391
852.273	380
852.363	286
852.452	-7
852.542	808
852.632	533
852.721	1150
852.811	296
852.901	977
852.990	827
853.080	1633
853.169	749
853.259	1648
853.348	1157
853.438	1173
853.527	1782
853.617	1329
853.706	2409
853.795	5496
853.885	9159
853.974	17277
854.063	31208
854.152	52912
854.242	73506
854.331	31717
854.420	8880
854.509	4346
854.598	3303
854.687	2985
854.777	1818
854.866	2150
854.955	1857
855.044	769
855.133	1328
855.222	1175
855.311	1062
855.400	894
855.488	134
855.577	724
855.666	1062
855.755	956
855.844	744
855.933	1028
856.021	1450
856.110	1947
856.199	257
856.288	693
856.376	-98
856.465	430
856.554	738
856.642	-9
856.731	1024
856.819	1547
856.908	994
856.996	1481
857.085	108
857.173	82
857.262	-99
857.350	914
857.438	631
857.527	32
857.615	238
857.703	1110
857.792	768
857.880	962
857.968	678
858.056	223
858.145	1011
858.233	271
858.321	317
858.409	1213
858.497	789
858.585	923
858.673	812
858.761	377
858.849	813
858.937	833
859.025	-19
859.113	1120
859.201	976
859.289	1098
859.377	825
859.465	631
859.552	726
859.640	335
859.728	308
859.816	332
859.903	1030
859.991	503
860.079	301
860.166	391
860.254	376
860.342	1280
860.429	-62
860.517	-62
860.604	791
860.692	916
860.779	-144
860.867	-5
860.954	772
861.042	945
861.129	515
861.216	1159
861.304	959
861.391	1511
861.478	446
861.565	466
861.653	1519
861.740	344
861.827	417
861.914	1197
862.001	543
862.089	707
862.176	719
862.263	1175
862.350	697
862.437	666
862.524	659
862.611	338
862.698	536
862.785	1158
862.871	968
862.958	1875
863.045	2074
863.132	1827
863.219	250
863.306	490
863.392	945
863.479	955
863.566	1086
863.652	1202
863.739	875
863.826	1566
863.912	1239
863.999	972
864.086	1678
864.172	1220
864.259	1610
864.345	1857
864.432	1560
864.518	1945
864.604	1254
864.691	2265
864.777	2110
864.863	1505
864.950	2154
865.036	3535
865.122	4935
865.209	9538
865.295	9790
865.381	9375
865.467	8016
865.553	7123
865.639	7518
865.726	8252
865.812	10575
865.898	14441
865.984	22356
866.070	30537
866.156	48218
866.242	51937
866.328	20820
866.414	11083
866.499	8033
866.585	7247
866.671	6709
866.757	7155
866.843	7449
866.928	6291
867.014	6400
867.100	6868
867.186	6433
867.271	6860
867.357	6618
867.442	5987
867.528	5293
867.614	6170
867.699	5678
867.785	6395
867.870	5336
867.956	5338
868.041	6641
868.127	6019
868.212	5733
868.297	6597
868.383	5546
868.468	5905
868.553	5638
868.639	6620
868.724	5548
868.809	5936
868.894	6519
868.979	5257
869.065	6004
869.150	5826
869.235	5374
869.320	5840
869.405	5679
869.490	4278
869.575	5871
869.660	5200
869.745	3712
869.830	5286
869.915	6122
870.000	4923
870.085	5311
870.169	5472
870.254	6711
870.339	6490
870.424	4297
870.509	4384
870.593	4693
870.678	6356
870.763	5429
870.847	4797
870.932	3076
871.016	5675
871.101	4915
871.186	4264
871.270	4727
871.355	6476
871.439	3921
871.523	4073
871.608	4772
871.692	3333
871.777	3826
871.861	5635
871.945	4579
872.030	5096
872.114	4570
872.198	5525
872.282	3343
872.367	3841
872.451	3885
872.535	3929
872.619	4133
872.703	4828
872.787	3004
872.871	4158
872.955	4658
873.039	3758
873.123	2918
873.207	4965
873.291	4483
873.375	2836
873.459	3116
873.543	4868
873.627	3607
873.711	4331
873.794	3196
873.878	3414
873.962	3203
874.045	2508
874.129	3725
874.137	3685
874.213	3288
874.245	3472
874.296	3775
874.352	3534
874.380	3414
874.460	3264
874.464	3260
874.547	3487
874.568	3478
874.631	3466
874.676	3544
874.714	3589
874.784	3659
874.798	3682
874.881	4250
874.892	4021
874.965	2445
874.999	2523
875.048	2630
875.107	3237
875.131	3477
875.215	3761
875.215	3759
875.298	1910
875.323	1891
875.381	1840
875.430	2323
875.465	2714
875.538	4317
875.548	4513
875.631	3154
875.646	2938
875.714	1994
875.753	1814
875.798	1614
875.861	2232
875.881	2415
875.964	3464
875.968	3442
876.047	3079
876.076	2695
876.130	1955
876.183	2411
876.213	2695
876.291	3097
876.296	3112
876.379	3239
876.398	3109
876.462	2827
876.506	2452
876.545	2049
876.613	1982
876.628	1985
876.711	2307
876.721	2374
876.794	2924
876.828	2917
876.877	2889
876.935	3164
876.960	3216
877.043	2003
877.043	2003
877.125	2040
877.150	2094
877.208	2088
877.258	2378
877.291	2670
877.365	2391
877.374	2339
877.456	1636
877.472	1734
877.539	2344
877.579	2149
877.622	1823
877.687	2526
877.704	2724
877.787	2317
877.794	2296
877.869	2124
877.901	2118
877.952	2126
878.008	2115
878.034	2017
878.115	924
878.117	908
878.199	1150
878.222	1316
878.282	1687
878.329	1904
878.364	2107
878.437	2700
878.447	2743
878.529	2160
878.544	2031
878.611	1405
878.651	1342
878.694	1506
878.758	2186
878.776	2321
878.858	2446
878.865	2447
878.941	2282
878.972	2196
879.023	2067
879.078	1175
879.105	807
879.185	1767
879.187	1788
879.269	2242
879.292	2231
879.351	1972
879.399	2038
879.433	2094
879.506	1475
879.516	1414
879.598	1192
879.613	1281
879.680	1722
879.720	1642
879.762	1390
879.827	1488
879.844	1549
879.926	1384
879.933	1364
880.007	1081
880.040	1233
880.089	1704
880.147	1683
880.171	1533
880.253	1748
880.254	1749
880.335	1718
880.360	1695
880.417	1691
880.467	1872
880.499	1978
880.574	3193
880.580	3285
880.662	2859
880.680	2748
880.744	2119
880.787	1754
880.825	1486
880.893	1137
880.907	1106
880.989	1478
881.000	1449
881.070	1189
881.106	1363
881.152	1653
881.213	1775
881.233	1684
881.315	1018
881.319	1002
881.396	1370
881.426	1533
881.478	1475
881.532	1117
881.559	1198
881.639	2350
881.641	2347
881.722	1191
881.745	1044
881.803	1350
881.852	1335
881.885	1135
881.958	1395
881.966	1453
882.047	1007
882.064	1054
882.129	1134
882.171	1148
882.210	1148
882.277	1009
882.291	913
882.372	631
882.383	605
882.454	1386
882.489	1972
882.535	2023
882.596	1534
882.616	1480
882.697	1132
882.702	1124
882.778	1409
882.808	1519
882.859	1191
882.914	863
882.940	797
883.020	846
883.021	850
883.102	1603
883.127	1631
883.183	1183
883.233	1362
883.264	1573
883.339	928
883.345	873
883.426	767
883.445	744
883.507	967
883.551	1114
883.587	924
883.657	1104
883.668	1202
883.749	1169
883.763	1218
883.830	1182
883.869	940
883.910	663
883.975	438
883.991	395
884.072	462
884.081	428
884.152	755
884.187	1145
884.233	1284
884.292	1534
884.314	1675
884.394	1276
884.398	1266
884.475	503
884.504	432
884.555	865
884.610	935
884.636	613
884.716	109
884.716	109
884.797	605
884.821	704
884.877	1003
884.927	1130
884.958	1120
885.033	1175
885.038	1140
885.118	402
885.139	311
885.199	587
885.244	865
885.279	836
885.350	583
885.359	613
885.439	917
885.456	995
885.520	1151
885.561	1150
885.600	822
885.667	14
885.680	58
885.760	821
885.773	950
885.840	1048
885.878	975
885.920	613
885.984	105
886.000	83
886.080	267
886.089	254
886.160	378
886.195	540
886.240	668
886.300	629
886.320	529
886.400	494
886.406	496
886.480	741
886.511	623
886.560	247
886.616	202
886.640	398
886.720	811
886.722	821
886.800	-6
886.827	-215
886.879	404
886.932	860
886.959	989
887.038	1680
887.039	1671
887.119	663
887.143	361
887.198	222
887.248	258
887.278	608
887.354	1109
887.358	1085
887.437	896
887.459	762
887.517	912
887.564	1303
887.596	1105
887.669	292
887.676	309
887.755	659
887.774	763
887.835	518
887.880	349
887.914	525
887.985	924
887.994	920
888.073	761
888.090	755
888.153	978
888.195	1084
888.232	834
888.300	372
888.311	347
888.391	207
888.405	181
888.470	-94
888.510	-204
888.549	223
888.615	904
888.628	825
888.708	380
888.720	321
888.787	649
888.825	766
888.866	449
888.930	52
888.945	162
889.024	750
889.035	831
889.103	658
889.140	569
889.182	969
889.245	1551
889.261	1392
889.340	664
889.349	578
889.419	942
889.454	1142
889.498	996
889.559	785
889.577	853
889.656	1178
889.664	1214
889.735	643
889.768	374
889.814	456
889.873	575
889.978	362
890.083	446
890.187	774
890.292	1123
890.397	-385
890.501	362
890.606	377
890.710	830
890.815	546
890.919	899
891.024	602
891.128	341
891.233	-16
891.337	1014
891.442	1092
891.546	504
891.650	180
891.755	1181
891.859	318
891.963	947
892.068	1237
892.172	166
892.276	336
892.380	784
892.484	-43
892.589	656
892.693	325
892.797	889
892.901	924
893.005	562
893.109	788
893.213	759
893.317	208
893.421	420
893.525	-467
893.629	-201
893.733	865
893.837	1351
893.941	522
894.045	578
894.148	178
894.252	236
894.356	470
894.460	773
894.564	831
894.667	-32
894.771	827
894.875	-81
894.978	-77
895.082	-113
895.186	420
895.289	562
895.393	705
895.496	704
895.600	614
895.703	479
895.807	16
895.910	272
896.014	361
896.117	385
896.221	-35
896.324	502
896.427	385
896.531	183
896.634	224
896.737	256
896.840	209
896.944	1165
897.047	494
897.150	687
897.253	-573
897.356	597
897.460	171
897.563	432
897.666	220
897.769	181
897.872	-12
897.975	531
898.078	-36
898.181	269
898.284	-12
898.387	412
898.490	453
898.593	892
898.695	-150
898.798	215
898.901	-688
899.004	-56
899.107	-236
899.209	528
899.312	170
899.415	871
899.518	-364
899.620	62
899.723	204
899.826	348
899.928	353
900.031	281
900.133	450
900.236	408
900.338	675
900.441	588
900.543	231
900.646	-273
900.748	-296
900.851	207
900.953	424
901.055	1377
901.158	152
901.260	229
901.362	445
901.465	85
901.567	304
901.669	490
901.771	650
901.873	307
901.976	307
902.078	347
902.180	15
902.282	364
902.384	-270
902.486	1412
902.588	364
902.690	679
902.792	-29
902.894	485
902.996	306
903.098	607
903.200	177
903.302	434
903.404	-213
903.505	748
903.607	-484
903.709	944
903.811	515
903.913	354
904.014	439
904.116	426
904.218	-479
904.319	364
904.421	406
904.523	1026
904.624	-65
904.726	316
904.827	-662
904.929	984
905.030	49
905.132	660
905.233	179
905.335	219
905.436	210
905.537	179
905.639	692
905.740	124
905.841	368
905.943	100
906.044	37
906.145	-123
906.247	-647
906.348	468
906.449	161
906.550	816
906.651	88
906.752	826
906.854	-165
906.955	-47
907.056	262
907.157	312
907.258	59
907.359	-193
907.460	-101
907.561	5
907.662	212
907.762	-107
907.863	213
907.964	-487
908.065	-189
908.166	-359
908.267	-201
908.367	720
908.468	-171
908.569	472
908.670	720
908.770	12
908.871	-218
908.971	770
909.072	-89
909.173	-424
909.273	-10
909.374	76
909.474	-198
909.575	700
909.675	313
909.776	325
909.876	-411
909.977	-423
910.077	148
910.177	-20
910.278	194
910.378	389
910.478	-442
910.579	-10
910.679	68
910.779	346
910.879	6
910.980	352
911.080	-214
911.180	-967
911.280	-25
911.380	155
911.480	-828
911.580	-400
911.680	-144
911.780	-1
911.880	7
911.980	-210
912.080	775
912.180	199
912.280	-325
912.380	142
912.480	-87
912.580	-136
912.679	-1024
912.779	117
912.879	-419
912.979	253
913.078	284
913.178	465
913.278	254
913.377	-276
913.477	31
913.577	-234
913.676	237
913.776	186
913.875	47
913.975	-18
914.074	-17
914.174	-143
914.273	-346
914.373	861
914.472	-105
914.572	-514
914.671	-450
914.770	18
914.870	244
914.969	-377
915.068	545
915.167	-766
915.267	-1053
915.366	711
915.465	-743
915.564	-11
915.663	-2
915.763	-155
915.862	-507
915.961	238
916.060	-245
916.159	-352
916.258	-131
916.357	-51
916.456	332
916.555	535
916.654	-480
916.752	-195
916.851	-17
916.950	160
917.049	-738
917.148	494
917.247	-255
917.345	175
917.444	-948
917.543	-339
917.642	-483
917.740	-979
917.839	-223
917.937	665
918.036	476
918.135	161
918.233	-212
918.332	100
918.430	-107
918.529	553
918.627	-550
918.726	69
918.824	-33
918.923	-178
919.021	440
919.119	-267
919.218	-735
919.316	-58
919.414	431
919.512	240
919.611	-168
919.709	-843
919.807	-72
919.905	200
920.003	396
920.102	185
920.200	337
920.298	-405
920.396	141
920.494	-607
920.592	-74
920.690	694
920.788	-740
920.886	-97
920.984	252
921.082	-271
921.180	-103
921.277	117
921.375	307
921.473	505
921.571	886
921.669	642
921.766	474
921.864	931
921.962	434
922.060	461
922.157	521
922.255	790
922.352	463
922.450	366
922.548	560
922.645	541
922.743	883
922.840	1414
922.938	2465
923.035	3022
923.133	2754
923.230	2450
923.327	2448
923.425	4016
923.522	2556
923.619	3351
923.717	3411
923.814	2108
923.911	1535
924.008	2552
924.106	1906
924.203	2112
924.300	1404
924.397	2443
924.494	2358
924.591	2692
924.688	1716
924.786	2673
924.883	2205
924.979	2535
925.077	2224
925.173	2582
925.270	1652
925.367	2260
925.464	2194
925.561	1851
925.658	2304
925.755	2334
925.852	1799
925.948	2955
926.045	2144
926.142	2114
926.239	2222
926.335	2048
926.432	950
926.529	2194
926.625	1564
926.722	2653
926.818	1681
926.915	1892
927.011	2269
927.108	1834
927.204	1391
927.301	1708
927.397	1023
927.494	2735
927.590	2240
927.687	1806
927.783	1446
927.879	1843
927.976	1698
928.072	1678
928.168	1100
928.264	1304
928.361	1703
928.457	1839
928.553	2268
928.649	2285
928.745	1870
928.841	1856
928.937	1413
929.033	1425
929.129	1230
929.225	1606
929.321	2299
929.417	764
929.513	1121
929.609	2013
929.705	918
929.801	2012
929.897	1409
929.993	1768
930.089	860
930.184	1875
930.280	1547
930.376	1603
930.471	893
930.567	1584
930.663	1354
930.758	1511
930.854	1583
930.950	1829
931.045	940
931.141	988
931.236	1126
931.332	2258
931.427	464
931.523	1289
931.618	1349
931.714	1185
931.809	242
931.905	1972
932.000	1634
932.095	1435
932.191	1060
932.286	643
932.381	1609
932.476	1700
932.572	256
932.667	1486
932.762	589
932.857	757
932.952	2065
933.047	890
933.142	633
933.237	838
933.332	407
933.427	1077
933.522	1362
933.617	500
933.712	1041
933.807	1542
933.902	1517
933.997	1668
934.092	1327
934.187	618
934.282	364
934.376	974
934.471	528
934.566	1563
934.661	575
934.755	1054
934.850	1011
934.945	1360
935.039	371
935.134	-266
935.228	454
935.323	1272
935.417	1385
935.512	405
935.606	-706
935.701	96
935.795	902
935.890	1449
935.984	665
936.079	1184
936.173	271
936.267	740
936.362	730
936.456	424
936.550	70
936.644	1740
936.738	435
936.833	459
936.927	46
937.021	700
937.115	529
937.209	184
937.303	1546
937.397	776
937.491	443
937.585	1444
937.679	94
937.773	984
937.867	585
937.961	-60
938.055	269
938.149	413
938.243	400
938.337	-238
938.430	532
938.524	270
938.618	716
938.712	1187
938.805	341
938.899	984
938.993	536
939.086	1570
939.180	-556
939.274	503
939.367	248
939.461	1310
939.554	1207
939.648	83
939.741	866
939.835	-310
939.928	897
940.022	1511
940.115	297
940.208	1373
940.302	578
940.395	888
940.488	247
940.582	739
940.675	-320
940.768	576
940.861	-493
940.954	1015
941.048	-135
941.141	268
941.234	-650
941.327	420
941.420	348
941.513	919
941.606	398
941.699	262
941.792	332
941.885	268
941.978	458
942.071	378
942.164	793
942.257	-439
942.349	211
942.442	256
942.535	-136
942.628	-252
942.721	392
942.813	546
942.906	-364
942.999	256
943.091	331
943.184	102
943.277	29
943.369	-110
943.462	-504
943.554	-560
943.647	28
943.739	697
943.832	191
943.924	521
944.017	78
944.109	3
944.201	-475
944.294	30
944.386	-161
944.478	734
944.571	-339
944.663	-244
944.755	150
944.847	-85
944.940	358
945.032	321
945.124	-367
945.216	-613
945.308	-591
945.400	18
945.492	164
945.584	-104
945.676	-148
945.768	690
945.860	-305
945.952	-408
946.044	321
946.136	-147
946.228	-362
946.320	-37
946.412	-568
946.503	208
946.595	655
946.687	-84
946.779	-86
946.870	119
946.962	-218
947.054	-298
947.145	220
947.237	-324
947.329	-922
947.420	-830
947.512	-269
947.603	80
947.695	-698
947.786	-289
947.878	-803
947.969	-23
948.061	-631
948.152	-47
948.243	-1034
948.335	61
948.426	-413
948.517	-361
948.609	390
948.700	-513
948.791	-292
948.882	-617
948.973	-434
949.065	-887
949.156	-357
949.247	-495
949.338	-792
949.429	-345
949.520	-467
949.611	-823
949.702	-514
949.793	33
949.884	-499
949.975	-90
950.066	-568
950.157	-619
950.247	-1135
950.338	-1173
950.429	-746
950.520	-764
950.611	-805
950.701	-965
950.792	239
950.883	76
950.973	-431
951.064	400
951.155	-440
951.245	-10
951.336	-169
951.427	-541
951.517	-214
951.608	76
951.698	-577
951.788	315
951.879	-1452
951.969	-275
952.060	-515
952.150	-217
952.240	-609
952.331	388
952.421	303
952.511	-844
952.602	-1048
952.692	-1000
952.782	-865
952.872	-1060
952.962	-472
953.052	596
953.143	-454
953.233	-848
953.323	-889
953.413	-598
953.503	-544
953.593	-136
953.683	-902
953.773	352
953.863	-740
953.953	-519
954.042	-682
954.132	240
954.222	214
954.312	-742
954.402	-1196
954.492	-158
954.581	-346
954.671	172
954.761	-781
954.850	-111
954.940	-188
955.030	-932
955.119	-1118
955.209	-69
955.298	-119
955.388	-799
955.477	-322
955.567	-76
955.656	-1176
955.746	-967
955.835	-1372
955.925	-26
956.014	-614
956.103	-253
956.193	81
956.282	-389
956.371	-484
956.461	-283
956.550	-600
956.639	-251
956.728	-963
956.817	-432
956.906	-654
956.995	-148
957.085	-599
957.174	-188
957.263	-1199
957.352	-646
957.441	-179
957.530	-446
957.619	-569
957.708	-802
957.796	-516
957.885	-821
957.974	-1401
958.063	-94
958.152	-1029
958.241	-830
958.329	-995
958.418	-215
958.507	-883
958.596	-390
958.684	-772
958.773	-721
958.861	-153
958.950	-200
959.039	-677
959.127	45
959.216	-723
959.304	-174
959.393	-921
959.481	-612
959.570	-1053
959.658	-794
959.746	-1476
959.835	-545
959.923	-129
960.011	-767
960.100	-1076
960.188	-706
960.276	-1079
960.365	-575
960.453	-1303
960.541	-544
960.629	-1117
960.717	-999
960.805	-1439
960.893	-565
960.981	-692
961.069	-57
961.158	-683
961.245	86
961.333	-700
961.421	-602
961.509	-847
961.597	-308
961.685	-522
961.773	-733
961.861	-727
961.949	-734
962.036	-1251
962.124	-1272
962.212	-1190
962.299	-1454
962.387	-707
962.475	-786
962.562	-1026
962.650	-11
962.738	-921
962.825	-313
962.913	-893
963.000	-793
963.088	-720
963.175	-1203
963.263	-1555
963.350	-1626
963.438	-309
963.525	-963
963.612	-1200
963.700	-927
963.787	-525
963.874	-285
963.962	-808
964.049	-1032
964.136	-1556
964.223	-796
964.310	-1325
964.398	-917
964.485	-1386
964.572	-351
964.659	-571
964.746	-338
964.833	-282
964.920	-1261
965.007	-1069
965.094	-1041
965.181	-1178
965.268	-643
965.355	-482
965.441	-1453
965.528	-1576
965.615	-1341
965.702	-610
965.789	-1092
965.875	-757
965.962	-636
966.049	-777
966.136	-695
966.222	-739
966.309	-336
966.395	-1184
966.482	-513
966.569	-850
966.655	-597
966.742	-375
966.828	-777
966.915	-739
967.001	-1722
967.087	-447
967.174	-419
967.260	-411
967.347	-978
967.433	-831
967.519	-1230
967.605	-1157
967.692	-929
967.778	-750
967.864	-353
967.950	-1065
968.036	-521
968.123	-1217
968.209	-994
968.295	-937
968.381	-23
968.467	-222
968.553	-1218
968.639	-1416
968.725	-1090
968.811	-1388
968.897	-996
968.983	-1052
969.069	-889
969.154	-913
969.240	-606
969.326	-412
969.412	-1390
969.497	-1275
969.583	-1075
969.669	-1122
969.755	-969
969.840	-992
969.926	-1046
970.012	-1024
970.097	-130
970.183	-142
970.268	249
970.354	-814
970.439	-678
970.525	-747
970.610	-1007
970.696	-1214
970.781	-391
970.866	-1224
970.952	-858
971.037	-2031
971.122	-677
971.208	-511
971.293	-296
971.378	-1325
971.463	-782
971.549	-1388
971.634	-1085
971.719	-1053
971.804	-875
971.889	-1073
971.974	-1607
972.059	-1534
972.144	-634
972.229	-1320
972.314	-1521
972.399	-1350
972.484	-824
972.569	-736
972.654	-1969
972.739	-1563
972.824	-1367
972.908	-878
972.993	-902
973.078	-1863
973.163	-468
973.247	-1244
973.332	-1158
973.417	-500
973.501	-2209
973.586	-1243
973.671	2
973.755	-896
973.840	-611
973.924	-651
974.009	-120
974.093	-813
974.178	-268
974.262	-1230
974.346	-379
974.431	-909
974.515	-1590
974.600	-1471
974.684	-906
974.768	-941
974.852	-282
974.937	-1652
975.021	-355
975.105	-480
975.189	-976
975.273	-1130
975.358	-156
975.442	-1435
975.526	-1191
975.610	-1395
975.694	-735
975.778	-387
975.862	-1465
975.946	-2188
976.030	-1152
976.114	-1270
976.198	-907
976.281	-869
976.365	-645
976.449	-984
976.533	-986
976.617	-1827
976.700	-656
976.784	-1148
976.868	-1123
976.951	-502
977.035	-455
977.119	-1339
977.202	-1589
977.286	-1363
977.369	180
977.453	-791
977.536	39
977.620	-246
977.703	-683
977.787	-1479
977.870	-478
977.953	-651
978.037	-392
978.120	-1525
978.203	-994
978.287	-1401
978.370	-834
978.453	-1030
978.536	-1149
978.620	-1122
978.703	-1079
978.786	-814
978.869	-526
978.952	-1734
979.035	-358
979.118	-1142
979.201	-1338
979.284	-806
979.367	-1117
979.450	106
979.533	-601
979.616	-1394
979.699	-537
979.782	-1000
979.865	-1232
979.948	-1091
980.030	-830
980.113	-1055
980.196	-1134
980.279	-1540
980.361	-767
980.444	-1078
980.526	-776
980.609	-875
980.692	-389
980.774	-793
980.857	-371
980.939	-470
981.022	-569
981.104	-1150
981.187	-504
981.269	-846
981.352	-542
981.434	-997
981.516	-842
981.599	-469
981.681	-1265
981.763	-720
981.846	-1205
981.928	-679
982.010	-744
982.092	-444
982.174	-411
982.256	-1434
982.339	-635
982.421	-1214
982.503	-670
982.585	-1797
982.667	-873
982.749	-1161
982.831	1
982.913	-1065
982.995	75
983.077	-1415
983.158	-217
983.240	-1375
983.322	245
983.404	-1011
983.486	-17
983.568	4
983.649	57
983.731	-1176
983.813	-1381
983.894	465
983.976	-85
984.058	-966
984.139	-1064
984.221	-827
984.302	-161
984.384	-460
984.465	-690
984.547	-1227
984.628	-199
984.710	-764
984.791	-437
984.872	-416
984.954	-165
985.035	-1118
985.116	-933
985.198	-1326
985.279	-869
985.360	-885
985.441	-449
985.522	-591
985.604	-1096
985.685	-1204
985.766	292
985.847	-407
985.928	-740
986.009	-872
986.090	286
986.171	-1030
986.252	-710
986.333	-516
986.414	-938
986.495	-744
986.576	-35
986.656	-861
986.737	-536
986.818	-849
986.899	-138
986.980	-3
987.060	-516
987.141	-194
987.222	-72
987.302	-664
987.383	-582
987.464	-253
987.544	-332
987.625	-815
987.705	-615
987.786	-202
987.866	-94
987.947	-676
988.027	-861
988.108	-86
988.188	-611
988.268	-206
988.349	-168
988.429	-639
988.509	-189
988.589	-710
988.670	64
988.750	-337
988.830	-468
988.910	-1312
988.990	-168
989.070	-686
989.151	-465
989.231	-1221
989.311	-483
989.391	-761
989.471	-833
989.551	-1436
989.631	-502
989.711	-1105
989.791	-890
989.870	-368
989.950	148
990.030	-69
990.110	-443
990.190	-656
990.269	-912
990.349	-920
990.429	-686
990.509	-606
990.588	-547
990.668	-600
990.747	-768
990.827	-1290
990.907	-950
990.986	-657
991.066	-862
991.145	-722
991.225	-607
991.304	-1251
991.383	-1038
991.463	-794
991.542	-497
991.622	-500
991.701	-1244
991.780	-909
991.859	-142
991.939	-1000
992.018	-970
992.097	-781
992.176	-825
992.256	-616
992.335	-1554
992.414	-1164
992.493	129
992.572	-895
992.651	-533
992.730	-1021
992.809	-207
992.888	-1496
992.967	-97
993.046	-1015
993.125	-1355
993.203	-995
993.282	229
993.361	-1246
993.440	-695
993.519	-1116
993.597	-1115
993.676	-1122
993.755	-890
993.834	-723
993.912	-520
993.991	-1380
994.069	-1210
994.148	-783
994.226	102
994.305	-811
994.384	-618
994.462	-1072
994.540	-983
994.619	-1193
994.697	-1037
994.776	238
994.854	-730
994.932	-950
995.011	-659
995.089	-1257
995.167	-1777
995.245	-1645
995.324	-1066
995.402	-419
995.480	-847
995.558	-1102
995.636	-1609
995.714	-918
995.792	-596
995.870	-983
995.948	-427
996.026	-1197
996.104	-1766
996.182	-944
996.260	-1221
996.338	-1687
996.416	-1278
996.494	-1101
996.572	-412
996.649	-761
996.727	-1064
996.805	-1799
996.883	-796
996.960	-1758
997.038	-1108
997.116	-846
997.193	-2015
997.271	-862
997.348	-1139
997.426	-1647
997.504	-1119
997.581	-1530
997.658	-450
997.736	-1571
997.813	-1502
997.891	-1419
997.968	-1001
998.046	-965
998.123	-585
998.200	-1638
998.277	-938
998.355	-849
998.432	-1054
998.509	-543
998.586	-1302
998.663	-1226
998.741	-920
998.818	-1424
998.895	-2298
998.972	-1126
999.049	-424
999.126	-1288
999.203	-266
999.280	-1569
999.357	-990
999.434	-1364
999.511	-843
999.587	-1169
999.664	-1503
999.741	-1757
999.818	-811
999.895	-1203
999.971	-964
1000.048	-1300
1000.125	-835
1000.202	-1641
1000.278	-846
1000.355	-804
1000.431	-1780
1000.508	-952
1000.584	-1363
1000.661	-1994
1000.738	-1341
1000.814	-1772
1000.890	-1919
1000.967	-1651
1001.043	-1843
1001.120	-1980
1001.196	-1231
1001.272	-1769
1001.349	-956
1001.425	-1416
1001.501	-1283
1001.577	-2004
1001.654	-1640
1001.730	-1357
1001.806	-1463
1001.882	-1595
1001.958	-503
1002.034	-1759
1002.110	-738
1002.186	-1160
1002.262	-1544
1002.338	-1658
1002.414	-1310
1002.490	-1269
1002.566	-1216
1002.642	-1580
1002.718	-1458
1002.794	-2395
1002.870	-1177
1002.945	-1308
1003.021	-907
1003.097	-1603
1003.173	-1261
1003.248	-1448
1003.324	-513
1003.400	-1898
1003.475	-1112
1003.551	-1483
1003.626	-1155
1003.702	-1432
1003.777	-1376
1003.853	-1219
1003.928	-1434
1004.004	-1784
1004.079	-1429
1004.155	-2087
1004.230	-1227
1004.305	-1490
1004.381	-1638
1004.456	-1729
1004.531	-1648
1004.607	-1558
1004.682	-1237
1004.757	-1368
1004.832	-1124
1004.907	-1471
1004.982	-1289
1005.057	-1929
1005.133	-1619
1005.208	-1486
1005.283	-1554
1005.358	-1262
1005.433	-1852
1005.508	-714
1005.583	-1677
1005.657	-1256
1005.732	-1261
1005.807	-1379
1005.882	-1776
1005.957	-1635
1006.032	-1394
1006.106	-1846
1006.181	-1497
1006.256	-1684
1006.331	-1257
1006.405	-1474
1006.480	-1613
1006.554	-1142
1006.629	-1640
1006.704	-1547
1006.778	-1313
1006.853	-1143
1006.927	-1094
1007.002	-2283
1007.076	-999
1007.150	-1436
1007.225	-1388
1007.299	-1898
1007.373	-1804
1007.448	-862
1007.522	-1859
1007.596	-2000
1007.671	-2420
1007.745	-1050
1007.819	-1285
1007.893	-1876
1007.967	-1752
1008.041	-2495
1008.115	-1150
1008.190	-1955
1008.264	-1613
1008.338	-2780
1008.412	-1242
1008.486	-1325
1008.560	-2050
1008.633	-2336
1008.707	-1849
1008.781	-1910
1008.855	-646
1008.929	-1777
1009.003	-2235
1009.076	-1178
1009.150	-2280
1009.224	-1600
1009.298	-1585
1009.371	-2031
1009.445	-472
1009.519	-1666
1009.592	-1081
1009.666	-2132
1009.739	-1315
1009.813	-2833
1009.886	-1099
1009.960	-1984
1010.033	-678
1010.107	-1836
1010.180	-1989
1010.253	-1940
1010.327	-1409
1010.400	-2080
1010.473	-1823
1010.547	-1342
1010.620	-1504
1010.693	-2096
1010.766	-1536
1010.840	-1415
1010.913	-708
1010.986	-1939
1011.059	-977
1011.132	-2097
1011.205	-1441
1011.278	-2204
1011.351	-1658
1011.424	-1534
1011.497	-1918
1011.570	-2675
1011.643	-1924
1011.716	-1941
1011.789	-1492
1011.862	-1480
1011.934	-2276
1012.007	-2671
1012.080	-1526
1012.153	-2079
1012.225	-1203
1012.298	-2195
1012.371	-1433
1012.443	-985
1012.516	-2411
1012.588	-1969
1012.661	-1613
1012.733	-1187
1012.806	-1667
1012.879	-1901
1012.951	-1792
1013.023	-1827
1013.096	-1583
1013.168	-2145
1013.241	-1211
1013.313	-2153
1013.385	-1662
1013.458	-1484
1013.530	-2028
1013.602	-2279
1013.674	-1595
1013.746	-1519
1013.819	-1833
1013.891	-1923
1013.963	-1723
1014.035	-2594
1014.107	-1239
1014.179	-1562
1014.251	-1177
1014.323	-1846
1014.395	-1455
1014.467	-1642
1014.539	-776
1014.611	-2246
1014.683	-1543
1014.754	-2131
1014.826	-2151
1014.898	-2162
1014.970	-2404
1015.042	-1003
1015.113	-1292
1015.185	-2243
1015.257	-1986
1015.328	-1699
1015.400	-1173
1015.471	-1834
1015.543	-2369
1015.615	-2227
1015.686	-2229
1015.757	-1855
1015.829	-1594
1015.901	-2055
1015.972	-1560
1016.043	-2789
1016.115	-1331
1016.186	-1377
1016.257	-1470
1016.328	-1529
1016.400	-1804
1016.471	-2007
1016.542	-2026
1016.613	-1500
1016.685	-1777
1016.756	-1247
1016.827	-1408
1016.898	-1057
1016.969	-1141
1017.040	-2032
1017.111	-1947
1017.182	-2186
1017.253	-1254
1017.324	-1966
1017.395	-1564
1017.466	-1318
1017.537	-1244
1017.608	-1323
1017.678	-2157
1017.749	-1881
1017.820	-2048
1017.891	-1340
1017.961	-1696
1018.032	-869
1018.103	-1312
1018.173	-1924
1018.244	-1687
1018.315	-1355
1018.385	-1429
1018.456	-2188
1018.526	-1795
1018.597	-1792
1018.667	-1147
1018.738	-2019
1018.808	-1919
1018.878	-2503
1018.949	-1711
1019.019	-1742
1019.089	-2107
1019.160	-1541
1019.230	-1256
1019.300	-1751
1019.371	-1776
1019.441	-2261
1019.511	-1166
1019.581	-2137
1019.651	-1653
1019.721	-1998
1019.791	-1573
1019.861	-2205
1019.931	-1740
1020.001	-2173
1020.071	-1343
1020.141	-2491
1020.211	-1428
1020.281	-2308
1020.351	-2206
1020.421	-1930
1020.491	-1533
1020.560	-1787
1020.630	-1001
1020.700	-1446
1020.770	-1549
1020.839	-1650
1020.909	-1596
1020.979	-2547
1021.048	-1748
1021.118	-2313
1021.187	-1279
1021.257	-2060
1021.326	-1869
1021.396	-2564
1021.465	-1589
1021.535	-1100
1021.604	-1691
1021.674	-2369
1021.743	-814
1021.812	-1713
1021.882	-1494
1021.951	-1996
1022.020	-2322
1022.089	-1859
1022.159	-2472
1022.228	-1755
1022.297	-1971
1022.366	-1657
1022.435	-1867
1022.504	-1428
1022.573	-1453
1022.642	-2411
1022.711	-2051
1022.781	-2872
1022.849	-1115
1022.918	-2593
1022.987	-2340
1023.056	-2029
1023.125	-1966
1023.194	-2078
1023.263	-1491
1023.331	-1722
1023.400	-2404
1023.469	-1482
1023.538	-1310
1023.606	-2289
1023.675	-1311
1023.744	-2265
1023.812	-1459
1023.881	-2423
1023.949	-1441
1024.018	-2009
1024.086	-1673
1024.155	-2678
1024.223	-1864
1024.292	-2217
1024.360	-1903
1024.429	-1666
1024.497	-1619
1024.565	-1764
1024.634	-1970
1024.702	-1382
1024.770	-887
1024.838	-1984
1024.907	-1935
1024.975	-1937
1025.043	-2517
1025.111	-2719
1025.179	-2222
1025.247	-1479
1025.315	-1783
1025.383	-2100
1025.451	-1749
1025.519	-1872
1025.587	-1555
1025.655	-2065
1025.723	-1378
1025.791	-2138
1025.859	-1062
1025.927	-2140
1025.995	-2061
1026.062	-1905
1026.130	-2073
1026.198	-2403
1026.266	-1634
1026.333	-1854
1026.401	-878
1026.469	-1920
1026.536	-1500
1026.604	-2084
1026.671	-2280
1026.739	-1498
1026.806	-2023
1026.874	-1898
1026.941	-1509
1027.009	-2459
1027.076	-2120
1027.144	-2060
1027.211	-2551
1027.278	-2019
1027.345	-336
1027.413	-2614
1027.480	-2152
1027.547	-2131
1027.614	-2104
1027.682	-2250
1027.749	-1872
1027.816	-1393
1027.883	-1414
1027.950	-2128
1028.017	-1451
1028.084	-2590
1028.151	-1315
1028.218	-2376
1028.285	-1386
1028.352	-2362
1028.419	-1942
1028.486	-2242
1028.553	-2511
1028.619	-2319
1028.686	-1169
1028.753	-2403
1028.820	-2013
1028.886	-2565
1028.953	-2166
1029.020	-1177
1029.086	-2043
1029.153	-2268
1029.220	-1946
1029.286	-2271
1029.353	-1553
1029.419	-2072
1029.486	-1679
1029.552	-1526
1029.619	-1552
1029.685	-2525
1029.751	-1981
1029.818	-2459
1029.884	-2159
1029.951	-1480
1030.017	-2194
1030.083	-2117
1030.149	-2462
1030.216	-2242
1030.282	-1585
1030.348	-1918
1030.414	-2172
1030.480	-1704
1030.546	-1907
1030.612	-1502
1030.678	-1504
1030.744	-2606
1030.810	-1612
1030.876	-2472
1030.942	-1369
1031.008	-1707
1031.074	-2423
1031.140	-1736
1031.206	-1254
1031.272	-1813
1031.337	-1051
1031.403	-1871
1031.469	-2062
1031.534	-2938
1031.600	-1251
1031.666	-2188
1031.731	-1735
1031.797	-1910
1031.863	-2507
1031.928	-2095
1031.994	-1572
1032.059	-2240
1032.125	-2863
1032.190	-1829
1032.256	-2129
1032.321	-2254
1032.386	-2000
1032.452	-2187
1032.517	-1488
1032.582	-1769
1032.647	-1428
1032.713	-2210
1032.778	-1350
1032.843	-2187
1032.908	-1762
1032.974	-1309
1033.039	-2787
1033.104	-1702
1033.169	-1880
1033.234	-2219
1033.299	-1512
1033.364	-1784
1033.429	-1943
1033.494	-2177
1033.559	-1475
1033.624	-2123
1033.688	-1648
1033.753	-3057
1033.818	-1608
1033.883	-3012
1033.948	-1577
1034.013	-1767
1034.077	-1638
1034.142	-1890
1034.207	-1926
1034.271	-1231
1034.336	-1423
1034.400	-963
1034.465	-1291
1034.530	-1796
1034.594	-1514
1034.658	-2542
1034.723	-2041
1034.787	-1498
1034.852	-2093
1034.916	-1831
1034.981	-1800
1035.045	-2614
1035.109	-1806
1035.173	-1708
1035.238	-1736
1035.302	-2218
1035.366	-2065
1035.430	-2699
1035.495	-2661
1035.559	-1757
1035.623	-1712
1035.687	-1937
1035.751	-2908
1035.815	-2613
1035.879	-1693
1035.943	-2279
1036.007	-1776
1036.071	-2897
1036.135	-2080
1036.198	-3108
1036.262	-1732
1036.326	-2302
1036.390	-2033
1036.454	-1969
1036.517	-1424
1036.581	-2468
1036.645	-1587
1036.709	-2922
1036.772	-2166
1036.836	-1337
1036.900	-1574
1036.963	-2476
1037.026	-2064
1037.090	-1546
1037.154	-2076
1037.217	-2045
1037.280	-2247
1037.344	-1805
1037.407	-2196
1037.471	-2626
1037.534	-1458
1037.597	-1992
1037.661	-1298
1037.724	-2184
1037.787	-2078
1037.850	-2431
1037.913	-2121
1037.977	-2221
1038.040	-2165
1038.103	-2830
1038.166	-1565
1038.229	-2090
1038.292	-2431
1038.355	-2512
1038.418	-2606
1038.481	-1662
1038.544	-2131
1038.607	-1975
1038.670	-2154
1038.732	-2215
1038.795	-1894
1038.858	-2103
1038.921	-1902
1038.984	-3072
1039.046	-1839
1039.109	-2696
1039.172	-2421
1039.234	-1663
1039.297	-2772
1039.360	-1895
1039.422	-2133
1039.485	-2219
1039.547	-1601
1039.610	-2229
1039.672	-1574
1039.734	-2843
1039.797	-1481
1039.859	-2311
1039.922	-1586
1039.984	-2175
1040.046	-1831
1040.109	-1540
1040.171	-2144
1040.233	-1845
1040.295	-1992
1040.358	-2352
1040.420	-1945
1040.482	-2454
1040.544	-1872
1040.606	-2570
1040.668	-2051
1040.730	-2014
1040.792	-2565
1040.854	-2313
1040.916	-1873
1040.978	-1962
1041.040	-1420
1041.102	-1684
1041.164	-1869
1041.225	-1851
1041.287	-2344
1041.349	-2602
1041.411	-1565
1041.472	-1888
1041.534	-1392
1041.596	-2264
1041.657	-1889
1041.719	-1680
1041.781	-2319
1041.842	-2128
1041.904	-1781
1041.965	-2037
1042.027	-2024
1042.088	-2238
1042.150	-1766
1042.211	-2334
1042.272	-1622
1042.334	-2175
1042.395	-2280
1042.456	-1975
1042.518	-1676
1042.579	-2631
1042.640	-2037
1042.701	-2147
1042.763	-2061
1042.824	-2146
1042.885	-1547
1042.946	-2345
1043.007	-2552
1043.068	-2348
1043.129	-1858
1043.190	-2997
1043.251	-2240
1043.312	-1884
1043.373	-2071
1043.434	-2235
1043.495	-1916
1043.556	-2380
1043.616	-1487
1043.677	-2403
1043.738	-2555
1043.799	-2111
1043.859	-1562
1043.920	-2349
1043.981	-2105
1044.041	-2859
1044.102	-2313
1044.162	-2191
1044.223	-2113
1044.284	-3314
1044.344	-1621
1044.405	-1975
1044.465	-1550
1044.525	-2815
1044.586	-1217
1044.646	-2238
1044.707	-2267
1044.767	-2331
1044.827	-1459
1044.887	-2763
1044.948	-2321
1045.008	-2553
1045.068	-1300
1045.128	-2218
1045.188	-2482
1045.249	-2880
1045.309	-2065
1045.369	-2487
1045.429	-1417
1045.489	-1774
1045.549	-1939
1045.609	-1761
1045.669	-1477
1045.729	-2570
1045.789	-2089
1045.848	-1606
1045.908	-2159
1045.968	-2258
1046.028	-1849
1046.088	-1888
1046.147	-1328
1046.207	-1396
1046.267	-1467
1046.326	-2036
1046.386	-1716
1046.446	-1887
1046.505	-1756
1046.565	-2016
1046.624	-1372
1046.684	-1613
1046.743	-1268
1046.803	-1313
1046.862	161
1046.922	0
