'Start Wavelength	183.907
'End Wavelength	1046.922
'Gate Delay	5.000
'Gate Width (ms)	1.050
'Laser Output Level	0.000
'X Position	0.000
'Y Position	0.000
'Z Position	0.000
'Grid Point Number	1.000
'Shot Number	100.000
183.907	117.000
183.977	-823.000
184.047	404
184.116	267
184.186	242
184.256	-609
184.325	-312
184.395	137
184.465	912
184.534	151
184.604	-524
184.674	-479
184.743	54
184.813	717
184.883	86
184.952	581
185.022	746
185.092	-116
185.161	42
185.231	115
185.301	-279
185.370	113
185.440	341
185.509	-58
185.579	504
185.649	250
185.718	358
185.788	281
185.857	32
185.927	-375
185.996	-208
186.066	45
186.136	-180
186.205	-833
186.275	28
186.344	-837
186.414	-404
186.483	-69
186.553	220
186.622	-530
186.692	128
186.761	205
186.831	240
186.900	143
186.970	489
187.039	-191
187.109	154
187.178	-237
187.248	669
187.317	25
187.387	465
187.456	505
187.526	78
187.595	-369
187.664	136
187.734	359
187.803	322
187.873	-649
187.942	-210
188.012	241
188.081	400
188.150	-286
188.220	1104
188.289	375
188.358	-273
188.428	331
188.497	-349
188.567	-23
188.636	44
188.705	102
188.775	309
188.844	-623
188.913	595
188.983	-440
189.052	816
189.121	-32
189.191	132
189.260	97
189.329	382
189.399	-209
189.468	258
189.537	-237
189.606	346
189.676	34
189.745	104
189.814	873
189.883	30
189.953	-629
190.022	295
190.091	160
190.161	-2
190.230	-29
190.299	21
190.368	-669
190.437	210
190.507	95
190.576	364
190.645	273
190.714	-345
190.783	-75
190.853	-469
190.922	-39
190.991	544
191.060	505
191.129	302
191.198	-256
191.268	-266
191.337	-111
191.406	357
191.475	-821
191.544	-833
191.613	148
191.682	-38
191.752	-134
191.821	174
191.890	157
191.959	-408
192.028	-96
192.097	-544
192.166	-311
192.235	-551
192.304	-69
192.373	-295
192.442	-296
192.511	342
192.580	-340
192.650	56
192.719	-268
192.788	-54
192.857	177
192.926	-50
192.995	-285
193.064	129
193.133	111
193.202	232
193.271	287
193.340	-155
193.409	411
193.478	-195
193.547	158
193.615	68
193.684	-49
193.753	-246
193.822	-337
193.891	37
193.960	103
194.029	10
194.098	-263
194.167	-433
194.236	244
194.305	-287
194.374	55
194.443	31
194.512	217
194.580	155
194.649	161
194.718	-210
194.787	-356
194.856	-259
194.925	-169
194.994	-39
195.062	-827
195.131	-622
195.200	30
195.269	7
195.338	707
195.407	17
195.475	-55
195.544	262
195.613	640
195.682	-195
195.751	-262
195.819	-109
195.888	120
195.957	142
196.026	-1018
196.094	469
196.163	-270
196.232	404
196.301	349
196.369	-353
196.438	199
196.507	-82
196.576	-506
196.644	-364
196.713	-247
196.782	155
196.850	-261
196.919	28
196.988	-460
197.056	-914
197.125	271
197.194	-193
197.262	-234
197.331	144
197.400	3
197.468	-51
197.537	-803
197.606	30
197.674	464
197.743	-221
197.812	36
197.880	690
197.949	-231
198.017	-214
198.086	-223
198.155	20
198.223	205
198.292	-294
198.360	-923
198.429	-380
198.497	-609
198.566	106
198.635	-253
198.703	88
198.772	2
198.840	50
198.909	-128
198.977	194
199.046	-927
199.114	-316
199.183	459
199.251	-391
199.320	-26
199.388	-253
199.457	-32
199.525	-703
199.594	-385
199.662	-280
199.731	-615
199.799	-92
199.867	67
199.936	326
200.004	215
200.073	-36
200.141	-483
200.210	352
200.278	190
200.346	-150
200.415	610
200.483	129
200.552	-265
200.620	-601
200.688	-421
200.757	35
200.825	-436
200.893	149
200.962	191
201.030	-158
201.098	-374
201.167	39
201.235	150
201.303	144
201.372	-249
201.440	-148
201.508	763
201.577	88
201.645	91
201.713	-240
201.781	556
201.850	-18
201.918	-96
201.986	342
202.055	177
202.123	-66
202.191	-306
202.259	-255
202.327	129
202.396	-735
202.464	-198
202.532	445
202.600	311
202.669	-217
202.737	-458
202.805	215
202.873	262
202.941	239
203.009	541
203.078	-244
203.146	-107
203.214	34
203.282	-264
203.350	-186
203.418	-132
203.487	-919
203.555	-101
203.623	-255
203.691	-190
203.759	-623
203.827	-331
203.895	-156
203.963	285
204.031	837
204.099	-276
204.168	-664
204.236	-3
204.304	169
204.372	-73
204.440	-380
204.508	-398
204.576	49
204.644	-906
204.712	-538
204.780	-426
204.848	-14
204.916	-206
204.984	-200
205.052	79
205.120	-184
205.188	-337
205.256	-217
205.324	-264
205.392	13
205.460	-522
205.528	133
205.596	-320
205.664	-382
205.732	-306
205.799	-48
205.867	305
205.935	4
206.003	73
206.071	-695
206.139	-774
206.207	-345
206.275	-163
206.343	-289
206.411	-684
206.478	169
206.546	-23
206.614	-203
206.682	-143
206.750	-123
206.818	42
206.885	-167
206.953	-289
207.021	316
207.089	-811
207.157	-103
207.225	-87
207.292	-469
207.360	259
207.428	-141
207.496	45
207.563	-293
207.631	-838
207.699	-347
207.767	-60
207.834	-510
207.902	365
207.970	383
208.038	-556
208.105	426
208.173	-164
208.241	-131
208.309	465
208.376	-157
208.444	50
208.512	-125
208.579	36
208.647	355
208.715	-275
208.782	31
208.850	46
208.918	529
208.985	252
209.053	-1
209.120	151
209.188	-451
209.256	-543
209.323	-131
209.391	-36
209.459	230
209.526	374
209.594	-1248
209.661	-9
209.729	-56
209.796	-291
209.864	202
209.932	-285
209.999	169
210.067	-433
210.134	-170
210.202	-348
210.269	-24
210.337	987
210.404	13
210.472	277
210.539	548
210.607	-384
210.674	-444
210.742	628
210.809	75
210.877	127
210.944	-44
211.012	-355
211.079	305
211.146	-273
211.214	-351
211.281	181
211.349	506
211.416	225
211.484	149
211.551	-449
211.618	-270
211.686	-53
211.753	-446
211.821	-573
211.888	430
211.955	-103
212.023	468
212.090	-519
212.157	-356
212.225	-452
212.292	310
212.359	687
212.427	1727
212.494	78
212.561	-129
212.629	163
212.696	101
212.763	-338
212.831	-98
212.898	-218
212.965	-413
213.032	491
213.100	26
213.167	-794
213.234	362
213.301	111
213.369	42
213.436	-679
213.503	436
213.570	147
213.638	-260
213.705	-700
213.772	-702
213.839	-689
213.906	596
213.973	-30
214.041	-195
214.108	44
214.175	-206
214.242	745
214.309	-412
214.376	71
214.444	-274
214.511	-441
214.578	37
214.645	-395
214.712	296
214.779	-149
214.846	55
214.913	281
214.980	96
215.048	717
215.115	492
215.182	478
215.249	-100
215.316	-371
215.383	655
215.450	-414
215.517	-65
215.584	-746
215.651	215
215.718	32
215.785	55
215.852	-275
215.919	-800
215.986	-39
216.053	-5
216.120	-447
216.187	-2
216.254	-198
216.321	-401
216.388	73
216.455	408
216.522	158
216.589	-600
216.656	-352
216.722	-540
216.789	297
216.856	562
216.923	-272
216.990	457
217.057	153
217.124	322
217.191	-473
217.258	376
217.324	-186
217.391	903
217.458	638
217.525	-203
217.592	55
217.659	-324
217.725	-23
217.792	-83
217.859	-83
217.926	-473
217.993	-461
218.059	-220
218.126	-178
218.193	-259
218.260	169
218.327	-153
218.393	-798
218.460	-515
218.527	-483
218.594	155
218.660	-366
218.727	168
218.794	-568
218.860	85
218.927	-418
218.994	44
219.061	-820
219.127	-231
219.194	-442
219.261	-527
219.327	207
219.394	329
219.461	-226
219.527	36
219.594	-483
219.661	151
219.727	-139
219.794	-16
219.860	-449
219.927	-13
219.994	26
220.060	1382
220.127	527
220.193	798
220.260	63
220.326	436
220.393	1260
220.460	307
220.526	287
220.593	326
220.659	-184
220.726	464
220.792	968
220.859	474
220.925	1779
220.992	1186
221.058	1762
221.125	856
221.191	203
221.258	228
221.324	112
221.391	-721
221.457	-72
221.524	408
221.590	734
221.657	1099
221.723	-169
221.789	22
221.856	200
221.922	-205
221.989	-207
222.055	181
222.121	-429
222.188	840
222.254	-218
222.321	153
222.387	-769
222.453	-357
222.520	66
222.586	-366
222.652	-3
222.719	-265
222.785	-6
222.851	-475
222.918	-196
222.984	-131
223.050	-15
223.116	-230
223.183	197
223.249	-441
223.315	-181
223.382	-195
223.448	-833
223.514	148
223.580	146
223.647	326
223.713	-987
223.779	167
223.845	-667
223.911	192
223.978	-269
224.044	-178
224.110	-798
224.176	-442
224.242	114
224.309	-1425
224.375	-467
224.441	284
224.507	-188
224.573	-793
224.639	-368
224.705	-563
224.772	-307
224.838	-279
224.904	-432
224.970	-288
225.036	-287
225.102	-606
225.168	-531
225.234	-712
225.300	-673
225.366	-66
225.432	-178
225.499	-552
225.565	-438
225.631	68
225.697	-274
225.763	-148
225.829	-833
225.895	-575
225.961	-427
226.027	-205
226.093	364
226.159	340
226.225	782
226.291	1586
226.357	2445
226.423	896
226.489	-218
226.554	13
226.620	47
226.686	626
226.752	445
226.818	1848
226.884	3968
226.950	2160
227.016	510
227.082	229
227.148	-274
227.214	395
227.279	11
227.345	-80
227.411	111
227.477	343
227.543	1993
227.609	1608
227.674	59
227.740	-203
227.806	127
227.872	-729
227.938	-308
228.003	-437
228.069	-271
228.135	231
228.201	-528
228.267	-792
228.332	-444
228.398	-294
228.464	232
228.530	-136
228.595	-576
228.661	-542
228.727	-378
228.792	-389
228.858	-340
228.924	-417
228.990	-419
229.055	-440
229.121	100
229.187	-771
229.252	-723
229.318	-331
229.384	-395
229.449	-765
229.515	-578
229.581	-1116
229.646	341
229.712	-142
229.777	179
229.843	125
229.909	488
229.974	-469
230.040	-724
230.105	-391
230.171	-642
230.236	-454
230.302	-490
230.368	188
230.433	-442
230.499	-341
230.564	109
230.630	-73
230.695	-345
230.761	-366
230.826	-1342
230.892	-253
230.957	-619
231.023	-534
231.088	-410
231.154	-97
231.219	-651
231.284	-303
231.350	48
231.415	-527
231.481	141
231.546	-752
231.612	-631
231.677	-547
231.742	-389
231.808	671
231.873	-624
231.939	-356
232.004	-123
232.069	482
232.135	-324
232.200	-660
232.265	-427
232.331	-877
232.396	-293
232.461	-395
232.527	-1237
232.592	-549
232.657	-259
232.723	-810
232.788	-813
232.853	-247
232.918	-740
232.984	-341
233.049	-1036
233.114	-593
233.179	-93
233.245	-99
233.310	-17
233.375	-332
233.440	-682
233.506	-353
233.571	-474
233.636	-552
233.701	-869
233.766	-212
233.832	-507
233.897	-979
233.962	-908
234.027	-459
234.092	-624
234.157	-342
234.222	-242
234.288	49
234.353	-164
234.418	-469
234.483	233
234.548	-82
234.613	-386
234.678	-446
234.743	-622
234.808	-76
234.873	-793
234.938	197
235.004	-418
235.069	-417
235.134	-918
235.199	-375
235.264	-207
235.329	-1297
235.394	-1198
235.459	-291
235.524	159
235.589	-965
235.654	-203
235.719	-472
235.784	-226
235.849	-426
235.913	-622
235.978	-321
236.043	-515
236.108	-546
236.173	-320
236.238	-675
236.303	-1111
236.368	172
236.433	-76
236.498	-579
236.563	211
236.627	2052
236.692	5550
236.757	2306
236.822	217
236.887	817
236.952	-194
237.017	110
237.081	36
237.146	678
237.211	1963
237.276	5922
237.341	6764
237.405	1906
237.470	933
237.535	-493
237.600	-191
237.664	-149
237.729	-595
237.794	-51
237.859	119
237.923	33
237.988	-23
238.053	303
238.118	-11
238.182	-456
238.247	-181
238.312	-796
238.376	64
238.441	-904
238.506	-75
238.570	-187
238.635	-417
238.700	-583
238.764	-884
238.829	-350
238.893	11
238.958	-158
239.023	-449
239.087	-411
239.152	152
239.216	-921
239.281	-370
239.346	-569
239.410	-194
239.475	-11
239.539	220
239.604	-114
239.668	-114
239.733	-274
239.797	2002
239.862	3870
239.926	2131
239.991	662
240.055	-155
240.120	217
240.184	287
240.249	-652
240.313	-222
240.378	-599
240.442	-23
240.507	395
240.571	-212
240.635	-555
240.700	-133
240.764	-908
240.829	-485
240.893	-1180
240.957	-295
241.022	201
241.086	147
241.151	-541
241.215	-1230
241.279	391
241.344	-967
241.408	-245
241.472	-793
241.537	333
241.601	-169
241.665	-216
241.730	-637
241.794	-695
241.858	-283
241.922	-224
241.987	-795
242.051	-21
242.115	-782
242.179	-457
242.244	-1660
242.308	220
242.372	-813
242.436	-649
242.501	-305
242.565	-631
242.629	-749
242.693	-617
242.757	-900
242.822	-236
242.886	-614
242.950	-715
243.014	-710
243.078	-482
243.142	94
243.206	-821
243.271	-1091
243.335	-580
243.399	42
243.463	2285
243.527	2888
243.591	-185
243.655	1
243.719	-581
243.783	-184
243.847	-636
243.911	-71
243.975	-513
244.040	-760
244.104	371
244.168	-927
244.232	-868
244.296	-153
244.360	-90
244.424	-1202
244.488	-331
244.552	-375
244.615	-974
244.679	-493
244.743	-199
244.807	-575
244.871	-169
244.935	-284
244.999	-1130
245.063	-574
245.127	-492
245.191	-243
245.255	-942
245.319	-636
245.383	-754
245.446	258
245.510	-801
245.574	-590
245.638	-897
245.702	-940
245.766	-438
245.829	72
245.893	-965
245.957	-301
246.021	-111
246.085	-900
246.149	-945
246.212	311
246.276	-161
246.340	-575
246.404	-146
246.467	-433
246.531	-601
246.595	-203
246.659	-521
246.722	-684
246.786	-588
246.850	-494
246.913	-480
246.977	-418
247.041	-346
247.104	-751
247.168	-771
247.232	-303
247.295	-86
247.359	-141
247.423	-838
247.486	-923
247.550	-83
247.614	-956
247.677	-834
247.741	-594
247.804	-264
247.868	-358
247.932	545
247.995	461
248.059	-261
248.122	-659
248.186	-326
248.249	71
248.313	2159
248.376	1102
248.440	331
248.503	-1129
248.567	830
248.630	-663
248.694	326
248.757	956
248.821	1406
248.884	615
248.948	657
249.011	716
249.075	2626
249.138	785
249.202	-71
249.265	-614
249.328	454
249.392	-211
249.455	-108
249.519	-60
249.582	-568
249.645	316
249.709	-537
249.772	-490
249.835	127
249.899	-928
249.962	213
250.025	-1036
250.089	550
250.152	568
250.215	-92
250.279	-241
250.342	-202
250.405	-688
250.468	-1106
250.532	50
250.595	1034
250.658	6186
250.721	5524
250.785	-134
250.848	153
250.911	-358
250.974	482
251.038	58
251.101	628
251.164	-500
251.227	128
251.290	61
251.354	974
251.417	7607
251.480	3159
251.543	4795
251.606	13263
251.669	4651
251.732	1801
251.795	1276
251.859	3222
251.922	7006
251.985	2289
252.048	576
252.111	731
252.174	-186
252.237	1320
252.300	2196
252.363	4987
252.426	8503
252.489	609
252.552	990
252.615	441
252.678	909
252.741	2213
252.804	4629
252.867	8701
252.930	2701
252.993	523
253.056	416
253.119	-397
253.182	-445
253.245	-284
253.308	723
253.371	-426
253.434	466
253.497	724
253.559	551
253.622	-263
253.685	37
253.748	-428
253.811	-631
253.874	1080
253.937	-1131
254.000	-549
254.062	286
254.125	506
254.188	590
254.251	31
254.314	-234
254.376	-817
254.439	131
254.502	151
254.565	298
254.628	445
254.690	-784
254.753	-374
254.816	-780
254.878	-296
254.941	31
255.004	-832
255.067	-1061
255.129	-736
255.192	-556
255.255	-686
255.317	-359
255.380	-361
255.443	-314
255.505	-616
255.568	-1593
255.631	-990
255.693	-602
255.756	-1576
255.819	92
255.881	-540
255.944	-387
256.006	-649
256.069	-155
256.132	-1071
256.194	-1401
256.257	-377
256.319	-591
256.382	-131
256.444	-225
256.507	-718
256.569	-392
256.632	-604
256.694	-173
256.757	4152
256.819	7132
256.882	1318
256.944	22
257.007	385
257.069	160
257.132	-156
257.194	-268
257.257	-991
257.319	-901
257.381	-124
257.444	3053
257.506	11681
257.569	6122
257.631	1497
257.693	-48
257.756	-159
257.818	-540
257.880	-140
257.943	-437
258.005	-470
258.067	-1079
258.130	-141
258.192	-1084
258.254	-328
258.317	-954
258.379	78
258.441	170
258.503	3
258.566	405
258.628	826
258.690	-847
258.753	-559
258.815	-528
258.877	-513
258.939	-202
259.001	-607
259.064	-765
259.126	-330
259.188	155
259.250	-137
259.312	-290
259.375	-159
259.437	-85
259.499	-1105
259.561	-714
259.623	-106
259.685	-421
259.747	-747
259.809	-92
259.872	70
259.934	1963
259.996	89
260.058	-334
260.120	-835
260.182	-158
260.244	795
260.306	-687
260.368	-134
260.430	-394
260.492	129
260.554	-212
260.616	-481
260.678	-24
260.740	409
260.802	-982
260.864	-722
260.926	-971
260.988	-676
261.050	-614
261.112	636
261.174	1010
261.236	-238
261.298	-532
261.359	-202
261.421	-254
261.483	-527
261.545	-451
261.607	-770
261.669	-188
261.731	-587
261.793	-539
261.854	-715
261.916	-410
261.978	-694
262.040	-347
262.102	-674
262.164	-531
262.225	-491
262.287	-382
262.349	-429
262.411	-454
262.472	-550
262.534	-678
262.596	-445
262.658	-598
262.719	-955
262.781	-414
262.843	-882
262.904	-363
262.966	-761
263.028	-313
263.090	2577
263.151	3393
263.213	-6
263.275	-175
263.336	-402
263.398	-734
263.459	-911
263.521	-217
263.583	27
263.644	-732
263.706	-1063
263.767	-877
263.829	-463
263.891	-545
263.952	-480
264.014	-670
264.075	320
264.137	43
264.198	-143
264.260	-1762
264.321	-574
264.383	821
264.444	833
264.506	-894
264.567	-682
264.629	672
264.690	-208
264.752	-618
264.813	-1051
264.875	-1055
264.936	-102
264.998	-1053
265.059	-463
265.120	-424
265.182	384
265.243	4422
265.305	2072
265.366	-447
265.427	-800
265.489	-355
265.550	-780
265.611	-1098
265.673	-728
265.734	-670
265.795	-132
265.857	-1118
265.918	-1534
265.979	1049
266.040	8259
266.102	2020
266.163	-182
266.224	-325
266.286	-651
266.347	-1098
266.408	-879
266.469	-332
266.530	-800
266.592	-775
266.653	-401
266.714	-85
266.775	-99
266.836	-795
266.898	-734
266.959	-1214
267.020	-1056
267.081	-702
267.142	-545
267.203	-310
267.264	-891
267.326	-531
267.387	-176
267.448	-1318
267.509	-136
267.570	-1074
267.631	-1144
267.692	-1052
267.753	-661
267.814	-1777
267.875	73
267.936	-1022
267.997	-1298
268.058	-687
268.119	-103
268.180	-1016
268.241	-1356
268.302	-933
268.363	-980
268.424	-1036
268.485	-910
268.546	-514
268.607	-1048
268.668	-1624
268.729	-531
268.790	-1067
268.851	-580
268.912	-578
268.972	-643
269.033	-1072
269.094	-1870
269.155	-257
269.216	-1208
269.277	-1369
269.338	-584
269.398	-778
269.459	-902
269.520	-578
269.581	-658
269.642	-1032
269.702	-625
269.763	-698
269.824	-966
269.885	-812
269.945	-97
270.006	-498
270.067	-550
270.128	-451
270.188	-1215
270.249	-799
270.310	-1479
270.370	-1348
270.431	-991
270.492	-1040
270.553	-869
270.613	-793
270.674	-224
270.734	-726
270.795	-1010
270.856	-240
270.916	-1043
270.977	-488
271.038	-268
271.098	-650
271.159	-291
271.219	-907
271.280	-800
271.340	-822
271.401	-849
271.462	-1476
271.522	-942
271.583	-1205
271.643	-951
271.704	-897
271.764	-1055
271.825	-249
271.885	2260
271.946	584
272.006	97
272.066	1201
272.127	2046
272.187	1154
272.248	-448
272.308	-156
272.369	1403
272.429	-175
272.489	-564
272.550	-873
272.610	-229
272.671	-827
272.731	-523
272.791	-728
272.852	-1305
272.912	-124
272.972	-678
273.033	-795
273.093	-717
273.153	-6
273.214	-478
273.274	-701
273.334	1651
273.394	1009
273.455	-167
273.515	1171
273.575	908
273.635	34
273.696	1196
273.756	2389
273.816	507
273.876	-528
273.936	719
273.997	629
274.057	-289
274.117	-819
274.177	593
274.237	1693
274.297	947
274.358	420
274.418	686
274.478	-556
274.538	-872
274.598	-688
274.658	636
274.718	-557
274.778	-751
274.838	-1352
274.898	-1328
274.958	309
275.018	1166
275.078	-175
275.138	-1028
275.198	-840
275.258	-305
275.318	-974
275.378	-668
275.438	10
275.498	-967
275.558	-338
275.618	413
275.678	-747
275.738	376
275.798	-431
275.858	-615
275.918	-1254
275.978	-1431
276.038	-969
276.098	-380
276.157	204
276.217	304
276.277	-922
276.337	-657
276.397	-1011
276.457	-218
276.517	-344
276.576	-557
276.636	-1716
276.696	-1161
276.756	-383
276.815	-800
276.875	-1152
276.935	-370
276.995	-808
277.055	-567
277.114	-260
277.174	-749
277.234	-866
277.293	-417
277.353	-312
277.413	-1119
277.472	-319
277.532	-842
277.592	490
277.651	5010
277.711	3819
277.771	1855
277.830	8257
277.890	3403
277.950	6160
278.009	11304
278.069	2742
278.128	6419
278.188	4579
278.248	2770
278.307	7736
278.367	2528
278.426	-188
278.486	182
278.545	-789
278.605	-302
278.664	-845
278.724	80
278.783	1516
278.843	1381
278.902	15
278.962	-572
279.021	201
279.081	752
279.140	-227
279.199	119
279.259	-471
279.318	272
279.378	1805
279.437	3780
279.496	16177
279.556	46933
279.615	17939
279.675	5620
279.734	2642
279.793	3957
279.853	4167
279.912	749
279.971	1093
280.031	562
280.090	2180
280.149	2193
280.208	8317
280.268	35775
280.327	16652
280.386	4144
280.445	2611
280.505	1489
280.564	929
280.623	374
280.682	596
280.742	852
280.801	-31
280.860	-597
280.919	-603
280.978	-152
281.037	-703
281.097	-613
281.156	-57
281.215	-162
281.274	-124
281.333	2144
281.392	-239
281.451	-977
281.510	-643
281.569	-892
281.628	-735
281.688	-4
281.747	-306
281.806	-128
281.865	-575
281.924	-866
281.983	-759
282.042	-788
282.101	-1339
282.160	-506
282.219	-843
282.278	-296
282.337	-664
282.396	-741
282.454	-1117
282.513	-302
282.572	619
282.631	-148
282.690	-807
282.749	-784
282.808	39
282.867	-346
282.926	-26
282.985	-312
283.043	-726
283.102	-718
283.161	-407
283.220	-29
283.279	555
283.338	-670
283.396	-1093
283.455	-200
283.514	329
283.573	-454
283.631	-338
283.690	-445
283.749	-143
283.808	-191
283.866	-160
283.925	-986
283.984	303
284.043	158
284.101	-759
284.160	-674
284.219	572
284.277	-282
284.336	414
284.395	2163
284.453	351
284.512	452
284.570	2553
284.629	972
284.688	1932
284.746	2836
284.805	3625
284.863	5148
284.922	5848
284.981	8089
285.039	12949
285.098	21528
285.156	31075
285.215	31434
285.273	32534
285.332	28359
285.390	18957
285.449	12674
285.507	8800
285.566	6102
285.624	4190
285.683	3264
285.741	1985
285.799	1315
285.858	1688
285.916	440
285.975	768
286.033	594
286.091	471
286.150	-3
286.208	824
286.267	-101
286.325	143
286.383	-219
286.442	-428
286.500	-2
286.558	-288
286.616	-139
286.675	-379
286.733	-107
286.791	-1021
286.850	198
286.908	-504
286.966	-299
287.024	-343
287.083	156
287.141	-612
287.199	-722
287.257	-495
287.315	-277
287.374	-623
287.432	14
287.490	-176
287.548	-1149
287.606	-536
287.664	394
287.723	-661
287.781	-294
287.839	-457
287.897	-240
287.955	-251
288.013	628
288.071	1978
288.129	15004
288.187	23221
288.245	6271
288.303	1343
288.361	1167
288.419	359
288.477	672
288.535	129
288.593	-230
288.651	-483
288.709	-638
288.767	-505
288.825	-1371
288.883	-484
288.941	-103
288.999	-1718
289.057	-995
289.115	-847
289.173	-1004
289.231	-101
289.289	-670
289.346	-344
289.404	-752
289.462	-607
289.520	-346
289.578	-709
289.636	-1227
289.694	-510
289.751	-1064
289.809	332
289.867	-1030
289.925	-583
289.983	-1112
290.040	-441
290.098	-1095
290.156	-938
290.214	79
290.271	-1111
290.329	232
290.387	-546
290.444	-525
290.502	-678
290.560	-840
290.617	-756
290.675	-698
290.733	-1071
290.790	-845
290.848	-989
290.906	-503
290.963	-788
291.021	-364
291.078	-557
291.136	-981
291.194	281
291.251	645
291.309	-197
291.366	-1089
291.424	-1136
291.481	-691
291.539	-508
291.596	-139
291.654	-943
291.711	-593
291.769	-618
291.826	-657
291.884	-1191
291.941	-567
291.999	-1079
292.056	-1228
292.114	-1041
292.171	-1259
292.228	-863
292.286	2
292.343	-512
292.401	-436
292.458	-885
292.515	-591
292.573	-574
292.630	-365
292.687	-371
292.745	-1575
292.802	-593
292.859	706
292.917	546
292.974	-772
293.031	-977
293.089	-87
293.146	-1114
293.203	-698
293.260	-878
293.318	-1604
293.375	-908
293.432	-279
293.489	-603
293.546	-1238
293.604	-205
293.661	1610
293.718	2037
293.775	-194
293.832	-40
293.889	449
293.947	-410
294.004	-904
294.061	-632
294.118	226
294.175	1217
294.232	2078
294.289	-341
294.346	-636
294.403	-638
294.460	-830
294.517	-699
294.574	-1191
294.631	168
294.688	-788
294.745	971
294.802	3417
294.859	2682
294.916	498
294.973	-743
295.030	-1252
295.087	-1044
295.144	125
295.201	-862
295.258	-987
295.315	-665
295.372	761
295.429	1007
295.486	-229
295.542	-167
295.599	1686
295.656	1724
295.713	1002
295.770	1105
295.827	-952
295.883	-650
295.940	-876
295.997	-176
296.054	-570
296.111	-1032
296.167	-698
296.224	-1100
296.281	-505
296.338	-814
296.394	-629
296.451	-618
296.508	246
296.564	1168
296.621	304
296.678	2588
296.734	1913
296.791	-118
296.848	70
296.904	-283
296.961	76
297.018	1549
297.074	-35
297.131	278
297.187	-748
297.244	-240
297.301	3071
297.357	3126
297.414	513
297.470	-542
297.527	-1022
297.583	-618
297.640	-906
297.696	-883
297.753	-719
297.809	-443
297.866	-867
297.922	-1050
297.979	-1232
298.035	-720
298.092	-573
298.148	1396
298.204	431
298.261	223
298.317	585
298.374	2106
298.430	998
298.486	-45
298.543	-810
298.599	186
298.656	-376
298.712	-145
298.768	1151
298.824	-101
298.881	-851
298.937	-659
298.993	-796
299.050	-1311
299.106	-811
299.162	-785
299.218	-522
299.275	-669
299.331	-130
299.387	240
299.443	4680
299.500	6282
299.556	1966
299.612	771
299.668	1132
299.724	4716
299.780	4431
299.837	348
299.893	1044
299.949	5337
300.005	5168
300.061	6219
300.117	6399
300.173	1414
300.229	94
300.285	476
300.341	-27
300.397	37
300.453	-894
300.510	-782
300.566	-368
300.622	1952
300.678	8938
300.734	7608
300.790	3907
300.845	2933
300.901	5041
300.957	6284
301.013	779
301.069	-10
301.125	-69
301.181	-442
301.237	53
301.293	-669
301.349	-705
301.405	-842
301.461	-446
301.516	-405
301.572	-1000
301.628	-869
301.684	-481
301.740	413
301.796	840
301.851	146
301.907	445
301.963	190
302.019	3324
302.074	8587
302.130	6456
302.186	2065
302.242	149
302.297	-991
302.353	382
302.409	499
302.464	578
302.520	-298
302.576	2182
302.631	1763
302.687	316
302.743	-660
302.798	-15
302.854	-1525
302.910	-565
302.965	-619
303.021	-170
303.076	-181
303.132	-183
303.187	-440
303.243	-889
303.299	-974
303.354	-901
303.410	-911
303.465	-1187
303.521	-1471
303.576	-1112
303.632	-908
303.687	600
303.743	1822
303.798	1004
303.853	-285
303.909	-1153
303.964	-916
304.020	-63
304.075	-815
304.130	-398
304.186	-214
304.241	710
304.297	-174
304.352	-287
304.358	-361
304.407	-963
304.449	-734
304.463	-658
304.518	-1186
304.539	-935
304.573	-554
304.629	-415
304.630	-399
304.684	325
304.720	1197
304.739	1636
304.794	1988
304.811	1591
304.850	514
304.902	-119
304.905	-153
304.960	-145
304.992	-352
305.015	-502
305.071	-760
305.083	-680
305.126	-455
305.173	-247
305.181	-197
305.236	-768
305.264	-354
305.292	29
305.347	-773
305.354	-803
305.402	-963
305.445	-544
305.457	-418
305.512	179
305.535	67
305.567	-146
305.622	-107
305.626	-85
305.678	636
305.716	2004
305.733	2535
305.788	2813
305.807	2555
305.843	1925
305.897	2917
305.898	2934
305.953	2055
305.988	1523
306.008	1121
306.063	440
306.078	339
306.118	243
306.168	-202
306.173	-234
306.228	7
306.259	-344
306.283	-613
306.338	-41
306.349	-41
306.393	67
306.440	530
306.448	597
306.503	810
306.530	565
306.558	482
306.613	1479
306.620	1560
306.668	2234
306.711	2695
306.723	2700
306.778	2271
306.801	1913
306.833	1155
306.888	713
306.892	622
306.943	139
306.982	234
306.997	302
307.052	252
307.072	379
307.107	548
307.162	948
307.163	940
307.217	935
307.253	1553
307.272	1714
307.327	1267
307.343	1200
307.381	1033
307.434	981
307.436	1021
307.491	2201
307.524	2887
307.546	3244
307.600	3377
307.614	3310
307.655	2253
307.704	1317
307.710	1300
307.765	1109
307.795	1336
307.819	1940
307.874	3309
307.885	3419
307.929	3018
307.975	2750
307.984	2897
308.038	4064
308.065	5475
308.093	9317
308.148	19679
308.156	21784
308.202	41139
308.246	51797
308.257	48670
308.312	26364
308.336	17717
308.366	13197
308.421	6928
308.426	6368
308.475	4829
308.517	3692
308.530	3577
308.585	3563
308.607	3353
308.639	3095
308.694	2673
308.697	2683
308.748	4003
308.787	4611
308.803	4657
308.857	4807
308.877	4930
308.912	5133
308.967	4838
308.967	4832
309.021	7283
309.058	9131
309.076	11199
309.130	18467
309.148	21126
309.185	34282
309.238	57194
309.239	57747
309.293	76162
309.328	81766
309.348	70865
309.402	39851
309.418	31297
309.457	22710
309.508	13387
309.511	13370
309.566	13068
309.598	13722
309.620	17262
309.674	26461
309.688	28636
309.729	29997
309.778	29441
309.783	28666
309.837	18909
309.868	13435
309.892	11876
309.946	8976
309.959	8341
310.001	9361
310.049	10111
310.055	9825
310.109	7136
310.139	5704
310.163	4985
310.218	3400
310.229	3076
310.272	2652
310.319	1967
310.326	1929
310.381	2100
310.409	1994
310.435	1981
310.489	2022
310.499	2040
310.543	2220
310.589	2285
310.598	2286
310.652	2173
310.679	2149
310.706	2103
310.760	1975
310.769	1951
310.814	2075
310.859	2018
310.868	2066
310.923	2396
310.948	2575
310.977	2626
311.031	2480
311.038	2462
311.085	2157
311.128	1853
311.139	1985
311.193	2620
311.218	2848
311.247	2658
311.301	2356
311.308	2290
311.356	2316
311.398	2420
311.410	2412
311.464	2259
311.488	2178
311.518	1970
311.572	1574
311.578	1524
311.626	2046
311.668	2458
311.680	2560
311.734	2946
311.758	3102
311.788	3224
311.842	3461
311.847	3465
311.896	3124
311.937	2811
311.950	2961
312.004	3558
312.027	3790
312.058	3326
312.112	2488
312.117	2393
312.165	2378
312.207	2348
312.297	2673
312.386	2810
312.476	2413
312.566	3544
312.656	2261
312.745	2401
312.835	2921
312.925	2926
313.015	3004
313.104	3036
313.194	3242
313.284	3444
313.374	3590
313.463	3885
313.553	3358
313.643	3585
313.732	3948
313.822	3929
313.912	4051
314.001	4461
314.091	4176
314.180	6187
314.270	4831
314.360	4206
314.449	4488
314.539	3606
314.628	4442
314.718	4233
314.808	4560
314.897	4750
314.987	5074
315.076	5318
315.166	5125
315.255	5005
315.345	5107
315.434	4544
315.524	3905
315.613	4992
315.703	5950
315.792	9042
315.881	32713
315.971	21376
316.060	5798
316.150	4973
316.239	6111
316.328	5251
316.418	3978
316.507	4262
316.597	5369
316.686	5124
316.775	5585
316.865	6871
316.954	4832
317.043	3935
317.133	4632
317.222	3606
317.311	3672
317.400	3656
317.490	4205
317.579	3814
317.668	3741
317.757	5920
317.847	12736
317.936	52037
318.025	28781
318.114	14807
318.203	10996
318.293	5758
318.382	7388
318.471	8228
318.560	9065
318.649	14631
318.738	7398
318.828	3755
318.917	3889
319.006	3713
319.095	5046
319.184	13983
319.273	11514
319.362	5591
319.451	3046
319.540	2847
319.629	3592
319.718	5098
319.807	4163
319.896	5895
319.985	17454
320.074	11146
320.163	3548
320.252	4110
320.341	4124
320.430	3661
320.519	3772
320.608	4698
320.697	4811
320.786	4787
320.875	6077
320.964	7236
321.053	7372
321.142	7957
321.230	9586
321.319	9032
321.408	12918
321.497	12150
321.586	9472
321.675	8217
321.764	7739
321.852	8276
321.941	7661
322.030	8100
322.119	8414
322.207	11089
322.296	12455
322.385	12396
322.474	13795
322.562	15997
322.651	14433
322.740	8978
322.829	8830
322.917	8962
323.006	7046
323.095	6363
323.183	6163
323.272	5423
323.361	6518
323.449	12733
323.538	8477
323.626	7994
323.715	9664
323.804	5121
323.892	7571
323.981	7946
324.069	4373
324.158	4941
324.246	7182
324.335	4473
324.424	4563
324.512	4181
324.601	3892
324.689	3542
324.778	5062
324.866	4498
324.954	3335
325.043	3160
325.131	3646
325.220	4760
325.308	5606
325.397	4605
325.485	3773
325.574	2773
325.662	2964
325.750	3181
325.839	2874
325.927	3055
326.015	3411
326.104	2987
326.192	3959
326.280	2755
326.369	3269
326.457	3330
326.545	3932
326.634	2748
326.722	3230
326.810	3157
326.898	4600
326.987	4301
327.075	3603
327.163	4364
327.251	4353
327.340	3458
327.428	4974
327.516	5770
327.604	4772
327.692	3619
327.781	3272
327.869	3486
327.957	3251
328.045	2736
328.133	2897
328.221	2895
328.309	2787
328.397	3446
328.485	3992
328.574	4876
328.662	8973
328.750	6720
328.838	4125
328.926	3742
329.014	2649
329.102	3187
329.190	4553
329.278	4676
329.366	3133
329.454	2930
329.542	2471
329.630	2720
329.718	2801
329.806	2141
329.893	3409
329.981	3013
330.069	2250
330.157	2689
330.245	3184
330.333	4104
330.421	3290
330.509	2668
330.597	4850
330.684	4979
330.772	3666
330.860	4030
330.948	4798
331.036	3905
331.123	3184
331.211	3358
331.299	3305
331.387	3706
331.475	6056
331.562	4158
331.650	2500
331.738	3399
331.825	3596
331.913	2859
332.001	3274
332.089	3247
332.176	3344
332.264	4217
332.352	5442
332.439	3985
332.527	3341
332.614	3378
332.702	3165
332.790	3415
332.877	3798
332.965	6920
333.052	7569
333.140	5027
333.228	13847
333.315	7209
333.403	3861
333.490	5086
333.578	6931
333.665	16918
333.753	14101
333.840	4596
333.928	5088
334.015	6058
334.103	8184
334.190	20744
334.278	15892
334.365	14308
334.452	15877
334.540	10851
334.627	9615
334.715	10655
334.802	15441
334.889	29468
334.977	48129
335.064	29774
335.151	14274
335.239	9113
335.326	8179
335.413	11262
335.501	22669
335.588	8958
335.675	8156
335.762	9904
335.850	13559
335.937	17884
336.024	28899
336.111	52821
336.199	57377
336.286	27657
336.373	14266
336.460	8976
336.547	7022
336.635	6733
336.722	6569
336.809	4500
336.896	4723
336.983	6900
337.070	13931
337.157	23215
337.245	14056
337.332	12155
337.419	4997
337.506	4618
337.593	4961
337.680	5518
337.767	15290
337.854	6607
337.941	5978
338.028	5839
338.115	4782
338.202	3703
338.289	5076
338.376	9826
338.463	6830
338.550	7678
338.637	12540
338.724	4107
338.811	5951
338.898	3718
338.984	2988
339.071	3215
339.158	3481
339.245	4721
339.332	4227
339.419	4161
339.506	4613
339.593	3028
339.679	3747
339.766	3793
339.853	2935
339.940	3786
340.027	3500
340.113	2456
340.200	3220
340.287	3399
340.374	2924
340.460	3495
340.547	3045
340.634	2664
340.720	4972
340.807	4897
340.894	2518
340.980	3009
341.067	3062
341.154	3728
341.240	3261
341.327	3653
341.414	3537
341.500	3118
341.587	2915
341.674	3807
341.760	3750
341.847	3752
341.933	2674
342.020	2672
342.106	3141
342.193	2388
342.279	3319
342.366	2874
342.452	3539
342.539	3559
342.625	3256
342.712	5537
342.798	3939
342.885	3514
342.971	2414
343.058	2663
343.144	2723
343.230	2460
343.317	2700
343.403	3012
343.490	3067
343.576	2455
343.662	2707
343.749	2378
343.835	3146
343.921	3697
344.008	8352
344.094	29157
344.180	11586
344.267	3136
344.353	6368
344.439	9769
344.525	4717
344.612	3771
344.698	4667
344.784	3461
344.870	2554
344.957	1669
345.043	3528
345.129	2915
345.215	3884
345.301	2474
345.387	2080
345.474	3446
345.560	2734
345.646	2808
345.732	3040
345.818	2239
345.904	3711
345.990	3254
346.076	2426
346.162	3273
346.249	3604
346.335	3100
346.421	2806
346.507	3356
346.593	11463
346.679	6249
346.765	3566
346.851	5247
346.937	5808
347.023	3640
347.108	3682
347.194	3243
347.280	2170
347.366	3955
347.452	8745
347.538	20541
347.624	14153
347.710	9604
347.796	4220
347.882	2989
347.967	4248
348.053	3511
348.139	3241
348.225	2737
348.311	2992
348.397	2741
348.482	3462
348.568	4404
348.654	4285
348.740	10201
348.825	17696
348.911	7629
348.997	5868
349.083	14966
349.168	5641
349.254	3836
349.340	3351
349.425	2500
349.511	3243
349.597	3410
349.682	3998
349.768	6975
349.854	6265
349.939	2960
350.025	2919
350.110	3568
350.196	2946
350.282	3141
350.367	2648
350.453	3041
350.538	3275
350.624	2894
350.709	3085
350.795	2547
350.880	2462
350.966	3477
351.051	2869
351.137	3201
351.222	2700
351.308	2850
351.393	6192
351.479	4356
351.564	2679
351.649	3047
351.735	3380
351.820	2653
351.906	2325
351.991	2608
352.076	4711
352.162	6471
352.247	3759
352.332	3100
352.418	2575
352.503	3741
352.588	6465
352.673	8485
352.759	2821
352.844	3491
352.929	2539
353.014	2544
353.100	3038
353.185	2996
353.270	3010
353.355	3461
353.441	2942
353.526	2564
353.611	3357
353.696	3055
353.781	3629
353.866	2337
353.952	2641
354.037	3575
354.122	4002
354.207	4202
354.292	3535
354.377	3061
354.462	3116
354.547	2931
354.632	3279
354.717	3471
354.802	3079
354.887	3160
354.972	2858
355.057	2698
355.142	2265
355.227	3424
355.312	3009
355.397	3545
355.482	5511
355.567	5014
355.652	3470
355.737	3849
355.822	6049
355.907	9627
355.991	3578
356.076	3074
356.161	2725
356.246	2952
356.331	3393
356.416	4241
356.501	10133
356.585	19626
356.670	5745
356.755	4800
356.840	4082
356.924	6790
357.009	26114
357.094	18877
357.179	5102
357.263	3819
357.348	4128
357.433	4540
357.517	4258
357.602	4343
357.687	4056
357.771	4366
357.856	7392
357.941	8182
358.025	6169
358.110	26885
358.195	23612
358.279	5297
358.364	4524
358.448	5006
358.533	11327
358.617	11412
358.702	10483
358.787	6996
358.871	4311
358.956	4240
359.040	3971
359.125	3476
359.209	3370
359.294	4387
359.378	9518
359.462	6664
359.547	3767
359.631	2679
359.716	3742
359.800	3213
359.885	3690
359.969	3246
360.053	3383
360.138	3311
360.222	3440
360.306	3449
360.391	4343
360.475	4099
360.559	8632
360.644	5866
360.728	5726
360.812	5852
360.896	20742
360.981	12574
361.065	6965
361.149	4127
361.233	3617
361.318	3749
361.402	3869
361.486	4096
361.570	3661
361.654	3843
361.739	4660
361.823	9397
361.907	26261
361.991	9684
362.075	6205
362.159	8367
362.243	13027
362.327	26582
362.411	57416
362.495	30970
362.580	12784
362.664	9135
362.748	9761
362.832	14331
362.916	24260
363.000	64414
363.084	134692
363.168	87421
363.252	27495
363.336	12208
363.420	9507
363.503	14029
363.587	25293
363.671	9023
363.755	6981
363.839	7529
363.923	8427
364.007	9569
364.091	12010
364.175	17766
364.258	44742
364.342	83990
364.426	169415
364.510	135472
364.594	41288
364.677	18880
364.761	20860
364.845	22962
364.929	8470
365.013	7128
365.096	4976
365.180	6563
365.264	6623
365.347	22879
365.431	17242
365.515	6117
365.598	3581
365.682	4387
365.766	3905
365.849	6885
365.933	5276
366.017	5166
366.100	5234
366.184	4095
366.267	4038
366.351	4461
366.435	3241
366.518	4138
366.602	3311
366.685	3657
366.769	3771
366.852	4151
366.936	5885
367.019	4608
367.103	4372
367.186	6068
367.270	4920
367.353	3685
367.436	5421
367.520	4364
367.603	4973
367.687	4877
367.770	5574
367.853	5182
367.937	6090
368.020	11824
368.104	6123
368.187	4200
368.270	4883
368.353	4215
368.437	4419
368.520	6607
368.603	6044
368.687	5643
368.770	12237
368.853	5708
368.936	4276
369.020	5224
369.103	3721
369.186	3726
369.269	3970
369.352	4253
369.436	4513
369.519	3957
369.602	3333
369.685	3924
369.768	3758
369.851	3659
369.934	3408
370.018	3751
370.101	3572
370.184	4565
370.267	3520
370.350	4497
370.433	4542
370.516	8961
370.599	26689
370.682	17325
370.765	7226
370.848	8310
370.931	12574
371.014	9901
371.097	4365
371.180	3873
371.263	3408
371.346	4200
371.429	3615
371.511	4390
371.594	4118
371.677	5165
371.760	6145
371.843	5382
371.926	9374
372.009	28248
372.091	18094
372.174	8856
372.257	16394
372.340	12750
372.423	7151
372.505	10060
372.588	6602
372.671	5920
372.754	11926
372.836	11590
372.919	6974
373.002	16490
373.085	9026
373.167	5446
373.250	6847
373.332	13045
373.415	14405
373.498	36297
373.580	22590
373.663	24257
373.746	53458
373.828	14274
373.911	6279
373.993	4951
374.076	11141
374.159	17657
374.241	6912
374.324	9855
374.406	11321
374.489	7322
374.571	29357
374.654	20719
374.736	7427
374.819	16457
374.901	24693
374.983	33621
375.066	11710
375.148	6034
375.231	9764
375.313	24187
375.395	14618
375.478	7199
375.560	6000
375.643	5483
375.725	6817
375.807	19154
375.890	24390
375.972	10037
376.054	6290
376.136	6605
376.219	5561
376.301	5621
376.383	18395
376.465	13109
376.548	5706
376.630	5809
376.712	14009
376.794	13161
376.877	3968
376.959	2920
377.041	3556
377.123	4216
377.205	6015
377.287	4118
377.369	3474
377.452	3690
377.534	3937
377.616	3847
377.698	3734
377.780	3339
377.862	4061
377.944	3500
378.026	3585
378.108	2860
378.190	3809
378.272	3201
378.354	3922
378.436	3369
378.518	3381
378.600	5514
378.682	5420
378.764	7142
378.846	8780
378.928	4505
379.010	4378
379.091	4121
379.173	3507
379.255	3584
379.337	3446
379.419	4334
379.501	10515
379.583	8817
379.664	3869
379.746	4183
379.828	6077
379.910	9866
379.991	10690
380.073	4763
380.155	2975
380.237	3131
380.318	3541
380.400	3449
380.482	3152
380.564	4496
380.645	5369
380.727	4932
380.809	3405
380.890	3330
380.972	3869
381.053	3849
381.135	3926
381.217	4442
381.298	8506
381.380	7534
381.461	5212
381.543	10273
381.624	24329
381.706	9166
381.787	4670
381.869	6073
381.951	5690
382.032	23160
382.113	27143
382.195	7101
382.276	7270
382.358	7404
382.439	16411
382.521	18931
382.602	30980
382.684	21074
382.765	22888
382.846	43755
382.928	112157
383.009	101520
383.090	44828
383.172	105521
383.253	230515
383.334	109178
383.416	43432
383.497	31971
383.578	22344
383.659	35295
383.741	87491
383.822	243321
383.903	208811
383.984	60496
384.066	38395
384.147	29512
384.228	14483
384.309	10562
384.390	11439
384.471	9708
384.553	8912
384.634	8920
384.715	8440
384.796	7525
384.877	7720
384.958	8881
385.039	12806
385.120	8281
385.201	6094
385.282	5851
385.363	7859
385.444	8296
385.525	8825
385.606	13170
385.687	18383
385.768	8220
385.849	7645
385.930	10826
386.011	27250
386.092	15406
386.173	7058
386.254	6012
386.335	6623
386.416	5810
386.496	7625
386.577	11786
386.658	8011
386.739	6316
386.820	7310
386.901	6778
386.981	7312
387.062	7320
387.143	8945
387.224	10687
387.304	15999
387.385	10908
387.466	9606
387.547	10138
387.627	10616
387.708	11132
387.789	15267
387.869	23644
387.950	14529
388.031	7313
388.111	7264
388.192	8619
388.273	9480
388.353	8454
388.434	6128
388.514	5848
388.595	11629
388.676	21434
388.756	11751
388.837	7745
388.917	7472
388.998	4946
389.078	4684
389.159	4246
389.239	4738
389.320	4816
389.400	3935
389.480	4757
389.561	9518
389.641	9971
389.722	4670
389.802	4829
389.883	5535
389.963	11027
390.043	12052
390.124	5211
390.204	4540
390.284	7935
390.365	8292
390.445	7189
390.525	16794
390.605	19835
390.686	8451
390.766	5700
390.846	4764
390.927	4377
391.007	4987
391.087	4587
391.167	5624
391.247	4116
391.328	5393
391.408	5983
391.488	6654
391.568	4746
391.648	5547
391.728	6462
391.808	6448
391.888	7289
391.969	7442
392.049	12310
392.129	10906
392.209	8558
392.289	15120
392.369	14126
392.449	12469
392.529	12625
392.609	12264
392.689	13129
392.769	19046
392.849	25310
392.929	23308
393.009	36618
393.089	50477
393.169	69784
393.248	142017
393.328	313486
393.408	407685
393.488	267601
393.568	118353
393.648	57643
393.728	36053
393.807	24495
393.887	19628
393.967	16567
394.047	14415
394.127	12967
394.206	13860
394.286	18326
394.366	71121
394.446	145461
394.525	51716
394.605	15309
394.685	10232
394.764	11641
394.844	19184
394.924	30255
395.003	14758
395.083	8030
395.163	6814
395.242	6897
395.322	6620
395.402	5943
395.481	7213
395.561	8247
395.640	21584
395.720	47981
395.799	42603
395.879	25988
395.958	15094
396.038	23694
396.117	92665
396.197	185898
396.276	78241
396.356	26473
396.435	21652
396.515	22708
396.594	29032
396.673	50254
396.753	115716
396.832	294207
396.912	332986
396.991	150022
397.070	56295
397.150	29744
397.229	21855
397.308	24714
397.388	64864
397.467	50441
397.546	15369
397.625	9567
397.705	9510
397.784	7566
397.863	6856
397.942	6735
398.022	6238
398.101	5771
398.180	15653
398.259	13888
398.338	6672
398.417	5463
398.497	4873
398.576	4742
398.655	4079
398.734	4573
398.813	3779
398.892	4659
398.971	13512
399.050	14050
399.129	3909
399.208	3029
399.287	4166
399.366	2890
399.445	3700
399.524	2822
399.603	2754
399.682	3658
399.761	3747
399.840	12114
399.919	19375
399.998	5791
400.077	2752
400.156	2373
400.235	3604
400.313	3261
400.392	2491
400.471	3949
400.550	6380
400.629	4093
400.708	2746
400.786	2026
400.865	3405
400.944	4162
401.023	4701
401.102	1800
401.180	1930
401.259	1837
401.338	2135
401.416	2333
401.495	2718
401.574	2235
401.652	2000
401.731	2725
401.810	2511
401.888	2007
401.967	1806
402.046	2152
402.124	1769
402.203	1652
402.281	2484
402.360	1991
402.438	4146
402.517	4797
402.596	2531
402.674	2445
402.753	1122
402.831	1944
402.910	2437
402.988	2639
403.066	6338
403.145	7468
403.223	3936
403.302	5217
403.380	6622
403.459	5712
403.537	4251
403.615	2784
403.694	2164
403.772	2934
403.850	2521
403.929	2311
404.007	2347
404.085	3175
404.164	2683
404.242	2114
404.320	3417
404.398	10626
404.477	16342
404.555	14752
404.633	23845
404.711	12058
404.789	10469
404.868	4050
404.946	1338
405.024	2756
405.102	1651
405.180	1361
405.258	1199
405.336	1567
405.415	1125
405.493	2008
405.571	2880
405.649	1708
405.727	1956
405.805	2951
405.883	2457
405.961	2232
406.039	2519
406.117	1110
406.195	2993
406.273	1132
406.351	10826
406.429	13153
406.507	3142
406.585	1544
406.663	1381
406.740	2684
406.818	2172
406.896	1060
406.974	1706
407.052	1403
407.130	5227
407.208	13534
407.285	5900
407.363	1830
407.441	2249
407.519	868
407.596	2250
407.674	1875
407.752	12215
407.830	22664
407.907	6952
407.985	1786
408.063	1711
408.141	991
408.218	2293
408.296	1515
408.373	1745
408.451	2611
408.529	2265
408.606	2348
408.684	2915
408.762	2686
408.839	2434
408.917	1921
408.994	2558
409.072	2926
409.149	3726
409.227	5813
409.304	10601
409.382	12635
409.459	13140
409.537	17795
409.614	19222
409.692	14846
409.769	11678
409.846	15508
409.924	24302
410.001	19977
410.079	13605
410.156	9089
410.233	7577
410.311	5906
410.388	4591
410.465	4794
410.543	4199
410.620	4601
410.697	2869
410.775	3775
410.852	3300
410.929	4368
411.006	4326
411.083	3526
411.161	3706
411.238	4255
411.315	3842
411.392	3129
411.469	2202
411.547	2789
411.624	1717
411.701	2174
411.778	2010
411.855	1894
411.932	2211
412.009	1538
412.086	2347
412.163	1804
412.240	2178
412.317	2029
412.394	2004
412.471	2815
412.548	1644
412.625	1236
412.702	1448
412.779	1733
412.856	2099
412.933	870
413.010	1473
413.087	1624
413.164	1986
413.241	4752
413.318	2011
413.395	1461
413.471	656
413.548	2052
413.625	730
413.702	925
413.779	1686
413.855	590
413.932	1653
414.009	1309
414.086	1581
414.162	1530
414.239	1236
414.316	1899
414.393	5456
414.469	4064
414.546	1502
414.623	1093
414.699	985
414.776	1276
414.853	1095
414.929	1294
415.006	1024
415.082	836
415.159	1325
415.236	826
415.312	872
415.389	1404
415.465	963
415.542	1125
415.618	213
415.695	964
415.771	696
415.848	550
415.924	1388
416.000	789
416.077	1485
416.153	345
416.230	754
416.306	790
416.383	1154
416.459	1685
416.535	689
416.612	606
416.688	797
416.764	754
416.841	484
416.917	1259
416.993	883
417.069	1184
417.146	1416
417.222	1376
417.298	1170
417.374	500
417.451	636
417.527	756
417.603	673
417.679	412
417.755	536
417.831	524
417.908	676
417.984	814
418.060	612
418.136	1650
418.212	1650
418.288	1221
418.364	1121
418.440	576
418.516	1879
418.592	1793
418.668	1658
418.744	1667
418.820	2136
418.896	1104
418.972	831
419.048	1195
419.124	1713
419.200	1451
419.276	1378
419.352	1057
419.428	1349
419.504	214
419.579	2059
419.655	1495
419.731	1269
419.807	2123
419.883	2153
419.959	3622
420.034	2630
420.110	2643
420.186	3667
420.262	5703
420.337	3393
420.413	2459
420.489	2766
420.565	3501
420.640	3173
420.716	3580
420.792	2348
420.867	3815
420.943	3304
421.019	4229
421.094	4059
421.170	4839
421.245	4597
421.321	5845
421.397	5638
421.472	7565
421.548	13499
421.623	16836
421.699	10048
421.774	10705
421.850	10910
421.925	12440
422.001	15273
422.076	18191
422.152	23040
422.227	29405
422.302	40719
422.378	56795
422.453	88470
422.529	139923
422.604	191917
422.679	157528
422.755	156009
422.830	199608
422.905	146937
422.981	96285
423.056	64144
423.131	47199
423.207	34347
423.282	26621
423.357	22440
423.432	17919
423.508	15963
423.583	14205
423.658	11567
423.733	9888
423.808	9639
423.883	9571
423.959	9269
424.034	10150
424.109	11648
424.184	9369
424.259	7019
424.334	5445
424.409	4199
424.484	4572
424.559	4046
424.634	3705
424.709	3685
424.784	3087
424.859	3241
424.934	2724
425.009	4240
425.084	5571
425.159	4503
425.234	3368
425.309	2299
425.384	2794
425.459	4427
425.534	3551
425.609	2090
425.683	1778
425.758	2114
425.833	2331
425.908	2192
425.983	1260
426.058	3613
426.132	4236
426.207	2026
426.282	1987
426.357	2206
426.431	1248
426.506	2565
426.581	2092
426.655	2032
426.730	1743
426.805	1698
426.879	2187
426.954	1405
427.029	1040
427.103	2036
427.178	8613
427.253	9219
427.327	3516
427.402	1464
427.476	3744
427.551	3819
427.625	2633
427.700	1889
427.774	1749
427.849	1171
427.923	1847
427.998	1887
428.072	1987
428.147	4477
428.221	9297
428.296	50873
428.370	72725
428.444	15631
428.519	4752
428.593	3849
428.667	4921
428.742	3704
428.816	6353
428.890	19400
428.965	75031
429.039	44408
429.113	7674
429.188	3862
429.262	2462
429.336	1834
429.410	2469
429.485	2823
429.559	2377
429.633	4067
429.707	2823
429.781	3953
429.855	19125
429.930	69395
430.004	38707
430.078	15841
430.152	23772
430.226	58079
430.300	123463
430.374	51149
430.448	11167
430.522	5998
430.596	12304
430.670	15560
430.744	28795
430.818	83176
430.892	32891
430.966	4341
431.040	2240
431.114	1426
431.188	596
431.262	1611
431.336	1509
431.410	891
431.484	2029
431.557	3677
431.631	2427
431.705	2221
431.779	6660
431.853	42371
431.927	75867
432.000	19982
432.074	3629
432.148	1762
432.222	918
432.295	462
432.369	108
432.443	147
432.516	1182
432.590	8921
432.664	8443
432.737	760
432.811	586
432.885	644
432.958	284
433.032	-142
433.106	-95
433.179	317
433.253	153
433.326	235
433.400	548
433.473	259
433.547	-9
433.620	-251
433.694	119
433.767	780
433.841	-49
433.914	782
433.988	343
434.061	392
434.134	241
434.208	266
434.281	667
434.355	69
434.428	152
434.501	-142
434.575	471
434.648	5
434.721	-504
434.795	-92
434.868	584
434.941	143
435.014	-42
435.088	803
435.161	883
435.234	2812
435.307	2531
435.381	1986
435.454	3945
435.527	5554
435.600	9896
435.673	9208
435.746	6918
435.819	4726
435.892	3664
435.966	2835
436.039	1165
436.112	2030
436.185	793
436.258	1018
436.331	-39
436.404	378
436.477	282
436.550	376
436.623	643
436.696	-98
436.769	339
436.842	823
436.915	-113
436.987	1000
437.060	-60
437.133	726
437.206	-335
437.279	980
437.352	-213
437.425	-607
437.498	309
437.570	-50
437.643	342
437.716	85
437.789	-279
437.861	-56
437.934	784
438.007	972
438.080	-633
438.152	-194
438.225	-226
438.298	1197
438.370	13164
438.443	14299
438.516	2338
438.588	1098
438.661	-188
438.734	1028
438.806	890
438.879	237
438.951	390
439.024	231
439.096	102
439.169	260
439.241	144
439.314	-139
439.386	488
439.459	617
439.531	508
439.604	476
439.676	82
439.749	-11
439.821	495
439.893	333
439.966	233
440.038	-352
440.110	-356
440.183	-189
440.255	-688
440.327	817
440.400	953
440.472	5128
440.544	10249
440.617	2164
440.689	980
440.761	787
440.833	990
440.905	1100
440.978	909
441.050	148
441.122	384
441.194	-43
441.266	-4
441.338	516
441.411	1090
441.483	1090
441.555	4401
441.627	2322
441.699	990
441.771	1587
441.843	1179
441.915	862
441.987	675
442.059	679
442.131	1917
442.203	1760
442.275	2039
442.347	4009
442.419	7163
442.491	23507
442.563	97559
442.635	99955
442.706	24137
442.778	8405
442.850	4065
442.922	2587
442.994	2882
443.066	2451
443.137	4050
443.209	5021
443.281	6365
443.353	11361
443.425	30786
443.496	111123
443.568	201769
443.640	145009
443.711	43012
443.783	12602
443.855	6959
443.926	3881
443.998	3544
444.070	2559
444.141	2593
444.213	1791
444.285	2179
444.356	2173
444.428	2201
444.499	1951
444.571	1976
444.642	1783
444.714	1302
444.785	2218
444.857	3341
444.928	3538
445.000	4850
445.071	4047
445.143	5713
445.214	7342
445.285	11698
445.357	22856
445.428	63397
445.500	172070
445.571	195391
445.642	159479
445.714	77711
445.785	26822
445.856	9467
445.928	6235
445.999	3485
446.070	2419
446.141	1552
446.213	2097
446.284	1674
446.355	1781
446.426	1643
446.497	649
446.569	1351
446.640	1807
446.711	898
446.782	1211
446.853	586
446.924	26
446.995	202
447.066	261
447.138	578
447.209	-31
447.280	52
447.351	-378
447.422	-585
447.493	637
447.564	274
447.635	-461
447.706	810
447.777	-217
447.847	-108
447.918	-834
447.989	-375
448.060	88
448.131	653
448.202	823
448.273	438
448.344	209
448.414	382
448.485	-323
448.556	212
448.627	-462
448.698	-481
448.768	-510
448.839	24
448.910	5
448.981	689
449.051	-338
449.122	-551
449.193	-411
449.263	-336
449.334	-570
449.405	-224
449.475	-71
449.546	-281
449.616	519
449.687	1314
449.758	37
449.828	-145
449.899	-227
449.969	-306
450.040	-248
450.110	100
450.181	-301
450.251	-223
450.322	43
450.392	-361
450.463	105
450.533	-20
450.604	-503
450.674	-697
450.744	745
450.815	223
450.885	12
450.955	310
451.026	666
451.096	310
451.166	346
451.237	974
451.307	2851
451.377	2569
451.447	564
451.518	464
451.588	-288
451.658	-522
451.728	658
451.799	432
451.869	2812
451.939	591
452.009	-241
452.079	-300
452.149	603
452.219	-73
452.289	2072
452.360	3183
452.430	1624
452.500	934
452.570	1384
452.640	3485
452.710	10747
452.780	25037
452.850	17642
452.920	8088
452.990	3911
453.060	1344
453.129	750
453.199	1173
453.269	1739
453.339	8529
453.409	15365
453.479	7850
453.549	12830
453.619	15699
453.688	11985
453.758	2465
453.828	495
453.898	259
453.968	84
454.037	-239
454.087	-149
454.107	-116
454.168	-514
454.177	-582
454.247	131
454.249	136
454.316	65
454.330	-25
454.386	-397
454.411	-192
454.456	103
454.492	639
454.525	1113
454.574	1021
454.595	974
454.655	-382
454.665	-606
454.734	514
454.736	516
454.804	78
454.817	231
454.873	845
454.898	1788
454.943	3568
454.979	2599
455.013	1692
455.060	878
455.082	467
455.141	-348
455.152	-484
455.221	739
455.222	761
455.291	1816
455.303	1906
455.360	2232
455.384	2798
455.430	3709
455.465	4767
455.499	5830
455.546	3490
455.569	2359
455.627	2561
455.638	2618
455.707	581
455.708	587
455.777	198
455.789	240
455.846	265
455.869	178
455.916	39
455.950	454
455.985	897
456.031	329
456.054	-22
456.112	-430
456.124	-482
456.193	35
456.193	28
456.262	665
456.274	631
456.332	538
456.355	611
456.401	638
456.436	484
456.470	369
456.516	95
456.540	-113
456.597	10
456.609	73
456.678	565
456.678	562
456.747	493
456.759	320
456.817	-619
456.840	-337
456.886	297
456.920	649
456.955	944
457.001	1126
457.024	1215
457.082	836
457.093	751
457.162	972
457.163	978
457.232	724
457.243	665
457.301	610
457.324	504
457.370	426
457.405	760
457.439	980
457.485	1314
457.508	1412
457.566	1318
457.577	1318
457.646	2151
457.647	2156
457.715	3666
457.727	4181
457.784	7799
457.808	10586
457.853	14533
457.889	23736
457.922	29780
457.969	25676
457.991	26057
458.050	18038
458.060	16912
458.129	23008
458.130	23573
458.198	41469
458.211	41404
458.267	39840
458.292	29405
458.336	14462
458.372	10551
458.405	8572
458.453	9728
458.474	11799
458.533	20900
458.543	21757
458.611	42249
458.614	43425
458.680	59711
458.694	52579
458.749	32029
458.775	22606
458.818	9233
458.855	6551
458.887	4342
458.936	3425
458.955	3033
459.016	2314
459.024	2234
459.093	1763
459.097	1739
459.162	1354
459.177	1279
459.230	944
459.257	1007
459.299	1276
459.338	1554
459.368	1578
459.418	1370
459.437	1338
459.499	1084
459.505	1081
459.574	991
459.579	1012
459.643	1031
459.659	1142
459.711	1286
459.740	1188
459.780	1086
459.820	1126
459.849	1341
459.900	1397
459.917	1286
459.981	1423
459.986	1433
460.054	1141
460.061	1116
460.123	1176
460.141	1220
460.191	1507
460.222	1501
460.260	1360
460.302	1631
460.328	1655
460.382	1718
460.397	1761
460.462	1571
460.465	1581
460.534	2107
460.543	2164
460.602	5400
460.623	6689
460.671	11854
460.703	16404
460.739	15877
460.783	19284
460.808	19789
460.864	8478
460.876	7308
460.944	2016
460.945	1954
461.013	1456
461.024	1336
461.081	941
461.104	1102
461.150	1317
461.184	1292
461.218	1201
461.264	1176
461.286	1183
461.345	854
461.355	861
461.423	1554
461.425	1553
461.491	967
461.505	1029
461.559	1633
461.585	1691
461.628	1816
461.665	2155
461.696	2417
461.745	2807
461.764	2695
461.825	2218
461.832	2247
461.901	1924
461.905	1922
461.969	1042
461.985	840
462.037	1090
462.065	1381
462.105	1431
462.145	1389
462.173	1479
462.225	1281
462.241	1268
462.305	1668
462.310	1688
462.378	2294
462.385	2310
462.446	1916
462.465	1738
462.514	1554
462.545	1383
462.582	1243
462.625	1466
462.650	1602
462.705	1621
462.718	1609
462.785	1451
462.786	1450
462.854	1750
462.865	1751
462.922	1719
462.945	1706
462.990	1513
463.025	1452
463.058	1557
463.104	1418
463.126	1342
463.184	1447
463.194	1514
463.262	1873
463.264	1891
463.330	1708
463.344	1577
463.398	1527
463.424	1571
463.466	1257
463.504	1023
463.533	1124
463.583	1384
463.601	1441
463.663	1345
463.669	1328
463.737	1123
463.743	1143
463.805	1556
463.823	1559
463.873	1824
463.903	2077
463.940	2351
463.982	2830
464.008	2743
464.062	2259
464.076	2189
464.142	1529
464.144	1512
464.211	1004
464.221	957
464.279	1506
464.301	1693
464.347	1754
464.381	1711
464.414	1597
464.461	1676
464.482	1937
464.540	2451
464.550	2219
464.617	701
464.620	639
464.685	1491
464.699	1715
464.753	2191
464.779	2394
464.820	2640
464.859	2999
464.888	2847
464.938	2482
464.956	2591
465.018	2855
465.023	2838
465.091	2633
465.098	2611
465.158	2454
465.177	2394
465.226	2210
465.257	2066
465.293	1913
465.336	1694
465.361	1786
465.416	2145
465.428	2242
465.495	2670
465.496	2673
465.563	2449
465.575	2430
465.631	2883
465.654	3167
465.698	2937
465.734	2591
465.765	2706
465.813	2752
465.833	2663
465.893	2447
465.900	2398
465.968	2053
465.972	2023
466.035	1698
466.052	1586
466.102	1662
466.131	1767
466.170	2007
466.210	2200
466.237	2396
466.290	2757
466.304	2561
466.369	1678
466.372	1702
466.439	2328
466.449	2415
466.506	2188
466.528	2063
466.573	2614
466.607	3071
466.641	3230
466.687	3415
466.708	3819
466.766	4904
466.775	4724
466.842	3412
466.845	3342
466.909	2581
466.925	2386
466.977	2729
467.004	2936
467.044	2610
467.083	2274
467.111	2651
467.163	3361
467.178	3526
467.242	4180
467.245	4131
467.312	2988
467.321	2833
467.379	2628
467.400	2548
467.446	3076
467.480	3454
467.559	3458
467.638	2419
467.717	3180
467.796	3181
467.875	3153
467.955	3009
468.034	3276
468.113	4695
468.192	6508
468.271	5468
468.350	4522
468.429	7537
468.508	8085
468.588	5536
468.667	3600
468.746	3209
468.825	3392
468.904	2933
468.983	3215
469.062	3207
469.141	3918
469.220	2896
469.299	3108
469.378	2648
469.456	3822
469.535	3215
469.614	3442
469.693	2773
469.772	3089
469.851	3936
469.930	3309
470.009	3758
470.088	2739
470.166	2759
470.245	4631
470.324	6124
470.403	4111
470.482	3346
470.560	3222
470.639	2855
470.718	3004
470.797	1689
470.875	3083
470.954	2901
471.033	3665
471.111	2744
471.190	1504
471.269	2773
471.347	3256
471.426	2019
471.505	3024
471.583	3324
471.662	3480
471.740	3115
471.819	3515
471.898	3138
471.976	3083
472.055	2457
472.133	2876
472.212	2977
472.290	2986
472.369	2346
472.447	2118
472.526	2597
472.604	2778
472.683	2865
472.761	1756
472.839	2451
472.918	3301
472.996	2764
473.075	3338
473.153	3285
473.231	1999
473.310	3032
473.388	3137
473.466	2965
473.545	3163
473.623	2792
473.701	3508
473.780	3770
473.858	2658
473.936	2538
474.014	2575
474.093	3102
474.171	3207
474.249	3679
474.327	2768
474.405	2003
474.484	2619
474.562	2779
474.640	2528
474.718	2668
474.796	2117
474.874	2562
474.952	2051
475.030	2718
475.108	2226
475.187	2310
475.265	2439
475.343	2655
475.421	3607
475.499	3101
475.577	2940
475.655	2266
475.733	3553
475.811	3830
475.889	3901
475.966	3162
476.044	2374
476.122	2802
476.200	2364
476.278	2335
476.356	2255
476.434	2045
476.512	2758
476.590	3292
476.667	3029
476.745	2409
476.823	2682
476.901	2545
476.979	2209
477.056	2607
477.134	2613
477.212	2766
477.290	2611
477.367	2513
477.445	2536
477.523	2232
477.601	2799
477.678	2169
477.756	2714
477.834	3429
477.911	2532
477.989	2811
478.066	2159
478.144	2377
478.222	2457
478.299	2085
478.377	2786
478.454	2853
478.532	2172
478.609	1362
478.687	2638
478.764	2175
478.842	2696
478.919	1897
478.997	1544
479.074	1966
479.152	2588
479.229	1671
479.307	2262
479.384	2275
479.461	2318
479.539	1902
479.616	2465
479.694	1945
479.771	2316
479.848	1941
479.926	2120
480.003	2760
480.080	1999
480.157	2288
480.235	2765
480.312	2250
480.389	1881
480.467	1659
480.544	2994
480.621	2471
480.698	2653
480.775	2678
480.853	2699
480.930	2245
481.007	1750
481.084	1787
481.161	3131
481.238	2676
481.315	1434
481.392	1383
481.470	2224
481.547	2100
481.624	2825
481.701	1820
481.778	1968
481.855	2356
481.932	2471
482.009	2739
482.086	2065
482.163	2228
482.240	2692
482.317	2910
482.393	2872
482.470	2364
482.547	2406
482.624	3040
482.701	2174
482.778	968
482.855	2344
482.932	2466
483.009	1407
483.085	2074
483.162	3042
483.239	3402
483.316	3298
483.393	3210
483.469	3346
483.546	3021
483.623	2923
483.699	1561
483.776	2935
483.853	1963
483.930	1991
484.006	3647
484.083	5358
484.160	5538
484.236	9808
484.313	7898
484.389	6514
484.466	5940
484.543	5150
484.619	6542
484.696	7079
484.772	6560
484.849	5458
484.925	5165
485.002	5286
485.078	4570
485.155	4268
485.231	4647
485.308	3811
485.384	4181
485.461	4710
485.537	5176
485.614	5934
485.690	4314
485.766	3835
485.843	4477
485.919	3727
485.995	4042
486.072	3688
486.148	2932
486.224	3958
486.301	3704
486.377	4199
486.453	4256
486.530	4614
486.606	6310
486.682	5322
486.758	5456
486.835	5633
486.911	4873
486.987	6511
487.063	5857
487.139	5447
487.215	6335
487.292	6237
487.368	5802
487.444	5659
487.520	7695
487.596	11171
487.672	18251
487.748	59299
487.824	116755
487.900	48326
487.976	11836
488.052	8025
488.128	6880
488.204	4870
488.280	4315
488.356	4948
488.432	5322
488.508	6173
488.584	4313
488.660	4191
488.736	4434
488.812	3406
488.888	3470
488.964	4432
489.039	4637
489.115	5202
489.191	4494
489.267	4095
489.343	4160
489.418	3978
489.494	3528
489.570	2955
489.646	3453
489.722	3366
489.797	3396
489.873	3216
489.949	5070
490.024	5576
490.100	3458
490.176	3040
490.251	2941
490.327	3993
490.403	3377
490.478	3177
490.554	3157
490.629	3578
490.705	3085
490.781	3214
490.856	2918
490.932	3504
491.007	3216
491.083	3254
491.158	3097
491.234	3277
491.309	4795
491.385	5230
491.460	2809
491.536	2623
491.611	3128
491.686	2812
491.762	2754
491.837	3250
491.913	4315
491.988	4417
492.063	5599
492.139	2928
492.214	3284
492.289	2811
492.365	2422
492.440	2613
492.515	2466
492.590	2415
492.666	2030
492.741	2932
492.816	3013
492.891	2583
492.967	2793
493.042	2513
493.117	3034
493.192	2288
493.267	3278
493.342	5415
493.418	8823
493.493	3788
493.568	2289
493.643	2303
493.718	2667
493.793	2167
493.868	2629
493.943	2304
494.018	2452
494.093	2827
494.168	2431
494.243	2471
494.318	2343
494.393	2236
494.468	2804
494.543	2221
494.618	3153
494.693	2684
494.768	1641
494.842	2161
494.917	2857
494.992	2923
495.067	2341
495.142	1908
495.217	1994
495.292	1972
495.366	2083
495.441	2236
495.516	2382
495.591	1811
495.665	3321
495.740	6512
495.815	4569
495.890	2811
495.964	2380
496.039	2751
496.114	3129
496.188	2880
496.263	3749
496.338	2964
496.412	2994
496.487	3340
496.561	2629
496.636	2726
496.710	2466
496.785	2853
496.860	3047
496.934	2797
497.009	2399
497.083	2556
497.158	2918
497.232	2414
497.307	3165
497.381	2240
497.455	3220
497.530	3466
497.604	2724
497.679	1934
497.753	2506
497.827	2670
497.902	2986
497.976	3701
498.050	4918
498.125	17819
498.199	26959
498.273	5672
498.348	3282
498.422	2872
498.496	2533
498.570	3349
498.645	1826
498.719	2005
498.793	2535
498.867	2747
498.941	3883
499.016	6622
499.090	21362
499.164	13707
499.238	2236
499.312	3120
499.386	3144
499.460	2592
499.534	2942
499.609	3531
499.683	3502
499.757	2705
499.831	3794
499.905	12156
499.979	17707
500.053	4017
500.127	2573
500.201	2181
500.275	2186
500.349	3580
500.422	2512
500.496	3263
500.570	3848
500.644	8105
500.718	17013
500.792	6554
500.866	2268
500.940	2518
501.013	3123
501.087	1872
501.161	2800
501.235	3173
501.309	4306
501.382	10481
501.456	14061
501.530	3590
501.603	4942
501.677	2939
501.751	1423
501.825	1612
501.898	1885
501.972	4859
502.046	3903
502.119	1493
502.193	2768
502.266	5057
502.340	4388
502.413	2496
502.487	5279
502.561	3627
502.634	2107
502.708	1882
502.781	1672
502.855	894
502.928	1312
503.002	2041
503.075	1834
503.149	1198
503.222	1301
503.295	1564
503.369	1427
503.442	1900
503.516	4028
503.589	8000
503.662	8203
503.736	4332
503.809	5905
503.882	5956
503.956	8835
504.029	14518
504.102	31210
504.175	65399
504.249	30327
504.322	9769
504.395	4983
504.468	3393
504.542	2428
504.615	2247
504.688	1820
504.761	1806
504.834	1024
504.907	1634
504.980	2019
505.053	1525
505.127	888
505.200	2869
505.273	1309
505.346	1860
505.419	1069
505.492	1811
505.565	1011
505.638	1453
505.711	524
505.784	712
505.857	909
505.930	1375
506.003	86
506.076	854
506.149	1107
506.221	810
506.294	2021
506.367	2138
506.440	5057
506.513	5936
506.586	2049
506.659	1635
506.731	1428
506.804	992
506.877	964
506.950	1172
507.022	1092
507.095	1434
507.168	1015
507.241	1586
507.313	985
507.386	719
507.459	874
507.531	1235
507.604	1428
507.677	1001
507.749	1008
507.822	664
507.894	1597
507.967	4151
508.040	2615
508.112	2259
508.185	2135
508.257	1612
508.330	1950
508.402	1755
508.475	2225
508.547	2546
508.620	1472
508.692	1552
508.765	1719
508.837	1728
508.909	1463
508.982	1874
509.054	1242
509.127	1664
509.199	1581
509.271	1553
509.344	1959
509.416	1166
509.488	1754
509.560	1641
509.633	1807
509.705	1354
509.777	1472
509.849	1759
509.922	1317
509.994	2744
510.066	815
510.138	1526
510.210	3173
510.283	3607
510.355	2501
510.427	1678
510.499	2015
510.571	1907
510.643	3120
510.715	2003
510.787	1201
510.859	2147
510.931	2167
511.003	2131
511.076	1617
511.148	2814
511.219	1881
511.291	2544
511.363	3181
511.435	2034
511.507	1611
511.579	2500
511.651	2346
511.723	2273
511.795	1259
511.867	1012
511.939	1547
512.010	2183
512.082	1322
512.154	1556
512.226	1862
512.298	2702
512.369	3486
512.441	3127
512.513	2020
512.585	1992
512.656	2704
512.728	2365
512.800	2730
512.871	883
512.943	2139
513.015	1955
513.086	1049
513.158	1369
513.230	1218
513.301	1568
513.373	2947
513.444	1994
513.516	1778
513.588	2036
513.659	2218
513.731	1799
513.802	1017
513.874	2516
513.945	2100
514.016	2297
514.088	1298
514.159	844
514.231	2841
514.302	3027
514.374	1958
514.445	2553
514.516	2610
514.588	2695
514.659	2624
514.730	2362
514.802	2465
514.873	1397
514.944	2258
515.016	2328
515.087	2060
515.158	1779
515.229	2960
515.301	2169
515.372	2375
515.443	1966
515.514	1375
515.585	1664
515.656	1864
515.728	2182
515.799	1984
515.870	2401
515.941	1596
516.012	1604
516.083	3021
516.154	2701
516.225	3581
516.296	3242
516.367	3206
516.438	3423
516.509	4470
516.580	5237
516.651	13607
516.722	56269
516.793	41188
516.864	7035
516.935	5812
517.006	6494
517.077	8594
517.148	14683
517.219	55260
517.289	145997
517.360	36030
517.431	9291
517.502	3838
517.573	3896
517.643	2662
517.714	3791
517.785	3853
517.856	4155
517.926	4969
517.997	6338
518.068	6866
518.138	9233
518.209	14256
518.280	37025
518.350	162663
518.421	116498
518.492	15637
518.562	8100
518.633	10013
518.703	11727
518.774	21410
518.845	59653
518.915	88061
518.986	26721
519.056	9723
519.127	6284
519.197	5579
519.268	8239
519.338	9039
519.408	3255
519.479	3060
519.549	2497
519.620	2933
519.690	2656
519.760	2752
519.831	2369
519.901	1948
519.971	1932
520.042	2288
520.112	2701
520.182	1729
520.253	2208
520.323	1518
520.393	1732
520.463	3158
520.534	2249
520.604	4032
520.674	2179
520.744	1520
520.814	3470
520.885	3853
520.955	3116
521.025	8211
521.095	6650
521.165	2796
521.235	1632
521.305	1531
521.375	1990
521.445	2050
521.515	1582
521.585	1841
521.655	1615
521.725	1661
521.795	1880
521.865	683
521.935	2359
522.005	2386
522.075	1979
522.145	2690
522.215	1673
522.285	1777
522.355	2396
522.424	2740
522.494	3096
522.564	2435
522.634	2183
522.704	3262
522.774	2465
522.843	2059
522.913	1418
522.983	2102
523.053	2133
523.122	1575
523.192	2117
523.262	1523
523.331	2303
523.401	2582
523.471	1736
523.540	1924
523.610	1712
523.680	2067
523.749	1669
523.819	2230
523.888	1682
523.958	2327
524.027	1705
524.097	1955
524.166	2051
524.236	1352
524.305	2344
524.375	1232
524.444	1086
524.514	2087
524.583	2578
524.653	1637
524.722	1787
524.791	1054
524.861	2344
524.930	1665
524.999	1747
525.069	2755
525.138	2130
525.207	1517
525.277	2349
525.346	1992
525.415	2341
525.484	1564
525.554	2653
525.623	2929
525.692	3962
525.761	4269
525.830	5939
525.900	7125
525.969	10808
526.038	21593
526.107	35400
526.176	120059
526.245	141172
526.314	42354
526.383	49597
526.452	106380
526.522	105341
526.591	164465
526.660	31195
526.729	13072
526.797	13764
526.867	18374
526.935	42564
527.004	164899
527.073	193953
527.142	24846
527.211	8770
527.280	5274
527.349	4136
527.418	2773
527.487	2635
527.555	1656
527.624	1931
527.693	2081
527.762	2287
527.831	1670
527.899	2228
527.968	1988
528.037	1301
528.106	2968
528.174	2093
528.243	1727
528.312	1607
528.380	1661
528.449	2266
528.518	2877
528.586	1251
528.655	2228
528.723	1521
528.792	1311
528.861	2062
528.929	857
528.998	2687
529.066	3576
529.135	5618
529.203	5260
529.272	6955
529.340	10753
529.409	9651
529.477	8265
529.545	7485
529.614	9608
529.682	10683
529.751	12350
529.819	12809
529.887	14362
529.956	14449
530.024	12474
530.092	11612
530.161	12248
530.229	11454
530.297	14012
530.365	13254
530.434	13514
530.502	14078
530.570	12798
530.638	10339
530.707	10447
530.775	10823
530.843	10207
530.911	11699
530.979	11966
531.047	12232
531.115	12829
531.183	12202
531.252	11895
531.320	10541
531.388	10835
531.456	12735
531.524	12607
531.592	13322
531.660	15307
531.728	13938
531.796	13072
531.864	13218
531.932	12802
532.000	12632
532.067	13704
532.135	15443
532.203	14987
532.271	16217
532.339	15456
532.407	16000
532.475	14969
532.542	15013
532.610	14854
532.678	14186
532.746	17985
532.814	22438
532.881	19001
532.949	16078
533.017	15272
533.084	13895
533.152	13622
533.220	12651
533.287	12966
533.355	14509
533.423	13974
533.490	15388
533.558	13810
533.625	13637
533.693	13109
533.761	12421
533.828	12831
533.896	11889
533.963	13888
534.031	13667
534.098	14722
534.166	14083
534.233	13792
534.300	13860
534.368	12973
534.435	12873
534.503	13334
534.570	13076
534.637	13208
534.705	14825
534.772	16617
534.840	18953
534.907	46079
534.974	104166
535.041	26373
535.109	11819
535.176	9967
535.243	11553
535.310	10630
535.378	11046
535.445	10197
535.512	10430
535.579	9663
535.646	8925
535.714	8605
535.781	10626
535.848	9786
535.915	9695
535.982	9680
536.049	10747
536.116	9941
536.183	8647
536.250	7961
536.317	8553
536.384	7900
536.451	8217
536.518	8366
536.585	7908
536.652	9765
536.719	9200
536.786	7599
536.853	7293
536.920	8178
536.987	8458
537.053	8109
537.120	9284
537.187	10213
537.254	8125
537.321	7419
537.388	9454
537.454	7722
537.521	7379
537.588	7016
537.654	7193
537.721	7832
537.788	8218
537.855	7423
537.921	7804
537.988	7231
538.055	7250
538.121	6452
538.188	6624
538.254	6251
538.321	5818
538.388	5478
538.454	6807
538.521	6770
538.587	7208
538.654	7175
538.720	6894
538.787	6895
538.853	6451
538.920	6067
538.986	6276
539.053	6216
539.119	6443
539.185	6051
539.252	7142
539.318	7138
539.385	8094
539.451	6755
539.517	6605
539.583	7654
539.650	6583
539.716	8469
539.782	6236
539.849	5818
539.915	6156
539.981	5340
540.047	5660
540.114	5844
540.180	6118
540.246	6503
540.312	6542
540.378	6079
540.444	6739
540.510	6569
540.576	7756
540.643	6721
540.709	4820
540.775	6327
540.841	5763
540.907	6853
540.973	5703
541.039	6034
541.105	5232
541.171	6306
541.237	6234
541.303	6085
541.369	7027
541.435	6624
541.500	5752
541.566	5860
541.632	5158
541.698	5423
541.764	5430
541.830	5291
541.896	5832
541.961	6391
542.027	5849
542.093	5756
542.159	6691
542.224	5617
542.290	6200
542.356	5257
542.421	6550
542.487	5177
542.553	5711
542.618	4897
542.684	5328
542.750	4813
542.815	6347
542.881	5896
542.947	7159
543.012	8019
543.078	5922
543.143	4641
543.209	5334
543.274	5121
543.340	5719
543.405	5331
543.471	5938
543.536	5146
543.602	5388
543.667	5128
543.732	5914
543.798	4992
543.863	5781
543.928	5033
543.994	5182
544.059	5679
544.124	6169
544.190	6034
544.255	6466
544.320	5568
544.386	5662
544.451	6292
544.516	6322
544.581	6140
544.646	6737
544.712	8765
544.777	6436
544.842	6877
544.907	6975
544.972	5981
545.037	6119
545.102	7130
545.168	6934
545.233	7594
545.298	8207
545.363	7297
545.428	7590
545.493	7596
545.558	8698
545.623	9378
545.688	8193
545.753	7665
545.818	8234
545.883	8788
545.947	8926
546.012	9502
546.077	9705
546.142	9865
546.207	9828
546.272	10870
546.337	11320
546.401	11391
546.466	11458
546.531	11689
546.596	14531
546.661	13327
546.725	14167
546.790	15701
546.855	15810
546.919	16975
546.984	20009
547.049	21964
547.113	24361
547.178	27471
547.243	31438
547.307	35093
547.372	39927
547.436	41246
547.501	41253
547.565	46661
547.630	44064
547.695	40547
547.759	42555
547.823	41063
547.888	42776
547.952	44057
548.017	44798
548.081	47725
548.146	46950
548.210	46970
548.274	50005
548.339	51562
548.403	47376
548.468	43762
548.532	42194
548.596	43864
548.660	44096
548.725	47236
548.789	51220
548.853	51876
548.917	48914
548.982	47074
549.046	43684
549.110	39434
549.174	39176
549.238	43355
549.303	49883
549.367	53544
549.431	51637
549.495	47715
549.559	46033
549.623	51600
549.687	59674
549.751	58538
549.815	65840
549.879	72157
549.943	67542
550.007	70646
550.071	72500
550.135	64410
550.199	59588
550.263	60448
550.327	57118
550.391	55510
550.455	61182
550.519	66724
550.582	68476
550.646	76835
550.710	81407
550.774	79548
550.838	80234
550.901	82562
550.965	85979
551.029	89249
551.093	92545
551.156	97999
551.220	103806
551.284	114747
551.347	102304
551.411	88064
551.475	84311
551.538	86576
551.602	85476
551.666	78232
551.729	74660
551.793	73648
551.856	72340
551.920	70264
551.983	70500
552.047	70607
552.110	69839
552.174	70554
552.237	72211
552.301	69919
552.364	65785
552.428	63953
552.491	63473
552.554	66902
552.618	65503
552.681	66716
552.745	65781
552.808	66590
552.871	73394
552.934	70470
552.998	67872
553.061	65361
553.124	64348
553.187	62238
553.251	64028
553.314	64352
553.377	65100
553.440	67241
553.503	72979
553.567	80724
553.630	73492
553.693	69974
553.756	70763
553.819	71118
553.882	68914
553.945	67201
554.008	68742
554.071	67801
554.134	69935
554.197	67287
554.260	65222
554.323	65333
554.386	66114
554.449	68105
554.512	69770
554.575	67870
554.638	66213
554.701	65302
554.764	64606
554.827	63783
554.889	61309
554.952	57688
555.015	54727
555.078	56211
555.141	58675
555.203	56552
555.266	56200
555.329	55894
555.391	54326
555.454	53253
555.517	51248
555.580	48799
555.642	46821
555.705	46814
555.768	45967
555.830	45831
555.893	42989
555.955	42128
556.018	41508
556.080	40056
556.143	42070
556.206	41884
556.268	40781
556.330	40270
556.393	38824
556.455	37708
556.518	36129
556.580	35355
556.643	34261
556.705	32531
556.767	32160
556.830	33379
556.892	30838
556.955	31237
557.017	30972
557.079	29606
557.142	29594
557.204	27490
557.266	28671
557.328	26859
557.391	24935
557.453	24611
557.515	24272
557.577	24810
557.639	24187
557.701	24938
557.764	23200
557.826	24351
557.888	25143
557.950	25489
558.012	26187
558.074	28250
558.136	40823
558.198	103486
558.260	79513
558.322	25379
558.384	23727
558.446	24846
558.508	27041
558.570	28676
558.632	32855
558.694	39389
558.756	52273
558.818	98876
558.880	279781
558.942	193305
559.003	108866
559.065	96832
559.127	33614
559.189	29298
559.251	30609
559.312	37077
559.374	59126
559.436	178661
559.498	189100
559.559	43125
559.621	29773
559.683	31194
559.744	38377
559.806	81245
559.868	196188
559.929	80447
559.991	31493
560.052	36282
560.114	86603
560.176	105259
560.237	50304
560.299	107374
560.360	49468
560.422	14977
560.483	12777
560.545	11548
560.606	11973
560.667	11049
560.729	10466
560.790	9808
560.852	10311
560.913	10543
560.974	9450
561.036	9392
561.097	9700
561.158	9708
561.220	10230
561.281	8812
561.342	8946
561.403	9872
561.465	8430
561.526	9072
561.587	9826
561.648	7931
561.709	8539
561.771	8073
561.832	7559
561.893	8082
561.954	7926
562.015	7462
562.076	7430
562.137	7423
562.198	7450
562.259	7975
562.320	7668
562.381	7733
562.442	7729
562.503	7954
562.564	7432
562.625	7848
562.686	7304
562.747	5888
562.808	6896
562.869	6888
562.930	7304
562.991	6489
563.051	6787
563.112	6757
563.173	6658
563.234	5719
563.294	7637
563.355	5903
563.416	6732
563.477	5589
563.537	6574
563.598	6597
563.659	6349
563.720	6739
563.780	6452
563.841	5954
563.901	6485
563.962	7261
564.023	6082
564.083	5934
564.144	5736
564.204	5972
564.265	5958
564.325	5401
564.386	6643
564.446	7299
564.507	5709
564.567	5682
564.628	5978
564.688	5651
564.749	5215
564.809	5928
564.869	6517
564.930	5921
564.990	6430
565.050	5119
565.111	6225
565.171	5761
565.231	5406
565.292	5851
565.352	4938
565.412	5621
565.472	5241
565.532	4938
565.593	5838
565.653	5511
565.713	6181
565.773	6047
565.833	6174
565.893	5771
565.953	4781
566.013	5426
566.074	5927
566.134	5700
566.194	5804
566.254	6210
566.314	5726
566.374	5662
566.434	4772
566.494	5211
566.554	6163
566.614	5722
566.673	5475
566.733	5617
566.793	5402
566.853	5688
566.913	6473
566.973	5722
567.033	7483
567.092	4925
567.152	6329
567.212	5578
567.272	6062
567.331	6676
567.391	6224
567.451	6671
567.511	7136
567.570	6449
567.630	6094
567.690	6730
567.749	6340
567.809	5147
567.868	5587
567.928	6084
567.988	5496
568.047	6144
568.107	5706
568.166	6103
568.226	6420
568.285	5872
568.345	6273
568.404	6020
568.464	6345
568.523	6001
568.582	5561
568.642	5953
568.701	6560
568.761	5205
568.820	5966
568.879	5167
568.939	6117
568.998	6248
569.057	6381
569.116	5941
569.176	6103
569.235	6178
569.294	5711
569.353	5719
569.413	6040
569.472	5519
569.531	5642
569.590	4760
569.649	5810
569.708	4724
569.767	6189
569.827	5512
569.886	6129
569.945	5588
570.004	5719
570.063	6194
570.122	6397
570.181	6529
570.240	5660
570.299	6808
570.358	6466
570.417	5544
570.475	6481
570.534	6269
570.593	7240
570.652	5928
570.711	5900
570.770	6338
570.829	5815
570.887	6584
570.946	5947
571.005	6170
571.064	6851
571.122	6668
571.181	6079
571.240	5771
571.299	5599
571.357	6075
571.416	6409
571.475	5956
571.533	5978
571.592	6911
571.650	6681
571.709	6752
571.768	6761
571.826	7137
571.885	7104
571.943	7075
572.002	6639
572.060	6158
572.119	5971
572.177	6988
572.236	6565
572.294	6747
572.352	6985
572.411	6151
572.469	5941
572.528	6126
572.586	6315
572.644	5510
572.703	6998
572.761	5367
572.819	6151
572.877	6052
572.936	5867
572.994	5548
573.052	5634
573.110	5554
573.169	6678
573.227	5760
573.285	6170
573.343	6332
573.401	6384
573.459	6173
573.517	5469
573.576	5742
573.634	5791
573.692	6090
573.750	6164
573.808	6265
573.866	6550
573.924	6077
573.982	5518
574.040	5662
574.098	6143
574.155	5312
574.213	5178
574.271	4615
574.329	5490
574.387	5549
574.445	4444
574.503	5484
574.560	5480
574.618	4954
574.676	5476
574.734	4635
574.792	5651
574.849	4928
574.907	5124
574.965	5009
575.022	4238
575.080	4748
575.138	4636
575.195	4085
575.253	4383
575.311	4390
575.368	4456
575.426	3988
575.483	4692
575.541	4934
575.598	4024
575.656	4041
575.713	4663
575.771	4964
575.828	5001
575.886	3938
575.943	4794
576.001	4041
576.058	3305
576.115	3982
576.173	4933
576.230	5026
576.287	4958
576.345	4386
576.402	4655
576.459	4233
576.517	4569
576.574	4626
576.631	5049
576.688	4369
576.746	4052
576.803	4510
576.860	4818
576.917	4643
576.974	4245
577.031	4490
577.089	4346
577.146	4477
577.203	4418
577.260	4158
577.317	4687
577.374	4062
577.431	4826
577.488	4465
577.545	4962
577.602	4709
577.659	3819
577.716	4457
577.773	5177
577.830	4109
577.886	5172
577.943	4176
578.000	4676
578.057	3731
578.114	4553
578.171	5579
578.227	5451
578.284	6430
578.341	4899
578.398	5464
578.454	4280
578.511	4136
578.568	5398
578.625	4068
578.681	3900
578.738	4588
578.794	4086
578.851	4503
578.908	4220
578.964	4539
579.021	5116
579.077	4988
579.134	4851
579.190	4449
579.247	4453
579.303	5503
579.360	4267
579.416	5061
579.473	4920
579.529	4539
579.586	5214
579.642	4881
579.698	4678
579.755	5707
579.811	5536
579.867	5004
579.924	4660
579.980	4870
580.036	5494
580.093	5453
580.149	7166
580.205	8343
580.261	7517
580.317	6718
580.374	6302
580.430	6215
580.486	6139
580.542	5970
580.598	6648
580.619	6560
580.654	6407
580.692	6260
580.710	6181
580.765	6202
580.767	6199
580.823	7534
580.838	7165
580.879	6166
580.911	7058
580.935	7711
580.984	6890
580.991	6772
581.047	7968
581.057	7842
581.103	7267
581.130	7389
581.159	7526
581.203	7863
581.215	7933
581.270	8019
581.276	7936
581.326	7088
581.349	7312
581.382	7613
581.422	7619
581.438	7623
581.494	7565
581.494	7583
581.550	8699
581.567	8546
581.606	8240
581.640	7924
581.661	7723
581.713	8776
581.717	8851
581.773	9398
581.786	9320
581.829	9010
581.859	9123
581.885	9211
581.932	9061
581.940	9038
581.996	9233
582.004	9391
582.052	10164
582.077	10181
582.107	10218
582.150	10659
582.163	10754
582.219	10971
582.223	10903
582.274	9982
582.296	10246
582.330	10791
582.368	11357
582.386	11546
582.441	11698
582.441	11692
582.497	12590
582.514	12368
582.552	11612
582.587	12048
582.608	12436
582.659	12898
582.663	12914
582.719	13690
582.732	13798
582.774	14279
582.805	14539
582.830	14735
582.877	15164
582.885	15250
582.941	16932
582.950	17216
582.996	19193
583.023	20365
583.052	21738
583.095	23791
583.107	24015
583.162	22540
583.168	22537
583.218	22601
583.240	21817
583.273	20325
583.313	18912
583.328	18488
583.384	17556
583.385	17542
583.439	17086
583.458	16930
583.494	16757
583.531	16234
583.549	15968
583.603	16483
583.605	16515
583.660	16948
583.676	16845
583.715	16482
583.748	16659
583.770	16694
583.820	16214
583.825	16199
583.881	16767
583.893	16678
583.936	16389
583.965	16494
583.991	16605
584.038	17155
584.046	17299
584.101	17206
584.110	17283
584.156	17385
584.183	17661
584.211	18181
584.255	18357
584.266	18425
584.321	19335
584.328	19421
584.376	20545
584.400	20712
584.431	20305
584.472	19729
584.486	19866
584.541	21583
584.545	21600
584.596	22043
584.617	22323
584.651	22457
584.689	23020
584.706	23501
584.761	24548
584.762	24523
584.816	24561
584.834	24772
584.871	25007
584.906	25034
584.926	25213
584.978	25276
584.980	25301
585.035	26169
585.051	26239
585.090	26891
585.123	27788
585.145	28376
585.195	28807
585.200	28947
585.254	30388
585.267	30830
585.309	32911
585.340	34999
585.364	37217
585.412	41343
585.419	42005
585.473	47081
585.484	48219
585.528	55702
585.556	62261
585.583	75618
585.628	102224
585.637	117318
585.692	223662
585.700	244545
585.747	411711
585.772	469087
585.801	394885
585.845	244927
585.856	210812
585.910	88052
585.917	74431
585.965	57001
585.989	48936
586.019	45918
586.061	41639
586.074	40981
586.128	39651
586.133	39342
586.183	36522
586.205	35440
586.237	34916
586.277	34297
586.292	34065
586.346	32899
586.349	32783
586.401	32405
586.421	32001
586.455	31262
586.493	30293
586.509	30330
586.564	30505
586.565	30439
586.618	31986
586.637	32683
586.672	34229
586.709	35214
586.727	36200
586.781	39681
586.781	39775
586.835	37625
586.853	36731
586.889	33079
586.925	29918
586.944	29772
586.996	29049
586.998	29111
587.052	28919
587.068	28941
587.106	29260
587.140	28923
587.161	28846
587.212	28771
587.215	28881
587.269	29385
587.284	29451
587.323	29211
587.356	29295
587.377	29918
587.427	30360
587.431	30469
587.485	31020
587.499	31158
587.539	31492
587.571	31308
587.593	31835
587.643	33827
587.648	34077
587.702	35099
587.715	35124
587.755	35231
587.786	35359
587.810	35376
587.858	35466
587.864	35648
587.917	35503
587.930	35555
587.971	35991
588.001	35896
588.025	36189
588.073	36510
588.079	36596
588.133	36665
588.145	36472
588.187	36176
588.217	35948
588.241	36624
588.288	38002
588.295	38293
588.348	38821
588.360	38993
588.402	40614
588.431	41507
588.456	41740
588.503	41658
588.510	42140
588.564	45657
588.575	46192
588.617	47775
588.646	48826
588.671	50408
588.718	53282
588.725	54167
588.778	59971
588.789	61232
588.832	75105
588.861	85884
588.886	121151
588.932	191359
588.939	212298
588.993	382140
589.004	408740
589.047	319216
589.075	251177
589.100	185445
589.147	74742
589.154	72802
589.207	58896
589.218	55968
589.261	55142
589.290	54481
589.314	55191
589.361	56412
589.368	57438
589.421	64482
589.433	66252
589.475	93975
589.504	114524
589.528	168622
589.576	280442
589.582	286100
589.635	312046
589.647	312978
589.689	174220
589.718	82053
589.742	71080
589.790	50068
589.795	50059
589.849	48503
589.861	48060
589.902	48222
589.932	48077
589.955	47910
590.004	46796
590.009	46815
590.062	45283
590.075	44747
590.115	44869
590.146	44706
590.168	44779
590.218	44401
590.222	44613
590.275	45328
590.289	45328
590.328	46066
590.360	46477
590.381	47105
590.431	47554
590.435	47721
590.488	47885
590.503	47670
590.541	48470
590.574	49108
590.594	49942
590.645	51152
590.647	51389
590.700	52533
590.716	52720
590.753	53527
590.787	53868
590.806	54901
590.859	56938
590.859	57164
590.912	57760
590.930	57802
590.965	59033
591.001	59783
591.018	59881
591.071	59430
591.072	59194
591.124	58821
591.143	58375
591.177	58720
591.214	58636
591.230	59297
591.283	60794
591.285	60611
591.336	60768
591.356	60497
591.389	60755
591.427	60477
591.442	60436
591.495	59449
591.498	59144
591.547	60236
591.569	60391
591.600	61207
591.640	61618
591.653	62192
591.706	63754
591.711	63654
591.759	64234
591.782	64213
591.811	66368
591.853	68819
591.864	69344
591.917	70584
591.924	70474
591.969	70505
591.995	70081
592.022	70210
592.066	69709
592.075	70445
592.127	73276
592.137	73494
592.180	75196
592.208	75799
592.233	76942
592.279	78264
592.285	78697
592.338	79596
592.350	79481
592.390	81052
592.421	81634
592.443	81679
592.491	80731
592.495	81224
592.548	83446
592.562	83714
592.600	84481
592.633	84504
592.653	84679
592.704	83743
592.705	84264
592.775	86064
592.846	88195
592.916	89108
592.987	90094
593.058	90346
593.128	93188
593.199	92545
593.270	92786
593.341	94532
593.411	97056
593.482	100880
593.553	104022
593.623	104717
593.694	105800
593.764	110604
593.835	111113
593.906	110559
593.976	112405
594.047	115042
594.117	119635
594.188	124398
594.258	125336
594.329	124187
594.399	127027
594.470	130055
594.540	132066
594.611	136543
594.681	138304
594.751	136661
594.822	141130
594.892	145454
594.963	149723
595.033	152120
595.103	158456
595.174	160077
595.244	165562
595.314	169354
595.384	175032
595.455	177595
595.525	182141
595.595	188889
595.665	194606
595.736	190341
595.806	188694
595.876	194080
595.946	194555
596.016	201193
596.087	208871
596.157	212520
596.227	211197
596.297	218237
596.367	230657
596.437	248096
596.507	253962
596.577	247174
596.647	255132
596.717	263282
596.787	275276
596.857	276844
596.927	278679
596.997	279223
597.067	281301
597.137	287083
597.207	290485
597.277	293908
597.347	289923
597.417	278986
597.487	276986
597.557	279993
597.626	288641
597.696	296459
597.766	296334
597.836	292958
597.906	277727
597.975	268981
598.045	269773
598.115	275999
598.185	289360
598.254	314882
598.324	348844
598.394	363124
598.464	363957
598.533	354435
598.603	348563
598.672	328192
598.742	328712
598.812	337007
598.881	342552
598.951	347957
599.020	349456
599.090	357010
599.159	371307
599.229	368897
599.299	359843
599.368	364985
599.437	370224
599.507	358327
599.576	342079
599.646	342464
599.715	337711
599.785	340839
599.854	338555
599.924	335834
599.993	335859
600.062	341363
600.132	350921
600.201	356387
600.270	389675
600.340	428566
600.409	431536
600.478	431827
600.547	436069
600.617	446520
600.686	390512
600.755	357529
600.824	348589
600.894	343514
600.963	349901
601.032	357096
601.101	355976
601.170	350548
601.239	351628
601.308	347882
601.378	360875
601.447	365303
601.516	369820
601.585	378222
601.654	385861
601.723	394858
601.792	401872
601.861	415971
601.930	428675
601.999	447380
602.068	452927
602.137	451508
602.206	453589
602.275	459256
602.343	468659
602.412	469410
602.481	472504
602.550	477471
602.619	481004
602.688	487457
602.756	491050
602.825	496058
602.894	498245
602.963	509769
603.032	503292
603.100	522089
603.169	503976
603.238	516730
603.307	518012
603.375	496630
603.444	521167
603.513	518852
603.581	495108
603.650	531611
603.719	510679
603.787	448741
603.856	456001
603.924	463481
603.993	477746
604.061	486202
604.130	504266
604.198	520309
604.267	523781
604.335	535600
604.404	536812
604.472	551469
604.541	558274
604.609	563398
604.678	580553
604.746	583244
604.815	601121
604.883	615320
604.951	589729
605.020	588298
605.088	598888
605.156	557930
605.225	556479
605.293	559289
605.361	555914
605.429	561794
605.498	560321
605.566	573701
605.634	572667
605.702	604865
605.771	597231
605.839	625656
605.907	604173
605.975	590300
606.043	601110
606.111	561140
606.180	580022
606.248	598926
606.316	543509
606.384	571461
606.452	570449
606.520	466789
606.588	463974
606.656	472043
606.724	476063
606.792	457377
606.860	428822
606.928	389431
606.996	366374
607.064	351859
607.132	356629
607.200	368670
607.267	394178
607.335	392857
607.403	413054
607.471	405521
607.539	388252
607.607	395037
607.674	366968
607.742	345458
607.810	341173
607.878	339857
607.946	340973
608.013	352918
608.081	366915
608.149	367668
608.216	368464
608.284	389815
608.352	389431
608.419	391252
608.487	382853
608.555	369459
608.622	373576
608.690	382494
608.757	415555
608.825	441930
608.893	435532
608.960	423689
609.028	397033
609.095	391001
609.163	390121
609.230	379354
609.298	328518
609.365	327723
609.432	349719
609.500	371497
609.567	414336
609.635	476513
609.702	526328
609.769	528934
609.837	473955
609.904	360606
609.971	346838
610.039	357864
610.106	386806
610.173	491765
610.241	835460
610.308	1160578
610.375	624026
610.442	422172
610.509	373611
610.577	361377
610.644	364066
610.711	370469
610.778	383371
610.845	388936
610.912	412705
610.980	434843
611.047	443555
611.114	441158
611.181	429919
611.248	420672
611.315	430714
611.382	450116
611.449	461044
611.516	474215
611.583	471076
611.650	467653
611.717	473776
611.784	476430
611.851	484735
611.918	495312
611.984	518121
612.051	584787
612.118	733528
612.185	1173808
612.252	1583904
612.319	903156
612.386	628082
612.452	581824
612.519	543987
612.586	526045
612.653	523668
612.719	541479
612.786	550592
612.853	519449
612.919	488474
612.986	497519
613.053	487836
613.120	461155
613.186	433161
613.253	431390
613.319	431188
613.386	434474
613.453	437829
613.519	446058
613.586	441202
613.652	441451
613.719	441905
613.785	435060
613.852	447918
613.918	451140
613.985	444275
614.051	460119
614.118	470972
614.184	461996
614.250	442179
614.317	455913
614.383	450535
614.449	457305
614.516	460447
614.582	458799
614.648	458144
614.715	448760
614.781	449037
614.847	436055
614.914	442525
614.980	433496
615.046	428576
615.112	433522
615.179	441851
615.245	443446
615.311	444899
615.377	441805
615.443	450935
615.509	448109
615.575	461882
615.642	467113
615.708	462496
615.774	475179
615.840	494253
615.906	510312
615.972	527250
616.038	603012
616.104	820165
616.170	1306411
616.236	1761940
616.302	1161987
616.368	769925
616.434	660055
616.500	546699
616.565	534773
616.631	609329
616.697	650322
616.763	569313
616.829	622968
616.895	899595
616.961	1222586
617.026	892007
617.092	546980
617.158	487265
617.224	476087
617.289	454402
617.355	428450
617.421	417745
617.487	416609
617.552	410121
617.618	394329
617.684	399296
617.749	397488
617.815	394132
617.880	378597
617.946	376046
618.012	377378
618.077	390968
618.143	387469
618.208	372898
618.274	388321
618.339	416925
618.405	385069
618.470	342171
618.536	349711
618.601	347857
618.667	339196
618.732	315848
618.798	306807
618.863	305554
618.928	300281
618.994	302439
619.059	301676
619.124	304733
619.190	305097
619.255	303339
619.320	302755
619.386	307324
619.451	304788
619.516	304337
619.581	299275
619.647	307264
619.712	316701
619.777	306604
619.842	297359
619.907	306480
619.972	307416
620.038	313948
620.103	304431
620.168	304307
620.233	308198
620.298	310350
620.363	310885
620.428	314016
620.493	323970
620.558	329080
620.623	330916
620.688	337665
620.753	330736
620.818	336861
620.883	339211
620.948	341178
621.013	337749
621.078	334568
621.143	331192
621.207	338315
621.272	333693
621.337	330715
621.402	323664
621.467	324739
621.532	320561
621.596	323775
621.661	323944
621.726	313641
621.791	316266
621.855	316326
621.920	314946
621.985	316401
622.049	322794
622.114	326035
622.179	329038
622.243	329127
622.308	337850
622.373	347306
622.437	351476
622.502	338355
622.566	332440
622.631	328856
622.695	333583
622.760	334037
622.824	331651
622.889	333818
622.953	332774
623.018	339799
623.082	353281
623.147	349504
623.211	346687
623.276	342288
623.340	341227
623.404	326031
623.469	324828
623.533	327201
623.597	329623
623.662	320479
623.726	316043
623.790	297470
623.854	285333
623.919	282675
623.983	287986
624.047	287146
624.111	291132
624.176	296755
624.240	297989
624.304	302939
624.368	301695
624.432	294678
624.496	296261
624.560	304040
624.625	314986
624.689	314131
624.753	317165
624.817	324374
624.881	301982
624.945	299720
625.009	274430
625.073	276163
625.137	278062
625.201	288581
625.265	295388
625.329	286594
625.393	282370
625.456	282751
625.520	284837
625.584	292383
625.648	296227
625.712	303389
625.776	310670
625.839	306649
625.903	281914
625.967	236527
626.031	239150
626.095	263438
626.158	292347
626.222	246676
626.286	212213
626.349	205495
626.413	197368
626.477	188109
626.540	184930
626.604	189843
626.668	184519
626.731	183098
626.795	181389
626.858	179643
626.922	178273
626.986	174059
627.049	171522
627.113	178160
627.176	179245
627.240	173496
627.303	167725
627.366	166939
627.430	166535
627.493	168536
627.557	164216
627.620	166878
627.684	167473
627.747	171456
627.810	165566
627.874	151366
627.937	140685
628.000	140753
628.064	142964
628.127	134812
628.190	124912
628.253	122146
628.317	120885
628.380	115490
628.443	109445
628.506	107983
628.569	107280
628.632	100166
628.696	99537
628.759	98584
628.822	97031
628.885	92191
628.948	90575
629.011	90295
629.074	88329
629.137	86776
629.200	85100
629.263	83597
629.326	80997
629.389	81977
629.452	81924
629.515	78111
629.578	77377
629.641	77338
629.704	77585
629.767	78382
629.830	76055
629.892	74146
629.955	72834
630.018	73391
630.081	74978
630.144	73810
630.207	72991
630.269	70156
630.332	71205
630.395	69142
630.458	68362
630.520	66827
630.583	64347
630.646	65710
630.708	65939
630.771	67275
630.834	68543
630.896	69214
630.959	68466
631.021	66896
631.084	67576
631.146	66785
631.209	66443
631.272	66545
631.334	66712
631.397	68344
631.459	65928
631.522	67792
631.584	70360
631.646	72464
631.709	74029
631.771	75097
631.834	74314
631.896	72926
631.958	67731
632.021	66932
632.083	65620
632.145	65086
632.208	63995
632.270	62189
632.332	62547
632.395	62541
632.457	63004
632.519	62161
632.581	61863
632.643	60573
632.706	62247
632.768	60005
632.830	60131
632.892	61672
632.954	63358
633.016	64164
633.078	61879
633.141	61519
633.203	61790
633.265	61349
633.327	61298
633.389	61660
633.451	62068
633.513	60355
633.575	62599
633.637	63305
633.698	61959
633.760	65036
633.822	64749
633.884	66612
633.946	68290
634.008	69117
634.070	69538
634.132	71526
634.193	73960
634.255	80145
634.317	82407
634.379	84127
634.441	79137
634.502	74317
634.564	68948
634.626	64648
634.687	62931
634.749	60414
634.811	58883
634.873	58845
634.934	59597
634.996	58989
635.057	60134
635.119	59695
635.181	61122
635.242	60349
635.304	59052
635.365	62974
635.427	60854
635.488	60522
635.550	59191
635.611	59997
635.673	59731
635.734	62355
635.796	62342
635.857	66488
635.918	70903
635.980	73591
636.041	77084
636.102	82676
636.164	85583
636.225	83806
636.286	78451
636.348	72106
636.409	65099
636.470	62724
636.531	60847
636.593	59893
636.654	59045
636.715	58200
636.776	56249
636.838	55064
636.899	54533
636.960	53895
637.021	53779
637.082	54590
637.143	53079
637.204	50511
637.265	50362
637.326	51779
637.387	51608
637.448	53631
637.509	52422
637.570	52414
637.631	51747
637.692	50265
637.753	50211
637.814	49701
637.875	49451
637.936	50138
637.997	50127
638.058	49169
638.119	49564
638.179	49077
638.240	48783
638.301	50170
638.362	49275
638.423	47897
638.483	47332
638.544	47696
638.605	46646
638.666	47698
638.726	47559
638.787	46839
638.848	47695
638.908	47158
638.969	45914
639.030	45529
639.090	44883
639.151	44964
639.211	45178
639.272	46421
639.332	46182
639.393	46236
639.453	46590
639.514	49112
639.574	48346
639.635	43794
639.695	43072
639.756	43796
639.816	43094
639.877	41529
639.937	41901
639.997	42850
640.058	43583
640.118	41907
640.178	42965
640.239	43073
640.299	41641
640.359	42662
640.420	43167
640.480	45136
640.540	48863
640.600	52630
640.661	51228
640.721	46450
640.781	48509
640.841	47268
640.901	44350
640.961	42464
641.021	41910
641.082	44898
641.142	46064
641.202	43233
641.262	40693
641.322	41508
641.382	42044
641.442	41404
641.502	40195
641.562	40588
641.622	40694
641.682	42079
641.742	44544
641.802	47425
641.861	42117
641.921	39983
641.981	38482
642.041	39219
642.101	38083
642.161	37982
642.221	38090
642.280	38089
642.340	38538
642.400	38566
642.460	40122
642.519	40655
642.579	39227
642.639	39222
642.698	37819
642.758	41039
642.818	39667
642.877	40184
642.937	40002
642.997	39096
643.056	39882
643.116	39043
643.175	40354
643.235	39313
643.294	40229
643.354	40894
643.414	41050
643.473	43478
643.532	47833
643.592	54072
643.651	64976
643.711	91544
643.770	144567
643.830	264849
643.889	605309
643.948	661556
644.008	175704
644.067	76464
644.126	57343
644.186	49371
644.245	45535
644.304	41715
644.363	40652
644.423	38559
644.482	37600
644.541	38823
644.600	38914
644.659	42428
644.719	46983
644.778	57037
644.837	77329
644.896	124280
644.955	256130
645.014	351957
645.073	88617
645.132	48899
645.191	42459
645.250	41179
645.309	41249
645.368	41975
645.427	46735
645.486	59759
645.545	107707
645.604	112174
645.663	41807
645.722	37606
645.781	38153
645.840	38827
645.898	41229
645.957	47552
646.016	58210
646.075	86617
646.134	136555
646.192	253097
646.251	585301
646.310	452554
646.369	107483
646.427	60203
646.486	55684
646.545	43230
646.603	38156
646.662	36188
646.721	33380
646.779	33380
646.838	33760
646.896	35535
646.955	40940
647.014	51617
647.072	79133
647.131	153658
647.189	292005
647.248	82949
647.306	36703
647.365	31802
647.423	29549
647.481	28789
647.540	28832
647.598	28389
647.657	28192
647.715	28628
647.773	27144
647.832	26769
647.890	25249
647.948	25152
648.007	25238
648.065	24188
648.123	23936
648.181	24875
648.240	23484
648.298	24445
648.356	23704
648.414	23316
648.472	23536
648.531	23274
648.589	22047
648.647	22087
648.705	22590
648.763	21158
648.821	21922
648.879	21854
648.937	22377
648.995	24362
649.053	26695
649.111	32549
649.169	43445
649.227	66166
649.285	112707
649.343	249457
649.401	464190
649.459	135273
649.516	42302
649.574	31291
649.632	28539
649.690	30834
649.748	31523
649.806	37874
649.863	57717
649.921	103643
649.979	236676
650.037	83839
650.094	25465
650.152	21756
650.210	20039
650.268	19554
650.325	19189
650.383	18792
650.440	17773
650.498	17115
650.556	16334
650.613	16040
650.671	15854
650.728	15578
650.786	16191
650.843	18567
650.901	22002
650.958	17454
651.016	15464
651.073	14767
651.131	14975
651.188	14814
651.246	14662
651.303	13886
651.360	13690
651.418	12706
651.475	13934
651.532	13155
651.590	13643
651.647	12841
651.704	13377
651.762	13618
651.819	12996
651.876	13069
651.933	12845
651.990	12342
652.048	11345
652.105	11621
652.162	12600
652.219	12019
652.276	11285
652.333	12439
652.390	11649
652.448	12036
652.505	11535
652.562	12323
652.619	12472
652.676	11576
652.733	13314
652.790	12717
652.847	10021
652.904	11537
652.961	10434
653.017	11085
653.074	11083
653.131	10938
653.188	10587
653.245	10772
653.302	10774
653.359	10926
653.415	10910
653.472	11118
653.529	10408
653.586	10619
653.642	10090
653.699	10395
653.756	9416
653.813	9920
653.869	10160
653.926	10509
653.983	9699
654.039	11609
654.096	9635
654.152	10687
654.209	9369
654.266	10008
654.322	9274
654.379	10292
654.435	9660
654.492	9761
654.548	10000
654.605	9699
654.661	10180
654.717	9576
654.774	9342
654.830	9176
654.887	9052
654.943	8865
655.000	9863
655.056	10648
655.112	9307
655.168	9005
655.225	9049
655.281	10299
655.337	9102
655.394	10486
655.450	10352
655.506	9221
655.562	10113
655.618	11245
655.675	9196
655.731	8927
655.787	8510
655.843	8851
655.899	9349
655.955	10196
656.011	9201
656.067	8829
656.123	9562
656.179	10111
656.235	9624
656.291	9610
656.347	9778
656.403	9650
656.459	9591
656.515	9194
656.571	8691
656.627	9371
656.683	8511
656.739	10173
656.795	8853
656.850	9407
656.906	8807
656.962	9324
657.018	9825
657.074	9875
657.129	12626
657.185	16948
657.241	25538
657.297	50662
657.352	18752
657.408	9896
657.464	10013
657.519	8882
657.575	8769
657.630	9114
657.686	8783
657.742	8356
657.797	8923
657.853	8072
657.908	9615
657.964	8406
658.019	7516
658.075	8772
658.130	8632
658.186	9165
658.241	8016
658.297	8914
658.352	7988
658.407	8435
658.463	7679
658.518	7368
658.573	7660
658.629	8778
658.684	7321
658.739	8428
658.795	6775
658.850	7743
658.905	7601
658.960	8795
659.016	7523
659.071	8207
659.126	7717
659.181	6849
659.236	7748
659.291	8105
659.346	8034
659.401	8495
659.457	8802
659.512	8556
659.567	8781
659.622	8099
659.677	7315
659.732	7502
659.787	7003
659.842	7575
659.897	8539
659.952	8514
660.007	7283
660.061	7536
660.116	7927
660.171	7018
660.226	7366
660.281	8070
660.336	7480
660.391	7842
660.445	7815
660.500	7884
660.555	6465
660.610	6889
660.664	8211
660.719	7300
660.774	7082
660.828	6881
660.883	6677
660.938	6969
660.992	6906
661.047	7186
661.101	5897
661.156	7201
661.211	6994
661.265	6705
661.320	6805
661.374	7453
661.429	7166
661.483	6907
661.538	6364
661.592	6538
661.647	6897
661.701	7386
661.755	7533
661.810	7050
661.864	6329
661.919	7009
661.973	7209
662.027	7404
662.081	6421
662.136	6471
662.190	6811
662.244	7505
662.299	6632
662.353	6665
662.407	6986
662.461	6796
662.515	7476
662.569	6159
662.624	6577
662.678	6344
662.732	6575
662.786	6482
662.840	7432
662.894	7242
662.948	6605
663.002	6927
663.056	6591
663.110	5980
663.164	6381
663.218	7287
663.272	6302
663.326	6822
663.380	6213
663.434	6794
663.488	5987
663.542	6890
663.595	6395
663.649	7058
663.703	7177
663.757	7131
663.811	6065
663.864	7478
663.918	7176
663.972	6139
664.026	6392
664.079	6089
664.133	6583
664.187	7075
664.240	6763
664.294	6893
664.348	6422
664.401	6576
664.455	6532
664.508	6071
664.562	5990
664.615	6544
664.669	6227
664.722	6881
664.776	5133
664.829	6413
664.883	6295
664.936	5526
664.990	6343
665.043	6357
665.097	6165
665.150	6494
665.203	6340
665.257	6733
665.310	6458
665.363	6953
665.417	6368
665.470	7228
665.523	6943
665.576	7345
665.630	6869
665.683	6291
665.736	6216
665.789	6692
665.842	5086
665.895	6823
665.949	7163
666.002	5274
666.055	6858
666.108	7443
666.161	6098
666.214	7424
666.267	6327
666.320	5969
666.373	7335
666.426	7156
666.479	6724
666.532	6257
666.585	7443
666.638	7526
666.691	6496
666.744	6639
666.796	6725
666.849	6858
666.902	7157
666.955	6083
667.008	6685
667.060	6455
667.113	6305
667.166	7464
667.219	7043
667.271	6994
667.324	7838
667.377	7170
667.430	7400
667.482	6247
667.535	6681
667.587	7073
667.640	7059
667.693	6190
667.745	7147
667.798	6686
667.850	6611
667.903	6796
667.955	7903
668.008	6570
668.060	7012
668.113	7186
668.165	6873
668.218	6500
668.270	6806
668.322	7329
668.375	6444
668.427	7531
668.479	5650
668.532	6667
668.584	7066
668.636	6053
668.689	6413
668.741	6171
668.793	5714
668.845	6599
668.898	6466
668.950	6467
669.002	6555
669.054	6593
669.106	6161
669.158	6779
669.211	6128
669.263	5725
669.315	5601
669.367	6570
669.419	6256
669.471	7028
669.523	6136
669.575	7431
669.627	6571
669.679	6331
669.731	6357
669.783	6137
669.835	6204
669.886	6941
669.938	6369
669.990	6588
670.042	6523
670.094	6623
670.146	6634
670.197	7397
670.249	8348
670.301	8064
670.353	9139
670.404	11678
670.456	14830
670.508	20950
670.560	29733
670.611	50639
670.663	85004
670.715	150197
670.766	312431
670.818	355627
670.869	112386
670.921	33438
670.972	20243
671.024	14902
671.075	12042
671.127	10516
671.178	8394
671.230	8960
671.281	9052
671.333	9602
671.384	8985
671.436	10072
671.487	12714
671.538	15766
671.590	21782
671.641	34989
671.692	54927
671.744	103033
671.795	169370
671.846	95394
671.897	36106
671.949	18337
672.000	14533
672.051	10701
672.102	9262
672.153	7670
672.204	7110
672.256	7291
672.307	6388
672.358	6556
672.409	6226
672.460	5904
672.511	5117
672.562	6186
672.613	5018
672.664	5241
672.715	5350
672.766	5867
672.817	4839
672.868	4959
672.919	4453
672.970	5137
673.021	3875
673.071	4707
673.122	4179
673.173	4259
673.224	3787
673.275	4929
673.326	4305
673.376	4631
673.427	3898
673.478	4136
673.528	4301
673.579	4726
673.630	4277
673.680	4510
673.731	3794
673.782	3884
673.832	4592
673.883	5283
673.934	4018
673.984	4563
674.035	3590
674.085	4614
674.136	3902
674.186	3982
674.237	4150
674.287	3708
674.338	5296
674.388	4554
674.438	4640
674.489	5488
674.539	4969
674.589	4315
674.640	5180
674.690	4292
674.740	4607
674.791	4309
674.841	4178
674.891	4935
674.942	2714
674.992	3745
675.042	3704
675.092	3737
675.142	3165
675.193	2922
675.243	2893
675.293	3844
675.343	3818
675.393	4428
675.443	4026
675.493	3746
675.543	4124
675.593	3088
675.643	4589
675.693	4435
675.743	4126
675.793	4013
675.843	2970
675.893	3897
675.943	3266
675.993	2980
676.043	3511
676.093	3295
676.142	3279
676.192	3757
676.242	3418
676.292	3476
676.341	3110
676.391	3371
676.441	3226
676.491	2725
676.540	2910
676.590	2860
676.640	2688
676.689	3396
676.739	2439
676.789	1787
676.838	2868
676.888	2830
676.937	2643
676.987	3167
677.037	3059
677.086	2884
677.136	2246
677.185	2725
677.235	2631
677.284	2814
677.333	2027
677.383	2643
677.432	2649
677.482	2561
677.531	3042
677.580	2691
677.630	2611
677.679	2404
677.728	1735
677.778	3230
677.827	1989
677.876	2649
677.925	2100
677.975	2779
678.024	2488
678.073	2895
678.122	2821
678.171	3505
678.220	2589
678.269	3436
678.319	2539
678.368	3568
678.417	3488
678.466	3246
678.515	3063
678.564	2650
678.613	2627
678.662	2242
678.711	2022
678.760	2602
678.809	3150
678.857	2323
678.906	1985
678.955	2852
679.004	2674
679.053	2794
679.102	1779
679.151	3041
679.199	2634
679.248	2695
679.297	2626
679.346	2523
679.394	1716
679.443	1417
679.492	2230
679.540	2195
679.589	2369
679.638	2868
679.686	2875
679.735	2877
679.784	2382
679.832	3729
679.881	3768
679.929	3103
679.978	2151
680.026	2700
680.075	2347
680.123	2611
680.172	2625
680.220	1991
680.268	2238
680.317	2182
680.365	1617
680.414	1395
680.462	2105
680.510	2827
680.559	1309
680.607	1983
680.655	2406
680.703	2220
680.752	2602
680.800	2026
680.848	1536
680.896	1758
680.945	1813
680.993	1979
681.041	1286
681.089	1484
681.137	1986
681.185	1642
681.233	1417
681.258	1639
681.281	1819
681.329	1450
681.377	1798
681.380	1859
681.425	2391
681.473	1843
681.502	1797
681.521	1724
681.569	2575
681.617	2185
681.624	2304
681.665	2844
681.713	2200
681.745	2529
681.761	2633
681.809	2633
681.857	2559
681.867	2698
681.904	3065
681.952	2913
681.989	2790
682.000	2708
682.048	2918
682.096	2563
682.111	2736
682.143	3012
682.191	2721
682.233	3010
682.239	3024
682.286	2939
682.334	3520
682.354	3594
682.382	3617
682.430	3911
682.476	3217
682.477	3176
682.525	3300
682.572	2826
682.598	3401
682.620	3849
682.667	3532
682.715	4118
682.720	4107
682.763	3725
682.810	3366
682.841	3903
682.857	4144
682.905	4417
682.952	4305
682.963	4273
683.000	4042
683.047	3714
683.085	4171
683.095	4262
683.142	3835
683.190	4440
683.206	4237
683.237	3857
683.284	4915
683.328	4417
683.332	4337
683.379	4255
683.426	4334
683.449	4441
683.473	4548
683.521	5031
683.568	4242
683.571	4269
683.615	4363
683.662	6188
683.693	5205
683.709	4613
683.757	4785
683.804	4845
683.814	4815
683.851	4560
683.898	4534
683.936	5387
683.945	5592
683.992	5177
684.039	5686
684.057	5478
684.086	5110
684.133	5522
684.179	4828
684.180	4785
684.227	5510
684.274	5476
684.300	5503
684.321	5510
684.368	5041
684.415	5346
684.422	5412
684.462	5691
684.509	5766
684.543	5724
684.556	5695
684.603	6317
684.649	6555
684.665	6499
684.696	6285
684.743	6417
684.786	6558
684.790	6556
684.837	6100
684.883	6664
684.908	6539
684.930	6396
684.977	6532
685.023	7113
685.029	7119
685.070	7172
685.117	6044
685.150	6771
685.164	6979
685.210	7363
685.257	7368
685.272	7230
685.303	6972
685.350	7289
685.393	6957
685.396	6922
685.443	7186
685.490	7610
685.514	7245
685.536	6820
685.583	7478
685.629	7310
685.636	7253
685.675	6973
685.722	7357
685.757	7345
685.768	7339
685.815	7491
685.861	7438
685.878	7551
685.908	7657
685.954	7338
686.000	7201
686.000	7194
686.047	7542
686.093	7970
686.121	7980
686.139	7975
686.185	8462
686.232	8157
686.242	8214
686.278	8249
686.324	7912
686.363	8133
686.370	8201
686.416	8217
686.463	8113
686.484	8463
686.509	8698
686.555	8318
686.601	8267
686.606	8294
686.647	8721
686.693	8688
686.727	8674
686.739	8563
686.785	8211
686.831	7945
686.848	7920
686.877	8119
686.923	8177
686.969	8283
686.969	8282
687.015	8610
687.061	8973
687.090	9212
687.107	9321
687.153	9418
687.199	9604
687.211	9411
687.245	8823
687.291	9126
687.332	8884
687.336	8871
687.382	9689
687.428	9166
687.453	9482
687.474	9726
687.520	9813
687.565	9475
687.574	9532
687.611	9684
687.657	9565
687.695	9735
687.702	9801
687.748	9997
687.794	10383
687.816	10632
687.839	10954
687.885	10908
687.931	11243
687.937	11204
687.976	10471
688.022	10506
688.058	10281
688.067	10315
688.113	10948
688.158	10461
688.179	10493
688.204	10463
688.249	10452
688.295	10756
688.300	10696
688.340	10387
688.386	10604
688.421	10633
688.431	10642
688.477	10051
688.522	10308
688.542	10519
688.567	10940
688.613	10654
688.658	11009
688.663	11078
688.703	11573
688.749	11422
688.784	11549
688.794	11524
688.839	11633
688.884	11136
688.905	11099
688.930	11202
688.975	11115
689.020	11304
689.026	11257
689.065	11006
689.110	11016
689.146	10946
689.155	10963
689.201	11438
689.246	11739
689.267	11805
689.291	11886
689.336	12041
689.381	11962
689.388	11935
689.426	11621
689.471	11788
689.509	11356
689.516	11368
689.561	12292
689.606	12081
689.630	12452
689.651	12616
689.696	11996
689.741	11877
689.750	11892
689.785	12144
689.830	12169
689.871	12250
689.875	12265
689.920	12181
689.965	12185
689.992	12196
690.010	12202
690.054	11966
690.099	11690
690.112	11623
690.144	11739
690.189	12049
690.233	12320
690.233	12336
690.278	12391
690.323	12147
690.354	12183
690.367	12238
690.412	12309
690.457	12431
690.474	12357
690.501	12342
690.546	12480
690.590	12605
690.595	12583
690.635	12532
690.680	12761
690.716	12824
690.724	12910
690.769	12849
690.813	13898
690.836	13929
690.857	14238
690.902	15028
690.946	16478
690.957	16651
690.991	18517
691.035	21438
691.077	24602
691.080	25033
691.124	32607
691.168	38160
691.198	41746
691.213	39380
691.257	33059
691.301	26987
691.318	24524
691.346	22391
691.390	18835
691.434	16081
691.439	15622
691.478	14684
691.522	13949
691.559	13439
691.567	13462
691.611	13847
691.655	13758
691.680	13719
691.699	13811
691.743	13812
691.787	13985
691.800	14054
691.831	14113
691.875	13827
691.919	13726
691.921	13705
691.964	14163
692.008	14131
692.041	14456
692.052	14536
692.096	14143
692.139	14117
692.162	14090
692.183	14009
692.227	14160
692.271	13407
692.282	13398
692.315	13542
692.359	13278
692.402	13190
692.403	13217
692.447	13307
692.490	13331
692.523	13357
692.534	13364
692.578	13361
692.622	13178
692.643	13260
692.666	13454
692.709	13553
692.753	13598
692.763	13573
692.797	13679
692.840	14167
692.884	14132
692.884	14160
692.928	14243
692.971	14210
693.004	14314
693.015	14300
693.059	13747
693.102	13782
693.124	13639
693.146	13806
693.189	13674
693.233	13986
693.245	14079
693.276	14414
693.320	14452
693.363	14755
693.365	14729
693.407	15291
693.450	16085
693.485	16622
693.493	16736
693.537	16974
693.580	17296
693.605	17507
693.624	18383
693.667	20262
693.710	22113
693.725	22910
693.753	27131
693.797	33589
693.840	40890
693.845	41713
693.883	56253
693.926	70126
693.966	83114
693.970	81762
694.013	66376
694.056	51205
694.086	40775
694.099	38435
694.142	30739
694.185	22988
694.206	19209
694.229	18656
694.272	17685
694.315	16562
694.326	16215
694.358	16194
694.401	16581
694.444	16587
694.446	16546
694.487	16180
694.530	15901
694.566	15735
694.573	15763
694.616	15546
694.659	15476
694.686	15333
694.702	15418
694.745	15760
694.787	15712
694.806	15749
694.830	15830
694.873	15878
694.916	15888
694.926	15862
694.959	15974
695.002	16073
695.044	16193
695.046	16160
695.087	16119
695.130	16091
695.166	15897
695.172	15920
695.215	15755
695.258	15912
695.286	15790
695.301	15882
695.343	16355
695.386	16579
695.406	16676
695.428	16822
695.471	17110
695.514	17266
695.526	17312
695.556	18122
695.599	19191
695.641	20169
695.646	20230
695.684	20854
695.726	21510
695.766	22135
695.769	22118
695.811	21023
695.854	19935
695.886	19132
695.896	19128
695.938	18830
695.981	18522
696.005	18370
696.023	18700
696.065	19418
696.108	20034
696.125	20236
696.150	20842
696.192	21875
696.235	22850
696.245	23045
696.277	23361
696.319	23619
696.361	23923
696.365	23891
696.404	24252
696.446	24728
696.485	24833
696.488	24849
696.530	24456
696.572	23953
696.604	23605
696.614	23624
696.656	23410
696.698	23181
696.724	22895
696.740	22907
696.783	22933
696.825	23087
696.844	23026
696.867	23132
696.909	23273
696.951	23368
696.964	23335
696.992	23443
697.034	23612
697.076	23737
697.083	23692
697.118	24007
697.160	24357
697.202	24837
697.203	24783
697.244	24957
697.286	25295
697.323	25470
697.327	25496
697.369	25170
697.411	24866
697.442	24551
697.453	24682
697.494	24970
697.536	25302
697.562	25394
697.578	25341
697.620	25101
697.661	24779
697.682	24602
697.703	24800
697.744	25040
697.786	25301
697.801	25308
697.828	25704
697.869	26259
697.911	26730
697.921	26809
697.952	26949
697.994	26979
698.035	27006
698.040	26948
698.077	26857
698.118	26593
698.160	26336
698.160	26266
698.201	26387
698.243	26449
698.279	26479
698.284	26626
698.325	27331
698.367	28040
698.399	28490
698.408	28669
698.449	29196
698.491	29725
698.518	29990
698.532	30103
698.573	30223
698.614	30348
698.638	30345
698.656	30524
698.697	30743
698.738	30961
698.757	30992
698.779	30986
698.820	30811
698.862	30639
698.877	30494
698.903	30825
698.944	31231
698.985	31638
698.996	31670
699.026	31386
699.067	30881
699.116	30199
699.235	30242
699.354	30747
699.474	29210
699.593	28062
699.713	27958
699.832	28187
699.951	28711
700.070	30395
700.190	28651
700.309	27115
700.428	27183
700.547	26855
700.667	26622
700.786	25850
700.905	26363
701.024	24717
701.143	26535
701.262	24844
701.381	27611
701.500	25399
701.619	26885
701.738	25532
701.857	25664
701.976	26610
702.095	24109
702.214	25525
702.333	25557
702.452	25158
702.571	25941
702.690	26416
702.809	25506
702.928	24793
703.047	25386
703.165	23115
703.284	24481
703.403	22832
703.522	23672
703.640	23292
703.759	23051
703.878	22360
703.997	22194
704.115	22865
704.234	22447
704.353	21978
704.471	22069
704.590	20960
704.708	20919
704.827	21086
704.946	21661
705.064	19620
705.183	21726
705.301	20422
705.420	21226
705.538	22091
705.656	21738
705.775	18946
705.893	20254
706.012	22731
706.130	23813
706.249	20228
706.367	19977
706.485	18605
706.604	20486
706.722	19191
706.840	19515
706.958	20707
707.077	22006
707.195	18350
707.313	18477
707.431	18410
707.549	17537
707.668	18110
707.786	17714
707.904	19540
708.022	17316
708.140	18556
708.258	17738
708.376	16621
708.494	18181
708.612	17142
708.730	18497
708.848	19407
708.966	17918
709.084	18861
709.202	17436
709.320	17251
709.438	16506
709.556	17462
709.674	17475
709.791	15928
709.909	15998
710.027	16303
710.145	16739
710.263	15610
710.380	16536
710.498	16320
710.616	15972
710.733	15679
710.851	14718
710.969	15604
711.086	15941
711.204	14915
711.322	15180
711.439	15597
711.557	15394
711.674	14865
711.792	14535
711.909	14662
712.027	14311
712.144	15443
712.262	13980
712.379	13843
712.497	15568
712.614	15585
712.732	15621
712.849	15215
712.966	14775
713.084	15014
713.201	16728
713.318	14936
713.436	15748
713.553	15305
713.670	14586
713.787	15868
713.905	15814
714.022	14715
714.139	14771
714.256	16818
714.373	18112
714.490	23217
714.608	39560
714.725	100787
714.842	362950
714.959	230397
715.076	33065
715.193	20062
715.310	17648
715.427	16622
715.544	13868
715.661	14392
715.778	14275
715.895	13294
716.011	13808
716.128	14086
716.245	13078
716.362	13979
716.479	13351
716.596	12566
716.713	13109
716.829	12519
716.946	12205
717.063	12335
717.180	11750
717.296	11518
717.413	11991
717.530	12168
717.646	11818
717.763	11355
717.880	11611
717.996	11312
718.113	10726
718.229	11453
718.346	10707
718.462	10973
718.579	10360
718.695	11524
718.812	11142
718.928	10856
719.045	11513
719.161	10755
719.277	10758
719.394	11289
719.510	12413
719.626	10923
719.743	11727
719.859	13790
719.975	20402
720.092	36887
720.208	143578
720.324	213557
720.440	25955
720.557	14137
720.673	13137
720.789	11737
720.905	11961
721.021	13682
721.137	10711
721.253	10450
721.369	10031
721.486	9841
721.602	11011
721.718	10558
721.834	9330
721.950	9425
722.066	9824
722.181	9126
722.297	9570
722.413	9560
722.529	9437
722.645	9265
722.761	8878
722.877	9976
722.993	9300
723.108	9752
723.224	10644
723.340	9829
723.456	9492
723.571	7974
723.687	8480
723.803	8330
723.918	8669
724.034	9097
724.150	8929
724.265	8964
724.381	8729
724.497	9435
724.612	8578
724.728	8417
724.843	8141
724.959	8005
725.074	9207
725.190	9538
725.305	9252
725.421	8042
725.536	8289
725.651	8497
725.767	8794
725.882	8596
725.997	8442
726.113	8409
726.228	8779
726.343	7993
726.459	7935
726.574	8372
726.689	8447
726.804	8512
726.920	7820
727.035	8059
727.150	8048
727.265	7793
727.380	7346
727.495	8382
727.610	7120
727.725	7596
727.841	7793
727.956	7174
728.071	9547
728.186	7960
728.301	7424
728.416	7664
728.531	8369
728.645	7276
728.760	7319
728.875	7326
728.990	7624
729.105	7990
729.220	8006
729.335	7370
729.449	7016
729.564	7631
729.679	7092
729.794	7114
729.908	8355
730.023	7095
730.138	7313
730.253	7439
730.367	7625
730.482	6561
730.596	6943
730.711	8140
730.826	8242
730.940	10842
731.055	9717
731.169	9235
731.284	9301
731.398	8628
731.513	9474
731.627	9938
731.742	10354
731.856	12525
731.970	14306
732.085	13728
732.199	16814
732.313	21785
732.428	34990
732.542	90290
732.656	230491
732.771	99785
732.885	26832
732.999	19407
733.113	18972
733.227	20202
733.342	18445
733.456	17630
733.570	17611
733.684	17384
733.798	16603
733.912	15826
734.026	15965
734.140	16660
734.254	17160
734.368	16052
734.482	15886
734.596	16065
734.710	15415
734.824	14812
734.938	14242
735.052	13839
735.166	14942
735.280	15402
735.393	14912
735.507	13761
735.621	14599
735.735	14205
735.849	14142
735.962	14713
736.076	14103
736.190	14298
736.303	13809
736.417	13954
736.531	14381
736.644	12818
736.758	13042
736.872	13726
736.985	12390
737.099	13004
737.212	11995
737.326	12691
737.439	11331
737.553	13475
737.666	10940
737.780	12323
737.893	12569
738.007	12654
738.120	11883
738.233	12178
738.347	12205
738.460	12441
738.573	11102
738.687	12885
738.800	12136
738.913	10828
739.026	11729
739.140	11030
739.253	11428
739.366	11810
739.479	11248
739.592	11631
739.705	11557
739.818	10782
739.932	11957
740.045	10453
740.158	11153
740.271	10771
740.384	10936
740.497	10787
740.610	10186
740.723	11310
740.836	11031
740.949	11057
741.062	10518
741.174	11043
741.287	11003
741.400	9747
741.513	10666
741.626	9603
741.739	10246
741.851	10014
741.964	10290
742.077	10422
742.189	10157
742.302	9161
742.415	9646
742.527	10455
742.640	10795
742.753	10287
742.865	8975
742.978	10741
743.090	9471
743.203	8605
743.316	9538
743.428	8914
743.541	9024
743.653	9357
743.766	8854
743.878	9370
743.990	9469
744.103	8101
744.215	9881
744.327	8875
744.440	9047
744.552	9523
744.664	7817
744.777	8132
744.889	9368
745.001	8863
745.113	8286
745.226	9362
745.338	9178
745.450	7607
745.562	9526
745.674	7877
745.786	8257
745.898	8572
746.010	7919
746.122	8820
746.234	9338
746.347	8101
746.459	8892
746.570	8712
746.682	7199
746.794	8437
746.906	9300
747.018	7691
747.130	7764
747.242	8524
747.354	6611
747.466	7499
747.577	8644
747.689	8023
747.801	8035
747.913	6906
748.024	7172
748.136	7914
748.248	7648
748.359	7337
748.471	7438
748.583	8638
748.694	6692
748.806	7315
748.918	7306
749.029	6779
749.141	6876
749.252	7196
749.364	7316
749.475	5779
749.587	7419
749.698	6861
749.809	7778
749.921	7426
750.032	7066
750.144	6341
750.255	6904
750.366	6877
750.478	7213
750.589	6704
750.700	7328
750.811	6838
750.923	7384
751.034	5725
751.145	7399
751.256	7416
751.367	6800
751.479	6646
751.590	6631
751.701	6545
751.812	6123
751.923	6890
752.034	5679
752.145	7130
752.256	7201
752.367	7106
752.478	6199
752.589	6990
752.700	7456
752.811	6320
752.922	5860
753.032	7101
753.143	7421
753.254	6564
753.365	7922
753.476	6612
753.586	7109
753.697	5983
753.808	6641
753.919	6344
754.029	6449
754.140	6534
754.251	6299
754.361	6268
754.472	6944
754.582	6564
754.693	6081
754.804	6216
754.914	7117
755.025	5998
755.135	5070
755.246	7246
755.356	6448
755.466	5758
755.577	6235
755.687	5967
755.798	6419
755.908	6572
756.018	6073
756.129	6842
756.239	6587
756.349	7036
756.460	6442
756.570	6292
756.680	6755
756.790	5784
756.900	7156
757.011	6548
757.121	6493
757.231	5563
757.341	6255
757.451	6148
757.561	6308
757.671	6068
757.781	6778
757.891	6759
758.001	5947
758.111	5712
758.221	6439
758.331	6668
758.441	7304
758.551	6638
758.661	6645
758.771	6910
758.880	6680
758.990	6764
759.100	6873
759.210	7079
759.320	7096
759.429	7198
759.539	7807
759.649	7274
759.758	7541
759.868	7504
759.978	7323
760.087	8110
760.197	8692
760.307	9186
760.416	7907
760.526	7951
760.635	7436
760.745	8418
760.854	9176
760.964	8636
761.073	10015
761.182	9657
761.292	8334
761.401	8944
761.511	8479
761.620	8198
761.729	8182
761.839	7968
761.948	8756
762.057	7931
762.166	8393
762.276	8504
762.385	8707
762.494	8684
762.603	8616
762.712	9018
762.822	9645
762.931	10124
763.040	9400
763.149	9810
763.258	10165
763.367	10695
763.476	10145
763.585	11482
763.694	11978
763.803	11894
763.912	12082
764.021	12847
764.130	13894
764.238	13638
764.347	15480
764.456	16816
764.565	17199
764.674	18839
764.783	19186
764.891	20654
765.000	23370
765.109	25414
765.217	28471
765.326	33209
765.435	38104
765.543	45214
765.652	54531
765.761	68038
765.869	89207
765.978	119234
766.086	168421
766.195	250750
766.303	380426
766.412	527128
766.520	443928
766.629	441403
766.737	442973
766.846	311451
766.954	209945
767.062	147314
767.171	110328
767.279	85430
767.387	66599
767.496	54001
767.604	46565
767.712	38976
767.820	34862
767.928	32066
768.037	29704
768.145	27499
768.253	25483
768.361	24024
768.469	24641
768.577	23294
768.685	24124
768.793	25038
768.901	27760
769.009	29628
769.117	33329
769.225	41074
769.333	51570
769.441	72348
769.549	107457
769.657	180360
769.765	318497
769.873	475296
769.981	398547
770.088	389710
770.196	251635
770.304	151134
770.412	100308
770.519	73174
770.627	55749
770.735	45233
770.842	37530
770.950	31750
771.058	28600
771.165	25538
771.273	24074
771.380	23049
771.488	20629
771.595	22025
771.703	22416
771.810	19880
771.918	18309
772.025	17841
772.133	20007
772.240	19816
772.348	18747
772.455	20186
772.562	18887
772.670	17796
772.777	16976
772.884	16804
772.991	16591
773.099	15482
773.206	15814
773.313	16116
773.420	14591
773.528	14887
773.635	14624
773.742	14544
773.849	13781
773.956	12706
774.063	13639
774.170	13266
774.277	13326
774.384	14304
774.491	12785
774.598	12168
774.705	12804
774.812	12008
774.919	12799
775.026	11724
775.133	12064
775.239	11464
775.346	11739
775.453	11119
775.560	12676
775.667	10680
775.773	12151
775.880	11726
775.987	11706
776.093	10718
776.200	9960
776.307	11121
776.413	9439
776.520	9644
776.627	12752
776.733	10262
776.840	9925
776.946	9879
777.053	10976
777.159	10662
777.266	9213
777.372	9601
777.478	10024
777.585	11388
777.691	10633
777.798	8628
777.904	10574
778.010	8602
778.117	8412
778.223	9971
778.329	9374
778.435	8582
778.542	8966
778.648	9926
778.754	8427
778.860	8421
778.966	8393
779.072	8734
779.178	8453
779.284	8042
779.391	6892
779.497	8750
779.603	10838
779.708	9200
779.815	13012
779.920	19322
780.026	62056
780.132	90837
780.238	16874
780.344	8856
780.450	9116
780.556	9378
780.661	6952
780.767	7095
780.873	8667
780.979	5987
781.085	7433
781.190	7978
781.296	7053
781.402	6730
781.507	7652
781.613	7464
781.719	5698
781.824	7256
781.930	8140
782.035	6479
782.141	7312
782.246	8101
782.352	5636
782.457	6454
782.563	6400
782.668	6575
782.773	7103
782.879	6135
782.984	6642
783.090	6704
783.195	6375
783.300	6810
783.405	6924
783.511	5990
783.616	5852
783.721	6336
783.826	6124
783.932	6340
784.037	5440
784.142	6105
784.247	6912
784.352	5368
784.457	6022
784.562	4878
784.667	6335
784.772	6605
784.877	4693
784.982	4866
785.087	6479
785.192	5860
785.297	4559
785.402	5314
785.507	5628
785.611	5247
785.716	5536
785.821	4646
785.926	5544
786.031	5183
786.135	5586
786.240	5423
786.345	5002
786.450	4930
786.554	3716
786.659	4979
786.763	4215
786.868	5569
786.973	5487
787.077	5134
787.182	3929
787.286	4548
787.391	4942
787.495	5092
787.600	3857
787.704	3884
787.809	4274
787.913	5179
788.017	4192
788.122	4821
788.226	4977
788.330	3968
788.435	3338
788.539	4716
788.643	4883
788.747	4125
788.852	3319
788.956	3844
789.060	4769
789.164	5026
789.268	3570
789.372	3618
789.476	4540
789.580	3020
789.684	3490
789.788	3220
789.892	5123
789.996	4079
790.100	3050
790.204	2429
790.308	3738
790.412	5702
790.516	3438
790.620	3173
790.724	4653
790.828	3626
790.931	4419
791.035	3172
791.139	2567
791.242	3128
791.346	3878
791.450	3702
791.554	4174
791.657	3454
791.761	3028
791.864	3509
791.968	3890
792.072	3807
792.175	4083
792.279	2490
792.382	3474
792.486	3239
792.589	2001
792.693	3649
792.796	3367
792.899	3346
793.003	3253
793.106	3547
793.209	3456
793.313	3796
793.416	2901
793.519	1994
793.623	2464
793.726	4228
793.829	3504
793.932	2145
794.035	2528
794.138	3034
794.242	3682
794.345	4882
794.448	3806
794.551	4509
794.654	10333
794.757	31789
794.860	55077
794.963	8350
795.066	3836
795.169	3236
795.272	3394
795.375	3155
795.477	3776
795.580	2630
795.683	2034
795.786	2899
795.889	3380
795.991	3906
796.094	2542
796.197	2354
796.300	3262
796.402	2925
796.505	3237
796.608	2625
796.710	1864
796.813	1938
796.915	3343
797.018	3274
797.120	2962
797.223	2856
797.326	2669
797.428	3078
797.530	3242
797.633	1862
797.735	2714
797.838	2789
797.940	2953
798.042	2964
798.145	2880
798.247	2485
798.349	2187
798.452	2077
798.554	2794
798.656	2280
798.758	3783
798.860	2646
798.962	2485
799.065	1866
799.167	1612
799.269	1945
799.371	1698
799.473	2290
799.575	3361
799.677	3509
799.779	3224
799.881	1544
799.983	3044
800.085	3162
800.187	1657
800.289	2567
800.390	1709
800.492	2183
800.594	3275
800.696	1692
800.798	1947
800.899	1766
801.001	2360
801.103	2621
801.205	2679
801.306	1842
801.408	2070
801.509	2047
801.611	2008
801.713	2195
801.814	2160
801.916	1712
802.017	1802
802.119	1388
802.220	1821
802.322	1335
802.423	3107
802.525	2572
802.626	2397
802.727	925
802.829	2454
802.930	1884
803.031	2438
803.133	2064
803.234	2296
803.335	2665
803.436	2133
803.538	2415
803.639	2149
803.740	2033
803.841	2230
803.942	2178
804.043	2111
804.144	2619
804.245	1381
804.346	2029
804.447	2083
804.548	2078
804.649	2339
804.750	1994
804.851	2392
804.952	1727
805.053	2556
805.154	1718
805.255	1917
805.355	857
805.456	1722
805.557	1818
805.658	1511
805.758	1620
805.859	1922
805.960	1505
806.061	2509
806.161	2012
806.262	1934
806.362	1326
806.463	2007
806.564	1771
806.664	2710
806.765	2748
806.865	1632
806.966	2110
807.066	1360
807.166	1781
807.267	2414
807.367	1531
807.468	1630
807.568	1864
807.668	2034
807.769	2486
807.869	1550
807.969	1891
808.069	2570
808.170	1599
808.270	1713
808.370	1477
808.470	1323
808.570	2006
808.670	1341
808.770	1458
808.870	2340
808.970	1338
809.070	1585
809.170	1441
809.271	1770
809.370	1260
809.470	1232
809.570	1356
809.670	1479
809.770	1389
809.870	1941
809.970	1221
810.070	1466
810.169	1700
810.269	422
810.369	2020
810.469	1456
810.568	1512
810.668	1440
810.768	1940
810.867	1644
810.967	1620
811.066	1082
811.166	878
811.265	1959
811.365	1094
811.464	722
811.564	1274
811.663	1469
811.763	1495
811.862	1777
811.962	1632
812.061	1893
812.160	1693
812.260	1593
812.359	1278
812.458	993
812.557	2355
812.657	4704
812.756	5043
812.855	2602
812.954	1955
813.053	716
813.153	2189
813.252	2386
813.351	1305
813.450	1961
813.549	1323
813.648	1498
813.747	908
813.846	1763
813.945	1678
814.044	2025
814.143	1526
814.242	1170
814.341	2087
814.439	1525
814.538	2320
814.637	2550
814.736	1769
814.835	2362
814.933	2335
815.032	3957
815.131	2752
815.229	3581
815.328	6686
815.427	9119
815.525	6372
815.624	6442
815.722	5758
815.821	5505
815.919	6844
816.018	6292
816.116	6331
816.215	5995
816.313	5932
816.412	6832
816.510	8981
816.609	8711
816.707	8819
816.805	9099
816.904	7707
817.002	9022
817.100	7402
817.198	7596
817.296	8673
817.395	7996
817.493	8342
817.591	7365
817.689	7984
817.787	7470
817.885	7890
817.983	7475
818.081	7013
818.179	8242
818.277	7769
818.375	11483
818.473	9185
818.571	7971
818.669	5591
818.767	7437
818.865	7700
818.963	7094
819.061	5199
819.158	7463
819.256	6152
819.354	7907
819.452	9148
819.549	13030
819.647	9351
819.745	7366
819.842	6485
819.940	5806
820.038	6598
820.135	6425
820.233	5148
820.330	6008
820.428	6173
820.525	6216
820.623	5782
820.720	5812
820.818	4499
820.915	5662
821.012	6038
821.110	5325
821.207	5643
821.304	6027
821.402	6325
821.499	6304
821.596	6758
821.693	4586
821.791	6099
821.888	5458
821.985	5092
822.082	5833
822.179	4065
822.276	5344
822.373	5873
822.470	4508
822.567	4997
822.664	5028
822.761	5037
822.858	4155
822.955	5188
823.052	4610
823.149	4609
823.246	4776
823.343	5036
823.440	4103
823.536	3589
823.633	5507
823.730	4922
823.827	4855
823.923	4802
824.020	5520
824.117	3553
824.213	4724
824.310	5338
824.407	3550
824.503	3071
824.600	5655
824.696	4326
824.793	3727
824.889	5306
824.986	5082
825.082	4399
825.179	3685
825.275	3171
825.371	4860
825.468	5763
825.564	3938
825.660	2724
825.757	4609
825.853	5468
825.949	4184
826.045	3424
826.142	3978
826.238	4143
826.334	5080
826.430	3643
826.526	4711
826.622	2042
826.718	2565
826.814	4273
826.910	4666
827.006	3222
827.102	2438
827.198	2867
827.294	3395
827.390	4216
827.486	4795
827.582	2397
827.678	1809
827.774	3323
827.869	3776
827.965	3167
828.061	2858
828.157	2656
828.252	4488
828.348	3536
828.444	4610
828.539	2316
828.635	3314
828.731	3323
828.826	3388
828.922	3467
829.017	3334
829.113	3122
829.208	3177
829.304	2262
829.399	3401
829.495	4335
829.590	3620
829.685	1613
829.781	3507
829.876	4399
829.971	3527
830.066	1791
830.162	1901
830.257	2073
830.352	5073
830.447	3349
830.543	2114
830.638	1237
830.733	2992
830.828	3590
830.923	2938
831.018	2060
831.113	3001
831.208	3457
831.303	3140
831.398	1309
831.493	1971
831.588	2107
831.683	3580
831.778	2969
831.873	2240
831.967	2158
832.062	2600
832.157	2637
832.252	2670
832.346	2835
832.441	2520
832.536	2409
832.631	1753
832.725	3411
832.820	1941
832.914	2377
833.009	2849
833.104	1909
833.198	2233
833.293	1626
833.387	2550
833.482	3217
833.576	2300
833.670	2742
833.765	2295
833.859	2055
833.954	2557
834.048	2877
834.142	2841
834.237	1964
834.331	1794
834.425	1918
834.519	2741
834.613	2814
834.708	1978
834.802	2314
834.896	2240
834.990	2043
835.084	2694
835.178	1855
835.272	2228
835.366	1266
835.460	3833
835.554	2249
835.648	1896
835.742	1757
835.836	1070
835.930	1006
836.024	2063
836.117	2467
836.211	2778
836.305	2400
836.399	1273
836.493	1374
836.586	2013
836.680	1989
836.774	1170
836.867	1842
836.961	898
837.055	864
837.148	2122
837.242	1864
837.335	1289
837.429	1891
837.522	1994
837.616	1512
837.709	2296
837.803	1823
837.896	1217
837.989	3193
838.083	2452
838.176	1366
838.269	1116
838.363	1478
838.456	1442
838.549	1605
838.642	2593
838.735	2139
838.829	1102
838.922	314
839.015	1569
839.108	1495
839.201	2136
839.294	2153
839.387	2279
839.480	822
839.573	370
839.666	1542
839.759	1125
839.852	1346
839.945	1293
840.038	1982
840.131	1825
840.223	1440
840.316	1083
840.409	1099
840.502	1782
840.594	1900
840.687	2485
840.780	966
840.873	585
840.965	678
841.058	1682
841.150	1422
841.243	2128
841.336	1135
841.428	784
841.521	1021
841.613	519
841.706	1566
841.798	1137
841.890	1341
841.983	1455
842.075	1164
842.167	1057
842.260	610
842.352	1183
842.444	865
842.537	1852
842.629	1450
842.721	1196
842.813	899
842.905	861
842.997	2110
843.090	958
843.182	2212
843.274	1032
843.366	1672
843.458	1444
843.550	3096
843.642	1940
843.734	1693
843.826	730
843.918	1565
844.009	959
844.101	804
844.193	1340
844.285	462
844.377	2019
844.469	1723
844.560	436
844.652	328
844.744	1051
844.835	1080
844.927	1231
845.019	995
845.110	1003
845.202	1288
845.293	974
845.385	1005
845.476	-72
845.568	1317
845.659	986
845.751	1362
845.842	878
845.934	658
846.025	1476
846.116	395
846.208	761
846.299	802
846.390	893
846.482	-44
846.573	714
846.664	1052
846.755	36
846.846	961
846.937	517
847.029	623
847.120	559
847.211	822
847.302	747
847.393	1621
847.484	1570
847.575	1164
847.666	-91
847.757	-67
847.847	393
847.938	2205
848.029	1316
848.120	668
848.211	1255
848.302	837
848.392	678
848.483	266
848.574	684
848.664	782
848.755	678
848.846	1064
848.936	795
849.027	878
849.118	164
849.208	1022
849.299	774
849.389	627
849.480	2360
849.570	4182
849.661	7854
849.751	13128
849.841	22023
849.932	7559
850.022	1491
850.112	1636
850.203	872
850.293	1364
850.383	634
850.474	128
850.564	901
850.654	675
850.744	398
850.834	763
850.924	-49
851.014	571
851.104	1448
851.194	1066
851.284	244
851.374	512
851.464	932
851.554	485
851.644	463
851.734	885
851.824	691
851.914	764
852.004	2297
852.094	3582
852.183	2325
852.273	586
852.363	890
852.452	1127
852.542	1279
852.632	478
852.721	286
852.811	209
852.901	632
852.990	1194
853.080	1513
853.169	706
853.259	1387
853.348	269
853.438	1462
853.527	1330
853.617	1087
853.706	2228
853.795	4072
853.885	7654
853.974	16864
854.063	30378
854.152	51273
854.242	73180
854.331	31118
854.420	7313
854.509	3703
854.598	1735
854.687	2241
854.777	1407
854.866	1524
854.955	1623
855.044	1036
855.133	451
855.222	903
855.311	723
855.400	1566
855.488	198
855.577	558
855.666	481
855.755	700
855.844	628
855.933	606
856.021	1377
856.110	917
856.199	227
856.288	-48
856.376	237
856.465	139
856.554	66
856.642	162
856.731	845
856.819	1205
856.908	511
856.996	419
857.085	38
857.173	870
857.262	590
857.350	-17
857.438	-46
857.527	445
857.615	42
857.703	626
857.792	405
857.880	725
857.968	392
858.056	-89
858.145	496
858.233	33
858.321	695
858.409	758
858.497	115
858.585	569
858.673	57
858.761	-323
858.849	-162
858.937	34
859.025	178
859.113	401
859.201	124
859.289	1039
859.377	429
859.465	633
859.552	380
859.640	746
859.728	35
859.816	541
859.903	705
859.991	1136
860.079	564
860.166	655
860.254	371
860.342	948
860.429	59
860.517	526
860.604	14
860.692	474
860.779	94
860.867	-53
860.954	316
861.042	221
861.129	685
861.216	1735
861.304	537
861.391	1049
861.478	874
861.565	797
861.653	989
861.740	393
861.827	100
861.914	91
862.001	-84
862.089	328
862.176	364
862.263	762
862.350	543
862.437	801
862.524	95
862.611	1505
862.698	927
862.785	363
862.871	953
862.958	1175
863.045	1443
863.132	875
863.219	835
863.306	564
863.392	444
863.479	1220
863.566	1129
863.652	505
863.739	496
863.826	682
863.912	178
863.999	1100
864.086	546
864.172	638
864.259	1030
864.345	1531
864.432	1100
864.518	732
864.604	1017
864.691	488
864.777	1355
864.863	1656
864.950	1839
865.036	2876
865.122	3909
865.209	8213
865.295	7998
865.381	7777
865.467	7548
865.553	6669
865.639	7209
865.726	6895
865.812	9362
865.898	14138
865.984	21611
866.070	27928
866.156	44735
866.242	48343
866.328	19205
866.414	8592
866.499	7321
866.585	6610
866.671	5936
866.757	6515
866.843	6376
866.928	5969
867.014	5756
867.100	5688
867.186	5919
867.271	5922
867.357	5064
867.442	5373
867.528	5143
867.614	5297
867.699	4524
867.785	6083
867.870	5449
867.956	4798
868.041	5408
868.127	4812
868.212	4838
868.297	5507
868.383	5195
868.468	5549
868.553	4339
868.639	4928
868.724	4497
868.809	5315
868.894	5502
868.979	4460
869.065	4833
869.150	4658
869.235	4875
869.320	4132
869.405	5080
869.490	3843
869.575	4614
869.660	4878
869.745	3531
869.830	4288
869.915	4876
870.000	3789
870.085	3783
870.169	3989
870.254	6058
870.339	4911
870.424	2771
870.509	4391
870.593	4425
870.678	5288
870.763	4997
870.847	3871
870.932	2729
871.016	5072
871.101	5078
871.186	2569
871.270	4289
871.355	5056
871.439	3431
871.523	2206
871.608	4041
871.692	3618
871.777	3443
871.861	4458
871.945	4062
872.030	3811
872.114	3852
872.198	3504
872.282	3433
872.367	3721
872.451	3407
872.535	3477
872.619	3249
872.703	4414
872.787	3066
872.871	3667
872.955	3622
873.039	3024
873.123	2362
873.207	3726
873.291	3741
873.375	2531
873.459	2304
873.543	4063
873.627	3504
873.711	2917
873.794	2583
873.878	2682
873.962	2435
874.045	3132
874.129	2355
874.137	2406
874.213	2922
874.245	2660
874.296	2238
874.352	2694
874.380	2918
874.460	1680
874.464	1631
874.547	2979
874.568	2862
874.631	2522
874.676	2686
874.714	2828
874.784	2975
874.798	3002
874.881	3358
874.892	3169
874.965	1876
874.999	1939
875.048	2023
875.107	2318
875.131	2439
875.215	3057
875.215	3056
875.298	1617
875.323	1658
875.381	1773
875.430	2292
875.465	2655
875.538	3865
875.548	4031
875.631	2453
875.646	2346
875.714	1816
875.753	1492
875.798	1089
875.861	1996
875.881	2307
875.964	2330
875.968	2335
876.047	2351
876.076	1985
876.130	1396
876.183	2227
876.213	2627
876.291	1543
876.296	1474
876.379	2673
876.398	2601
876.462	2307
876.506	1577
876.545	1004
876.613	1674
876.628	1798
876.711	1433
876.721	1508
876.794	2026
876.828	2354
876.877	2877
876.935	2186
876.960	1880
877.043	1650
877.043	1650
877.125	1668
877.150	1836
877.208	2096
877.258	2325
877.291	2537
877.365	1952
877.374	1871
877.456	677
877.472	834
877.539	1372
877.579	900
877.622	620
877.687	1786
877.704	2054
877.787	1967
877.794	1982
877.869	1936
877.901	1947
877.952	2246
878.008	2173
878.034	2026
878.115	1030
878.117	1014
878.199	1267
878.222	1406
878.282	1635
878.329	1721
878.364	1825
878.437	2058
878.447	2073
878.529	1500
878.544	1379
878.611	1018
878.651	1171
878.694	1238
878.758	1415
878.776	1447
878.858	1225
878.865	1245
878.941	1670
878.972	1639
879.023	1594
879.078	1010
879.105	668
879.185	1167
879.187	1177
879.269	1422
879.292	1457
879.351	1677
879.399	1863
879.433	1904
879.506	1133
879.516	1054
879.598	1337
879.613	1416
879.680	1602
879.720	1442
879.762	1194
879.827	937
879.844	965
879.926	1199
879.933	1201
880.007	600
880.040	701
880.089	1323
880.147	1477
880.171	1454
880.253	1953
880.254	1954
880.335	1686
880.360	1896
880.417	2477
880.467	2599
880.499	2661
880.574	3233
880.580	3285
880.662	3638
880.680	3399
880.744	2448
880.787	1987
880.825	1474
880.893	1130
880.907	1127
880.989	1389
881.000	1362
881.070	770
881.106	774
881.152	971
881.213	1085
881.233	1125
881.315	807
881.319	820
881.396	1297
881.426	1385
881.478	1049
881.532	882
881.559	996
881.639	1515
881.641	1519
881.722	1397
881.745	1339
881.803	1347
881.852	1262
881.885	1081
881.958	1018
881.966	1003
882.047	554
882.064	520
882.129	928
882.171	1123
882.210	933
882.277	431
882.291	392
882.372	836
882.383	881
882.454	1312
882.489	1242
882.535	821
882.596	795
882.616	958
882.697	1343
882.702	1354
882.778	828
882.808	595
882.859	617
882.914	892
882.940	821
883.020	396
883.021	396
883.102	789
883.127	847
883.183	568
883.233	566
883.264	764
883.339	832
883.345	813
883.426	326
883.445	250
883.507	95
883.551	138
883.587	192
883.657	523
883.668	600
883.749	940
883.763	1007
883.830	1359
883.869	1290
883.910	971
883.975	741
883.991	743
884.072	1227
884.081	1184
884.152	505
884.187	527
884.233	853
884.292	1463
884.314	1631
884.394	1185
884.398	1175
884.475	482
884.504	409
884.555	506
884.610	375
884.636	440
884.716	700
884.716	699
884.797	572
884.821	707
884.877	1127
884.927	856
884.958	802
885.033	913
885.038	870
885.118	311
885.139	144
885.199	102
885.244	276
885.279	530
885.350	720
885.359	723
885.439	1132
885.456	1191
885.520	1433
885.561	1517
885.600	1331
885.667	638
885.680	543
885.760	678
885.773	648
885.840	822
885.878	866
885.920	540
885.984	144
886.000	227
886.080	1060
886.089	1098
886.160	305
886.195	-33
886.240	274
886.300	692
886.320	676
886.400	611
886.406	612
886.480	474
886.511	313
886.560	-18
886.616	-199
886.640	52
886.720	940
886.722	956
886.800	615
886.827	576
886.879	465
886.932	279
886.959	255
887.038	244
887.039	245
887.119	468
887.143	546
887.198	740
887.248	934
887.278	894
887.354	589
887.358	584
887.437	776
887.459	787
887.517	980
887.564	1104
887.596	936
887.669	498
887.676	466
887.755	227
887.774	147
887.835	308
887.880	449
887.914	407
887.985	310
887.994	331
888.073	649
888.090	709
888.153	725
888.195	653
888.232	664
888.300	691
888.311	652
888.391	469
888.405	436
888.470	335
888.510	240
888.549	407
888.615	829
888.628	804
888.708	539
888.720	501
888.787	978
888.825	1243
888.866	987
888.930	591
888.945	594
889.024	616
889.035	622
889.103	763
889.140	833
889.182	965
889.245	1166
889.261	1068
889.340	589
889.349	535
889.419	673
889.454	738
889.498	888
889.559	1109
889.577	1040
889.656	746
889.664	720
889.735	383
889.768	229
889.814	248
889.873	279
889.978	454
890.083	1103
890.187	437
890.292	1016
890.397	542
890.501	1313
890.606	615
890.710	130
890.815	313
890.919	483
891.024	-4
891.128	698
891.233	607
891.337	334
891.442	809
891.546	315
891.650	1504
891.755	521
891.859	-94
891.963	332
892.068	-527
892.172	907
892.276	315
892.380	321
892.484	-259
892.589	502
892.693	738
892.797	-420
892.901	1154
893.005	374
893.109	387
893.213	1380
893.317	335
893.421	445
893.525	-111
893.629	-92
893.733	300
893.837	-240
893.941	419
894.045	418
894.148	638
894.252	110
894.356	-261
894.460	533
894.564	-10
894.667	164
894.771	739
894.875	359
894.978	602
895.082	233
895.186	331
895.289	1048
895.393	1058
895.496	60
895.600	272
895.703	582
895.807	282
895.910	755
896.014	212
896.117	77
896.221	282
896.324	578
896.427	275
896.531	353
896.634	288
896.737	163
896.840	801
896.944	511
897.047	755
897.150	997
897.253	-187
897.356	546
897.460	551
897.563	-202
897.666	460
897.769	1735
897.872	965
897.975	900
898.078	377
898.181	371
898.284	79
898.387	479
898.490	834
898.593	244
898.695	453
898.798	-347
898.901	-67
899.004	1248
899.107	551
899.209	649
899.312	411
899.415	846
899.518	-17
899.620	685
899.723	483
899.826	283
899.928	817
900.031	744
900.133	-32
900.236	880
900.338	33
900.441	570
900.543	554
900.646	610
900.748	452
900.851	65
900.953	171
901.055	431
901.158	-218
901.260	701
901.362	-613
901.465	638
901.567	1128
901.669	431
901.771	-583
901.873	534
901.976	212
902.078	174
902.180	501
902.282	-143
902.384	-38
902.486	-187
902.588	90
902.690	686
902.792	-95
902.894	375
902.996	793
903.098	261
903.200	-448
903.302	949
903.404	-204
903.505	-266
903.607	839
903.709	494
903.811	114
903.913	442
904.014	-366
904.116	366
904.218	180
904.319	435
904.421	238
904.523	679
904.624	345
904.726	270
904.827	560
904.929	314
905.030	655
905.132	901
905.233	-360
905.335	458
905.436	530
905.537	110
905.639	-64
905.740	492
905.841	323
905.943	492
906.044	-155
906.145	-17
906.247	315
906.348	800
906.449	401
906.550	127
906.651	667
906.752	1115
906.854	-137
906.955	548
907.056	160
907.157	187
907.258	278
907.359	127
907.460	373
907.561	169
907.662	-620
907.762	514
907.863	-95
907.964	566
908.065	462
908.166	478
908.267	-154
908.367	-404
908.468	-176
908.569	547
908.670	173
908.770	172
908.871	294
908.971	392
909.072	197
909.173	265
909.273	-64
909.374	182
909.474	-223
909.575	231
909.675	-537
909.776	381
909.876	92
909.977	493
910.077	189
910.177	384
910.278	-255
910.378	-533
910.478	801
910.579	-412
910.679	485
910.779	393
910.879	-628
910.980	264
911.080	-124
911.180	55
911.280	194
911.380	37
911.480	1023
911.580	-499
911.680	-21
911.780	-165
911.880	-20
911.980	34
912.080	-260
912.180	-206
912.280	-183
912.380	268
912.480	375
912.580	-550
912.679	-280
912.779	1021
912.879	-423
912.979	562
913.078	179
913.178	465
913.278	424
913.377	385
913.477	-9
913.577	-309
913.676	341
913.776	325
913.875	-47
913.975	-308
914.074	-52
914.174	95
914.273	2
914.373	-262
914.472	474
914.572	464
914.671	50
914.770	-423
914.870	-285
914.969	498
915.068	304
915.167	-416
915.267	179
915.366	614
915.465	401
915.564	528
915.663	153
915.763	3
915.862	345
915.961	112
916.060	-619
916.159	-185
916.258	292
916.357	418
916.456	1065
916.555	2
916.654	-1388
916.752	-420
916.851	105
916.950	393
917.049	-286
917.148	68
917.247	-186
917.345	827
917.444	-158
917.543	158
917.642	-228
917.740	433
917.839	374
917.937	530
918.036	48
918.135	597
918.233	-55
918.332	-856
918.430	183
918.529	-303
918.627	-761
918.726	560
918.824	445
918.923	-107
919.021	174
919.119	323
919.218	165
919.316	-357
919.414	-54
919.512	85
919.611	-93
919.709	-370
919.807	-230
919.905	351
920.003	-813
920.102	78
920.200	-22
920.298	701
920.396	8
920.494	-270
920.592	-211
920.690	288
920.788	246
920.886	317
920.984	63
921.082	-72
921.180	929
921.277	362
921.375	-45
921.473	673
921.571	734
921.669	-396
921.766	353
921.864	820
921.962	426
922.060	304
922.157	522
922.255	484
922.352	-50
922.450	278
922.548	315
922.645	416
922.743	633
922.840	988
922.938	1585
923.035	1776
923.133	1290
923.230	1414
923.327	1879
923.425	1787
923.522	1890
923.619	1662
923.717	1391
923.814	1649
923.911	1675
924.008	1396
924.106	1309
924.203	1313
924.300	1743
924.397	1248
924.494	1071
924.591	1336
924.688	1034
924.786	1336
924.883	1034
924.979	1149
925.077	1918
925.173	2123
925.270	1885
925.367	1245
925.464	1530
925.561	1283
925.658	1115
925.755	1175
925.852	1505
925.948	1523
926.045	1048
926.142	1137
926.239	1299
926.335	1200
926.432	886
926.529	1741
926.625	1419
926.722	1371
926.818	1053
926.915	1409
927.011	1765
927.108	1193
927.204	803
927.301	1899
927.397	299
927.494	1057
927.590	1678
927.687	782
927.783	751
927.879	1667
927.976	879
928.072	1050
928.168	1214
928.264	572
928.361	917
928.457	750
928.553	1406
928.649	794
928.745	1106
928.841	1299
928.937	1047
929.033	1002
929.129	949
929.225	1610
929.321	593
929.417	858
929.513	957
929.609	578
929.705	1434
929.801	1281
929.897	1013
929.993	517
930.089	374
930.184	477
930.280	504
930.376	1489
930.471	1454
930.567	176
930.663	389
930.758	509
930.854	1011
930.950	863
931.045	1372
931.141	784
931.236	495
931.332	517
931.427	976
931.523	1077
931.618	734
931.714	113
931.809	617
931.905	1028
932.000	1222
932.095	399
932.191	862
932.286	678
932.381	1630
932.476	29
932.572	290
932.667	574
932.762	225
932.857	519
932.952	1550
933.047	1324
933.142	132
933.237	637
933.332	1005
933.427	1033
933.522	821
933.617	1492
933.712	612
933.807	1117
933.902	557
933.997	1254
934.092	792
934.187	542
934.282	147
934.376	1182
934.471	1064
934.566	467
934.661	367
934.755	926
934.850	965
934.945	805
935.039	161
935.134	533
935.228	422
935.323	1761
935.417	832
935.512	1575
935.606	193
935.701	-67
935.795	1120
935.890	-114
935.984	138
936.079	90
936.173	1424
936.267	1171
936.362	190
936.456	874
936.550	-295
936.644	1524
936.738	186
936.833	296
936.927	499
937.021	136
937.115	-180
937.209	226
937.303	594
937.397	102
937.491	98
937.585	741
937.679	329
937.773	515
937.867	-156
937.961	687
938.055	180
938.149	1126
938.243	25
938.337	199
938.430	551
938.524	-42
938.618	461
938.712	772
938.805	-395
938.899	203
938.993	312
939.086	1374
939.180	-31
939.274	791
939.367	73
939.461	254
939.554	333
939.648	867
939.741	-56
939.835	143
939.928	318
940.022	898
940.115	826
940.208	576
940.302	821
940.395	113
940.488	-164
940.582	527
940.675	-1
940.768	849
940.861	122
940.954	588
941.048	249
941.141	-701
941.234	-251
941.327	-11
941.420	-262
941.513	397
941.606	657
941.699	448
941.792	-181
941.885	22
941.978	382
942.071	676
942.164	-12
942.257	-38
942.349	30
942.442	279
942.535	19
942.628	-134
942.721	509
942.813	41
942.906	504
942.999	467
943.091	-481
943.184	-383
943.277	-620
943.369	312
943.462	-140
943.554	-244
943.647	259
943.739	-66
943.832	-9
943.924	713
944.017	-137
944.109	-519
944.201	263
944.294	346
944.386	247
944.478	-457
944.571	-6
944.663	586
944.755	-145
944.847	326
944.940	103
945.032	328
945.124	-1057
945.216	-107
945.308	-450
945.400	-275
945.492	68
945.584	260
945.676	298
945.768	366
945.860	324
945.952	214
946.044	-560
946.136	-48
946.228	-137
946.320	-49
946.412	17
946.503	254
946.595	151
946.687	-513
946.779	53
946.870	-492
946.962	-248
947.054	49
947.145	124
947.237	238
947.329	241
947.420	-168
947.512	-1026
947.603	538
947.695	-324
947.786	-466
947.878	-453
947.969	-12
948.061	243
948.152	216
948.243	224
948.335	69
948.426	-710
948.517	-161
948.609	645
948.700	-68
948.791	-200
948.882	-107
948.973	-10
949.065	-140
949.156	-177
949.247	-664
949.338	-191
949.429	-122
949.520	-335
949.611	-605
949.702	-77
949.793	124
949.884	-174
949.975	406
950.066	18
950.157	233
950.247	-415
950.338	52
950.429	-189
950.520	-129
950.611	-505
950.701	304
950.792	-56
950.883	474
950.973	107
951.064	-84
951.155	-143
951.245	24
951.336	-922
951.427	-381
951.517	-318
951.608	-288
951.698	418
951.788	-731
951.879	-660
951.969	-829
952.060	-951
952.150	167
952.240	-64
952.331	-1242
952.421	-43
952.511	-432
952.602	52
952.692	131
952.782	-1218
952.872	-253
952.962	-314
953.052	-352
953.143	-954
953.233	-487
953.323	313
953.413	-540
953.503	-829
953.593	-280
953.683	-664
953.773	49
953.863	-603
953.953	-213
954.042	-217
954.132	-201
954.222	292
954.312	397
954.402	-397
954.492	-86
954.581	-687
954.671	92
954.761	-185
954.850	99
954.940	-356
955.030	-998
955.119	-896
955.209	99
955.298	-754
955.388	226
955.477	-701
955.567	-341
955.656	-377
955.746	534
955.835	-736
955.925	-69
956.014	-785
956.103	-70
956.193	646
956.282	-342
956.371	-231
956.461	-224
956.550	369
956.639	15
956.728	-166
956.817	-268
956.906	-785
956.995	-421
957.085	-174
957.174	-689
957.263	-987
957.352	358
957.441	-319
957.530	-521
957.619	190
957.708	-285
957.796	-314
957.885	-342
957.974	-1054
958.063	-188
958.152	-648
958.241	-923
958.329	-824
958.418	-270
958.507	-430
958.596	-884
958.684	-537
958.773	-441
958.861	351
958.950	551
959.039	-817
959.127	-970
959.216	-59
959.304	18
959.393	-919
959.481	-366
959.570	-181
959.658	-730
959.746	-406
959.835	-934
959.923	-458
960.011	-556
960.100	47
960.188	19
960.276	-829
960.365	152
960.453	-1214
960.541	-774
960.629	-468
960.717	-123
960.805	-1530
960.893	318
960.981	-511
961.069	11
961.158	-1441
961.245	-271
961.333	130
961.421	-297
961.509	-728
961.597	-43
961.685	-545
961.773	-851
961.861	-795
961.949	-792
962.036	-506
962.124	-401
962.212	-1230
962.299	-855
962.387	-94
962.475	-753
962.562	-949
962.650	-565
962.738	-703
962.825	-324
962.913	-957
963.000	-555
963.088	-520
963.175	-136
963.263	-1142
963.350	-1150
963.438	-1138
963.525	-733
963.612	-1371
963.700	-781
963.787	-1091
963.874	469
963.962	-340
964.049	-198
964.136	-1397
964.223	-465
964.310	-234
964.398	-345
964.485	-1347
964.572	-1383
964.659	-841
964.746	-667
964.833	-575
964.920	-918
965.007	-827
965.094	-727
965.181	-914
965.268	-870
965.355	-859
965.441	-415
965.528	-872
965.615	-991
965.702	-923
965.789	-840
965.875	-666
965.962	-497
966.049	-895
966.136	-479
966.222	-37
966.309	258
966.395	-781
966.482	-29
966.569	-1177
966.655	-778
966.742	201
966.828	-157
966.915	-561
967.001	-580
967.087	-1105
967.174	-583
967.260	-1173
967.347	-49
967.433	-445
967.519	-944
967.605	-517
967.692	-580
967.778	-184
967.864	-1378
967.950	-1180
968.036	-437
968.123	-485
968.209	-243
968.295	-1503
968.381	-682
968.467	-738
968.553	-2181
968.639	-1279
968.725	-882
968.811	-740
968.897	-545
968.983	-1377
969.069	-1304
969.154	-568
969.240	-52
969.326	-731
969.412	-775
969.497	-597
969.583	-1041
969.669	-703
969.755	-371
969.840	-1297
969.926	-285
970.012	-1176
970.097	-337
970.183	-413
970.268	-739
970.354	-640
970.439	-1010
970.525	-566
970.610	-946
970.696	100
970.781	-190
970.866	-1704
970.952	-368
971.037	-1394
971.122	-523
971.208	-1052
971.293	-951
971.378	-1118
971.463	-1020
971.549	-481
971.634	-826
971.719	-599
971.804	-618
971.889	-412
971.974	-554
972.059	-1023
972.144	-1335
972.229	-1394
972.314	-683
972.399	-1006
972.484	-1262
972.569	-1139
972.654	-1294
972.739	-905
972.824	-920
972.908	-913
972.993	-803
973.078	-851
973.163	-787
973.247	-722
973.332	-1478
973.417	-959
973.501	-826
973.586	-1064
973.671	-1101
973.755	-791
973.840	-995
973.924	-934
974.009	-937
974.093	-331
974.178	-168
974.262	-52
974.346	-1100
974.431	-645
974.515	-790
974.600	-498
974.684	-747
974.768	-990
974.852	-826
974.937	-258
975.021	-224
975.105	-1862
975.189	-703
975.273	-749
975.358	-1098
975.442	-1257
975.526	-786
975.610	-826
975.694	-1153
975.778	-1182
975.862	-1268
975.946	-1131
976.030	-618
976.114	-154
976.198	-1183
976.281	-868
976.365	-268
976.449	-1363
976.533	-928
976.617	-467
976.700	-402
976.784	-1290
976.868	-924
976.951	-1313
977.035	-1247
977.119	-1590
977.202	-658
977.286	-1563
977.369	-1051
977.453	-1099
977.536	-1330
977.620	-1989
977.703	-806
977.787	-1221
977.870	-448
977.953	-1157
978.037	-748
978.120	-1001
978.203	-1234
978.287	-1081
978.370	-1102
978.453	-572
978.536	-1313
978.620	-829
978.703	-977
978.786	-1066
978.869	-731
978.952	-819
979.035	-363
979.118	-1285
979.201	-1227
979.284	-662
979.367	-1199
979.450	-1131
979.533	-611
979.616	-618
979.699	-891
979.782	-848
979.865	-1093
979.948	-452
980.030	-1401
980.113	-930
980.196	-707
980.279	-895
980.361	-1708
980.444	-946
980.526	-499
980.609	-724
980.692	-800
980.774	-513
980.857	-1225
980.939	-217
981.022	278
981.104	-664
981.187	-1082
981.269	-301
981.352	-723
981.434	-610
981.516	-358
981.599	-642
981.681	-349
981.763	-134
981.846	-645
981.928	-642
982.010	-741
982.092	-999
982.174	-1264
982.256	-1014
982.339	-1020
982.421	-691
982.503	-578
982.585	-1871
982.667	-1335
982.749	-900
982.831	-469
982.913	-894
982.995	-713
983.077	-782
983.158	-59
983.240	-1093
983.322	-653
983.404	-678
983.486	-1463
983.568	-931
983.649	-697
983.731	-462
983.813	-779
983.894	-1567
983.976	-1072
984.058	-938
984.139	37
984.221	-2290
984.302	-300
984.384	-1486
984.465	-1270
984.547	-553
984.628	-386
984.710	-536
984.791	-255
984.872	-1272
984.954	-1123
985.035	-1311
985.116	-1097
985.198	-582
985.279	-126
985.360	-1169
985.441	-833
985.522	-284
985.604	-656
985.685	-1661
985.766	26
985.847	-930
985.928	-1110
986.009	-1329
986.090	-1722
986.171	326
986.252	-504
986.333	-1604
986.414	-1046
986.495	-859
986.576	-280
986.656	-741
986.737	161
986.818	-327
986.899	-875
986.980	-888
987.060	-489
987.141	-581
987.222	-851
987.302	-821
987.383	-509
987.464	-597
987.544	-56
987.625	-185
987.705	-145
987.786	-672
987.866	-640
987.947	-939
988.027	145
988.108	-1137
988.188	-138
988.268	-764
988.349	314
988.429	-136
988.509	-298
988.589	-528
988.670	-232
988.750	-350
988.830	-438
988.910	-1907
988.990	-1013
989.070	113
989.151	-1240
989.231	-531
989.311	-877
989.391	-675
989.471	-296
989.551	-551
989.631	103
989.711	-405
989.791	-1415
989.870	-380
989.950	-1345
990.030	-980
990.110	-1055
990.190	-847
990.269	-626
990.349	-1447
990.429	356
990.509	-471
990.588	-542
990.668	-444
990.747	-555
990.827	-1450
990.907	-575
990.986	-1105
991.066	-772
991.145	-708
991.225	-581
991.304	-773
991.383	-1084
991.463	-1060
991.542	-668
991.622	-1402
991.701	-646
991.780	-832
991.859	-447
991.939	-1279
992.018	-1268
992.097	-1161
992.176	-397
992.256	-1042
992.335	-1143
992.414	-1363
992.493	-1176
992.572	-1115
992.651	-427
992.730	-1573
992.809	-1092
992.888	-1770
992.967	-324
993.046	-800
993.125	-700
993.203	-804
993.282	-197
993.361	-945
993.440	-1154
993.519	-1131
993.597	-929
993.676	-350
993.755	-686
993.834	-387
993.912	-500
993.991	-539
994.069	-906
994.148	-469
994.226	-1128
994.305	-881
994.384	-1390
994.462	-782
994.540	-891
994.619	-1452
994.697	-1037
994.776	-1099
994.854	-996
994.932	-1857
995.011	-1039
995.089	-892
995.167	-568
995.245	-677
995.324	-1564
995.402	-743
995.480	-627
995.558	-1733
995.636	-1510
995.714	-832
995.792	-875
995.870	-1040
995.948	-1023
996.026	-940
996.104	-1109
996.182	-977
996.260	-1242
996.338	-875
996.416	-741
996.494	-1829
996.572	-342
996.649	-1031
996.727	-1094
996.805	-857
996.883	-1445
996.960	-565
997.038	-558
997.116	-902
997.193	-1486
997.271	-1094
997.348	-1287
997.426	-1260
997.504	-1868
997.581	-623
997.658	-549
997.736	-1128
997.813	-1367
997.891	-1059
997.968	-1040
998.046	-1229
998.123	-1254
998.200	-654
998.277	-1119
998.355	-661
998.432	-1585
998.509	-748
998.586	-1194
998.663	-1534
998.741	-1291
998.818	-708
998.895	-1335
998.972	-807
999.049	-823
999.126	-1143
999.203	-1512
999.280	-1065
999.357	-1069
999.434	-943
999.511	-902
999.587	-1351
999.664	-1354
999.741	-1601
999.818	-1403
999.895	-1523
999.971	-540
1000.048	-1112
1000.125	-1791
1000.202	-1588
1000.278	-933
1000.355	-1254
1000.431	-1367
1000.508	-1737
1000.584	-2067
1000.661	-1605
1000.738	-1843
1000.814	-1647
1000.890	-777
1000.967	-1211
1001.043	-744
1001.120	-1324
1001.196	-1207
1001.272	-1843
1001.349	-1463
1001.425	-1396
1001.501	-1590
1001.577	-1648
1001.654	-1107
1001.730	-1320
1001.806	-1544
1001.882	-1681
1001.958	-709
1002.034	-1456
1002.110	-1273
1002.186	-1233
1002.262	-1203
1002.338	-1251
1002.414	-1362
1002.490	-947
1002.566	-1394
1002.642	-1245
1002.718	-1213
1002.794	-872
1002.870	-1376
1002.945	-806
1003.021	-1307
1003.097	-1702
1003.173	-1149
1003.248	-1862
1003.324	-1007
1003.400	-1035
1003.475	-1824
1003.551	-1755
1003.626	-1397
1003.702	-1859
1003.777	-1804
1003.853	-1759
1003.928	-1247
1004.004	-1835
1004.079	-1347
1004.155	-1767
1004.230	-1785
1004.305	-996
1004.381	-1362
1004.456	-1441
1004.531	-1825
1004.607	-1008
1004.682	-1487
1004.757	-945
1004.832	-1425
1004.907	-1148
1004.982	-1703
1005.057	-1425
1005.133	-1458
1005.208	-1773
1005.283	-2042
1005.358	-1384
1005.433	-1459
1005.508	-2127
1005.583	-1476
1005.657	-1702
1005.732	-1846
1005.807	-1811
1005.882	-662
1005.957	-1158
1006.032	-1267
1006.106	-2011
1006.181	-1143
1006.256	-2081
1006.331	-1158
1006.405	-1899
1006.480	-1217
1006.554	-1596
1006.629	-1208
1006.704	-1193
1006.778	-1014
1006.853	-1595
1006.927	-1747
1007.002	-1325
1007.076	-832
1007.150	-1932
1007.225	-1898
1007.299	-2036
1007.373	-1561
1007.448	-1722
1007.522	-1606
1007.596	-1911
1007.671	-1530
1007.745	-1138
1007.819	-1249
1007.893	-1569
1007.967	-1339
1008.041	-1499
1008.115	-636
1008.190	-1999
1008.264	-1661
1008.338	-2067
1008.412	-2074
1008.486	-2002
1008.560	-1884
1008.633	-1766
1008.707	-2211
1008.781	-1890
1008.855	-1275
1008.929	-997
1009.003	-1435
1009.076	-2391
1009.150	-2176
1009.224	-1193
1009.298	-1488
1009.371	-2049
1009.445	-1790
1009.519	-1818
1009.592	-1853
1009.666	-2251
1009.739	-1943
1009.813	-2799
1009.886	-1344
1009.960	-2354
1010.033	-1721
1010.107	-1382
1010.180	-1467
1010.253	-2065
1010.327	-1627
1010.400	-1849
1010.473	-2161
1010.547	-1247
1010.620	-1899
1010.693	-1037
1010.766	-1697
1010.840	-1931
1010.913	-2339
1010.986	-2374
1011.059	-971
1011.132	-1925
1011.205	-1710
1011.278	-1484
1011.351	-1665
1011.424	-1937
1011.497	-2207
1011.570	-2008
1011.643	-1626
1011.716	-1959
1011.789	-1407
1011.862	-2365
1011.934	-1357
1012.007	-2325
1012.080	-1598
1012.153	-1873
1012.225	-1412
1012.298	-2157
1012.371	-1728
1012.443	-1595
1012.516	-2382
1012.588	-1332
1012.661	-1576
1012.733	-2725
1012.806	-1770
1012.879	-1848
1012.951	-1868
1013.023	-2118
1013.096	-1923
1013.168	-2008
1013.241	-1613
1013.313	-1583
1013.385	-2361
1013.458	-1546
1013.530	-1112
1013.602	-2215
1013.674	-843
1013.746	-2821
1013.819	-1235
1013.891	-1888
1013.963	-2011
1014.035	-1822
1014.107	-2197
1014.179	-2179
1014.251	-2095
1014.323	-1950
1014.395	-2076
1014.467	-1293
1014.539	-1335
1014.611	-1777
1014.683	-1997
1014.754	-1993
1014.826	-2231
1014.898	-1375
1014.970	-1707
1015.042	-2452
1015.113	-1073
1015.185	-1597
1015.257	-1455
1015.328	-1666
1015.400	-2024
1015.471	-1682
1015.543	-1772
1015.615	-2210
1015.686	-2651
1015.757	-1693
1015.829	-1745
1015.901	-1774
1015.972	-1703
1016.043	-2191
1016.115	-1707
1016.186	-1642
1016.257	-1106
1016.328	-1077
1016.400	-1880
1016.471	-1927
1016.542	-1486
1016.613	-1644
1016.685	-1580
1016.756	-2049
1016.827	-1951
1016.898	-1990
1016.969	-2019
1017.040	-1882
1017.111	-2312
1017.182	-2101
1017.253	-1461
1017.324	-1752
1017.395	-1769
1017.466	-2350
1017.537	-2010
1017.608	-1593
1017.678	-1497
1017.749	-1726
1017.820	-1195
1017.891	-2777
1017.961	-2148
1018.032	-2216
1018.103	-1331
1018.173	-2131
1018.244	-1929
1018.315	-1328
1018.385	-1917
1018.456	-2569
1018.526	-1872
1018.597	-2186
1018.667	-2172
1018.738	-2199
1018.808	-1815
1018.878	-2379
1018.949	-1978
1019.019	-2574
1019.089	-1462
1019.160	-2179
1019.230	-1905
1019.300	-1789
1019.371	-2346
1019.441	-1661
1019.511	-1642
1019.581	-2694
1019.651	-2094
1019.721	-2556
1019.791	-2001
1019.861	-1694
1019.931	-1126
1020.001	-2307
1020.071	-1694
1020.141	-1850
1020.211	-2185
1020.281	-1110
1020.351	-2049
1020.421	-1682
1020.491	-1923
1020.560	-2624
1020.630	-1917
1020.700	-2236
1020.770	-1665
1020.839	-1950
1020.909	-1483
1020.979	-1745
1021.048	-1673
1021.118	-2577
1021.187	-2571
1021.257	-2179
1021.326	-1493
1021.396	-1729
1021.465	-2120
1021.535	-2151
1021.604	-2420
1021.674	-2097
1021.743	-1254
1021.812	-2331
1021.882	-2243
1021.951	-2204
1022.020	-2089
1022.089	-2402
1022.159	-1921
1022.228	-2138
1022.297	-2523
1022.366	-2702
1022.435	-2753
1022.504	-2837
1022.573	-2223
1022.642	-1739
1022.711	-2696
1022.781	-2881
1022.849	-1546
1022.918	-2621
1022.987	-2127
1023.056	-2691
1023.125	-2113
1023.194	-2072
1023.263	-2147
1023.331	-1590
1023.400	-2598
1023.469	-2027
1023.538	-1138
1023.606	-2324
1023.675	-1755
1023.744	-2092
1023.812	-2679
1023.881	-1486
1023.949	-2189
1024.018	-2383
1024.086	-1691
1024.155	-2353
1024.223	-2211
1024.292	-2125
1024.360	-2165
1024.429	-2228
1024.497	-1998
1024.565	-2910
1024.634	-1966
1024.702	-2296
1024.770	-2666
1024.838	-2898
1024.907	-1666
1024.975	-2369
1025.043	-1726
1025.111	-2515
1025.179	-1542
1025.247	-1425
1025.315	-1879
1025.383	-2090
1025.451	-2641
1025.519	-2261
1025.587	-2267
1025.655	-1903
1025.723	-1848
1025.791	-2067
1025.859	-1810
1025.927	-2266
1025.995	-2381
1026.062	-1858
1026.130	-2656
1026.198	-2079
1026.266	-1970
1026.333	-2011
1026.401	-1594
1026.469	-2430
1026.536	-2210
1026.604	-2512
1026.671	-2587
1026.739	-2372
1026.806	-1990
1026.874	-2937
1026.941	-1496
1027.009	-2355
1027.076	-1835
1027.144	-2055
1027.211	-1671
1027.278	-2615
1027.345	-1959
1027.413	-2765
1027.480	-2198
1027.547	-2379
1027.614	-2514
1027.682	-1953
1027.749	-1740
1027.816	-2472
1027.883	-2053
1027.950	-2401
1028.017	-2359
1028.084	-1965
1028.151	-2331
1028.218	-2273
1028.285	-1812
1028.352	-2021
1028.419	-1918
1028.486	-2254
1028.553	-2398
1028.619	-2466
1028.686	-2330
1028.753	-2411
1028.820	-1792
1028.886	-1587
1028.953	-2209
1029.020	-1899
1029.086	-2485
1029.153	-2630
1029.220	-2633
1029.286	-2067
1029.353	-2188
1029.419	-2706
1029.486	-2691
1029.552	-2325
1029.619	-2108
1029.685	-2349
1029.751	-2073
1029.818	-2019
1029.884	-2209
1029.951	-1505
1030.017	-2005
1030.083	-2347
1030.149	-1646
1030.216	-1926
1030.282	-3040
1030.348	-2260
1030.414	-2328
1030.480	-2840
1030.546	-2370
1030.612	-2254
1030.678	-2642
1030.744	-2607
1030.810	-2134
1030.876	-1914
1030.942	-2052
1031.008	-2694
1031.074	-2560
1031.140	-1533
1031.206	-2206
1031.272	-2172
1031.337	-2620
1031.403	-2547
1031.469	-2708
1031.534	-2443
1031.600	-2111
1031.666	-2154
1031.731	-3061
1031.797	-2529
1031.863	-2220
1031.928	-1863
1031.994	-2550
1032.059	-2067
1032.125	-2220
1032.190	-1994
1032.256	-2910
1032.321	-2687
1032.386	-1579
1032.452	-2287
1032.517	-2078
1032.582	-2000
1032.647	-2526
1032.713	-2623
1032.778	-1647
1032.843	-2410
1032.908	-1474
1032.974	-2384
1033.039	-2940
1033.104	-1725
1033.169	-2700
1033.234	-2069
1033.299	-1846
1033.364	-2213
1033.429	-2555
1033.494	-1800
1033.559	-2691
1033.624	-2255
1033.688	-2033
1033.753	-2814
1033.818	-2795
1033.883	-2636
1033.948	-2941
1034.013	-1582
1034.077	-2785
1034.142	-1632
1034.207	-2141
1034.271	-1589
1034.336	-1849
1034.400	-1678
1034.465	-1760
1034.530	-2212
1034.594	-2100
1034.658	-2534
1034.723	-2285
1034.787	-1826
1034.852	-1512
1034.916	-2729
1034.981	-2298
1035.045	-2801
1035.109	-1937
1035.173	-3054
1035.238	-1830
1035.302	-3018
1035.366	-2069
1035.430	-2294
1035.495	-2775
1035.559	-1756
1035.623	-2229
1035.687	-2135
1035.751	-2097
1035.815	-2290
1035.879	-1783
1035.943	-2246
1036.007	-2356
1036.071	-1901
1036.135	-1851
1036.198	-2693
1036.262	-2720
1036.326	-1959
1036.390	-1516
1036.454	-2840
1036.517	-1914
1036.581	-2325
1036.645	-1875
1036.709	-2238
1036.772	-1465
1036.836	-1329
1036.900	-1959
1036.963	-3048
1037.026	-2161
1037.090	-1853
1037.154	-1597
1037.217	-2234
1037.280	-1926
1037.344	-2878
1037.407	-2250
1037.471	-2211
1037.534	-1545
1037.597	-2818
1037.661	-2103
1037.724	-2231
1037.787	-2323
1037.850	-2281
1037.913	-2329
1037.977	-2248
1038.040	-2711
1038.103	-2115
1038.166	-2250
1038.229	-2253
1038.292	-1713
1038.355	-2320
1038.418	-1596
1038.481	-1867
1038.544	-2495
1038.607	-1808
1038.670	-2199
1038.732	-2288
1038.795	-2396
1038.858	-1822
1038.921	-1297
1038.984	-2673
1039.046	-2746
1039.109	-2651
1039.172	-1877
1039.234	-2191
1039.297	-2534
1039.360	-1600
1039.422	-2050
1039.485	-1703
1039.547	-1992
1039.610	-1909
1039.672	-1540
1039.734	-2319
1039.797	-1739
1039.859	-2463
1039.922	-2151
1039.984	-2359
1040.046	-2420
1040.109	-2326
1040.171	-1920
1040.233	-2542
1040.295	-2471
1040.358	-2368
1040.420	-1924
1040.482	-2533
1040.544	-1958
1040.606	-1914
1040.668	-2181
1040.730	-2536
1040.792	-2041
1040.854	-1684
1040.916	-1918
1040.978	-1566
1041.040	-1657
1041.102	-2862
1041.164	-2334
1041.225	-2306
1041.287	-1960
1041.349	-2305
1041.411	-1891
1041.472	-2662
1041.534	-1681
1041.596	-2197
1041.657	-1577
1041.719	-2817
1041.781	-2222
1041.842	-2291
1041.904	-2078
1041.965	-1259
1042.027	-2384
1042.088	-2133
1042.150	-2225
1042.211	-2274
1042.272	-1524
1042.334	-2334
1042.395	-1553
1042.456	-2005
1042.518	-1942
1042.579	-2378
1042.640	-1746
1042.701	-2570
1042.763	-1115
1042.824	-2119
1042.885	-2270
1042.946	-2647
1043.007	-1729
1043.068	-1749
1043.129	-1547
1043.190	-2257
1043.251	-1061
1043.312	-1960
1043.373	-1533
1043.434	-1514
1043.495	-2000
1043.556	-2787
1043.616	-2005
1043.677	-1298
1043.738	-1973
1043.799	-1258
1043.859	-2452
1043.920	-2112
1043.981	-1437
1044.041	-2135
1044.102	-1433
1044.162	-1748
1044.223	-2212
1044.284	-1805
1044.344	-1526
1044.405	-1712
1044.465	-1678
1044.525	-2223
1044.586	-1430
1044.646	-1988
1044.707	-1666
1044.767	-2280
1044.827	-2218
1044.887	-2743
1044.948	-1811
1045.008	-1845
1045.068	-2176
1045.128	-1662
1045.188	-1514
1045.249	-1832
1045.309	-1747
1045.369	-2774
1045.429	-2357
1045.489	-1950
1045.549	-1897
1045.609	-2047
1045.669	-1406
1045.729	-1755
1045.789	-801
1045.848	-1968
1045.908	-2406
1045.968	-1231
1046.028	-1717
1046.088	-1695
1046.147	-1266
1046.207	-1548
1046.267	-883
1046.326	-1532
1046.386	-1195
1046.446	-1318
1046.505	-1791
1046.565	-1991
1046.624	-509
1046.684	-1307
1046.743	-479
1046.803	-858
1046.862	-745
1046.922	0
