'Start Wavelength	183.907
'End Wavelength	1046.922
'Gate Delay	5.000
'Gate Width (ms)	1.050
'Laser Output Level	0.000
'X Position	0.000
'Y Position	0.000
'Z Position	0.000
'Grid Point Number	1.000
'Shot Number	100.000
183.907	118.000
183.977	476.000
184.047	-38
184.116	353
184.186	344
184.256	-5
184.325	-20
184.395	234
184.465	-327
184.534	-528
184.604	-140
184.674	323
184.743	15
184.813	394
184.883	560
184.952	-190
185.022	-65
185.092	510
185.161	255
185.231	-214
185.301	-224
185.370	1130
185.440	-1
185.509	-536
185.579	-233
185.649	544
185.718	-188
185.788	-92
185.857	113
185.927	-301
185.996	630
186.066	641
186.136	-274
186.205	389
186.275	-369
186.344	-101
186.414	89
186.483	320
186.553	233
186.622	855
186.692	-595
186.761	576
186.831	236
186.900	30
186.970	-45
187.039	743
187.109	533
187.178	62
187.248	-308
187.317	350
187.387	-101
187.456	-274
187.526	-388
187.595	537
187.664	-481
187.734	16
187.803	112
187.873	-704
187.942	28
188.012	-72
188.081	396
188.150	59
188.220	-43
188.289	394
188.358	-271
188.428	384
188.497	-111
188.567	-272
188.636	839
188.705	302
188.775	139
188.844	-468
188.913	-273
188.983	155
189.052	202
189.121	171
189.191	-307
189.260	-21
189.329	-415
189.399	-758
189.468	280
189.537	-471
189.606	86
189.676	-220
189.745	773
189.814	49
189.883	-208
189.953	140
190.022	-59
190.091	8
190.161	-281
190.230	256
190.299	-7
190.368	160
190.437	-285
190.507	257
190.576	-480
190.645	-5
190.714	-68
190.783	590
190.853	-350
190.922	918
190.991	-303
191.060	155
191.129	-206
191.198	-37
191.268	664
191.337	-238
191.406	200
191.475	-326
191.544	458
191.613	315
191.682	-669
191.752	162
191.821	-103
191.890	148
191.959	-241
192.028	425
192.097	354
192.166	527
192.235	-193
192.304	-5
192.373	-595
192.442	-3
192.511	-335
192.580	12
192.650	42
192.719	477
192.788	-127
192.857	-445
192.926	-1031
192.995	293
193.064	208
193.133	-238
193.202	101
193.271	649
193.340	482
193.409	-140
193.478	-695
193.547	63
193.615	-420
193.684	-51
193.753	-2
193.822	-288
193.891	-116
193.960	397
194.029	-772
194.098	224
194.167	-397
194.236	251
194.305	117
194.374	240
194.443	-192
194.512	-509
194.580	173
194.649	-292
194.718	-256
194.787	316
194.856	406
194.925	470
194.994	-466
195.062	366
195.131	60
195.200	73
195.269	-291
195.338	161
195.407	-721
195.475	-86
195.544	-228
195.613	-267
195.682	430
195.751	-188
195.819	371
195.888	10
195.957	387
196.026	-13
196.094	-489
196.163	-435
196.232	-29
196.301	-212
196.369	8
196.438	53
196.507	468
196.576	215
196.644	-640
196.713	524
196.782	-197
196.850	426
196.919	-238
196.988	-322
197.056	-409
197.125	165
197.194	-76
197.262	447
197.331	376
197.400	73
197.468	-967
197.537	809
197.606	-71
197.674	-245
197.743	512
197.812	218
197.880	-259
197.949	165
198.017	-58
198.086	-142
198.155	-179
198.223	191
198.292	-354
198.360	87
198.429	240
198.497	-210
198.566	-105
198.635	-386
198.703	-310
198.772	885
198.840	161
198.909	312
198.977	-186
199.046	372
199.114	256
199.183	3
199.251	-381
199.320	290
199.388	-778
199.457	76
199.525	128
199.594	152
199.662	-612
199.731	316
199.799	238
199.867	-15
199.936	127
200.004	-69
200.073	154
200.141	-67
200.210	-168
200.278	677
200.346	79
200.415	505
200.483	197
200.552	16
200.620	20
200.688	-158
200.757	-415
200.825	-49
200.893	-145
200.962	358
201.030	-632
201.098	-131
201.167	90
201.235	431
201.303	-56
201.372	138
201.440	531
201.508	-282
201.577	-603
201.645	281
201.713	-53
201.781	422
201.850	614
201.918	-114
201.986	-328
202.055	4
202.123	-191
202.191	-278
202.259	-275
202.327	238
202.396	39
202.464	-122
202.532	-275
202.600	1275
202.669	-514
202.737	-182
202.805	-165
202.873	-59
202.941	-344
203.009	385
203.078	-347
203.146	-359
203.214	109
203.282	-350
203.350	169
203.418	-188
203.487	-778
203.555	279
203.623	99
203.691	-47
203.759	-383
203.827	-22
203.895	171
203.963	-184
204.031	181
204.099	-189
204.168	-424
204.236	496
204.304	-282
204.372	-304
204.440	-118
204.508	-25
204.576	504
204.644	118
204.712	-364
204.780	46
204.848	-354
204.916	240
204.984	-916
205.052	223
205.120	-465
205.188	372
205.256	138
205.324	-448
205.392	22
205.460	-204
205.528	-237
205.596	-271
205.664	-746
205.732	-488
205.799	-223
205.867	-307
205.935	268
206.003	38
206.071	-456
206.139	53
206.207	-251
206.275	-11
206.343	-194
206.411	-123
206.478	32
206.546	486
206.614	-279
206.682	45
206.750	-683
206.818	1110
206.885	20
206.953	-325
207.021	637
207.089	172
207.157	-300
207.225	-98
207.292	-530
207.360	-36
207.428	-376
207.496	22
207.563	-277
207.631	-16
207.699	139
207.767	122
207.834	-41
207.902	-511
207.970	-135
208.038	-253
208.105	-784
208.173	-46
208.241	-255
208.309	668
208.376	-539
208.444	-813
208.512	-157
208.579	-503
208.647	25
208.715	-572
208.782	-556
208.850	-537
208.918	-306
208.985	161
209.053	-735
209.120	249
209.188	-805
209.256	-288
209.323	-853
209.391	-481
209.459	-11
209.526	-75
209.594	-531
209.661	-676
209.729	2
209.796	-383
209.864	303
209.932	-119
209.999	-65
210.067	129
210.134	-436
210.202	-28
210.269	751
210.337	601
210.404	12
210.472	498
210.539	-352
210.607	290
210.674	170
210.742	166
210.809	-86
210.877	639
210.944	-217
211.012	-119
211.079	-192
211.146	18
211.214	31
211.281	545
211.349	209
211.416	732
211.484	-232
211.551	-277
211.618	-325
211.686	454
211.753	302
211.821	14
211.888	-350
211.955	132
212.023	-343
212.090	-31
212.157	-398
212.225	-13
212.292	-478
212.359	334
212.427	811
212.494	322
212.561	-27
212.629	22
212.696	-636
212.763	-206
212.831	-307
212.898	-2
212.965	-461
213.032	-69
213.100	431
213.167	607
213.234	627
213.301	-916
213.369	-486
213.436	241
213.503	-135
213.570	-492
213.638	428
213.705	-421
213.772	-767
213.839	489
213.906	-320
213.973	-95
214.041	-307
214.108	-132
214.175	-38
214.242	-294
214.309	-5
214.376	81
214.444	-321
214.511	93
214.578	-191
214.645	605
214.712	-550
214.779	-96
214.846	-517
214.913	237
214.980	81
215.048	-119
215.115	315
215.182	-161
215.249	-91
215.316	178
215.383	-661
215.450	221
215.517	-34
215.584	365
215.651	-407
215.718	102
215.785	-481
215.852	-46
215.919	-759
215.986	805
216.053	-270
216.120	-465
216.187	-551
216.254	-496
216.321	-268
216.388	-590
216.455	-379
216.522	301
216.589	-156
216.656	-97
216.722	-506
216.789	-724
216.856	34
216.923	-99
216.990	518
217.057	-7
217.124	-418
217.191	-237
217.258	-536
217.324	-222
217.391	-177
217.458	-115
217.525	-178
217.592	37
217.659	-146
217.725	523
217.792	-637
217.859	20
217.926	-667
217.993	62
218.059	-372
218.126	69
218.193	-549
218.260	-49
218.327	-197
218.393	106
218.460	-960
218.527	-264
218.594	-351
218.660	776
218.727	83
218.794	-753
218.860	-282
218.927	-394
218.994	-320
219.061	-695
219.127	-123
219.194	422
219.261	-44
219.327	189
219.394	-220
219.461	204
219.527	-324
219.594	-15
219.661	101
219.727	500
219.794	-198
219.860	-18
219.927	979
219.994	1112
220.060	1505
220.127	1039
220.193	593
220.260	73
220.326	596
220.393	188
220.460	-567
220.526	-832
220.593	-551
220.659	439
220.726	305
220.792	1119
220.859	374
220.925	451
220.992	-139
221.058	-392
221.125	-23
221.191	291
221.258	-233
221.324	-150
221.391	-57
221.457	99
221.524	-479
221.590	523
221.657	83
221.723	201
221.789	157
221.856	-112
221.922	-356
221.989	187
222.055	449
222.121	-9
222.188	67
222.254	-135
222.321	-279
222.387	-935
222.453	-390
222.520	35
222.586	-76
222.652	-451
222.719	-381
222.785	-616
222.851	-1212
222.918	-447
222.984	-247
223.050	601
223.116	-714
223.183	-261
223.249	-862
223.315	-284
223.382	-53
223.448	-253
223.514	-1041
223.580	-228
223.647	-108
223.713	-1125
223.779	-314
223.845	37
223.911	-111
223.978	-483
224.044	-393
224.110	-496
224.176	364
224.242	-663
224.309	-831
224.375	-333
224.441	-603
224.507	-726
224.573	-1113
224.639	97
224.705	-657
224.772	-287
224.838	-168
224.904	-316
224.970	-175
225.036	-60
225.102	-427
225.168	-173
225.234	-300
225.300	-126
225.366	-440
225.432	294
225.499	-462
225.565	-522
225.631	-629
225.697	187
225.763	-269
225.829	114
225.895	-274
225.961	-294
226.027	-562
226.093	-779
226.159	-513
226.225	315
226.291	413
226.357	620
226.423	-186
226.489	413
226.554	-291
226.620	493
226.686	-506
226.752	162
226.818	613
226.884	2111
226.950	464
227.016	-199
227.082	115
227.148	-232
227.214	-497
227.279	-166
227.345	-711
227.411	232
227.477	1112
227.543	2398
227.609	2913
227.674	1340
227.740	524
227.806	-188
227.872	-177
227.938	-429
228.003	231
228.069	-220
228.135	-1131
228.201	-722
228.267	-252
228.332	-524
228.398	-1032
228.464	-237
228.530	-606
228.595	-651
228.661	-268
228.727	-502
228.792	-305
228.858	-110
228.924	-1156
228.990	-106
229.055	-1101
229.121	-135
229.187	-1346
229.252	-762
229.318	-615
229.384	136
229.449	21
229.515	-492
229.581	-1040
229.646	56
229.712	-328
229.777	-774
229.843	-214
229.909	-392
229.974	-232
230.040	134
230.105	-639
230.171	-609
230.236	-786
230.302	-95
230.368	-1166
230.433	-200
230.499	-479
230.564	56
230.630	-678
230.695	-384
230.761	-426
230.826	-1167
230.892	-321
230.957	-322
231.023	-860
231.088	-270
231.154	-776
231.219	289
231.284	-382
231.350	-137
231.415	-758
231.481	-841
231.546	-473
231.612	260
231.677	-410
231.742	-463
231.808	-831
231.873	-383
231.939	-1018
232.004	-213
232.069	338
232.135	-944
232.200	-8
232.265	-120
232.331	-223
232.396	-101
232.461	-621
232.527	-490
232.592	-422
232.657	-428
232.723	-272
232.788	-308
232.853	-89
232.918	-434
232.984	-954
233.049	-639
233.114	-741
233.179	-263
233.245	-347
233.310	-240
233.375	-871
233.440	-627
233.506	-971
233.571	-257
233.636	-139
233.701	243
233.766	-253
233.832	-448
233.897	-567
233.962	-856
234.027	-115
234.092	208
234.157	-194
234.222	257
234.288	-795
234.353	-337
234.418	-248
234.483	-311
234.548	-833
234.613	-824
234.678	-574
234.743	-540
234.808	386
234.873	-839
234.938	-401
235.004	-803
235.069	-466
235.134	-677
235.199	-296
235.264	-588
235.329	-428
235.394	-418
235.459	-413
235.524	-386
235.589	-662
235.654	-393
235.719	-1227
235.784	510
235.849	-995
235.913	-733
235.978	-934
236.043	-405
236.108	-743
236.173	-308
236.238	-378
236.303	162
236.368	-981
236.433	-250
236.498	-365
236.563	-821
236.627	1061
236.692	2443
236.757	479
236.822	133
236.887	-543
236.952	133
237.017	-214
237.081	13
237.146	-63
237.211	621
237.276	3058
237.341	3533
237.405	148
237.470	-507
237.535	-212
237.600	-37
237.664	-445
237.729	-308
237.794	-1191
237.859	-225
237.923	-475
237.988	-169
238.053	-55
238.118	-95
238.182	230
238.247	475
238.312	-824
238.376	-317
238.441	-457
238.506	-17
238.570	-484
238.635	8
238.700	-439
238.764	-1413
238.829	-435
238.893	-670
238.958	-381
239.023	-344
239.087	-424
239.152	241
239.216	-1216
239.281	-277
239.346	-595
239.410	-735
239.475	-1112
239.539	449
239.604	-517
239.668	475
239.733	1205
239.797	3026
239.862	4720
239.926	2890
239.991	1051
240.055	-482
240.120	78
240.184	-242
240.249	-143
240.313	-90
240.378	-754
240.442	452
240.507	-780
240.571	-363
240.635	-148
240.700	-44
240.764	-392
240.829	-586
240.893	-431
240.957	-597
241.022	-870
241.086	-280
241.151	-226
241.215	-858
241.279	-255
241.344	-388
241.408	-697
241.472	-311
241.537	-484
241.601	184
241.665	-859
241.730	-899
241.794	-440
241.858	-298
241.922	-442
241.987	-586
242.051	-1096
242.115	-805
242.179	-755
242.244	-1119
242.308	-47
242.372	-126
242.436	-654
242.501	-58
242.565	-1151
242.629	-539
242.693	-435
242.757	-999
242.822	-1289
242.886	-87
242.950	-530
243.014	-1072
243.078	-710
243.142	-794
243.206	-1072
243.271	-1020
243.335	53
243.399	21
243.463	-136
243.527	1792
243.591	-983
243.655	-344
243.719	-814
243.783	-634
243.847	-443
243.911	-754
243.975	181
244.040	-726
244.104	-503
244.168	-15
244.232	-924
244.296	-795
244.360	-231
244.424	-282
244.488	-1199
244.552	-505
244.615	-762
244.679	-183
244.743	-1181
244.807	-1166
244.871	-256
244.935	-492
244.999	-1414
245.063	-293
245.127	-446
245.191	-1036
245.255	-335
245.319	-325
245.383	-1351
245.446	238
245.510	-757
245.574	-413
245.638	-1162
245.702	-711
245.766	-594
245.829	-601
245.893	-564
245.957	-333
246.021	-938
246.085	-1009
246.149	-1130
246.212	305
246.276	-1069
246.340	-82
246.404	-640
246.467	-370
246.531	-638
246.595	325
246.659	-182
246.722	-338
246.786	-1153
246.850	-886
246.913	-1634
246.977	-1159
247.041	-594
247.104	-197
247.168	-601
247.232	78
247.295	453
247.359	-72
247.423	-455
247.486	6
247.550	-241
247.614	-414
247.677	-986
247.741	-1133
247.804	-287
247.868	52
247.932	66
247.995	-346
248.059	-582
248.122	-1199
248.186	-194
248.249	-287
248.313	2476
248.376	1385
248.440	-314
248.503	-1626
248.567	474
248.630	-23
248.694	-186
248.757	1302
248.821	1339
248.884	382
248.948	83
249.011	1142
249.075	1216
249.138	1359
249.202	-75
249.265	-669
249.328	155
249.392	-846
249.455	-272
249.519	-554
249.582	-734
249.645	338
249.709	-217
249.772	-256
249.835	-835
249.899	-541
249.962	-831
250.025	-562
250.089	390
250.152	359
250.215	-754
250.279	-807
250.342	-241
250.405	-608
250.468	-1240
250.532	3
250.595	-279
250.658	3532
250.721	3032
250.785	714
250.848	881
250.911	-110
250.974	-186
251.038	91
251.101	365
251.164	-445
251.227	-351
251.290	-153
251.354	1389
251.417	4928
251.480	1697
251.543	2223
251.606	9158
251.669	2336
251.732	518
251.795	537
251.859	1177
251.922	4631
251.985	679
252.048	779
252.111	-529
252.174	26
252.237	1027
252.300	2005
252.363	2688
252.426	5077
252.489	-225
252.552	-54
252.615	-904
252.678	757
252.741	1948
252.804	3448
252.867	4756
252.930	1855
252.993	112
253.056	374
253.119	-567
253.182	-162
253.245	43
253.308	-566
253.371	-952
253.434	-233
253.497	-144
253.559	538
253.622	-118
253.685	237
253.748	-294
253.811	-91
253.874	194
253.937	-367
254.000	-669
254.062	1039
254.125	-32
254.188	263
254.251	-651
254.314	-452
254.376	-782
254.439	-539
254.502	-132
254.565	-15
254.628	565
254.690	-608
254.753	-268
254.816	-745
254.878	-174
254.941	907
255.004	-671
255.067	-72
255.129	-1012
255.192	-332
255.255	-1165
255.317	-532
255.380	-134
255.443	-206
255.505	-413
255.568	-905
255.631	-194
255.693	135
255.756	-1165
255.819	-217
255.881	-560
255.944	-728
256.006	-1040
256.069	-289
256.132	-883
256.194	-727
256.257	-838
256.319	464
256.382	124
256.444	779
256.507	-155
256.569	-124
256.632	-793
256.694	-839
256.757	1238
256.819	2132
256.882	127
256.944	-652
257.007	-306
257.069	-1295
257.132	88
257.194	-210
257.257	-367
257.319	-1452
257.381	-837
257.444	1308
257.506	4443
257.569	1848
257.631	185
257.693	-294
257.756	-563
257.818	-872
257.880	-1083
257.943	235
258.005	-1240
258.067	-975
258.130	-1160
258.192	-274
258.254	-810
258.317	-489
258.379	-664
258.441	-279
258.503	-418
258.566	-649
258.628	-430
258.690	-995
258.753	-621
258.815	-478
258.877	-1039
258.939	-494
259.001	-941
259.064	-646
259.126	-1013
259.188	-154
259.250	-1133
259.312	-1125
259.375	-784
259.437	-825
259.499	-815
259.561	-623
259.623	-537
259.685	-1270
259.747	-758
259.809	-756
259.872	-331
259.934	824
259.996	-69
260.058	-20
260.120	-600
260.182	-953
260.244	-1364
260.306	-1122
260.368	-407
260.430	-1220
260.492	15
260.554	102
260.616	-537
260.678	335
260.740	-250
260.802	-589
260.864	-760
260.926	-758
260.988	-1110
261.050	-922
261.112	-923
261.174	632
261.236	-769
261.298	-687
261.359	-461
261.421	-12
261.483	-1090
261.545	-151
261.607	-1216
261.669	-245
261.731	-826
261.793	-993
261.854	-875
261.916	-72
261.978	-1485
262.040	-421
262.102	-324
262.164	-909
262.225	-583
262.287	-285
262.349	-553
262.411	-341
262.472	-341
262.534	-417
262.596	-793
262.658	115
262.719	-1117
262.781	-496
262.843	-1389
262.904	-105
262.966	-916
263.028	-762
263.090	511
263.151	566
263.213	334
263.275	-907
263.336	-152
263.398	-571
263.459	-1088
263.521	-83
263.583	-600
263.644	-760
263.706	-764
263.767	-373
263.829	-216
263.891	-191
263.952	-650
264.014	-813
264.075	-714
264.137	392
264.198	-224
264.260	-927
264.321	-1028
264.383	-294
264.444	328
264.506	-167
264.567	-1138
264.629	401
264.690	-296
264.752	-584
264.813	-533
264.875	-758
264.936	-373
264.998	-89
265.059	-745
265.120	-560
265.182	-158
265.243	1376
265.305	-389
265.366	-1256
265.427	-271
265.489	-501
265.550	-791
265.611	-460
265.673	-1296
265.734	-933
265.795	-965
265.857	-196
265.918	-308
265.979	400
266.040	2053
266.102	-379
266.163	240
266.224	-799
266.286	-687
266.347	-493
266.408	-47
266.469	94
266.530	-297
266.592	-494
266.653	-413
266.714	-33
266.775	-89
266.836	-457
266.898	-691
266.959	-622
267.020	-319
267.081	-65
267.142	-343
267.203	79
267.264	-917
267.326	-840
267.387	-921
267.448	-1062
267.509	-998
267.570	-997
267.631	-894
267.692	-498
267.753	-1106
267.814	-1308
267.875	-330
267.936	-314
267.997	-659
268.058	281
268.119	-1401
268.180	-931
268.241	-806
268.302	-648
268.363	-776
268.424	-625
268.485	-353
268.546	-1215
268.607	-792
268.668	-2
268.729	-1186
268.790	-858
268.851	-154
268.912	-585
268.972	-512
269.033	-585
269.094	-1595
269.155	-223
269.216	-808
269.277	-1453
269.338	-1025
269.398	-530
269.459	-1219
269.520	171
269.581	-979
269.642	-894
269.702	-1001
269.763	-500
269.824	-1945
269.885	-1038
269.945	-135
270.006	-736
270.067	-713
270.128	-271
270.188	-704
270.249	-98
270.310	-1072
270.370	-340
270.431	-672
270.492	-912
270.553	-57
270.613	-71
270.674	-550
270.734	-707
270.795	-326
270.856	71
270.916	-1553
270.977	-72
271.038	-358
271.098	-36
271.159	-905
271.219	-770
271.280	-817
271.340	-1110
271.401	-943
271.462	-801
271.522	-224
271.583	-612
271.643	-997
271.704	-571
271.764	-682
271.825	-515
271.885	2417
271.946	1366
272.006	-78
272.066	1549
272.127	1775
272.187	2850
272.248	116
272.308	-3
272.369	1589
272.429	-236
272.489	-267
272.550	-1023
272.610	-585
272.671	-536
272.731	-663
272.791	-533
272.852	-1242
272.912	248
272.972	-716
273.033	-534
273.093	-636
273.153	-327
273.214	-418
273.274	-539
273.334	999
273.394	633
273.455	-433
273.515	-455
273.575	-181
273.635	223
273.696	637
273.756	315
273.816	-522
273.876	-619
273.936	-161
273.997	112
274.057	-410
274.117	-1255
274.177	218
274.237	2108
274.297	669
274.358	-53
274.418	394
274.478	-240
274.538	-802
274.598	-392
274.658	-716
274.718	-1074
274.778	-724
274.838	-219
274.898	-392
274.958	1283
275.018	700
275.078	631
275.138	-661
275.198	-747
275.258	-986
275.318	-347
275.378	-521
275.438	-217
275.498	-780
275.558	7
275.618	426
275.678	-1008
275.738	446
275.798	-310
275.858	-1103
275.918	-849
275.978	-780
276.038	-129
276.098	-572
276.157	-290
276.217	-226
276.277	-234
276.337	-1027
276.397	-440
276.457	-310
276.517	-810
276.576	-567
276.636	-735
276.696	-1052
276.756	582
276.815	-955
276.875	-101
276.935	-975
276.995	-601
277.055	-191
277.114	-347
277.174	-609
277.234	-108
277.293	-450
277.353	-1467
277.413	-535
277.472	-1427
277.532	-341
277.592	-299
277.651	699
277.711	1177
277.771	-110
277.830	2534
277.890	295
277.950	2640
278.009	4486
278.069	414
278.128	1980
278.188	798
278.248	219
278.307	2059
278.367	-302
278.426	-497
278.486	-1034
278.545	-496
278.605	111
278.664	-881
278.724	-791
278.783	804
278.843	282
278.902	-699
278.962	-1218
279.021	-1007
279.081	-841
279.140	186
279.199	-620
279.259	-513
279.318	-308
279.378	172
279.437	708
279.496	5471
279.556	20567
279.615	6716
279.675	1634
279.734	1541
279.793	721
279.853	1103
279.912	186
279.971	-166
280.031	-353
280.090	416
280.149	525
280.208	2609
280.268	14994
280.327	6290
280.386	1134
280.445	671
280.505	215
280.564	239
280.623	-462
280.682	-277
280.742	-89
280.801	-664
280.860	-343
280.919	-571
280.978	-1013
281.037	-839
281.097	-327
281.156	310
281.215	-739
281.274	98
281.333	538
281.392	-337
281.451	-543
281.510	-515
281.569	-1004
281.628	-1178
281.688	-561
281.747	40
281.806	-423
281.865	-250
281.924	-465
281.983	-301
282.042	-1060
282.101	-513
282.160	-286
282.219	-1233
282.278	-161
282.337	-793
282.396	-752
282.454	652
282.513	12
282.572	282
282.631	-324
282.690	-263
282.749	-1211
282.808	-614
282.867	-745
282.926	-1076
282.985	-564
283.043	-583
283.102	61
283.161	-390
283.220	451
283.279	-15
283.338	-900
283.396	-641
283.455	-451
283.514	-606
283.573	-384
283.631	-168
283.690	-175
283.749	-694
283.808	-131
283.866	17
283.925	-260
283.984	-342
284.043	-1309
284.101	-209
284.160	-1028
284.219	-40
284.277	-780
284.336	493
284.395	491
284.453	-225
284.512	-332
284.570	-1019
284.629	-324
284.688	-545
284.746	-544
284.805	235
284.863	-257
284.922	548
284.981	-365
285.039	2133
285.098	4857
285.156	14723
285.215	29032
285.273	20796
285.332	8014
285.390	3828
285.449	2360
285.507	1360
285.566	991
285.624	74
285.683	157
285.741	-140
285.799	481
285.858	-667
285.916	-47
285.975	454
286.033	-205
286.091	-380
286.150	-858
286.208	-251
286.267	-734
286.325	-133
286.383	-627
286.442	-123
286.500	-59
286.558	-558
286.616	-955
286.675	183
286.733	-506
286.791	-567
286.850	-819
286.908	287
286.966	49
287.024	-194
287.083	-409
287.141	-317
287.199	-675
287.257	192
287.315	-424
287.374	-224
287.432	548
287.490	-559
287.548	-82
287.606	-182
287.664	-414
287.723	-80
287.781	-864
287.839	-88
287.897	-532
287.955	-79
288.013	-554
288.071	1547
288.129	11248
288.187	16090
288.245	3506
288.303	830
288.361	452
288.419	75
288.477	-199
288.535	-448
288.593	-787
288.651	-814
288.709	-640
288.767	-298
288.825	178
288.883	-105
288.941	-483
288.999	-557
289.057	-76
289.115	-911
289.173	-684
289.231	-256
289.289	-402
289.346	-602
289.404	-211
289.462	-563
289.520	-179
289.578	-807
289.636	-828
289.694	-394
289.751	-613
289.809	-567
289.867	-516
289.925	476
289.983	-1324
290.040	-604
290.098	82
290.156	-870
290.214	-445
290.271	-464
290.329	-309
290.387	-409
290.444	-473
290.502	-867
290.560	-837
290.617	-385
290.675	-687
290.733	-382
290.790	-593
290.848	-565
290.906	-289
290.963	148
291.021	-516
291.078	-220
291.136	-864
291.194	346
291.251	429
291.309	-495
291.366	-724
291.424	-389
291.481	-567
291.539	-125
291.596	-619
291.654	-239
291.711	-405
291.769	291
291.826	-462
291.884	145
291.941	-392
291.999	-256
292.056	-452
292.114	-99
292.171	-515
292.228	252
292.286	163
292.343	6
292.401	98
292.458	435
292.515	-1117
292.573	-12
292.630	-458
292.687	-115
292.745	-732
292.802	-662
292.859	-46
292.917	257
292.974	-42
293.031	-273
293.089	-355
293.146	-421
293.203	-615
293.260	-133
293.318	-1
293.375	-160
293.432	-71
293.489	-337
293.546	-324
293.604	-234
293.661	510
293.718	2221
293.775	439
293.832	-275
293.889	51
293.947	265
294.004	-504
294.061	445
294.118	549
294.175	1246
294.232	732
294.289	-154
294.346	-650
294.403	-168
294.460	-128
294.517	-629
294.574	-1144
294.631	102
294.688	-816
294.745	1003
294.802	2698
294.859	1780
294.916	585
294.973	-402
295.030	-513
295.087	210
295.144	636
295.201	-125
295.258	323
295.315	313
295.372	1112
295.429	1145
295.486	175
295.542	-52
295.599	812
295.656	2103
295.713	1456
295.770	1432
295.827	-220
295.883	287
295.940	-161
295.997	362
296.054	-1034
296.111	-361
296.167	44
296.224	-211
296.281	-797
296.338	-362
296.394	-750
296.451	-281
296.508	-13
296.564	718
296.621	515
296.678	3005
296.734	3002
296.791	645
296.848	77
296.904	1075
296.961	86
297.018	1347
297.074	367
297.131	30
297.187	-99
297.244	583
297.301	2747
297.357	3283
297.414	310
297.470	394
297.527	-6
297.583	-139
297.640	-663
297.696	-29
297.753	-467
297.809	-43
297.866	-378
297.922	-663
297.979	-974
298.035	-591
298.092	-766
298.148	558
298.204	367
298.261	283
298.317	1584
298.374	3241
298.430	500
298.486	-25
298.543	-895
298.599	-83
298.656	-121
298.712	256
298.768	869
298.824	-290
298.881	-59
298.937	-656
298.993	-818
299.050	-239
299.106	-185
299.162	-665
299.218	-151
299.275	400
299.331	7
299.387	1273
299.443	6224
299.500	9824
299.556	4802
299.612	1251
299.668	2335
299.724	9074
299.780	5778
299.837	1982
299.893	2340
299.949	7298
300.005	7652
300.061	8574
300.117	9529
300.173	3360
300.229	1428
300.285	611
300.341	477
300.397	732
300.453	-98
300.510	234
300.566	1608
300.622	4585
300.678	13852
300.734	10904
300.790	5975
300.845	4734
300.901	8209
300.957	8665
301.013	3337
301.069	1726
301.125	780
301.181	585
301.237	-474
301.293	203
301.349	-465
301.405	-217
301.461	14
301.516	-85
301.572	-93
301.628	339
301.684	869
301.740	406
301.796	1026
301.851	228
301.907	848
301.963	957
302.019	3708
302.074	9515
302.130	6693
302.186	2545
302.242	549
302.297	404
302.353	921
302.409	1247
302.464	80
302.520	746
302.576	1864
302.631	1558
302.687	373
302.743	315
302.798	168
302.854	-102
302.910	162
302.965	142
303.021	311
303.076	338
303.132	380
303.187	398
303.243	-474
303.299	458
303.354	28
303.410	-116
303.465	-130
303.521	-154
303.576	-738
303.632	-105
303.687	290
303.743	2468
303.798	1137
303.853	19
303.909	309
303.964	512
304.020	240
304.075	328
304.130	-305
304.186	957
304.241	851
304.297	555
304.352	-316
304.358	-303
304.407	-199
304.449	-119
304.463	-97
304.518	183
304.539	68
304.573	-110
304.629	536
304.630	522
304.684	-92
304.720	1472
304.739	2298
304.794	2677
304.811	2288
304.850	1221
304.902	101
304.905	33
304.960	56
304.992	158
305.015	243
305.071	-174
305.083	-171
305.126	-181
305.173	359
305.181	448
305.236	564
305.264	429
305.292	308
305.347	265
305.354	225
305.402	-78
305.445	-39
305.457	-4
305.512	175
305.535	1
305.567	-322
305.622	195
305.626	229
305.678	1062
305.716	1577
305.733	1759
305.788	2329
305.807	2127
305.843	1639
305.897	2408
305.898	2420
305.953	2151
305.988	1433
306.008	973
306.063	566
306.078	492
306.118	449
306.168	323
306.173	311
306.228	-47
306.259	-12
306.283	-28
306.338	-103
306.349	-55
306.393	283
306.440	240
306.448	217
306.503	536
306.530	325
306.558	256
306.613	843
306.620	876
306.668	907
306.711	1693
306.723	1877
306.778	650
306.801	653
306.833	621
306.888	444
306.892	412
306.943	239
306.982	105
306.997	62
307.052	571
307.072	466
307.107	313
307.162	400
307.163	401
307.217	822
307.253	1206
307.272	1362
307.327	415
307.343	511
307.381	679
307.434	616
307.436	636
307.491	1455
307.524	1585
307.546	1566
307.600	1825
307.614	1749
307.655	1204
307.704	436
307.710	375
307.765	405
307.795	513
307.819	947
307.874	1732
307.885	1794
307.929	1259
307.975	947
307.984	1008
308.038	1363
308.065	1860
308.093	2937
308.148	7758
308.156	8836
308.202	18340
308.246	22494
308.257	21282
308.312	10420
308.336	6648
308.366	4670
308.421	2383
308.426	2212
308.475	1584
308.517	1334
308.530	1273
308.585	1153
308.607	974
308.639	760
308.694	594
308.697	587
308.748	1182
308.787	1932
308.803	1995
308.857	1385
308.877	1465
308.912	1822
308.967	1246
308.967	1246
309.021	1635
309.058	1682
309.076	2132
309.130	4747
309.148	5829
309.185	11221
309.238	22372
309.239	22587
309.293	30542
309.328	30525
309.348	24921
309.402	10741
309.418	7189
309.457	5063
309.508	2840
309.511	2797
309.566	2757
309.598	2853
309.620	2969
309.674	3235
309.688	3369
309.729	3504
309.778	3053
309.783	2978
309.837	2023
309.868	1680
309.892	1704
309.946	1629
309.959	1789
310.001	3068
310.049	4056
310.055	3941
310.109	2328
310.139	1582
310.163	1403
310.218	1325
310.229	1275
310.272	1136
310.319	810
310.326	807
310.381	974
310.409	1152
310.435	1215
310.489	1009
310.499	997
310.543	938
310.589	826
310.598	781
310.652	473
310.679	320
310.706	606
310.760	1279
310.769	1343
310.814	780
310.859	347
310.868	425
310.923	821
310.948	1050
310.977	1118
311.031	1060
311.038	1064
311.085	1232
311.128	1279
311.139	1242
311.193	1141
311.218	1117
311.247	1333
311.301	1501
311.308	1523
311.356	1123
311.398	840
311.410	904
311.464	1099
311.488	1189
311.518	1138
311.572	1080
311.578	1062
311.626	1383
311.668	1673
311.680	1654
311.734	1518
311.758	1456
311.788	1688
311.842	2112
311.847	2147
311.896	1972
311.937	1813
311.950	1786
312.004	1639
312.027	1576
312.058	1501
312.112	1358
312.117	1342
312.165	1497
312.207	1628
312.297	1835
312.386	1683
312.476	1234
312.566	1596
312.656	1147
312.745	933
312.835	1364
312.925	2410
313.015	1502
313.104	1608
313.194	1741
313.284	2110
313.374	1515
313.463	2459
313.553	1649
313.643	2343
313.732	2554
313.822	2646
313.912	2169
314.001	2841
314.091	3172
314.180	2792
314.270	2336
314.360	2772
314.449	2540
314.539	2347
314.628	2506
314.718	2865
314.808	2834
314.897	3521
314.987	3133
315.076	2670
315.166	3231
315.255	3478
315.345	2781
315.434	3002
315.524	2151
315.613	3150
315.703	3303
315.792	6517
315.881	19822
315.971	12903
316.060	4232
316.150	3243
316.239	3333
316.328	2638
316.418	2810
316.507	3183
316.597	3248
316.686	3373
316.775	3271
316.865	3657
316.954	2928
317.043	3080
317.133	2146
317.222	2293
317.311	2287
317.400	1801
317.490	3101
317.579	3137
317.668	2429
317.757	3984
317.847	8182
317.936	30948
318.025	17859
318.114	8883
318.203	6250
318.293	3340
318.382	4591
318.471	6256
318.560	5494
318.649	8825
318.738	3946
318.828	2687
318.917	1795
319.006	3177
319.095	3039
319.184	7243
319.273	5741
319.362	3609
319.451	1288
319.540	1888
319.629	1532
319.718	2629
319.807	1751
319.896	2903
319.985	9243
320.074	6671
320.163	2550
320.252	2659
320.341	2134
320.430	3044
320.519	2768
320.608	2936
320.697	3246
320.786	3103
320.875	4668
320.964	4059
321.053	4550
321.142	4810
321.230	5978
321.319	5724
321.408	7045
321.497	7727
321.586	5829
321.675	4951
321.764	6145
321.852	5381
321.941	4622
322.030	4570
322.119	4813
322.207	7108
322.296	8455
322.385	7944
322.474	8243
322.562	10376
322.651	8680
322.740	6683
322.829	5480
322.917	5903
323.006	3861
323.095	4106
323.183	2899
323.272	4226
323.361	3489
323.449	6981
323.538	4611
323.626	4822
323.715	4708
323.804	2390
323.892	3793
323.981	3921
324.069	2788
324.158	3204
324.246	4121
324.335	2099
324.424	2239
324.512	2789
324.601	2124
324.689	2154
324.778	2828
324.866	3095
324.954	2308
325.043	1914
325.131	1452
325.220	2709
325.308	2841
325.397	2402
325.485	2207
325.574	1925
325.662	1813
325.750	2129
325.839	993
325.927	1525
326.015	1794
326.104	1721
326.192	1858
326.280	1919
326.369	881
326.457	1728
326.545	1327
326.634	1053
326.722	1443
326.810	1387
326.898	1212
326.987	2846
327.075	1403
327.163	2725
327.251	1505
327.340	2320
327.428	3142
327.516	4006
327.604	2595
327.692	2074
327.781	2110
327.869	2154
327.957	1533
328.045	2054
328.133	1307
328.221	1487
328.309	1826
328.397	1840
328.485	1738
328.574	2930
328.662	5251
328.750	4286
328.838	2251
328.926	2083
329.014	1828
329.102	1421
329.190	2133
329.278	2723
329.366	1031
329.454	1309
329.542	1403
329.630	1816
329.718	1442
329.806	1257
329.893	1483
329.981	1722
330.069	939
330.157	2244
330.245	3204
330.333	2961
330.421	1193
330.509	2056
330.597	1561
330.684	2766
330.772	1433
330.860	2340
330.948	2108
331.036	2904
331.123	1022
331.211	1593
331.299	1774
331.387	2576
331.475	3210
331.562	2091
331.650	1415
331.738	1772
331.825	1285
331.913	1570
332.001	1212
332.089	1885
332.176	1430
332.264	2640
332.352	2533
332.439	2174
332.527	1544
332.614	1203
332.702	1517
332.790	2535
332.877	2318
332.965	3619
333.052	1780
333.140	2349
333.228	2956
333.315	1676
333.403	1811
333.490	2995
333.578	2593
333.665	3366
333.753	2922
333.840	2539
333.928	2554
334.015	3992
334.103	5094
334.190	12548
334.278	10352
334.365	9076
334.452	10338
334.540	7878
334.627	6457
334.715	8167
334.802	11565
334.889	18952
334.977	28431
335.064	19493
335.151	8955
335.239	7232
335.326	5634
335.413	7597
335.501	12473
335.588	6775
335.675	6147
335.762	6838
335.850	10054
335.937	13238
336.024	19617
336.111	34162
336.199	35866
336.286	18346
336.373	9434
336.460	7162
336.547	4581
336.635	4757
336.722	3607
336.809	3785
336.896	2884
336.983	3948
337.070	8317
337.157	12797
337.245	7191
337.332	6892
337.419	2823
337.506	2893
337.593	2396
337.680	3671
337.767	9185
337.854	4635
337.941	4055
338.028	2850
338.115	2348
338.202	2279
338.289	3342
338.376	4878
338.463	3683
338.550	3887
338.637	7177
338.724	1882
338.811	2505
338.898	2407
338.984	1886
339.071	2229
339.158	1473
339.245	1803
339.332	2104
339.419	1858
339.506	2130
339.593	1498
339.679	1710
339.766	1827
339.853	1644
339.940	2039
340.027	1451
340.113	1606
340.200	1696
340.287	1464
340.374	1350
340.460	1755
340.547	1381
340.634	1165
340.720	2076
340.807	2354
340.894	1598
340.980	1836
341.067	2552
341.154	2015
341.240	943
341.327	2869
341.414	1701
341.500	2284
341.587	1498
341.674	2305
341.760	1536
341.847	1501
341.933	2258
342.020	1776
342.106	1223
342.193	1749
342.279	1722
342.366	1799
342.452	1765
342.539	2017
342.625	1229
342.712	2533
342.798	1977
342.885	1474
342.971	960
343.058	1259
343.144	1251
343.230	1437
343.317	1252
343.403	1657
343.490	1511
343.576	1862
343.662	2030
343.749	2035
343.835	1461
343.921	1804
344.008	4838
344.094	16077
344.180	5966
344.267	824
344.353	2252
344.439	5139
344.525	1926
344.612	1698
344.698	1644
344.784	1503
344.870	1547
344.957	1582
345.043	1295
345.129	1653
345.215	1421
345.301	1964
345.387	1216
345.474	1936
345.560	863
345.646	1060
345.732	735
345.818	1880
345.904	1647
345.990	2338
346.076	748
346.162	1528
346.249	1511
346.335	1263
346.421	1316
346.507	2494
346.593	5331
346.679	2885
346.765	1585
346.851	4148
346.937	3030
347.023	2034
347.108	1025
347.194	1519
347.280	1303
347.366	2063
347.452	5135
347.538	12774
347.624	8255
347.710	4841
347.796	2157
347.882	2207
347.967	1168
348.053	1837
348.139	2041
348.225	745
348.311	1600
348.397	1957
348.482	1120
348.568	2163
348.654	1735
348.740	6753
348.825	11857
348.911	5711
348.997	3833
349.083	7701
349.168	2903
349.254	1354
349.340	1288
349.425	1507
349.511	936
349.597	1856
349.682	1453
349.768	4044
349.854	3129
349.939	1262
350.025	714
350.110	1569
350.196	1277
350.282	1472
350.367	911
350.453	2275
350.538	1030
350.624	2079
350.709	1638
350.795	1896
350.880	592
350.966	1706
351.051	1198
351.137	1783
351.222	953
351.308	2426
351.393	2212
351.479	1612
351.564	902
351.649	1644
351.735	1379
351.820	987
351.906	1014
351.991	1774
352.076	1313
352.162	2862
352.247	1128
352.332	1418
352.418	1710
352.503	1932
352.588	2817
352.673	3304
352.759	1431
352.844	1644
352.929	1024
353.014	1491
353.100	1451
353.185	1744
353.270	1319
353.355	2055
353.441	1196
353.526	1728
353.611	1177
353.696	1529
353.781	476
353.866	1813
353.952	1424
354.037	1516
354.122	1704
354.207	2337
354.292	1268
354.377	1326
354.462	1387
354.547	1232
354.632	793
354.717	1015
354.802	648
354.887	1058
354.972	1179
355.057	1724
355.142	1006
355.227	1900
355.312	306
355.397	1823
355.482	1948
355.567	2499
355.652	1876
355.737	2306
355.822	2425
355.907	4332
355.991	1769
356.076	975
356.161	690
356.246	780
356.331	1132
356.416	1446
356.501	4567
356.585	9320
356.670	2664
356.755	2247
356.840	1454
356.924	3494
357.009	13638
357.094	9741
357.179	1754
357.263	1597
357.348	1524
357.433	1847
357.517	1371
357.602	1306
357.687	1562
357.771	2068
357.856	2985
357.941	4786
358.025	2390
358.110	14731
358.195	12929
358.279	2502
358.364	1585
358.448	2658
358.533	4468
358.617	5292
358.702	4214
358.787	3480
358.871	1789
358.956	2123
359.040	1236
359.125	1621
359.209	1439
359.294	2569
359.378	5536
359.462	4308
359.547	2445
359.631	1115
359.716	1165
359.800	1670
359.885	1120
359.969	1580
360.053	787
360.138	1762
360.222	1562
360.306	1313
360.391	1072
360.475	2011
360.559	4370
360.644	2882
360.728	2859
360.812	2715
360.896	10078
360.981	6388
361.065	2924
361.149	2145
361.233	1403
361.318	2365
361.402	2202
361.486	2317
361.570	1901
361.654	2349
361.739	2569
361.823	5569
361.907	14421
361.991	5692
362.075	3568
362.159	5852
362.243	9138
362.327	20535
362.411	36469
362.495	21604
362.580	8576
362.664	7627
362.748	7978
362.832	11775
362.916	19579
363.000	47807
363.084	84943
363.168	54661
363.252	17851
363.336	8534
363.420	5698
363.503	8853
363.587	14558
363.671	6480
363.755	4316
363.839	4619
363.923	4731
364.007	7535
364.091	8894
364.175	14355
364.258	33167
364.342	60896
364.426	106701
364.510	83272
364.594	28962
364.677	14231
364.761	11792
364.845	13653
364.929	4692
365.013	3926
365.096	3074
365.180	3497
365.264	2905
365.347	12758
365.431	10564
365.515	3488
365.598	1969
365.682	2807
365.766	2133
365.849	3645
365.933	2189
366.017	2336
366.100	2562
366.184	2592
366.267	1480
366.351	1873
366.435	2204
366.518	2564
366.602	2164
366.685	1949
366.769	1867
366.852	2616
366.936	3205
367.019	2429
367.103	1613
367.186	3088
367.270	2621
367.353	2231
367.436	2331
367.520	2249
367.603	2743
367.687	2818
367.770	2610
367.853	2937
367.937	2639
368.020	6293
368.104	2668
368.187	2563
368.270	2812
368.353	2072
368.437	1923
368.520	3381
368.603	2949
368.687	2030
368.770	5502
368.853	2616
368.936	2041
369.020	2649
369.103	1886
369.186	1286
369.269	1047
369.352	1128
369.436	1208
369.519	1869
369.602	993
369.685	1952
369.768	945
369.851	1893
369.934	1121
370.018	1766
370.101	1209
370.184	2038
370.267	1954
370.350	1467
370.433	1637
370.516	5529
370.599	14891
370.682	9565
370.765	3891
370.848	3787
370.931	6576
371.014	5049
371.097	1402
371.180	1568
371.263	1426
371.346	1178
371.429	761
371.511	1576
371.594	1752
371.677	2192
371.760	2235
371.843	2269
371.926	4410
372.009	16255
372.091	8848
372.174	2724
372.257	6549
372.340	5965
372.423	2186
372.505	4312
372.588	1510
372.671	1942
372.754	5059
372.836	4980
372.919	2687
373.002	8138
373.085	3771
373.167	2676
373.250	1853
373.332	6630
373.415	7600
373.498	20693
373.580	12749
373.663	14269
373.746	32462
373.828	9250
373.911	2753
373.993	2618
374.076	4812
374.159	9789
374.241	3332
374.324	5007
374.406	5559
374.489	4110
374.571	16141
374.654	10892
374.736	3015
374.819	9597
374.901	13519
374.983	19501
375.066	6441
375.148	3081
375.231	4298
375.313	13666
375.395	7459
375.478	3707
375.560	3007
375.643	2975
375.725	2774
375.807	10550
375.890	12480
375.972	4988
376.054	3798
376.136	3227
376.219	2742
376.301	2986
376.383	9216
376.465	6795
376.548	2087
376.630	2564
376.712	6327
376.794	6766
376.877	1656
376.959	1868
377.041	1411
377.123	1995
377.205	2944
377.287	1901
377.369	1079
377.452	1694
377.534	1797
377.616	1771
377.698	1099
377.780	1630
377.862	1146
377.944	2367
378.026	1072
378.108	1884
378.190	1829
378.272	1681
378.354	1543
378.436	1334
378.518	1070
378.600	3121
378.682	2680
378.764	2993
378.846	3331
378.928	2069
379.010	2132
379.091	1812
379.173	364
379.255	1776
379.337	1272
379.419	1972
379.501	4853
379.583	4045
379.664	1799
379.746	1898
379.828	2302
379.910	4332
379.991	4812
380.073	2195
380.155	717
380.237	1235
380.318	1357
380.400	1100
380.482	1490
380.564	1659
380.645	920
380.727	1695
380.809	1033
380.890	1265
380.972	547
381.053	1234
381.135	334
381.217	1888
381.298	2365
381.380	3201
381.461	707
381.543	4425
381.624	10983
381.706	3731
381.787	1400
381.869	2141
381.951	2451
382.032	11619
382.113	14612
382.195	2927
382.276	1895
382.358	2124
382.439	6252
382.521	8289
382.602	13714
382.684	8295
382.765	6300
382.846	9669
382.928	11151
383.009	10215
383.090	4909
383.172	12927
383.253	30555
383.334	14958
383.416	10738
383.497	9310
383.578	3711
383.659	5164
383.741	11444
383.822	38323
383.903	32965
383.984	7862
384.066	11206
384.147	10096
384.228	5055
384.309	3640
384.390	2966
384.471	4345
384.553	2233
384.634	2761
384.715	2512
384.796	2747
384.877	1792
384.958	3920
385.039	5088
385.120	3637
385.201	1835
385.282	1723
385.363	2927
385.444	3776
385.525	3446
385.606	6160
385.687	8489
385.768	4582
385.849	2597
385.930	6061
386.011	16113
386.092	8100
386.173	3882
386.254	3002
386.335	3253
386.416	3341
386.496	3619
386.577	5224
386.658	4619
386.739	4074
386.820	3545
386.901	3795
386.981	3979
387.062	3727
387.143	5146
387.224	6463
387.304	8513
387.385	6803
387.466	5751
387.547	6898
387.627	6967
387.708	7052
387.789	8205
387.869	12459
387.950	7857
388.031	5171
388.111	3195
388.192	5565
388.273	6287
388.353	5593
388.434	3422
388.514	3457
388.595	6205
388.676	11544
388.756	6381
388.837	4114
388.917	3565
388.998	2672
389.078	2700
389.159	2895
389.239	2244
389.320	3449
389.400	1992
389.480	2633
389.561	4077
389.641	5702
389.722	2657
389.802	2228
389.883	2898
389.963	6042
390.043	5948
390.124	2958
390.204	2635
390.284	4890
390.365	3220
390.445	4036
390.525	7190
390.605	5573
390.686	3515
390.766	2419
390.846	2610
390.927	2016
391.007	2258
391.087	3095
391.167	2331
391.247	2627
391.328	3694
391.408	4264
391.488	3888
391.568	2991
391.648	2792
391.728	3689
391.808	3744
391.888	4514
391.969	4827
392.049	6646
392.129	6130
392.209	5625
392.289	8930
392.369	8563
392.449	8279
392.529	8671
392.609	7693
392.689	9337
392.769	11997
392.849	16431
392.929	16153
393.009	24631
393.089	33619
393.169	47899
393.248	93031
393.328	184611
393.408	222558
393.488	157955
393.568	77293
393.648	40994
393.728	25382
393.807	17688
393.887	13020
393.967	10442
394.047	8676
394.127	7541
394.206	7262
394.286	8157
394.366	25098
394.446	53706
394.525	17910
394.605	6752
394.685	5192
394.764	6192
394.844	10382
394.924	19422
395.003	9154
395.083	4662
395.163	3581
395.242	3514
395.322	3342
395.402	3276
395.481	3807
395.561	4661
395.640	13746
395.720	32474
395.799	27504
395.879	15863
395.958	7066
396.038	8823
396.117	32647
396.197	69954
396.276	26863
396.356	13064
396.435	12290
396.515	14814
396.594	18934
396.673	34154
396.753	75552
396.832	168918
396.912	183743
396.991	93002
397.070	38188
397.150	20187
397.229	15029
397.308	17199
397.388	42524
397.467	34589
397.546	10783
397.625	5987
397.705	5870
397.784	5065
397.863	3358
397.942	3680
398.022	2920
398.101	2811
398.180	8964
398.259	8135
398.338	3474
398.417	2824
398.497	2350
398.576	2554
398.655	1425
398.734	2166
398.813	1860
398.892	2786
398.971	6931
399.050	8303
399.129	1785
399.208	1648
399.287	1962
399.366	905
399.445	1103
399.524	1826
399.603	1497
399.682	1456
399.761	1815
399.840	6261
399.919	10392
399.998	2761
400.077	1267
400.156	1106
400.235	1439
400.313	882
400.392	689
400.471	1530
400.550	2824
400.629	1919
400.708	1011
400.786	1097
400.865	897
400.944	2287
401.023	2199
401.102	634
401.180	357
401.259	1110
401.338	630
401.416	1521
401.495	41
401.574	1096
401.652	-86
401.731	1094
401.810	938
401.888	730
401.967	22
402.046	477
402.124	761
402.203	1057
402.281	612
402.360	894
402.438	1263
402.517	1971
402.596	720
402.674	620
402.753	46
402.831	773
402.910	110
402.988	435
403.066	1048
403.145	1812
403.223	431
403.302	1288
403.380	1669
403.459	1157
403.537	900
403.615	1088
403.694	592
403.772	1763
403.850	1117
403.929	843
404.007	-411
404.085	1019
404.164	24
404.242	195
404.320	1014
404.398	3629
404.477	4423
404.555	6035
404.633	10938
404.711	4867
404.789	2823
404.868	1022
404.946	198
405.024	300
405.102	477
405.180	1086
405.258	-256
405.336	703
405.415	-661
405.493	799
405.571	1193
405.649	-237
405.727	-92
405.805	1302
405.883	1055
405.961	1562
406.039	743
406.117	-87
406.195	496
406.273	-5
406.351	4515
406.429	6980
406.507	1130
406.585	498
406.663	703
406.740	133
406.818	-7
406.896	268
406.974	52
407.052	272
407.130	1999
407.208	5545
407.285	2294
407.363	686
407.441	-53
407.519	429
407.596	198
407.674	1874
407.752	7789
407.830	14952
407.907	4184
407.985	1068
408.063	654
408.141	-108
408.218	207
408.296	295
408.373	503
408.451	841
408.529	999
408.606	1203
408.684	1447
408.762	925
408.839	1243
408.917	1039
408.994	1042
409.072	1601
409.149	2448
409.227	4067
409.304	6662
409.382	8261
409.459	9350
409.537	11976
409.614	13336
409.692	10681
409.769	7916
409.846	11384
409.924	15301
410.001	13651
410.079	9223
410.156	7322
410.233	4854
410.311	4112
410.388	2442
410.465	2502
410.543	2296
410.620	2660
410.697	2601
410.775	3440
410.852	2007
410.929	2637
411.006	2357
411.083	2169
411.161	1539
411.238	2720
411.315	2149
411.392	1209
411.469	1790
411.547	2460
411.624	1214
411.701	1707
411.778	1131
411.855	963
411.932	309
412.009	1033
412.086	-68
412.163	1208
412.240	720
412.317	614
412.394	361
412.471	1598
412.548	841
412.625	808
412.702	541
412.779	1354
412.856	326
412.933	631
413.010	-188
413.087	284
413.164	214
413.241	1569
413.318	201
413.395	1301
413.471	-15
413.548	1087
413.625	314
413.702	110
413.779	867
413.855	557
413.932	73
414.009	232
414.086	57
414.162	1144
414.239	-103
414.316	385
414.393	1825
414.469	1873
414.546	182
414.623	10
414.699	-398
414.776	412
414.853	-183
414.929	341
415.006	-385
415.082	429
415.159	154
415.236	334
415.312	113
415.389	-279
415.465	-358
415.542	-183
415.618	-459
415.695	259
415.771	-282
415.848	419
415.924	-45
416.000	400
416.077	-9
416.153	802
416.230	-603
416.306	209
416.383	23
416.459	536
416.535	281
416.612	449
416.688	-39
416.764	208
416.841	-641
416.917	535
416.993	-134
417.069	507
417.146	-616
417.222	-58
417.298	-158
417.374	143
417.451	-9
417.527	146
417.603	-904
417.679	-126
417.755	-32
417.831	161
417.908	-397
417.984	368
418.060	-151
418.136	619
418.212	366
418.288	652
418.364	61
418.440	-271
418.516	-384
418.592	518
418.668	218
418.744	448
418.820	145
418.896	946
418.972	-353
419.048	995
419.124	409
419.200	434
419.276	-107
419.352	343
419.428	538
419.504	-61
419.579	1025
419.655	1132
419.731	108
419.807	1362
419.883	740
419.959	1067
420.034	1342
420.110	1333
420.186	1408
420.262	3323
420.337	2137
420.413	1130
420.489	2503
420.565	2906
420.640	1513
420.716	2512
420.792	2089
420.867	3587
420.943	2696
421.019	2878
421.094	3234
421.170	4342
421.245	2812
421.321	4928
421.397	4771
421.472	6443
421.548	9582
421.623	13823
421.699	8820
421.774	8765
421.850	9363
421.925	12255
422.001	13500
422.076	17174
422.152	20862
422.227	26875
422.302	34375
422.378	45543
422.453	62831
422.529	84936
422.604	99920
422.679	82381
422.755	77937
422.830	96946
422.905	86428
422.981	67072
423.056	49983
423.131	40563
423.207	29682
423.282	23900
423.357	19553
423.432	15729
423.508	14064
423.583	11815
423.658	10315
423.733	9387
423.808	7697
423.883	7835
423.959	7109
424.034	8447
424.109	9064
424.184	6819
424.259	4357
424.334	5104
424.409	4043
424.484	3196
424.559	3179
424.634	2481
424.709	2985
424.784	3099
424.859	2506
424.934	1915
425.009	2280
425.084	3079
425.159	2400
425.234	2428
425.309	1234
425.384	1635
425.459	2834
425.534	3130
425.609	1002
425.683	1778
425.758	855
425.833	1836
425.908	1080
425.983	330
426.058	2188
426.132	2163
426.207	289
426.282	1634
426.357	697
426.431	428
426.506	1153
426.581	428
426.655	749
426.730	1371
426.805	747
426.879	132
426.954	111
427.029	365
427.103	758
427.178	4000
427.253	4665
427.327	1804
427.402	-773
427.476	2436
427.551	2128
427.625	827
427.700	682
427.774	221
427.849	-59
427.923	1028
427.998	494
428.072	909
428.147	1969
428.221	7161
428.296	35771
428.370	49524
428.444	11255
428.519	3503
428.593	2166
428.667	3238
428.742	2258
428.816	4539
428.890	13780
428.965	50598
429.039	30647
429.113	6465
429.188	3446
429.262	1402
429.336	492
429.410	1591
429.485	1590
429.559	1096
429.633	2155
429.707	1944
429.781	2955
429.855	14061
429.930	46286
430.004	28417
430.078	11926
430.152	17790
430.226	41716
430.300	81235
430.374	38033
430.448	10029
430.522	5246
430.596	7596
430.670	10090
430.744	21103
430.818	54604
430.892	24155
430.966	4131
431.040	1743
431.114	108
431.188	1066
431.262	454
431.336	484
431.410	1115
431.484	988
431.557	1946
431.631	1462
431.705	1019
431.779	5760
431.853	29825
431.927	51981
432.000	15721
432.074	3375
432.148	313
432.222	961
432.295	-23
432.369	143
432.443	-442
432.516	933
432.590	3192
432.664	4365
432.737	-579
432.811	-547
432.885	-19
432.958	-306
433.032	-575
433.106	-476
433.179	-890
433.253	287
433.326	-679
433.400	182
433.473	-377
433.547	-440
433.620	-155
433.694	-962
433.767	-372
433.841	210
433.914	-782
433.988	-40
434.061	-445
434.134	52
434.208	-845
434.281	-801
434.355	-418
434.428	-353
434.501	-160
434.575	-355
434.648	-366
434.721	-201
434.795	-1376
434.868	110
434.941	87
435.014	10
435.088	-160
435.161	119
435.234	55
435.307	617
435.381	1400
435.454	1505
435.527	3414
435.600	7282
435.673	6205
435.746	4938
435.819	3483
435.892	2834
435.966	1976
436.039	1438
436.112	1261
436.185	493
436.258	-253
436.331	-167
436.404	-281
436.477	-496
436.550	-374
436.623	412
436.696	-338
436.769	-156
436.842	-13
436.915	17
436.987	-185
437.060	30
437.133	-645
437.206	-404
437.279	492
437.352	-258
437.425	-171
437.498	-95
437.570	-320
437.643	-221
437.716	-293
437.789	-521
437.861	119
437.934	-214
438.007	-262
438.080	-377
438.152	-459
438.225	-139
438.298	62
438.370	6446
438.443	7279
438.516	705
438.588	-269
438.661	-227
438.734	-130
438.806	191
438.879	-48
438.951	361
439.024	163
439.096	295
439.169	34
439.241	592
439.314	-952
439.386	235
439.459	196
439.531	-483
439.604	-939
439.676	418
439.749	-51
439.821	3
439.893	169
439.966	-173
440.038	-94
440.110	347
440.183	-487
440.255	-874
440.327	-167
440.400	642
440.472	2497
440.544	4901
440.617	798
440.689	643
440.761	-165
440.833	929
440.905	301
440.978	169
441.050	-284
441.122	473
441.194	84
441.266	308
441.338	-4
441.411	798
441.483	343
441.555	2512
441.627	1577
441.699	400
441.771	540
441.843	320
441.915	372
441.987	1041
442.059	615
442.131	1114
442.203	1916
442.275	2308
442.347	3500
442.419	6999
442.491	19892
442.563	71500
442.635	74167
442.706	24216
442.778	9293
442.850	4764
442.922	2857
442.994	2916
443.066	2821
443.137	4474
443.209	5197
443.281	6735
443.353	12340
443.425	28409
443.496	82418
443.568	136889
443.640	105435
443.711	41118
443.783	13745
443.855	7683
443.926	4560
443.998	3479
444.070	2908
444.141	2594
444.213	2092
444.285	2320
444.356	1655
444.428	1427
444.499	1281
444.571	1599
444.642	2023
444.714	2089
444.785	1747
444.857	2358
444.928	3740
445.000	4822
445.071	4347
445.143	7101
445.214	8000
445.285	12228
445.357	23810
445.428	55750
445.500	125280
445.571	137566
445.642	119367
445.714	70892
445.785	28207
445.856	12374
445.928	6523
445.999	5015
446.070	2875
446.141	2196
446.213	2304
446.284	946
446.355	1568
446.426	1873
446.497	1113
446.569	1143
446.640	1227
446.711	1193
446.782	62
446.853	611
446.924	745
446.995	118
447.066	-678
447.138	824
447.209	607
447.280	220
447.351	-453
447.422	85
447.493	-523
447.564	600
447.635	-25
447.706	-305
447.777	-723
447.847	-165
447.918	-468
447.989	-45
448.060	-369
448.131	259
448.202	816
448.273	-96
448.344	-431
448.414	212
448.485	-468
448.556	314
448.627	-745
448.698	741
448.768	-71
448.839	-418
448.910	-627
448.981	716
449.051	-203
449.122	-151
449.193	-494
449.263	108
449.334	-853
449.405	-360
449.475	97
449.546	316
449.616	-50
449.687	1323
449.758	371
449.828	-445
449.899	-22
449.969	-230
450.040	-832
450.110	133
450.181	-261
450.251	-287
450.322	-381
450.392	89
450.463	-584
450.533	-607
450.604	-429
450.674	258
450.744	-142
450.815	-47
450.885	308
450.955	1082
451.026	763
451.096	299
451.166	450
451.237	572
451.307	1501
451.377	2149
451.447	139
451.518	-193
451.588	1021
451.658	643
451.728	-65
451.799	823
451.869	2186
451.939	1112
452.009	351
452.079	-154
452.149	-246
452.219	658
452.289	959
452.360	2676
452.430	344
452.500	906
452.570	996
452.640	3409
452.710	9698
452.780	22079
452.850	19768
452.920	10037
452.990	4767
453.060	2974
453.129	1810
453.199	1036
453.269	1166
453.339	5239
453.409	9339
453.479	5237
453.549	8422
453.619	11006
453.688	7954
453.758	1733
453.828	-581
453.898	700
453.968	-298
454.037	581
454.087	202
454.107	41
454.168	328
454.177	362
454.247	-48
454.249	-53
454.316	-385
454.330	-389
454.386	-442
454.411	-222
454.456	72
454.492	864
454.525	1560
454.574	1348
454.595	1263
454.655	-567
454.665	-878
454.734	588
454.736	569
454.804	-855
454.817	-547
454.873	623
454.898	1118
454.943	1914
454.979	1502
455.013	1153
455.060	269
455.082	-97
455.141	366
455.152	420
455.221	426
455.222	462
455.291	2149
455.303	2059
455.360	1636
455.384	2042
455.430	2493
455.465	2547
455.499	2612
455.546	2151
455.569	1928
455.627	1734
455.638	1706
455.707	795
455.708	799
455.777	-169
455.789	-114
455.846	225
455.869	238
455.916	273
455.950	590
455.985	883
456.031	218
456.054	-132
456.112	292
456.124	371
456.193	230
456.193	220
456.262	645
456.274	774
456.332	1159
456.355	1057
456.401	976
456.436	779
456.470	544
456.516	750
456.540	834
456.597	318
456.609	179
456.678	282
456.678	275
456.747	650
456.759	712
456.817	754
456.840	520
456.886	174
456.920	894
456.955	1482
457.001	937
457.024	746
457.082	1113
457.093	1145
457.162	862
457.163	873
457.232	1722
457.243	1659
457.301	1396
457.324	1505
457.370	1737
457.405	1690
457.439	1583
457.485	2097
457.508	2419
457.566	2235
457.577	2221
457.646	4465
457.647	4479
457.715	7836
457.727	8985
457.784	19806
457.808	25458
457.853	31932
457.889	43116
457.922	44117
457.969	36633
457.991	40169
458.050	38128
458.060	39224
458.129	57768
458.130	58712
458.198	62637
458.211	61631
458.267	52794
458.292	39629
458.336	27892
458.372	20808
458.405	18756
458.453	23445
458.474	30968
458.533	55770
458.543	58110
458.611	89996
458.614	91692
458.680	76537
458.694	66079
458.749	47165
458.775	33567
458.818	18190
458.855	13173
458.887	9267
458.936	6852
458.955	6054
459.016	4210
459.024	3969
459.093	3804
459.097	3724
459.162	2747
459.177	2749
459.230	2677
459.257	2700
459.299	2557
459.338	2675
459.368	2807
459.418	2584
459.437	2461
459.499	2145
459.505	2126
459.574	1854
459.579	1841
459.643	1883
459.659	2019
459.711	2125
459.740	2234
459.780	2390
459.820	2327
459.849	2440
459.900	2545
459.917	2427
459.981	2142
459.986	2127
460.054	1449
460.061	1478
460.123	2300
460.141	2381
460.191	2279
460.222	2239
460.260	2153
460.302	2192
460.328	2212
460.382	2362
460.397	2447
460.462	2475
460.465	2508
460.534	4067
460.543	4189
460.602	10683
460.623	13172
460.671	24056
460.703	32385
460.739	28814
460.783	28066
460.808	25686
460.864	11012
460.876	10359
460.944	3829
460.945	3755
461.013	2343
461.024	2253
461.081	1412
461.104	1383
461.150	2035
461.184	2272
461.218	2266
461.264	2021
461.286	1874
461.345	2070
461.355	2104
461.423	1958
461.425	1959
461.491	2003
461.505	2065
461.559	2518
461.585	2387
461.628	2708
461.665	3451
461.696	3772
461.745	4379
461.764	4108
461.825	2937
461.832	2926
461.901	2792
461.905	2739
461.969	1624
461.985	1537
462.037	1885
462.065	1859
462.105	1790
462.145	2124
462.173	2464
462.225	2681
462.241	2754
462.305	3575
462.310	3572
462.378	3177
462.385	3152
462.446	2734
462.465	2368
462.514	1903
462.545	2039
462.582	2112
462.625	1879
462.650	1929
462.705	2155
462.718	2083
462.785	1705
462.786	1717
462.854	2861
462.865	2877
462.922	2050
462.945	2062
462.990	2369
463.025	2315
463.058	2305
463.104	2306
463.126	2276
463.184	2260
463.194	2274
463.262	2289
463.264	2288
463.330	2199
463.344	2202
463.398	2649
463.424	2785
463.466	2338
463.504	2065
463.533	2175
463.583	2091
463.601	2149
463.663	2720
463.669	2716
463.737	2427
463.743	2426
463.805	2887
463.823	2881
463.873	3645
463.903	4321
463.940	4883
463.982	5452
464.008	4741
464.062	3094
464.076	2992
464.142	2217
464.144	2215
464.211	2459
464.221	2442
464.279	2332
464.301	2357
464.347	2721
464.381	3028
464.414	2754
464.461	2343
464.482	2388
464.540	2493
464.550	2488
464.617	2543
464.620	2529
464.685	2394
464.699	2455
464.753	2507
464.779	2377
464.820	2519
464.859	2904
464.888	3031
464.938	2997
464.956	2944
465.018	2682
465.023	2686
465.091	2799
465.098	2815
465.158	2656
465.177	2559
465.226	2807
465.257	2984
465.293	2763
465.336	2485
465.361	2694
465.416	3209
465.428	3250
465.495	3282
465.496	3296
465.563	4801
465.575	5034
465.631	5584
465.654	5868
465.698	4490
465.734	3196
465.765	3351
465.813	3624
465.833	3228
465.893	1998
465.900	2028
465.968	2386
465.972	2392
466.035	2480
466.052	2551
466.102	2415
466.131	2293
466.170	2539
466.210	2804
466.237	2756
466.290	2622
466.304	2661
466.369	2828
466.372	2837
466.439	2966
466.449	2985
466.506	3303
466.528	3381
466.573	3072
466.607	2848
466.641	4121
466.687	5912
466.708	6495
466.766	8039
466.775	7519
466.842	3576
466.845	3383
466.909	3152
466.925	3081
466.977	3603
467.004	3918
467.044	3770
467.083	3578
467.111	3516
467.163	3407
467.178	3477
467.242	3728
467.245	3767
467.312	4454
467.321	4539
467.379	3951
467.400	3724
467.446	4262
467.480	4643
467.559	4080
467.638	3548
467.717	2992
467.796	3888
467.875	4022
467.955	4858
468.034	4958
468.113	9315
468.192	12382
468.271	9980
468.350	11670
468.429	17460
468.508	20717
468.588	13273
468.667	8162
468.746	6725
468.825	5065
468.904	4997
468.983	4017
469.062	5048
469.141	4896
469.220	4169
469.299	3906
469.378	3827
469.456	3932
469.535	4191
469.614	3307
469.693	3445
469.772	3725
469.851	4752
469.930	4443
470.009	4205
470.088	3494
470.166	3453
470.245	3770
470.324	4500
470.403	3419
470.482	4225
470.560	4055
470.639	3038
470.718	4133
470.797	4356
470.875	3662
470.954	3589
471.033	4147
471.111	2676
471.190	3220
471.269	3606
471.347	3099
471.426	3808
471.505	2953
471.583	2932
471.662	3271
471.740	3255
471.819	3069
471.898	3193
471.976	3706
472.055	3023
472.133	3739
472.212	4550
472.290	3890
472.369	3076
472.447	3389
472.526	2978
472.604	3145
472.683	2943
472.761	2658
472.839	3693
472.918	3610
472.996	3290
473.075	3218
473.153	3759
473.231	3204
473.310	4298
473.388	3784
473.466	3581
473.545	3142
473.623	3833
473.701	3790
473.780	3303
473.858	3633
473.936	3697
474.014	2912
474.093	4396
474.171	5164
474.249	5365
474.327	3272
474.405	3339
474.484	3601
474.562	3971
474.640	3232
474.718	3733
474.796	3492
474.874	3416
474.952	2341
475.030	3345
475.108	2832
475.187	2978
475.265	3341
475.343	2918
475.421	3218
475.499	2758
475.577	2907
475.655	3890
475.733	4586
475.811	5944
475.889	5870
475.966	5410
476.044	3281
476.122	3826
476.200	2633
476.278	3170
476.356	2884
476.434	3111
476.512	3666
476.590	3339
476.667	3217
476.745	3354
476.823	3057
476.901	3700
476.979	3889
477.056	3353
477.134	2807
477.212	2736
477.290	3042
477.367	3839
477.445	3287
477.523	3286
477.601	2559
477.678	3535
477.756	3056
477.834	3455
477.911	3670
477.989	2786
478.066	2947
478.144	3677
478.222	2939
478.299	3428
478.377	3231
478.454	4139
478.532	3605
478.609	2390
478.687	3484
478.764	3277
478.842	3556
478.919	3784
478.997	2962
479.074	3173
479.152	3306
479.229	3919
479.307	3241
479.384	3139
479.461	3209
479.539	2913
479.616	3604
479.694	3461
479.771	3203
479.848	2634
479.926	3530
480.003	3988
480.080	2917
480.157	3389
480.235	3802
480.312	3590
480.389	2930
480.467	3695
480.544	4495
480.621	3823
480.698	3642
480.775	4856
480.853	4241
480.930	3568
481.007	3589
481.084	4560
481.161	6367
481.238	4741
481.315	3388
481.392	3319
481.470	3731
481.547	3621
481.624	3738
481.701	3478
481.778	4216
481.855	4890
481.932	5423
482.009	7054
482.086	6124
482.163	5898
482.240	6764
482.317	6230
482.393	5840
482.470	5770
482.547	5127
482.624	5251
482.701	4096
482.778	4992
482.855	4756
482.932	5247
483.009	4971
483.085	6309
483.162	7177
483.239	7786
483.316	7048
483.393	7256
483.469	5510
483.546	5059
483.623	4394
483.699	4125
483.776	3635
483.853	4836
483.930	3761
484.006	6481
484.083	10011
484.160	6841
484.236	6818
484.313	6432
484.389	5159
484.466	6194
484.543	7158
484.619	9670
484.696	11594
484.772	8378
484.849	6227
484.925	5444
485.002	4648
485.078	4272
485.155	4561
485.231	4784
485.308	3909
485.384	4780
485.461	4297
485.537	5385
485.614	7175
485.690	4105
485.766	3272
485.843	4255
485.919	4444
485.995	4758
486.072	4581
486.148	4813
486.224	3575
486.301	4504
486.377	4489
486.453	4715
486.530	4634
486.606	5051
486.682	4359
486.758	5196
486.835	6788
486.911	5313
486.987	7490
487.063	7902
487.139	7564
487.215	8851
487.292	8436
487.368	8899
487.444	11596
487.520	17257
487.596	27184
487.672	52203
487.748	170271
487.824	345104
487.900	135400
487.976	33850
488.052	16949
488.128	12031
488.204	8451
488.280	7077
488.356	6329
488.432	8381
488.508	10880
488.584	6171
488.660	5473
488.736	5693
488.812	3694
488.888	4426
488.964	4347
489.039	5750
489.115	8808
489.191	5924
489.267	4410
489.343	4006
489.418	3289
489.494	3637
489.570	3352
489.646	4164
489.722	4192
489.797	3920
489.873	5500
489.949	7273
490.024	6513
490.100	4421
490.176	3452
490.251	4571
490.327	4413
490.403	3960
490.478	3918
490.554	3484
490.629	3443
490.705	2689
490.781	2805
490.856	3768
490.932	3707
491.007	3697
491.083	2488
491.158	4074
491.234	3561
491.309	6082
491.385	6248
491.460	3653
491.536	3029
491.611	3934
491.686	3002
491.762	3664
491.837	4054
491.913	5965
491.988	6793
492.063	9087
492.139	5162
492.214	4244
492.289	2270
492.365	3046
492.440	2192
492.515	3224
492.590	2553
492.666	2713
492.741	2619
492.816	4672
492.891	2553
492.967	3573
493.042	2673
493.117	3229
493.192	3592
493.267	3263
493.342	6484
493.418	10328
493.493	3411
493.568	2410
493.643	2624
493.718	3092
493.793	2586
493.868	3240
493.943	2978
494.018	2665
494.093	2285
494.168	2295
494.243	2076
494.318	2278
494.393	2860
494.468	2916
494.543	2791
494.618	2323
494.693	3194
494.768	3295
494.842	2100
494.917	2901
494.992	1968
495.067	2865
495.142	1889
495.217	2943
495.292	2447
495.366	3034
495.441	2393
495.516	3447
495.591	3251
495.665	5792
495.740	12288
495.815	6784
495.890	2952
495.964	2050
496.039	3472
496.114	3403
496.188	4508
496.263	5136
496.338	2567
496.412	3109
496.487	2140
496.561	3342
496.636	3402
496.710	3974
496.785	3233
496.860	3204
496.934	2101
497.009	2802
497.083	2873
497.158	3005
497.232	3506
497.307	4246
497.381	2792
497.455	3388
497.530	3605
497.604	2951
497.679	2869
497.753	3584
497.827	5029
497.902	3827
497.976	4855
498.050	7800
498.125	30009
498.199	42064
498.273	6034
498.348	3271
498.422	2706
498.496	3687
498.570	3380
498.645	2696
498.719	2404
498.793	3657
498.867	4421
498.941	6086
499.016	10788
499.090	38549
499.164	17788
499.238	3280
499.312	3398
499.386	3228
499.460	3773
499.534	3167
499.609	2952
499.683	4220
499.757	4335
499.831	6124
499.905	21349
499.979	27501
500.053	4993
500.127	4802
500.201	3654
500.275	3621
500.349	3658
500.422	3004
500.496	3300
500.570	5249
500.644	10840
500.718	28375
500.792	8635
500.866	3483
500.940	4132
501.013	4047
501.087	3494
501.161	4526
501.235	4939
501.309	8034
501.382	20809
501.456	24109
501.530	5542
501.603	9377
501.677	5168
501.751	3448
501.825	3838
501.898	4737
501.972	9263
502.046	8615
502.119	1942
502.193	4250
502.266	10187
502.340	7034
502.413	5159
502.487	10056
502.561	6264
502.634	4179
502.708	3600
502.781	3105
502.855	3357
502.928	3457
503.002	2632
503.075	3295
503.149	2391
503.222	2903
503.295	3338
503.369	3487
503.442	4118
503.516	7284
503.589	17234
503.662	15836
503.736	7924
503.809	13406
503.882	15675
503.956	24105
504.029	39062
504.102	92394
504.175	180133
504.249	78675
504.322	25987
504.395	13874
504.468	8983
504.542	6030
504.615	4562
504.688	3653
504.761	4189
504.834	4102
504.907	3844
504.980	3407
505.053	2756
505.127	2437
505.200	3230
505.273	3077
505.346	2409
505.419	2349
505.492	2744
505.565	1868
505.638	1979
505.711	2392
505.784	2073
505.857	1800
505.930	1698
506.003	2324
506.076	2421
506.149	2630
506.221	2725
506.294	1955
506.367	3754
506.440	11859
506.513	8582
506.586	3033
506.659	2803
506.731	1724
506.804	1754
506.877	2174
506.950	2175
507.022	2220
507.095	1556
507.168	1744
507.241	1993
507.313	2387
507.386	1430
507.459	2010
507.531	1659
507.604	2450
507.677	1724
507.749	1285
507.822	1326
507.894	2275
507.967	2743
508.040	2363
508.112	1614
508.185	1628
508.257	1731
508.330	1947
508.402	1330
508.475	2206
508.547	1038
508.620	2753
508.692	2487
508.765	2148
508.837	1536
508.909	1414
508.982	1477
509.054	1182
509.127	1063
509.199	1235
509.271	1711
509.344	1293
509.416	1403
509.488	1712
509.560	611
509.633	1758
509.705	1242
509.777	1876
509.849	1917
509.922	1682
509.994	1635
510.066	1578
510.138	1150
510.210	2756
510.283	1552
510.355	1783
510.427	1542
510.499	1786
510.571	1320
510.643	1431
510.715	1216
510.787	2165
510.859	1068
510.931	1739
511.003	2403
511.076	2244
511.148	1943
511.219	1328
511.291	1941
511.363	3606
511.435	1660
511.507	1427
511.579	1554
511.651	1924
511.723	1349
511.795	1294
511.867	1501
511.939	1680
512.010	1967
512.082	3017
512.154	1492
512.226	1788
512.298	923
512.369	2694
512.441	2082
512.513	2400
512.585	1505
512.656	1775
512.728	1381
512.800	1884
512.871	1418
512.943	1944
513.015	1787
513.086	1645
513.158	1497
513.230	1915
513.301	2019
513.373	2867
513.444	1448
513.516	2368
513.588	1748
513.659	1731
513.731	1919
513.802	1652
513.874	1915
513.945	2699
514.016	1401
514.088	1876
514.159	1202
514.231	1570
514.302	1904
514.374	2012
514.445	1634
514.516	3262
514.588	2828
514.659	2290
514.730	2720
514.802	3011
514.873	869
514.944	2553
515.016	1660
515.087	1206
515.158	2256
515.229	3422
515.301	1232
515.372	1537
515.443	1793
515.514	2427
515.585	1568
515.656	1950
515.728	1270
515.799	1788
515.870	2171
515.941	1909
516.012	1069
516.083	2049
516.154	2179
516.225	2361
516.296	2135
516.367	2512
516.438	2522
516.509	3048
516.580	3636
516.651	6874
516.722	25842
516.793	17603
516.864	4055
516.935	4266
517.006	4470
517.077	5642
517.148	9264
517.219	26902
517.289	64960
517.360	18211
517.431	8918
517.502	3172
517.573	3704
517.643	3309
517.714	2371
517.785	3249
517.856	3279
517.926	3794
517.997	3474
518.068	5006
518.138	7065
518.209	9823
518.280	20745
518.350	88120
518.421	53468
518.492	13327
518.562	14934
518.633	21246
518.703	31355
518.774	62941
518.845	171261
518.915	219828
518.986	65741
519.056	24185
519.127	14542
519.197	12056
519.268	14818
519.338	14432
519.408	4617
519.479	4542
519.549	3786
519.620	4308
519.690	2700
519.760	2780
519.831	2392
519.901	2948
519.971	2566
520.042	2377
520.112	2505
520.182	2529
520.253	2605
520.323	2102
520.393	2450
520.463	4318
520.534	2145
520.604	4915
520.674	2843
520.744	3242
520.814	4592
520.885	4499
520.955	4332
521.025	13335
521.095	8899
521.165	2694
521.235	2587
521.305	1579
521.375	1785
521.445	2679
521.515	2005
521.585	2232
521.655	1896
521.725	2658
521.795	1897
521.865	1354
521.935	2568
522.005	2770
522.075	1818
522.145	2568
522.215	1628
522.285	2280
522.355	1970
522.424	4447
522.494	4865
522.564	2872
522.634	2535
522.704	6811
522.774	3435
522.843	2037
522.913	2074
522.983	2469
523.053	1959
523.122	2102
523.192	1514
523.262	3026
523.331	3538
523.401	1949
523.471	1765
523.540	2522
523.610	2229
523.680	3517
523.749	2505
523.819	3075
523.888	2311
523.958	2722
524.027	1982
524.097	2211
524.166	2499
524.236	2267
524.305	1862
524.375	2677
524.444	2074
524.514	3037
524.583	2295
524.653	3003
524.722	2620
524.791	2024
524.861	3113
524.930	1810
524.999	2552
525.069	3851
525.138	3019
525.207	3473
525.277	3042
525.346	3471
525.415	3151
525.484	4464
525.554	4236
525.623	5957
525.692	7182
525.761	8920
525.830	11750
525.900	18869
525.969	28432
526.038	58322
526.107	98411
526.176	321336
526.245	343446
526.314	96274
526.383	140217
526.452	269483
526.522	270097
526.591	388643
526.660	68186
526.729	34636
526.797	35704
526.867	50223
526.935	112171
527.004	414555
527.073	421426
527.142	61159
527.211	21149
527.280	12617
527.349	9278
527.418	7356
527.487	5101
527.555	4597
527.624	4423
527.693	4359
527.762	3507
527.831	3374
527.899	3562
527.968	3472
528.037	2114
528.106	3261
528.174	3616
528.243	4008
528.312	2690
528.380	4042
528.449	2950
528.518	3420
528.586	1634
528.655	2965
528.723	2931
528.792	1986
528.861	1746
528.929	1328
528.998	2109
529.066	2052
529.135	2970
529.203	2987
529.272	2273
529.340	4740
529.409	4526
529.477	3300
529.545	2881
529.614	4592
529.682	4005
529.751	4443
529.819	5480
529.887	4787
529.956	4399
530.024	4333
530.092	4033
530.161	4682
530.229	3720
530.297	4495
530.365	4508
530.434	4506
530.502	4418
530.570	4509
530.638	3519
530.707	4773
530.775	4294
530.843	4055
530.911	4142
530.979	4186
531.047	4350
531.115	4313
531.183	3778
531.252	4163
531.320	3323
531.388	4171
531.456	3933
531.524	4284
531.592	4795
531.660	5692
531.728	5320
531.796	4139
531.864	4327
531.932	4151
532.000	4180
532.067	4472
532.135	5284
532.203	5014
532.271	5782
532.339	5909
532.407	6496
532.475	6551
532.542	5778
532.610	5456
532.678	4823
532.746	8660
532.814	16657
532.881	9590
532.949	5361
533.017	5726
533.084	4611
533.152	5190
533.220	4473
533.287	5329
533.355	4998
533.423	5752
533.490	5472
533.558	5158
533.625	5214
533.693	6001
533.761	4671
533.828	4768
533.896	4911
533.963	6348
534.031	5984
534.098	6709
534.166	7301
534.233	6805
534.300	6832
534.368	7400
534.435	7128
534.503	8498
534.570	9266
534.637	11006
534.705	13800
534.772	17797
534.840	28645
534.907	106374
534.974	229946
535.041	38075
535.109	11647
535.176	8106
535.243	7604
535.310	7457
535.378	6677
535.445	6550
535.512	7461
535.579	6539
535.646	5928
535.714	6600
535.781	6306
535.848	6244
535.915	6242
535.982	5713
536.049	6999
536.116	7135
536.183	6131
536.250	5742
536.317	5768
536.384	5497
536.451	5758
536.518	6115
536.585	5286
536.652	8193
536.719	6406
536.786	6135
536.853	5698
536.920	6595
536.987	6295
537.053	6465
537.120	9517
537.187	11566
537.254	5946
537.321	6607
537.388	7291
537.454	6382
537.521	5816
537.588	5526
537.654	6371
537.721	6550
537.788	7028
537.855	6765
537.921	5747
537.988	6232
538.055	5486
538.121	5158
538.188	5224
538.254	5736
538.321	5916
538.388	6184
538.454	7009
538.521	7106
538.587	6289
538.654	6356
538.720	6248
538.787	6585
538.853	6248
538.920	6927
538.986	5430
539.053	5448
539.119	5638
539.185	6323
539.252	6057
539.318	6881
539.385	7226
539.451	6923
539.517	6528
539.583	6970
539.650	5873
539.716	9859
539.782	7365
539.849	5939
539.915	5648
539.981	5923
540.047	5498
540.114	6602
540.180	6073
540.246	6301
540.312	7077
540.378	7450
540.444	7988
540.510	7507
540.576	9274
540.643	8536
540.709	5734
540.775	6282
540.841	6612
540.907	6067
540.973	6384
541.039	7143
541.105	6641
541.171	7048
541.237	7170
541.303	7687
541.369	7360
541.435	6467
541.500	6520
541.566	6783
541.632	5941
541.698	5500
541.764	6832
541.830	6816
541.896	4826
541.961	6727
542.027	6719
542.093	6991
542.159	7318
542.224	6891
542.290	7517
542.356	7178
542.421	7575
542.487	7180
542.553	5195
542.618	6507
542.684	5864
542.750	6639
542.815	6379
542.881	6894
542.947	9522
543.012	10608
543.078	6779
543.143	5327
543.209	6648
543.274	6574
543.340	5523
543.405	6338
543.471	7916
543.536	7246
543.602	6240
543.667	6281
543.732	7013
543.798	5815
543.863	7041
543.928	5990
543.994	6468
544.059	6931
544.124	6827
544.190	7221
544.255	6677
544.320	7057
544.386	7110
544.451	8044
544.516	7208
544.581	7568
544.646	8355
544.712	10372
544.777	7323
544.842	6927
544.907	7989
544.972	7968
545.037	7899
545.102	7878
545.168	7436
545.233	8052
545.298	9193
545.363	9176
545.428	9144
545.493	9325
545.558	10998
545.623	11490
545.688	8979
545.753	8653
545.818	9848
545.883	9988
545.947	10150
546.012	11013
546.077	11104
546.142	11989
546.207	11020
546.272	12115
546.337	11384
546.401	13284
546.466	13201
546.531	13892
546.596	15119
546.661	16124
546.725	17386
546.790	18011
546.855	19063
546.919	20853
546.984	23627
547.049	24685
547.113	28295
547.178	31430
547.243	34583
547.307	40310
547.372	45174
547.436	45938
547.501	47877
547.565	51780
547.630	48962
547.695	45794
547.759	47264
547.823	47403
547.888	46765
547.952	49137
548.017	50394
548.081	52278
548.146	53679
548.210	52219
548.274	56274
548.339	58110
548.403	53223
548.468	50013
548.532	48325
548.596	49872
548.660	48507
548.725	53724
548.789	58019
548.853	57804
548.917	54280
548.982	54095
549.046	49815
549.110	44888
549.174	44691
549.238	48760
549.303	56238
549.367	58962
549.431	56942
549.495	53092
549.559	53263
549.623	58936
549.687	67017
549.751	64728
549.815	73027
549.879	80658
549.943	74490
550.007	78868
550.071	78997
550.135	74110
550.199	68150
550.263	68758
550.327	64075
550.391	64255
550.455	71198
550.519	76285
550.582	80021
550.646	86350
550.710	92805
550.774	91484
550.838	92529
550.901	95349
550.965	99844
551.029	105815
551.093	113202
551.156	122866
551.220	140554
551.284	161430
551.347	137113
551.411	108720
551.475	103292
551.538	101343
551.602	98313
551.666	90432
551.729	85774
551.793	83162
551.856	83987
551.920	81489
551.983	82209
552.047	81281
552.110	81063
552.174	80320
552.237	82926
552.301	80863
552.364	75009
552.428	72853
552.491	74256
552.554	79121
552.618	76584
552.681	79115
552.745	76172
552.808	76365
552.871	81017
552.934	79311
552.998	77896
553.061	75007
553.124	75304
553.187	72236
553.251	76638
553.314	76136
553.377	77214
553.440	81177
553.503	85349
553.567	89488
553.630	84878
553.693	83843
553.756	82428
553.819	84336
553.882	81582
553.945	81147
554.008	83004
554.071	82162
554.134	84168
554.197	81768
554.260	78753
554.323	79606
554.386	80608
554.449	81239
554.512	82532
554.575	80235
554.638	80014
554.701	79049
554.764	80281
554.827	77118
554.889	74710
554.952	72001
555.015	68532
555.078	69909
555.141	71699
555.203	69617
555.266	69982
555.329	69760
555.391	67179
555.454	66271
555.517	64252
555.580	62419
555.642	58352
555.705	58127
555.768	58383
555.830	57383
555.893	54881
555.955	53954
556.018	50750
556.080	51884
556.143	53873
556.206	53469
556.268	50970
556.330	51391
556.393	48353
556.455	47304
556.518	47105
556.580	46130
556.643	44380
556.705	43100
556.767	42485
556.830	43004
556.892	41047
556.955	40331
557.017	38998
557.079	39622
557.142	37089
557.204	36772
557.266	37357
557.328	37862
557.391	33390
557.453	33226
557.515	32530
557.577	32164
557.639	32593
557.701	33609
557.764	32841
557.826	32803
557.888	35301
557.950	37660
558.012	40511
558.074	47500
558.136	76372
558.198	206243
558.260	130886
558.322	39943
558.384	35413
558.446	38940
558.508	41365
558.570	46975
558.632	57162
558.694	72850
558.756	104289
558.818	207994
558.880	537191
558.942	341199
559.003	222890
559.065	174736
559.127	57942
559.189	50383
559.251	55109
559.312	70632
559.374	122205
559.436	358760
559.498	332107
559.559	76819
559.621	53019
559.683	57042
559.744	75925
559.806	170477
559.868	371347
559.929	138565
559.991	58265
560.052	71620
560.114	179257
560.176	193021
560.237	99852
560.299	210771
560.360	85235
560.422	24648
560.483	20248
560.545	18890
560.606	16682
560.667	16505
560.729	15243
560.790	14874
560.852	14862
560.913	14333
560.974	14666
561.036	13760
561.097	12979
561.158	13937
561.220	13228
561.281	12551
561.342	12487
561.403	13214
561.465	13055
561.526	13501
561.587	14429
561.648	12129
561.709	11353
561.771	11453
561.832	10870
561.893	11474
561.954	10839
562.015	11036
562.076	10724
562.137	10903
562.198	10668
562.259	10577
562.320	10051
562.381	10739
562.442	9647
562.503	11168
562.564	9743
562.625	9781
562.686	9885
562.747	9849
562.808	9931
562.869	9743
562.930	10722
562.991	9957
563.051	10097
563.112	10655
563.173	8962
563.234	8894
563.294	9133
563.355	9065
563.416	9055
563.477	9411
563.537	7539
563.598	9432
563.659	8581
563.720	9156
563.780	8697
563.841	9230
563.901	8149
563.962	8083
564.023	7854
564.083	9139
564.144	8173
564.204	8215
564.265	7982
564.325	8579
564.386	9471
564.446	9084
564.507	8182
564.567	8520
564.628	8243
564.688	8448
564.749	7818
564.809	9133
564.869	7763
564.930	8102
564.990	8017
565.050	8200
565.111	8556
565.171	8938
565.231	7636
565.292	8219
565.352	7751
565.412	8779
565.472	7379
565.532	8324
565.593	7582
565.653	7539
565.713	7519
565.773	8469
565.833	7484
565.893	9832
565.953	8330
566.013	8507
566.074	8263
566.134	8003
566.194	7760
566.254	8703
566.314	8559
566.374	8330
566.434	7795
566.494	7298
566.554	7733
566.614	8356
566.673	7666
566.733	8628
566.793	8383
566.853	8978
566.913	8626
566.973	7837
567.033	8596
567.092	8078
567.152	7338
567.212	8320
567.272	8232
567.331	8682
567.391	8634
567.451	9686
567.511	9512
567.570	10109
567.630	8121
567.690	8877
567.749	8777
567.809	8588
567.868	7618
567.928	8398
567.988	8557
568.047	9030
568.107	7880
568.166	8773
568.226	9269
568.285	9925
568.345	9469
568.404	9453
568.464	9610
568.523	9059
568.582	8597
568.642	9455
568.701	9033
568.761	8373
568.820	8827
568.879	9942
568.939	9508
568.998	9606
569.057	9089
569.116	9118
569.176	8932
569.235	9238
569.294	9046
569.353	7735
569.413	8073
569.472	8071
569.531	9490
569.590	8362
569.649	8209
569.708	8861
569.767	8802
569.827	9109
569.886	8205
569.945	8282
570.004	9157
570.063	8259
570.122	9171
570.181	9546
570.240	8880
570.299	8670
570.358	9686
570.417	8569
570.475	9281
570.534	10048
570.593	9387
570.652	9648
570.711	9066
570.770	9212
570.829	9744
570.887	9238
570.946	8925
571.005	9628
571.064	10237
571.122	9897
571.181	9131
571.240	8757
571.299	10065
571.357	9515
571.416	8992
571.475	10032
571.533	10438
571.592	10058
571.650	9619
571.709	10166
571.768	11458
571.826	12695
571.885	11741
571.943	10248
572.002	9719
572.060	10920
572.119	10063
572.177	9081
572.236	9710
572.294	9595
572.352	9132
572.411	11123
572.469	11154
572.528	9897
572.586	10335
572.644	9019
572.703	9674
572.761	9436
572.819	8598
572.877	9447
572.936	8630
572.994	9285
573.052	9165
573.110	8799
573.169	9456
573.227	9505
573.285	9443
573.343	9558
573.401	9374
573.459	9729
573.517	8397
573.576	9277
573.634	10034
573.692	10236
573.750	9896
573.808	10010
573.866	9133
573.924	9816
573.982	9040
574.040	10076
574.098	9416
574.155	8962
574.213	9303
574.271	9672
574.329	9733
574.387	9028
574.445	8830
574.503	9077
574.560	8501
574.618	8439
574.676	8776
574.734	8935
574.792	8706
574.849	8718
574.907	7872
574.965	7654
575.022	7190
575.080	7549
575.138	8150
575.195	7275
575.253	6399
575.311	6968
575.368	7673
575.426	7117
575.483	7718
575.541	7451
575.598	7332
575.656	8164
575.713	7153
575.771	8995
575.828	7762
575.886	7878
575.943	7744
576.001	7279
576.058	7090
576.115	7789
576.173	6702
576.230	7993
576.287	7787
576.345	8218
576.402	6945
576.459	8744
576.517	6835
576.574	8123
576.631	7273
576.688	7217
576.746	7443
576.803	6799
576.860	7292
576.917	7587
576.974	7135
577.031	7256
577.089	7197
577.146	6782
577.203	6736
577.260	7160
577.317	7205
577.374	7390
577.431	7340
577.488	7696
577.545	7337
577.602	6885
577.659	7237
577.716	7284
577.773	7276
577.830	7143
577.886	6382
577.943	7055
578.000	6547
578.057	7161
578.114	6620
578.171	7513
578.227	7385
578.284	6641
578.341	6951
578.398	7986
578.454	7599
578.511	7618
578.568	8210
578.625	7491
578.681	6905
578.738	7362
578.794	7010
578.851	7374
578.908	7600
578.964	7228
579.021	7822
579.077	8167
579.134	7529
579.190	7510
579.247	7425
579.303	8268
579.360	7312
579.416	8041
579.473	6813
579.529	7810
579.586	7493
579.642	7122
579.698	6883
579.755	8004
579.811	7805
579.867	8105
579.924	7550
579.980	8277
580.036	9084
580.093	9038
580.149	8963
580.205	9445
580.261	9681
580.317	9360
580.374	8924
580.430	8885
580.486	9503
580.542	8046
580.598	8401
580.619	8561
580.654	8841
580.692	8959
580.710	9024
580.765	9315
580.767	9325
580.823	8824
580.838	9078
580.879	9741
580.911	9852
580.935	9937
580.984	8893
580.991	8751
581.047	9442
581.057	9363
581.103	9022
581.130	9143
581.159	9259
581.203	9637
581.215	9739
581.270	9330
581.276	9333
581.326	9357
581.349	9417
581.382	9504
581.422	9575
581.438	9589
581.494	8881
581.494	8887
581.550	9514
581.567	9511
581.606	9447
581.640	9104
581.661	8932
581.713	9887
581.717	9955
581.773	10176
581.786	10061
581.829	9614
581.859	9773
581.885	9956
581.932	10171
581.940	10209
581.996	10574
582.004	10594
582.052	10662
582.077	10794
582.107	10901
582.150	10808
582.163	10795
582.219	10740
582.223	10687
582.274	9990
582.296	10446
582.330	11122
582.368	10916
582.386	10877
582.441	11509
582.441	11507
582.497	10939
582.514	11121
582.552	11484
582.587	11488
582.608	11496
582.659	11356
582.663	11354
582.719	11917
582.732	12064
582.774	12466
582.805	12365
582.830	12278
582.877	12531
582.885	12580
582.941	13417
582.950	13386
582.996	13377
583.023	13729
583.052	14154
583.095	14686
583.107	14730
583.162	15323
583.168	15392
583.218	15959
583.240	15015
583.273	13623
583.313	13868
583.328	13942
583.384	13214
583.385	13219
583.439	13570
583.458	13326
583.494	12879
583.531	12988
583.549	13070
583.603	13219
583.605	13225
583.660	13742
583.676	13621
583.715	13263
583.748	13513
583.770	13630
583.820	13395
583.825	13417
583.881	13564
583.893	13670
583.936	13775
583.965	14057
583.991	14352
584.038	14055
584.046	14031
584.101	13952
584.110	14091
584.156	14714
584.183	14945
584.211	15165
584.255	14899
584.266	14815
584.321	15612
584.328	15531
584.376	15407
584.400	15818
584.431	16144
584.472	15995
584.486	16036
584.541	16641
584.545	16689
584.596	17475
584.617	17619
584.651	17965
584.689	18261
584.706	18395
584.761	18646
584.762	18639
584.816	19453
584.834	19620
584.871	19769
584.906	19728
584.926	19817
584.978	19912
584.980	19944
585.035	21332
585.051	21812
585.090	22896
585.123	23452
585.145	24018
585.195	25874
585.200	26090
585.254	29072
585.267	29881
585.309	33215
585.340	36055
585.364	38576
585.412	44239
585.419	45098
585.473	52614
585.484	54635
585.528	65032
585.556	73726
585.583	87270
585.628	118955
585.637	131750
585.692	235675
585.700	258860
585.747	417150
585.772	445187
585.801	391445
585.845	252411
585.856	214311
585.910	98790
585.917	87329
585.965	61904
585.989	51266
586.019	45439
586.061	39102
586.074	37904
586.128	34184
586.133	33866
586.183	32243
586.205	31576
586.237	30892
586.277	30152
586.292	30213
586.346	30621
586.349	30591
586.401	30348
586.421	29741
586.455	28795
586.493	28860
586.509	29172
586.564	29461
586.565	29431
586.618	30569
586.637	30924
586.672	32925
586.709	35333
586.727	36319
586.781	39519
586.781	39582
586.835	38424
586.853	37707
586.889	34700
586.925	32225
586.944	31611
586.996	30026
586.998	30058
587.052	29683
587.068	29555
587.106	29684
587.140	29904
587.161	30044
587.212	29923
587.215	30016
587.269	30443
587.284	30674
587.323	31430
587.356	31889
587.377	32250
587.427	32862
587.431	32940
587.485	32973
587.499	32911
587.539	33467
587.571	33841
587.593	34417
587.643	35717
587.648	35887
587.702	36760
587.715	36978
587.755	37565
587.786	37586
587.810	37879
587.858	38340
587.864	38463
587.917	38658
587.930	38703
587.971	39236
588.001	39419
588.025	39502
588.073	39435
588.079	39522
588.133	39072
588.145	39005
588.187	39758
588.217	40205
588.241	40777
588.288	41222
588.295	41440
588.348	42872
588.360	43118
588.402	44327
588.431	45163
588.456	46110
588.503	47316
588.510	47640
588.564	50068
588.575	50491
588.617	53976
588.646	56358
588.671	58431
588.718	62492
588.725	63599
588.778	72087
588.789	73973
588.832	91201
588.861	105303
588.886	137498
588.932	203946
588.939	219566
588.993	346737
589.004	363966
589.047	306041
589.075	258597
589.100	198728
589.147	100596
589.154	97147
589.207	74093
589.218	69522
589.261	66819
589.290	64776
589.314	65280
589.361	67034
589.368	68186
589.421	76719
589.433	79000
589.475	105295
589.504	125153
589.528	168951
589.576	263524
589.582	268749
589.635	287434
589.647	286535
589.689	175237
589.718	103866
589.742	88840
589.790	61441
589.795	60974
589.849	55890
589.861	54630
589.902	53822
589.932	53116
589.955	52615
590.004	50776
590.009	50812
590.062	50031
590.075	49679
590.115	49043
590.146	48270
590.168	48334
590.218	48197
590.222	48379
590.275	49051
590.289	49128
590.328	50389
590.360	50972
590.381	51353
590.431	51805
590.435	51987
590.488	52617
590.503	52641
590.541	53477
590.574	53958
590.594	54471
590.645	55057
590.647	55269
590.700	56880
590.716	57182
590.753	58235
590.787	58662
590.806	59280
590.859	60802
590.859	60998
590.912	61834
590.930	62011
590.965	63243
591.001	63930
591.018	64109
591.071	64049
591.072	63852
591.124	63535
591.143	63109
591.177	62959
591.214	62469
591.230	63141
591.283	64920
591.285	64783
591.336	64439
591.356	64100
591.389	64557
591.427	64463
591.442	64361
591.495	63383
591.498	63121
591.547	64492
591.569	64823
591.600	65866
591.640	66707
591.653	66977
591.706	67178
591.711	67006
591.759	67740
591.782	67757
591.811	69746
591.853	72189
591.864	72828
591.917	74767
591.924	74813
591.969	74224
591.995	73511
592.022	73872
592.066	73832
592.075	74270
592.127	75559
592.137	75551
592.180	77377
592.208	78160
592.233	79359
592.279	80923
592.285	81436
592.338	83529
592.350	83726
592.390	83991
592.421	83716
592.443	84298
592.491	84727
592.495	85100
592.548	86426
592.562	86517
592.600	87813
592.633	88389
592.653	88362
592.704	87039
592.705	87573
592.775	89175
592.846	91035
592.916	94120
592.987	91305
593.058	93939
593.128	96196
593.199	97150
593.270	97472
593.341	98713
593.411	98695
593.482	102789
593.553	106447
593.623	106002
593.694	108192
593.764	111445
593.835	113255
593.906	112494
593.976	113923
594.047	118173
594.117	119178
594.188	126744
594.258	127264
594.329	125613
594.399	126750
594.470	130777
594.540	132904
594.611	138165
594.681	138548
594.751	138690
594.822	141979
594.892	145150
594.963	151449
595.033	154056
595.103	159076
595.174	160066
595.244	164919
595.314	168779
595.384	172013
595.455	173987
595.525	181258
595.595	188209
595.665	190674
595.736	187356
595.806	185813
595.876	190286
595.946	190972
596.016	194950
596.087	204303
596.157	205248
596.227	205893
596.297	211269
596.367	221114
596.437	235097
596.507	245029
596.577	239620
596.647	245032
596.717	252922
596.787	261267
596.857	260304
596.927	259501
596.997	263397
597.067	263163
597.137	266439
597.207	272345
597.277	272081
597.347	270412
597.417	260387
597.487	255580
597.557	259116
597.626	265219
597.696	270793
597.766	272675
597.836	268295
597.906	252978
597.975	246087
598.045	244260
598.115	251141
598.185	261441
598.254	284574
598.324	310337
598.394	323259
598.464	325439
598.533	314609
598.603	305989
598.672	289425
598.742	287512
598.812	293019
598.881	297097
598.951	299735
599.020	300363
599.090	308069
599.159	319592
599.229	314308
599.299	305647
599.368	309881
599.437	312835
599.507	301045
599.576	285173
599.646	282530
599.715	279342
599.785	279123
599.854	273958
599.924	269801
599.993	266847
600.062	271227
600.132	279578
600.201	281779
600.270	306667
600.340	339577
600.409	342780
600.478	338596
600.547	339890
600.617	345701
600.686	295385
600.755	263488
600.824	249444
600.894	242378
600.963	242325
601.032	243149
601.101	241968
601.170	234994
601.239	229895
601.308	226383
601.378	230330
601.447	230010
601.516	235682
601.585	237396
601.654	238847
601.723	242321
601.792	247042
601.861	255180
601.930	260981
601.999	266306
602.068	270527
602.137	266752
602.206	270185
602.275	275065
602.343	278581
602.412	279976
602.481	280653
602.550	284940
602.619	284690
602.688	292186
602.756	291196
602.825	297638
602.894	295836
602.963	304846
603.032	305717
603.100	312621
603.169	307327
603.238	312292
603.307	314450
603.375	309666
603.444	316616
603.513	319621
603.581	314419
603.650	324652
603.719	319939
603.787	304981
603.856	312751
603.924	317370
603.993	326112
604.061	333724
604.130	345344
604.198	353760
604.267	359692
604.335	364627
604.404	368068
604.472	372889
604.541	375691
604.609	380712
604.678	385289
604.746	387830
604.815	393425
604.883	400944
604.951	396886
605.020	399362
605.088	406347
605.156	399423
605.225	404176
605.293	407891
605.361	404829
605.429	407408
605.498	410861
605.566	419626
605.634	424504
605.702	441041
605.771	448722
605.839	463126
605.907	454872
605.975	445008
606.043	440866
606.111	432703
606.180	434310
606.248	437204
606.316	423139
606.384	426246
606.452	430864
606.520	412254
606.588	419677
606.656	427152
606.724	426890
606.792	412031
606.860	393156
606.928	356999
606.996	339874
607.064	328152
607.132	330130
607.200	337711
607.267	357606
607.335	359277
607.403	375827
607.471	371869
607.539	357126
607.607	359810
607.674	338876
607.742	317741
607.810	318538
607.878	316211
607.946	317522
608.013	327922
608.081	338973
608.149	342137
608.216	349110
608.284	359137
608.352	362896
608.419	365362
608.487	355095
608.555	348199
608.622	350745
608.690	361264
608.757	386634
608.825	410076
608.893	406204
608.960	395740
609.028	376113
609.095	368538
609.163	370847
609.230	359914
609.298	319976
609.365	317600
609.432	337907
609.500	358005
609.567	387460
609.635	431464
609.702	473824
609.769	475879
609.837	434635
609.904	346315
609.971	336312
610.039	342490
610.106	360729
610.173	424878
610.241	622219
610.308	811542
610.375	510562
610.442	388073
610.509	358763
610.577	349705
610.644	349683
610.711	354880
610.778	367356
610.845	370364
610.912	390241
610.980	406110
611.047	411900
611.114	409242
611.181	404363
611.248	395842
611.315	400685
611.382	418388
611.449	425925
611.516	440254
611.583	435212
611.650	436445
611.717	438419
611.784	440292
611.851	444416
611.918	457171
611.984	469821
612.051	510864
612.118	604260
612.185	832702
612.252	1046179
612.319	736366
612.386	562363
612.452	523511
612.519	496470
612.586	477482
612.653	478279
612.719	491315
612.786	495857
612.853	472476
612.919	454353
612.986	459266
613.053	450870
613.120	432785
613.186	412315
613.253	410357
613.319	409773
613.386	409895
613.453	413319
613.519	420171
613.586	414785
613.652	415506
613.719	413351
613.785	413017
613.852	421849
613.918	423617
613.985	418834
614.051	431218
614.118	437868
614.184	428638
614.250	414901
614.317	426416
614.383	424634
614.449	427944
614.516	430084
614.582	431409
614.648	430719
614.715	426076
614.781	424902
614.847	413245
614.914	420686
614.980	414309
615.046	407636
615.112	411878
615.179	422994
615.245	423535
615.311	423487
615.377	419921
615.443	430827
615.509	427894
615.575	436957
615.642	440573
615.708	440525
615.774	445731
615.840	461794
615.906	468362
615.972	485026
616.038	531264
616.104	656801
616.170	914951
616.236	1135519
616.302	881003
616.368	662836
616.434	583090
616.500	510961
616.565	493157
616.631	536095
616.697	569822
616.763	520221
616.829	541358
616.895	696156
616.961	876818
617.026	726786
617.092	519325
617.158	464609
617.224	452643
617.289	437111
617.355	414740
617.421	407317
617.487	406713
617.552	399247
617.618	388940
617.684	389131
617.749	392195
617.815	390029
617.880	377698
617.946	373396
618.012	375908
618.077	384595
618.143	383090
618.208	373694
618.274	383680
618.339	405246
618.405	381712
618.470	346220
618.536	353650
618.601	349601
618.667	342388
618.732	327148
618.798	319450
618.863	316714
618.928	312565
618.994	312007
619.059	311644
619.124	313072
619.190	312857
619.255	312873
619.320	311894
619.386	313847
619.451	311876
619.516	311277
619.581	309179
619.647	319468
619.712	323816
619.777	319302
619.842	311845
619.907	316760
619.972	318429
620.038	321427
620.103	317947
620.168	317242
620.233	315880
620.298	319242
620.363	321626
620.428	323429
620.493	331919
620.558	337325
620.623	337905
620.688	344139
620.753	339577
620.818	341286
620.883	344618
620.948	347449
621.013	342481
621.078	343470
621.143	340144
621.207	345471
621.272	342286
621.337	336986
621.402	333170
621.467	333140
621.532	329484
621.596	331901
621.661	333228
621.726	323795
621.791	327487
621.855	325471
621.920	327092
621.985	324503
622.049	332647
622.114	334116
622.179	334891
622.243	333573
622.308	343832
622.373	349392
622.437	353966
622.502	344562
622.566	338156
622.631	335322
622.695	337279
622.760	339720
622.824	337226
622.889	338924
622.953	339485
623.018	343503
623.082	356829
623.147	352811
623.211	352057
623.276	346447
623.340	348692
623.404	336014
623.469	335665
623.533	335272
623.597	333305
623.662	331810
623.726	325665
623.790	309765
623.854	298414
623.919	299742
623.983	302019
624.047	304760
624.111	305698
624.176	309502
624.240	308501
624.304	316199
624.368	312612
624.432	309229
624.496	313396
624.560	316610
624.625	324507
624.689	322180
624.753	325902
624.817	333517
624.881	315391
624.945	310952
625.009	291384
625.073	290411
625.137	292626
625.201	299348
625.265	308461
625.329	301083
625.393	295491
625.456	297068
625.520	300079
625.584	304327
625.648	310040
625.712	310417
625.776	317197
625.839	316756
625.903	295778
625.967	257106
626.031	255809
626.095	274254
626.158	302245
626.222	261458
626.286	232610
626.349	224396
626.413	216070
626.477	206410
626.540	206071
626.604	208566
626.668	207001
626.731	201635
626.795	202130
626.858	199925
626.922	199035
626.986	194632
627.049	193061
627.113	195898
627.176	196597
627.240	190090
627.303	187898
627.366	186345
627.430	184524
627.493	187756
627.557	183272
627.620	182315
627.684	183801
627.747	186989
627.810	184007
627.874	167688
627.937	157468
628.000	156436
628.064	159110
628.127	151686
628.190	143903
628.253	140644
628.317	137807
628.380	131962
628.443	128203
628.506	126101
628.569	124846
628.632	117551
628.696	115545
628.759	115244
628.822	111535
628.885	108988
628.948	108026
629.011	106031
629.074	104826
629.137	101815
629.200	98473
629.263	97283
629.326	94582
629.389	95303
629.452	94371
629.515	91274
629.578	90700
629.641	91166
629.704	91442
629.767	90247
629.830	88042
629.892	86982
629.955	84677
630.018	84020
630.081	84385
630.144	82998
630.207	83621
630.269	82115
630.332	81301
630.395	79116
630.458	78349
630.520	77905
630.583	75681
630.646	75093
630.708	75530
630.771	77760
630.834	77805
630.896	79300
630.959	78772
631.021	76859
631.084	74219
631.146	74465
631.209	77027
631.272	74716
631.334	75371
631.397	74470
631.459	75730
631.522	76527
631.584	77700
631.646	78046
631.709	81040
631.771	80293
631.834	78495
631.896	77540
631.958	74872
632.021	73602
632.083	71498
632.145	72377
632.208	70495
632.270	70412
632.332	69421
632.395	68624
632.457	69766
632.519	70175
632.581	68039
632.643	66925
632.706	69417
632.768	67489
632.830	67293
632.892	67434
632.954	69645
633.016	70448
633.078	69392
633.141	69397
633.203	68070
633.265	67904
633.327	66500
633.389	66317
633.451	67261
633.513	68541
633.575	67826
633.637	67898
633.698	69041
633.760	70199
633.822	72817
633.884	72150
633.946	73982
634.008	75775
634.070	75965
634.132	76128
634.193	77129
634.255	81889
634.317	84295
634.379	85147
634.441	82277
634.502	78740
634.564	73125
634.626	69954
634.687	67322
634.749	65905
634.811	65518
634.873	64539
634.934	64866
634.996	63761
635.057	64905
635.119	65223
635.181	67234
635.242	66467
635.304	64832
635.365	67204
635.427	66582
635.488	65940
635.550	65377
635.611	65816
635.673	64394
635.734	65920
635.796	68295
635.857	71073
635.918	73243
635.980	76307
636.041	80113
636.102	83142
636.164	85923
636.225	84161
636.286	80854
636.348	74803
636.409	70285
636.470	67727
636.531	66228
636.593	65778
636.654	63602
636.715	62954
636.776	62076
636.838	61400
636.899	61954
636.960	59020
637.021	60553
637.082	59393
637.143	57824
637.204	57659
637.265	57450
637.326	58356
637.387	58819
637.448	60183
637.509	57723
637.570	57814
637.631	58545
637.692	57018
637.753	55765
637.814	56239
637.875	56856
637.936	56937
637.997	55826
638.058	55274
638.119	55019
638.179	55500
638.240	55521
638.301	55840
638.362	56660
638.423	55161
638.483	54471
638.544	53834
638.605	52998
638.666	54414
638.726	54055
638.787	54741
638.848	53866
638.908	53853
638.969	53243
639.030	51371
639.090	51994
639.151	51916
639.211	52943
639.272	54246
639.332	53224
639.393	53040
639.453	52365
639.514	56150
639.574	53992
639.635	50449
639.695	49647
639.756	49820
639.816	49052
639.877	48552
639.937	49864
639.997	49215
640.058	49616
640.118	48561
640.178	49079
640.239	49752
640.299	48317
640.359	49929
640.420	49918
640.480	51993
640.540	54443
640.600	57342
640.661	57235
640.721	53437
640.781	55278
640.841	54398
640.901	52281
640.961	49648
641.021	49684
641.082	51250
641.142	51290
641.202	49125
641.262	48523
641.322	48321
641.382	48771
641.442	48457
641.502	48141
641.562	47182
641.622	48451
641.682	49786
641.742	51185
641.802	53742
641.861	50027
641.921	47110
641.981	45241
642.041	44818
642.101	44233
642.161	44729
642.221	43737
642.280	44772
642.340	44821
642.400	44473
642.460	46193
642.519	46597
642.579	45918
642.639	45991
642.698	45305
642.758	47482
642.818	46073
642.877	45555
642.937	45641
642.997	46043
643.056	47462
643.116	46115
643.175	46970
643.235	46041
643.294	46260
643.354	47741
643.414	48264
643.473	51538
643.532	52540
643.592	58743
643.651	68573
643.711	87172
643.770	127676
643.830	211302
643.889	425872
643.948	478090
644.008	168137
644.067	81028
644.126	61859
644.186	54810
644.245	50204
644.304	45880
644.363	45950
644.423	44302
644.482	43374
644.541	44989
644.600	45050
644.659	48341
644.719	51554
644.778	57730
644.837	72052
644.896	106655
644.955	192316
645.014	265614
645.073	91420
645.132	54991
645.191	49767
645.250	46648
645.309	45432
645.368	46694
645.427	50908
645.486	60371
645.545	95663
645.604	103085
645.663	48099
645.722	42398
645.781	44011
645.840	43585
645.898	46421
645.957	50999
646.016	60038
646.075	78738
646.134	116050
646.192	199369
646.251	407989
646.310	345540
646.369	109254
646.427	65181
646.486	59510
646.545	48302
646.603	43216
646.662	41973
646.721	39221
646.779	39163
646.838	37862
646.896	40321
646.955	42641
647.014	51221
647.072	69855
647.131	120314
647.189	220336
647.248	81556
647.306	40426
647.365	36673
647.423	34188
647.481	34759
647.540	32074
647.598	33070
647.657	32496
647.715	33308
647.773	31993
647.832	32300
647.890	30296
647.948	30907
648.007	29660
648.065	30039
648.123	28812
648.181	28830
648.240	28221
648.298	27901
648.356	28049
648.414	26991
648.472	27970
648.531	26829
648.589	27059
648.647	26337
648.705	26811
648.763	25375
648.821	26650
648.879	26358
648.937	27102
648.995	28392
649.053	30604
649.111	33566
649.169	41229
649.227	58182
649.285	92979
649.343	182543
649.401	331578
649.459	122934
649.516	44121
649.574	32231
649.632	30618
649.690	31070
649.748	32592
649.806	36544
649.863	50791
649.921	82415
649.979	176313
650.037	78568
650.094	28090
650.152	24567
650.210	22648
650.268	22428
650.325	22025
650.383	22340
650.440	21390
650.498	20226
650.556	19388
650.613	19496
650.671	19097
650.728	17621
650.786	20187
650.843	20301
650.901	23561
650.958	20017
651.016	18704
651.073	16728
651.131	17366
651.188	16961
651.246	16744
651.303	15879
651.360	16358
651.418	16078
651.475	16489
651.532	15428
651.590	16029
651.647	15860
651.704	15941
651.762	16005
651.819	15517
651.876	15402
651.933	15566
651.990	15243
652.048	14552
652.105	14506
652.162	14059
652.219	13584
652.276	14420
652.333	14161
652.390	14084
652.448	14649
652.505	14421
652.562	14705
652.619	14038
652.676	14162
652.733	14429
652.790	13590
652.847	12438
652.904	13543
652.961	12946
653.017	12128
653.074	12896
653.131	13423
653.188	12158
653.245	12988
653.302	13311
653.359	13840
653.415	13011
653.472	12400
653.529	13003
653.586	12514
653.642	12767
653.699	12477
653.756	11815
653.813	12241
653.869	13024
653.926	12293
653.983	12541
654.039	12030
654.096	12827
654.152	11958
654.209	12621
654.266	12070
654.322	11462
654.379	12569
654.435	11985
654.492	12420
654.548	11511
654.605	12310
654.661	13100
654.717	12419
654.774	12196
654.830	11926
654.887	11702
654.943	12682
655.000	11692
655.056	11708
655.112	11914
655.168	11794
655.225	12089
655.281	12326
655.337	12101
655.394	12319
655.450	12444
655.506	11413
655.562	11087
655.618	12516
655.675	11150
655.731	11478
655.787	11221
655.843	11671
655.899	10731
655.955	10944
656.011	12355
656.067	10773
656.123	11568
656.179	11342
656.235	10948
656.291	11256
656.347	11835
656.403	11612
656.459	11308
656.515	11542
656.571	11444
656.627	10448
656.683	10969
656.739	11064
656.795	11289
656.850	11316
656.906	10848
656.962	10745
657.018	10850
657.074	11633
657.129	13384
657.185	17441
657.241	24811
657.297	45200
657.352	20147
657.408	11543
657.464	11306
657.519	10476
657.575	9780
657.630	10624
657.686	10167
657.742	9263
657.797	9995
657.853	9310
657.908	11322
657.964	9874
658.019	9702
658.075	10285
658.130	10555
658.186	9480
658.241	9865
658.297	9613
658.352	9176
658.407	10893
658.463	9959
658.518	9940
658.573	9349
658.629	9312
658.684	9381
658.739	9713
658.795	9430
658.850	9522
658.905	9476
658.960	10161
659.016	8962
659.071	9587
659.126	10036
659.181	8621
659.236	9509
659.291	9345
659.346	9190
659.401	8770
659.457	9619
659.512	9936
659.567	10121
659.622	9540
659.677	8521
659.732	9068
659.787	9559
659.842	9671
659.897	8730
659.952	9106
660.007	10113
660.061	8611
660.116	9058
660.171	8809
660.226	8441
660.281	10207
660.336	8412
660.391	9191
660.445	8609
660.500	8423
660.555	8862
660.610	8597
660.664	9337
660.719	8332
660.774	8596
660.828	9423
660.883	8524
660.938	7919
660.992	8028
661.047	8366
661.101	8037
661.156	8103
661.211	7689
661.265	8237
661.320	8501
661.374	8616
661.429	8265
661.483	8469
661.538	8180
661.592	7844
661.647	8419
661.701	9285
661.755	9138
661.810	9060
661.864	7839
661.919	8224
661.973	8386
662.027	8496
662.081	7951
662.136	7801
662.190	8568
662.244	8208
662.299	8679
662.353	8065
662.407	7744
662.461	7872
662.515	8575
662.569	8103
662.624	8641
662.678	7710
662.732	8619
662.786	7561
662.840	7917
662.894	7613
662.948	7597
663.002	8159
663.056	8961
663.110	7552
663.164	7775
663.218	7949
663.272	8618
663.326	7739
663.380	7203
663.434	7311
663.488	7263
663.542	8859
663.595	7635
663.649	7977
663.703	8057
663.757	7741
663.811	6782
663.864	8053
663.918	7563
663.972	6636
664.026	8030
664.079	7772
664.133	8415
664.187	8844
664.240	8191
664.294	7975
664.348	8601
664.401	6988
664.455	7587
664.508	7586
664.562	7731
664.615	8307
664.669	7893
664.722	8066
664.776	7321
664.829	8066
664.883	7449
664.936	7104
664.990	7626
665.043	8236
665.097	7999
665.150	8654
665.203	7336
665.257	7819
665.310	8154
665.363	8584
665.417	8988
665.470	8264
665.523	7384
665.576	8649
665.630	7931
665.683	7659
665.736	7728
665.789	8520
665.842	8332
665.895	7457
665.949	7605
666.002	7247
666.055	7330
666.108	8109
666.161	8201
666.214	8671
666.267	8202
666.320	8198
666.373	8843
666.426	8634
666.479	7819
666.532	8098
666.585	8506
666.638	8376
666.691	7851
666.744	8511
666.796	8076
666.849	8835
666.902	8878
666.955	7743
667.008	8226
667.060	8795
667.113	8048
667.166	9123
667.219	8254
667.271	8894
667.324	9293
667.377	8211
667.430	8868
667.482	7579
667.535	7977
667.587	8314
667.640	8794
667.693	7645
667.745	8157
667.798	9205
667.850	7818
667.903	8527
667.955	8371
668.008	8598
668.060	8452
668.113	7469
668.165	8400
668.218	8637
668.270	8446
668.322	8087
668.375	7814
668.427	7772
668.479	8113
668.532	7657
668.584	7551
668.636	6836
668.689	7303
668.741	7038
668.793	8572
668.845	7906
668.898	8608
668.950	7609
669.002	6978
669.054	7390
669.106	7019
669.158	8216
669.211	7312
669.263	7656
669.315	7661
669.367	7827
669.419	7220
669.471	7941
669.523	6670
669.575	7286
669.627	7325
669.679	7047
669.731	7564
669.783	7489
669.835	7011
669.886	7309
669.938	7381
669.990	7175
670.042	7287
670.094	7053
670.146	7443
670.197	7982
670.249	7085
670.301	7630
670.353	9259
670.404	9335
670.456	9968
670.508	12053
670.560	17643
670.611	25790
670.663	40870
670.715	70006
670.766	157711
670.818	194907
670.869	51937
670.921	16656
670.972	11817
671.024	10447
671.075	9217
671.127	8004
671.178	7663
671.230	8202
671.281	8321
671.333	8357
671.384	8985
671.436	10561
671.487	12358
671.538	14744
671.590	20991
671.641	30710
671.692	46719
671.744	80006
671.795	132404
671.846	87171
671.897	39338
671.949	23105
672.000	16448
672.051	12873
672.102	11193
672.153	8040
672.204	9028
672.256	7671
672.307	8179
672.358	6697
672.409	7742
672.460	5812
672.511	5974
672.562	6634
672.613	5142
672.664	6113
672.715	6477
672.766	6126
672.817	5658
672.868	5653
672.919	5657
672.970	4956
673.021	5845
673.071	5185
673.122	6212
673.173	5901
673.224	5175
673.275	5586
673.326	5564
673.376	5408
673.427	4472
673.478	4329
673.528	5946
673.579	5807
673.630	5498
673.680	5486
673.731	6071
673.782	5435
673.832	5408
673.883	5118
673.934	5220
673.984	5562
674.035	4782
674.085	5862
674.136	5507
674.186	5248
674.237	6111
674.287	4542
674.338	5595
674.388	5180
674.438	5538
674.489	5563
674.539	5379
674.589	6837
674.640	6071
674.690	5427
674.740	5060
674.791	4856
674.841	5633
674.891	5117
674.942	4553
674.992	4519
675.042	4030
675.092	3594
675.142	4767
675.193	3566
675.243	4386
675.293	4172
675.343	4782
675.393	5033
675.443	6160
675.493	5279
675.543	4049
675.593	4360
675.643	5322
675.693	4661
675.743	4959
675.793	5152
675.843	3566
675.893	4683
675.943	3619
675.993	4169
676.043	3688
676.093	4560
676.142	3394
676.192	4599
676.242	4617
676.292	4946
676.341	4705
676.391	3373
676.441	3979
676.491	3075
676.540	3197
676.590	3593
676.640	4017
676.689	3286
676.739	3598
676.789	2932
676.838	3356
676.888	3096
676.937	2872
676.987	3830
677.037	3018
677.086	3121
677.136	3684
677.185	3567
677.235	4642
677.284	3435
677.333	2890
677.383	3936
677.432	3229
677.482	3306
677.531	3700
677.580	3132
677.630	4079
677.679	3678
677.728	3029
677.778	3473
677.827	3296
677.876	2677
677.925	3391
677.975	3088
678.024	3737
678.073	3150
678.122	3625
678.171	3141
678.220	3601
678.269	4555
678.319	4344
678.368	4265
678.417	5236
678.466	4178
678.515	3799
678.564	3380
678.613	3025
678.662	3229
678.711	2984
678.760	3320
678.809	2812
678.857	3834
678.906	2995
678.955	3062
679.004	3397
679.053	4040
679.102	2733
679.151	3715
679.199	3076
679.248	2908
679.297	2672
679.346	2852
679.394	2526
679.443	3174
679.492	2702
679.540	2962
679.589	3223
679.638	3254
679.686	3986
679.735	3342
679.784	2581
679.832	3617
679.881	3538
679.929	3430
679.978	2516
680.026	2642
680.075	3442
680.123	3313
680.172	3476
680.220	3396
680.268	3285
680.317	3363
680.365	2686
680.414	2776
680.462	2783
680.510	2646
680.559	3323
680.607	2304
680.655	3194
680.703	2930
680.752	2485
680.800	2931
680.848	2080
680.896	2689
680.945	2867
680.993	3177
681.041	2676
681.089	2638
681.137	2347
681.185	2303
681.233	2821
681.258	2776
681.281	2657
681.329	3441
681.377	2860
681.380	2918
681.425	2521
681.473	2789
681.502	3525
681.521	3913
681.569	3209
681.617	3936
681.624	4089
681.665	4502
681.713	4176
681.745	4479
681.761	4491
681.809	4801
681.857	4412
681.867	4515
681.904	4593
681.952	6091
681.989	5794
682.000	5587
682.048	5379
682.096	5765
682.111	5655
682.143	5177
682.191	5602
682.233	6635
682.239	6720
682.286	6337
682.334	6401
682.354	6439
682.382	6334
682.430	6480
682.476	7360
682.477	7306
682.525	6706
682.572	6137
682.598	6691
682.620	7052
682.667	7715
682.715	7504
682.720	7622
682.763	8017
682.810	7028
682.841	7925
682.857	8328
682.905	8295
682.952	8015
682.963	8153
683.000	8208
683.047	8762
683.085	9489
683.095	9632
683.142	9045
683.190	9548
683.206	9634
683.237	9643
683.284	9917
683.328	9835
683.332	9756
683.379	9807
683.426	9509
683.449	9785
683.473	9990
683.521	10919
683.568	10263
683.571	10310
683.615	10232
683.662	10999
683.693	11128
683.709	11094
683.757	11055
683.804	10918
683.814	10943
683.851	10634
683.898	11388
683.936	11418
683.945	11432
683.992	11968
684.039	11285
684.057	11537
684.086	11772
684.133	12848
684.179	12454
684.180	12390
684.227	12382
684.274	13120
684.300	13004
684.321	12851
684.368	12369
684.415	12739
684.422	12884
684.462	13653
684.509	13572
684.543	13567
684.556	13479
684.603	13985
684.649	13951
684.665	14161
684.696	14480
684.743	14673
684.786	14676
684.790	14635
684.837	15711
684.883	15035
684.908	14763
684.930	14350
684.977	14871
685.023	15487
685.029	15477
685.070	15464
685.117	15646
685.150	16031
685.164	16055
685.210	16248
685.257	15945
685.272	16214
685.303	16741
685.350	15963
685.393	17190
685.396	17266
685.443	17122
685.490	16974
685.514	17060
685.536	16886
685.583	16940
685.629	16446
685.636	16481
685.675	16720
685.722	16724
685.757	16664
685.768	16672
685.815	17357
685.861	17374
685.878	17488
685.908	17537
685.954	17533
686.000	17453
686.000	17437
686.047	18233
686.093	18859
686.121	18956
686.139	18993
686.185	19022
686.232	19951
686.242	19879
686.278	19387
686.324	20083
686.363	19617
686.370	19484
686.416	19322
686.463	19028
686.484	19083
686.509	19301
686.555	19623
686.601	19533
686.606	19566
686.647	19693
686.693	19807
686.727	19965
686.739	20011
686.785	20134
686.831	20107
686.848	20152
686.877	20147
686.923	19977
686.969	19927
686.969	19926
687.015	20535
687.061	21590
687.090	21892
687.107	22011
687.153	22075
687.199	22321
687.211	22433
687.245	22604
687.291	22316
687.332	22562
687.336	22551
687.382	22356
687.428	21844
687.453	21738
687.474	22062
687.520	23248
687.565	23940
687.574	23931
687.611	23256
687.657	23073
687.695	23521
687.702	23749
687.748	24086
687.794	25198
687.816	25407
687.839	25694
687.885	26387
687.931	27343
687.937	27393
687.976	26247
688.022	26465
688.058	25074
688.067	24939
688.113	24744
688.158	24749
688.179	25056
688.204	25409
688.249	24539
688.295	24594
688.300	24688
688.340	25564
688.386	25025
688.421	24950
688.431	24991
688.477	24927
688.522	26007
688.542	25821
688.567	25628
688.613	26155
688.658	26674
688.663	26706
688.703	27538
688.749	28024
688.784	28417
688.794	28280
688.839	27512
688.884	27055
688.905	26734
688.930	26889
688.975	27578
689.020	27686
689.026	27693
689.065	27482
689.110	27271
689.146	27271
689.155	27391
689.201	27420
689.246	27803
689.267	27860
689.291	27965
689.336	28236
689.381	28733
689.388	28724
689.426	28556
689.471	28083
689.509	27996
689.516	28076
689.561	28455
689.606	28643
689.630	28651
689.651	28601
689.696	28398
689.741	28380
689.750	28452
689.785	28848
689.830	28716
689.871	28540
689.875	28585
689.920	28631
689.965	29354
689.992	29289
690.010	29188
690.054	29147
690.099	28847
690.112	28860
690.144	28965
690.189	29046
690.233	28509
690.233	28547
690.278	28833
690.323	29251
690.354	29232
690.367	29189
690.412	29468
690.457	29297
690.474	29308
690.501	29461
690.546	29396
690.590	29399
690.595	29328
690.635	29223
690.680	29327
690.716	29701
690.724	29812
690.769	29612
690.813	29688
690.836	29559
690.857	29758
690.902	30291
690.946	30946
690.957	31039
690.991	32666
691.035	34628
691.077	37115
691.080	37361
691.124	40720
691.168	43285
691.198	44652
691.213	43633
691.257	41075
691.301	38558
691.318	37453
691.346	36423
691.390	34986
691.434	33569
691.439	33303
691.478	32634
691.522	32096
691.559	31740
691.567	31887
691.611	32574
691.655	32830
691.680	32981
691.699	33245
691.743	33573
691.787	34187
691.800	34337
691.831	34316
691.875	34138
691.919	33758
691.921	33689
691.964	33838
692.008	33859
692.041	33900
692.052	33950
692.096	33735
692.139	33952
692.162	33742
692.183	33591
692.227	33274
692.271	33274
692.282	33201
692.315	33427
692.359	33242
692.402	33378
692.403	33439
692.447	33114
692.490	33116
692.523	32760
692.534	32772
692.578	32848
692.622	33096
692.643	32800
692.666	32681
692.709	33016
692.753	33072
692.763	33001
692.797	33139
692.840	33622
692.884	33765
692.884	33830
692.928	33653
692.971	33390
693.004	33259
693.015	33386
693.059	33430
693.102	33688
693.124	33785
693.146	33980
693.189	33948
693.233	34055
693.245	34047
693.276	34387
693.320	34571
693.363	34843
693.365	34768
693.407	34661
693.450	35113
693.485	35156
693.493	35326
693.537	35953
693.580	36428
693.605	36647
693.624	36979
693.667	37427
693.710	38276
693.725	38510
693.753	40306
693.797	42817
693.840	45836
693.845	46098
693.883	53041
693.926	59930
693.966	66030
693.970	65489
694.013	59077
694.056	52167
694.086	47632
694.099	46614
694.142	42898
694.185	39156
694.206	37294
694.229	37180
694.272	36847
694.315	36740
694.326	36507
694.358	36507
694.401	36691
694.444	36756
694.446	36689
694.487	36885
694.530	36769
694.566	36609
694.573	36718
694.616	36864
694.659	37187
694.686	37182
694.702	37304
694.745	37541
694.787	37603
694.806	37622
694.830	37911
694.873	38172
694.916	38689
694.926	38670
694.959	38606
695.002	38343
695.044	38328
695.046	38228
695.087	38710
695.130	39126
695.166	39478
695.172	39670
695.215	40467
695.258	41154
695.286	41598
695.301	41757
695.343	41419
695.386	41578
695.406	41514
695.428	41948
695.471	42467
695.514	43125
695.526	43196
695.556	45213
695.599	48043
695.641	51064
695.646	51225
695.684	53524
695.726	56241
695.766	58518
695.769	58448
695.811	55551
695.854	52564
695.886	50083
695.896	49973
695.938	49225
695.981	48450
696.005	47923
696.023	48410
696.065	49043
696.108	49798
696.125	50088
696.150	51695
696.192	54091
696.235	56211
696.245	56703
696.277	57947
696.319	59110
696.361	60436
696.365	60393
696.404	60689
696.446	60920
696.485	60893
696.488	60969
696.530	60089
696.572	59166
696.604	58285
696.614	58374
696.656	58210
696.698	58026
696.724	57790
696.740	57997
696.783	58158
696.825	58248
696.844	58146
696.867	58287
696.909	58266
696.951	58272
696.964	58161
696.992	58603
697.034	58891
697.076	59229
697.083	59138
697.118	59949
697.160	60759
697.202	61667
697.203	61532
697.244	63012
697.286	64639
697.323	65814
697.327	65895
697.369	65156
697.411	64428
697.442	63649
697.453	63792
697.494	63755
697.536	63843
697.562	63653
697.578	63906
697.620	64129
697.661	64424
697.682	64395
697.703	64581
697.744	64672
697.786	64742
697.801	64553
697.828	65800
697.869	67633
697.911	69423
697.921	69686
697.952	69347
697.994	68721
698.035	67997
698.040	67737
698.077	67754
698.118	67574
698.160	67414
698.160	67238
698.201	68072
698.243	68797
698.279	69291
698.284	69642
698.325	71183
698.367	72751
698.399	73771
698.408	74245
698.449	75565
698.491	76835
698.518	77509
698.532	77869
698.573	78347
698.614	78840
698.638	78900
698.656	79066
698.697	78981
698.738	78892
698.757	78647
698.779	79032
698.820	79369
698.862	79683
698.877	79597
698.903	79369
698.944	78663
698.985	77952
698.996	77550
699.026	77665
699.067	77538
699.116	77180
699.235	78530
699.354	78350
699.474	77563
699.593	72521
699.713	72687
699.832	72480
699.951	73723
700.070	76503
700.190	73803
700.309	71009
700.428	68720
700.547	68252
700.667	66566
700.786	66945
700.905	65883
701.024	64056
701.143	65783
701.262	64037
701.381	68168
701.500	67404
701.619	68433
701.738	66035
701.857	67759
701.976	65570
702.095	61491
702.214	65240
702.333	65641
702.452	63480
702.571	66150
702.690	66623
702.809	64365
702.928	65951
703.047	62149
703.165	59176
703.284	61497
703.403	60216
703.522	59951
703.640	59691
703.759	55922
703.878	56969
703.997	55672
704.115	57298
704.234	57012
704.353	57124
704.471	58281
704.590	53518
704.708	54466
704.827	52526
704.946	52389
705.064	51680
705.183	54270
705.301	51861
705.420	54941
705.538	51436
705.656	51722
705.775	49026
705.893	48250
706.012	51218
706.130	51583
706.249	48987
706.367	51218
706.485	47925
706.604	48899
706.722	45393
706.840	48449
706.958	50867
707.077	55365
707.195	48517
707.313	45982
707.431	45584
707.549	43575
707.668	44575
707.786	41996
707.904	45933
708.022	43941
708.140	46563
708.258	42451
708.376	42530
708.494	45652
708.612	40513
708.730	45015
708.848	44158
708.966	42584
709.084	43025
709.202	42166
709.320	44104
709.438	40746
709.556	41855
709.674	42602
709.791	39533
709.909	38511
710.027	39932
710.145	39392
710.263	37798
710.380	39096
710.498	39555
710.616	38442
710.733	38300
710.851	35332
710.969	37168
711.086	36931
711.204	35863
711.322	37185
711.439	36735
711.557	36685
711.674	34321
711.792	35844
711.909	35725
712.027	33603
712.144	35052
712.262	34046
712.379	34644
712.497	34972
712.614	35995
712.732	34501
712.849	35656
712.966	32794
713.084	35750
713.201	35068
713.318	31633
713.436	35389
713.553	36903
713.670	33333
713.787	34996
713.905	34169
714.022	32577
714.139	34506
714.256	36375
714.373	38185
714.490	47209
714.608	70208
714.725	147193
714.842	433781
714.959	348464
715.076	75472
715.193	43436
715.310	38731
715.427	37157
715.544	30697
715.661	33384
715.778	31574
715.895	30280
716.011	31059
716.128	30546
716.245	29474
716.362	30430
716.479	28708
716.596	27335
716.713	27868
716.829	29549
716.946	28046
717.063	27424
717.180	26909
717.296	27025
717.413	26626
717.530	27905
717.646	26397
717.763	25966
717.880	25615
717.996	26460
718.113	26039
718.229	26324
718.346	24923
718.462	24396
718.579	25317
718.695	25565
718.812	24258
718.928	25350
719.045	25754
719.161	24436
719.277	24036
719.394	25792
719.510	25901
719.626	24973
719.743	26462
719.859	28966
719.975	37648
720.092	60735
720.208	181682
720.324	294921
720.440	59102
720.557	31124
720.673	26413
720.789	24854
720.905	25517
721.021	25362
721.137	23345
721.253	22731
721.369	21800
721.486	22650
721.602	22661
721.718	22049
721.834	21436
721.950	22617
722.066	22179
722.181	21972
722.297	21330
722.413	20434
722.529	19787
722.645	21928
722.761	20960
722.877	20838
722.993	21641
723.108	22581
723.224	24664
723.340	21927
723.456	21137
723.571	20734
723.687	19937
723.803	19027
723.918	19640
724.034	20596
724.150	18652
724.265	19650
724.381	19978
724.497	20393
724.612	19876
724.728	20051
724.843	19585
724.959	18352
725.074	18975
725.190	20739
725.305	20122
725.421	18800
725.536	19015
725.651	20222
725.767	19198
725.882	19687
725.997	18910
726.113	19585
726.228	19180
726.343	18483
726.459	17968
726.574	18946
726.689	18433
726.804	18769
726.920	17708
727.035	18518
727.150	18070
727.265	18548
727.380	17768
727.495	17705
727.610	18138
727.725	18465
727.841	17476
727.956	18838
728.071	18882
728.186	18813
728.301	17254
728.416	17655
728.531	18224
728.645	18652
728.760	16495
728.875	18328
728.990	17693
729.105	17513
729.220	16386
729.335	17502
729.449	17460
729.564	17234
729.679	16881
729.794	16087
729.908	18574
730.023	17818
730.138	17314
730.253	17622
730.367	17885
730.482	16037
730.596	17223
730.711	17966
730.826	19554
730.940	25348
731.055	24863
731.169	21769
731.284	21340
731.398	22301
731.513	22275
731.627	22295
731.742	24336
731.856	29710
731.970	36593
732.085	35017
732.199	40357
732.313	50762
732.428	78050
732.542	167356
732.656	360621
732.771	208389
732.885	71247
732.999	48140
733.113	45223
733.227	47984
733.342	47479
733.456	44366
733.570	45507
733.684	42990
733.798	40654
733.912	40103
734.026	41026
734.140	41594
734.254	39821
734.368	39104
734.482	38806
734.596	38782
734.710	38425
734.824	36696
734.938	37367
735.052	37548
735.166	36841
735.280	36598
735.393	35475
735.507	34746
735.621	37228
735.735	35446
735.849	34019
735.962	36634
736.076	32407
736.190	35484
736.303	33140
736.417	34913
736.531	33908
736.644	33253
736.758	33806
736.872	32371
736.985	32788
737.099	32678
737.212	31271
737.326	32065
737.439	29923
737.553	33692
737.666	28891
737.780	31052
737.893	29673
738.007	31264
738.120	29004
738.233	32558
738.347	27769
738.460	30543
738.573	27041
738.687	31098
738.800	28778
738.913	29143
739.026	30570
739.140	29086
739.253	26649
739.366	29348
739.479	27279
739.592	27575
739.705	27832
739.818	25814
739.932	29571
740.045	25636
740.158	27850
740.271	27252
740.384	27837
740.497	27002
740.610	24180
740.723	28632
740.836	25443
740.949	26226
741.062	25801
741.174	27878
741.287	24517
741.400	25309
741.513	26640
741.626	23259
741.739	25586
741.851	23891
741.964	24131
742.077	25485
742.189	22960
742.302	23234
742.415	24612
742.527	24087
742.640	23948
742.753	24886
742.865	19689
742.978	23619
743.090	22690
743.203	21524
743.316	23661
743.428	21505
743.541	22213
743.653	22994
743.766	19205
743.878	22311
743.990	22210
744.103	21077
744.215	22181
744.327	20862
744.440	20716
744.552	23356
744.664	20603
744.777	20272
744.889	23593
745.001	20940
745.113	19334
745.226	22825
745.338	20236
745.450	18202
745.562	22518
745.674	20238
745.786	18364
745.898	22794
746.010	21115
746.122	19138
746.234	21372
746.347	20083
746.459	19374
746.570	19505
746.682	16696
746.794	19857
746.906	21805
747.018	17852
747.130	18179
747.242	20919
747.354	17009
747.466	18800
747.577	19244
747.689	17315
747.801	18246
747.913	19217
748.024	17869
748.136	17999
748.248	17226
748.359	17001
748.471	17473
748.583	19375
748.694	15816
748.806	17013
748.918	17506
749.029	17000
749.141	17645
749.252	18182
749.364	18442
749.475	15637
749.587	15354
749.698	15955
749.809	15073
749.921	16840
750.032	15953
750.144	16253
750.255	15582
750.366	15356
750.478	17158
750.589	15530
750.700	16467
750.811	15561
750.923	16540
751.034	14968
751.145	14243
751.256	16617
751.367	15491
751.479	15093
751.590	15352
751.701	15701
751.812	14988
751.923	13527
752.034	13906
752.145	16780
752.256	15376
752.367	15803
752.478	13950
752.589	15271
752.700	15200
752.811	15720
752.922	13959
753.032	15253
753.143	16599
753.254	15270
753.365	14998
753.476	15454
753.586	15188
753.697	14938
753.808	14231
753.919	14503
754.029	14917
754.140	15169
754.251	13269
754.361	14334
754.472	15183
754.582	15839
754.693	12893
754.804	14110
754.914	13944
755.025	13608
755.135	12547
755.246	13959
755.356	14696
755.466	14190
755.577	12327
755.687	13434
755.798	13383
755.908	12712
756.018	12760
756.129	13973
756.239	14097
756.349	14754
756.460	13519
756.570	13545
756.680	13668
756.790	13682
756.900	13726
757.011	14991
757.121	13911
757.231	12200
757.341	13941
757.451	13862
757.561	12425
757.671	12798
757.781	13370
757.891	14348
758.001	13102
758.111	12207
758.221	13357
758.331	14100
758.441	14364
758.551	12565
758.661	12607
758.771	14579
758.880	13854
758.990	13737
759.100	13332
759.210	13350
759.320	14429
759.429	13862
759.539	13067
759.649	13957
759.758	13310
759.868	15482
759.978	14411
760.087	15394
760.197	15824
760.307	16736
760.416	15208
760.526	14588
760.635	14815
760.745	15413
760.854	15131
760.964	16145
761.073	17391
761.182	17714
761.292	16983
761.401	15463
761.511	14253
761.620	14223
761.729	13310
761.839	13833
761.948	12859
762.057	13051
762.166	13094
762.276	14384
762.385	13894
762.494	12985
762.603	12198
762.712	12724
762.822	13602
762.931	13889
763.040	12193
763.149	13334
763.258	13515
763.367	13129
763.476	14124
763.585	13008
763.694	13360
763.803	13275
763.912	13863
764.021	14671
764.130	13559
764.238	14921
764.347	15628
764.456	15692
764.565	16025
764.674	16036
764.783	16935
764.891	17172
765.000	19178
765.109	19271
765.217	19759
765.326	21962
765.435	24609
765.543	27289
765.652	30466
765.761	37341
765.869	43874
765.978	59060
766.086	82031
766.195	124080
766.303	200123
766.412	323894
766.520	370574
766.629	328743
766.737	288939
766.846	171960
766.954	111566
767.062	77905
767.171	57671
767.279	46786
767.387	38382
767.496	33087
767.604	28741
767.712	25285
767.820	23898
767.928	21813
768.037	21484
768.145	20111
768.253	19545
768.361	19253
768.469	19078
768.577	18467
768.685	18321
768.793	18918
768.901	20672
769.009	21139
769.117	22657
769.225	25267
769.333	30777
769.441	40065
769.549	56515
769.657	90523
769.765	164817
769.873	302903
769.981	314341
770.088	263598
770.196	141933
770.304	81791
770.412	56387
770.519	42710
770.627	34668
770.735	30594
770.842	25725
770.950	23257
771.058	23028
771.165	22581
771.273	22853
771.380	24451
771.488	23591
771.595	28718
771.703	31188
771.810	28329
771.918	25494
772.025	27277
772.133	29034
772.240	33573
772.348	32096
772.455	35768
772.562	33246
772.670	31589
772.777	30449
772.884	30914
772.991	30905
773.099	28760
773.206	29817
773.313	28064
773.420	28098
773.528	29109
773.635	28752
773.742	27174
773.849	28826
773.956	25594
774.063	27329
774.170	25999
774.277	28280
774.384	26932
774.491	25577
774.598	26460
774.705	25747
774.812	25837
774.919	26361
775.026	24826
775.133	25279
775.239	24383
775.346	25918
775.453	25090
775.560	24031
775.667	24062
775.773	25256
775.880	24313
775.987	23210
776.093	23329
776.200	23099
776.307	26681
776.413	19609
776.520	20364
776.627	27054
776.733	22550
776.840	20104
776.946	20779
777.053	25485
777.159	22519
777.266	20799
777.372	20760
777.478	19222
777.585	22561
777.691	21484
777.798	19460
777.904	22504
778.010	20515
778.117	19264
778.223	21585
778.329	19272
778.435	21664
778.542	18360
778.648	21720
778.754	18646
778.860	18448
778.966	19767
779.072	20584
779.178	18590
779.284	20436
779.391	16329
779.497	18632
779.603	21780
779.708	19064
779.815	19881
779.920	20623
780.026	37590
780.132	56847
780.238	22131
780.344	18698
780.450	17124
780.556	20828
780.661	15471
780.767	15067
780.873	21041
780.979	14127
781.085	14384
781.190	19521
781.296	16167
781.402	15425
781.507	17442
781.613	18028
781.719	13061
781.824	16385
781.930	18812
782.035	15118
782.141	16825
782.246	19514
782.352	12796
782.457	14889
782.563	15816
782.668	16181
782.773	15927
782.879	14076
782.984	14721
783.090	15594
783.195	15349
783.300	15777
783.405	17575
783.511	14481
783.616	13792
783.721	14094
783.826	15551
783.932	14388
784.037	12986
784.142	15108
784.247	15496
784.352	14012
784.457	15518
784.562	13049
784.667	14500
784.772	16111
784.877	13096
784.982	10930
785.087	14280
785.192	15917
785.297	11940
785.402	13690
785.507	14623
785.611	13891
785.716	12979
785.821	11807
785.926	12969
786.031	13806
786.135	12860
786.240	12653
786.345	13282
786.450	12330
786.554	10664
786.659	13365
786.763	11310
786.868	12926
786.973	12890
787.077	13180
787.182	11781
787.286	10749
787.391	13303
787.495	14316
787.600	9842
787.704	9579
787.809	11680
787.913	12624
788.017	11891
788.122	11781
788.226	13206
788.330	11730
788.435	8679
788.539	11111
788.643	13028
788.747	12111
788.852	8315
788.956	11612
789.060	11278
789.164	12231
789.268	11639
789.372	10823
789.476	11689
789.580	10044
789.684	9233
789.788	9794
789.892	12479
789.996	11821
790.100	8440
790.204	9061
790.308	11144
790.412	13030
790.516	8768
790.620	8020
790.724	9142
790.828	12814
790.931	10380
791.035	8367
791.139	8940
791.242	9779
791.346	10971
791.450	9239
791.554	10575
791.657	9930
791.761	9196
791.864	9932
791.968	10260
792.072	10600
792.175	10191
792.279	8299
792.382	8544
792.486	9853
792.589	7825
792.693	9689
792.796	9947
792.899	8887
793.003	8950
793.106	10091
793.209	8622
793.313	9880
793.416	6856
793.519	7998
793.623	7996
793.726	10600
793.829	10702
793.932	8268
794.035	6327
794.138	7944
794.242	10414
794.345	11307
794.448	8327
794.551	7966
794.654	11020
794.757	17845
794.860	30128
794.963	11404
795.066	9616
795.169	8873
795.272	8681
795.375	9209
795.477	9505
795.580	8025
795.683	6551
795.786	8313
795.889	9418
795.991	9649
796.094	8146
796.197	7847
796.300	9213
796.402	8775
796.505	8844
796.608	6767
796.710	6513
796.813	6951
796.915	9371
797.018	9633
797.120	7982
797.223	8661
797.326	9113
797.428	9642
797.530	7539
797.633	6452
797.735	7444
797.838	8483
797.940	8294
798.042	8713
798.145	8133
798.247	7339
798.349	6857
798.452	7378
798.554	7560
798.656	7778
798.758	9383
798.860	9119
798.962	8176
799.065	7720
799.167	6540
799.269	6741
799.371	6549
799.473	8399
799.575	8938
799.677	9429
799.779	7404
799.881	6042
799.983	7080
800.085	8819
800.187	6620
800.289	7376
800.390	5950
800.492	6702
800.594	9704
800.696	7768
800.798	6325
800.899	6908
801.001	7309
801.103	7104
801.205	7298
801.306	7888
801.408	6275
801.509	7590
801.611	7509
801.713	7180
801.814	6535
801.916	7179
802.017	6055
802.119	5869
802.220	5585
802.322	6848
802.423	7590
802.525	6483
802.626	6617
802.727	5729
802.829	7782
802.930	6993
803.031	6101
803.133	5371
803.234	6473
803.335	6554
803.436	6938
803.538	5652
803.639	6389
803.740	6599
803.841	6947
803.942	7286
804.043	6337
804.144	5699
804.245	5887
804.346	6051
804.447	7060
804.548	6672
804.649	6555
804.750	7511
804.851	5759
804.952	6920
805.053	6529
805.154	5241
805.255	6350
805.355	6104
805.456	6844
805.557	6268
805.658	5987
805.758	5984
805.859	5881
805.960	5968
806.061	6959
806.161	6094
806.262	6342
806.362	5887
806.463	5655
806.564	5963
806.664	6379
806.765	7158
806.865	5788
806.966	5570
807.066	5427
807.166	5802
807.267	6286
807.367	5815
807.468	5322
807.568	6080
807.668	5489
807.769	6309
807.869	6221
807.969	5919
808.069	6235
808.170	5108
808.270	5205
808.370	5914
808.470	5156
808.570	6339
808.670	6227
808.770	5020
808.870	5336
808.970	6300
809.070	4933
809.170	4908
809.271	5493
809.370	6239
809.470	6100
809.570	6043
809.670	5382
809.770	5149
809.870	5298
809.970	5802
810.070	5643
810.169	6177
810.269	5290
810.369	6160
810.469	5332
810.568	6250
810.668	5306
810.768	5443
810.867	5149
810.967	5299
811.066	4443
811.166	4962
811.265	5841
811.365	6159
811.464	5379
811.564	5215
811.663	5702
811.763	5679
811.862	5971
811.962	6300
812.061	5623
812.160	5281
812.260	5938
812.359	5490
812.458	4994
812.557	5992
812.657	6851
812.756	6305
812.855	6036
812.954	6552
813.053	5459
813.153	4758
813.252	5072
813.351	5682
813.450	5692
813.549	6211
813.648	5619
813.747	5813
813.846	4879
813.945	6029
814.044	6604
814.143	7019
814.242	6268
814.341	5879
814.439	5840
814.538	6936
814.637	6197
814.736	7359
814.835	7665
814.933	7236
815.032	8944
815.131	8204
815.229	11454
815.328	17841
815.427	25836
815.525	20880
815.624	17036
815.722	16816
815.821	17281
815.919	18482
816.018	17828
816.116	18231
816.215	16807
816.313	17581
816.412	18093
816.510	21846
816.609	22655
816.707	22355
816.805	23348
816.904	22538
817.002	20373
817.100	21762
817.198	21283
817.296	22766
817.395	20576
817.493	21856
817.591	20296
817.689	19937
817.787	20729
817.885	21829
817.983	20641
818.081	18937
818.179	20862
818.277	22155
818.375	32571
818.473	27734
818.571	21494
818.669	17980
818.767	19088
818.865	21899
818.963	18904
819.061	15780
819.158	19828
819.256	19471
819.354	24107
819.452	26782
819.549	39080
819.647	32122
819.745	21742
819.842	17142
819.940	16227
820.038	18940
820.135	16984
820.233	15647
820.330	18197
820.428	18743
820.525	16510
820.623	18007
820.720	15327
820.818	16446
820.915	16646
821.012	17516
821.110	15054
821.207	16077
821.304	16077
821.402	15422
821.499	16923
821.596	16839
821.693	13575
821.791	16048
821.888	16830
821.985	15203
822.082	17079
822.179	14651
822.276	14176
822.373	16265
822.470	13473
822.567	13996
822.664	15931
822.761	14447
822.858	13068
822.955	17279
823.052	13895
823.149	12514
823.246	14594
823.343	16722
823.440	12599
823.536	11987
823.633	15520
823.730	15523
823.827	12363
823.923	13624
824.020	14739
824.117	11191
824.213	13887
824.310	15812
824.407	11515
824.503	11023
824.600	14740
824.696	12923
824.793	10764
824.889	14761
824.986	15920
825.082	12811
825.179	10378
825.275	10081
825.371	13611
825.468	17860
825.564	11921
825.660	8896
825.757	12502
825.853	17135
825.949	12246
826.045	11373
826.142	10288
826.238	12585
826.334	14303
826.430	13358
826.526	13760
826.622	8571
826.718	8780
826.814	13735
826.910	15527
827.006	12742
827.102	8355
827.198	10026
827.294	11993
827.390	14230
827.486	13204
827.582	10205
827.678	8470
827.774	9902
827.869	12828
827.965	11289
828.061	8626
828.157	9072
828.252	13127
828.348	12882
828.444	11188
828.539	8631
828.635	9987
828.731	12239
828.826	10294
828.922	9772
829.017	10902
829.113	12621
829.208	11330
829.304	8490
829.399	10877
829.495	12378
829.590	11826
829.685	7925
829.781	10308
829.876	10443
829.971	12211
830.066	6824
830.162	6434
830.257	9085
830.352	14490
830.447	11213
830.543	6646
830.638	7555
830.733	11409
830.828	11662
830.923	8847
831.018	9422
831.113	9935
831.208	11752
831.303	8926
831.398	6607
831.493	7012
831.588	10133
831.683	14032
831.778	9963
831.873	6374
831.967	8042
832.062	9090
832.157	10657
832.252	9271
832.346	8565
832.441	7914
832.536	9890
832.631	9873
832.725	9596
832.820	7538
832.914	9117
833.009	9174
833.104	7772
833.198	6949
833.293	5894
833.387	8834
833.482	10743
833.576	9440
833.670	9104
833.765	7321
833.859	7440
833.954	10279
834.048	9207
834.142	8657
834.237	7404
834.331	6305
834.425	8710
834.519	9631
834.613	8510
834.708	6084
834.802	7321
834.896	6524
834.990	9229
835.084	9258
835.178	5885
835.272	6460
835.366	7241
835.460	10502
835.554	10323
835.648	7460
835.742	5913
835.836	5038
835.930	6579
836.024	8131
836.117	8391
836.211	7283
836.305	8180
836.399	6502
836.493	6562
836.586	7003
836.680	8290
836.774	8152
836.867	7525
836.961	5546
837.055	5624
837.148	6645
837.242	6098
837.335	6587
837.429	7488
837.522	5755
837.616	6554
837.709	6403
837.803	5546
837.896	7175
837.989	8638
838.083	8978
838.176	5238
838.269	4454
838.363	5342
838.456	6081
838.549	5334
838.642	7805
838.735	6755
838.829	5304
838.922	6023
839.015	7582
839.108	6757
839.201	6002
839.294	5953
839.387	7053
839.480	6456
839.573	5175
839.666	6184
839.759	4327
839.852	6034
839.945	6061
840.038	7218
840.131	6228
840.223	5016
840.316	5218
840.409	5905
840.502	7655
840.594	8277
840.687	6467
840.780	5133
840.873	2852
840.965	4129
841.058	5355
841.150	6182
841.243	6645
841.336	5486
841.428	5634
841.521	6055
841.613	4856
841.706	5942
841.798	6529
841.890	5682
841.983	5533
842.075	5948
842.167	4894
842.260	5064
842.352	6676
842.444	6824
842.537	7119
842.629	5908
842.721	3838
842.813	4705
842.905	5699
842.997	5865
843.090	5468
843.182	6879
843.274	4684
843.366	4470
843.458	3940
843.550	6989
843.642	6840
843.734	5819
843.826	6346
843.918	5715
844.009	4547
844.101	4950
844.193	5258
844.285	5636
844.377	6672
844.469	6047
844.560	5151
844.652	4189
844.744	3946
844.835	4991
844.927	4891
845.019	5242
845.110	5965
845.202	5409
845.293	5751
845.385	4905
845.476	4471
845.568	5506
845.659	5402
845.751	4834
845.842	4401
845.934	4392
846.025	5758
846.116	5915
846.208	5033
846.299	4492
846.390	4848
846.482	3476
846.573	4119
846.664	4402
846.755	5357
846.846	5369
846.937	4242
847.029	4411
847.120	4002
847.211	4665
847.302	5033
847.393	4747
847.484	5660
847.575	4778
847.666	3505
847.757	3596
847.847	3597
847.938	4709
848.029	4976
848.120	6479
848.211	4561
848.302	4319
848.392	3973
848.483	3394
848.574	4845
848.664	5125
848.755	4959
848.846	5451
848.936	3728
849.027	5471
849.118	5087
849.208	5086
849.299	4852
849.389	5342
849.480	6803
849.570	8898
849.661	13118
849.751	21209
849.841	31763
849.932	17197
850.022	6694
850.112	5295
850.203	4992
850.293	5770
850.383	4200
850.474	4668
850.564	4170
850.654	3815
850.744	3847
850.834	3899
850.924	4419
851.014	5061
851.104	6010
851.194	5307
851.284	4501
851.374	4252
851.464	3353
851.554	4277
851.644	4374
851.734	4559
851.824	4811
851.914	5422
852.004	4863
852.094	6223
852.183	4965
852.273	4415
852.363	3231
852.452	3505
852.542	4042
852.632	4394
852.721	4509
852.811	4002
852.901	3750
852.990	5317
853.080	5735
853.169	4159
853.259	4162
853.348	4927
853.438	4550
853.527	5301
853.617	4738
853.706	7669
853.795	9522
853.885	15399
853.974	23750
854.063	38161
854.152	59385
854.242	79223
854.331	44880
854.420	18025
854.509	9443
854.598	8886
854.687	7330
854.777	6439
854.866	5974
854.955	5371
855.044	4445
855.133	4700
855.222	4491
855.311	4799
855.400	4371
855.488	4008
855.577	3735
855.666	4536
855.755	3615
855.844	4234
855.933	4517
856.021	4344
856.110	4448
856.199	3524
856.288	4557
856.376	4419
856.465	2922
856.554	3717
856.642	4029
856.731	4735
856.819	5174
856.908	4868
856.996	3904
857.085	4655
857.173	3972
857.262	4323
857.350	3061
857.438	2948
857.527	3836
857.615	3492
857.703	3765
857.792	4262
857.880	4317
857.968	3902
858.056	3980
858.145	3794
858.233	3731
858.321	4926
858.409	4210
858.497	3609
858.585	3756
858.673	4182
858.761	3489
858.849	3654
858.937	3469
859.025	3930
859.113	3598
859.201	4444
859.289	5032
859.377	5181
859.465	5109
859.552	4376
859.640	3761
859.728	4081
859.816	3779
859.903	5220
859.991	3052
860.079	4308
860.166	4305
860.254	4225
860.342	3818
860.429	4191
860.517	4524
860.604	4977
860.692	3358
860.779	3359
860.867	4127
860.954	3922
861.042	5116
861.129	4682
861.216	5142
861.304	4658
861.391	5135
861.478	4961
861.565	3926
861.653	4417
861.740	3463
861.827	4492
861.914	4591
862.001	3784
862.089	3865
862.176	4574
862.263	4306
862.350	4297
862.437	4053
862.524	4228
862.611	4135
862.698	3988
862.785	4260
862.871	5007
862.958	4879
863.045	6138
863.132	5516
863.219	4425
863.306	3567
863.392	4130
863.479	4796
863.566	3565
863.652	4530
863.739	5443
863.826	4556
863.912	4984
863.999	5721
864.086	5366
864.172	5536
864.259	5985
864.345	6741
864.432	5929
864.518	5966
864.604	5808
864.691	5408
864.777	6143
864.863	6653
864.950	7703
865.036	10355
865.122	13933
865.209	22229
865.295	26469
865.381	22343
865.467	21019
865.553	19888
865.639	19366
865.726	19593
865.812	22189
865.898	26692
865.984	35561
866.070	43962
866.156	61769
866.242	67111
866.328	38714
866.414	23235
866.499	20486
866.585	18259
866.671	18790
866.757	17781
866.843	18514
866.928	17746
867.014	18131
867.100	17022
867.186	17075
867.271	16750
867.357	16975
867.442	17429
867.528	16818
867.614	17576
867.699	16360
867.785	17174
867.870	16349
867.956	15393
868.041	17106
868.127	16010
868.212	15441
868.297	16202
868.383	14994
868.468	16573
868.553	15458
868.639	16353
868.724	15396
868.809	16766
868.894	16663
868.979	14494
869.065	16080
869.150	14909
869.235	13064
869.320	14500
869.405	15613
869.490	12785
869.575	14896
869.660	15184
869.745	13644
869.830	13095
869.915	17883
870.000	13441
870.085	13703
870.169	12596
870.254	15473
870.339	16296
870.424	11605
870.509	12115
870.593	13858
870.678	15540
870.763	15019
870.847	13808
870.932	11331
871.016	14516
871.101	14971
871.186	10828
871.270	13447
871.355	16561
871.439	11833
871.523	11051
871.608	15128
871.692	11213
871.777	11120
871.861	14303
871.945	14965
872.030	12889
872.114	12983
872.198	12291
872.282	12524
872.367	10830
872.451	11657
872.535	11661
872.619	12845
872.703	12702
872.787	11562
872.871	13923
872.955	12922
873.039	10329
873.123	9792
873.207	12416
873.291	13310
873.375	9638
873.459	10538
873.543	13460
873.627	12198
873.711	10911
873.794	10775
873.878	11915
873.962	11835
874.045	9016
874.129	9156
874.137	9291
874.213	10645
874.245	11038
874.296	11692
874.352	10797
874.380	10365
874.460	9818
874.464	9799
874.547	10328
874.568	10205
874.631	9850
874.676	10291
874.714	10671
874.784	10257
874.798	10176
874.881	12142
874.892	11642
874.965	8191
874.999	8032
875.048	7822
875.107	9881
875.131	10723
875.215	10579
875.215	10575
875.298	8443
875.323	8116
875.381	7307
875.430	8524
875.465	9399
875.538	11338
875.548	11601
875.631	10793
875.646	10225
875.714	7480
875.753	7622
875.798	7853
875.861	8017
875.881	8045
875.964	10768
875.968	10688
876.047	9259
876.076	8589
876.130	7321
876.183	8358
876.213	8977
876.291	9334
876.296	9351
876.379	9529
876.398	9368
876.462	8765
876.506	7819
876.545	7049
876.613	7331
876.628	7372
876.711	6915
876.721	7023
876.794	7925
876.828	7995
876.877	8067
876.935	9425
876.960	9935
877.043	6174
877.043	6182
877.125	7686
877.150	7752
877.208	7894
877.258	8470
877.291	8913
877.365	8185
877.374	8081
877.456	6318
877.472	6383
877.539	6744
877.579	6603
877.622	6407
877.687	7314
877.704	7554
877.787	8406
877.794	8292
877.869	6949
877.901	7101
877.952	7371
878.008	7562
878.034	7585
878.115	5499
878.117	5460
878.199	5066
878.222	5478
878.282	6502
878.329	6684
878.364	6703
878.437	7209
878.447	7273
878.529	7362
878.544	7044
878.611	5647
878.651	5205
878.694	4834
878.758	5855
878.776	6086
878.858	7030
878.865	7009
878.941	6549
878.972	6285
879.023	5790
879.078	4715
879.105	4346
879.185	5086
879.187	5089
879.269	6288
879.292	6122
879.351	5839
879.399	6079
879.433	6165
879.506	4943
879.516	4789
879.598	5136
879.613	5252
879.680	5718
879.720	5407
879.762	5050
879.827	5332
879.844	5394
879.926	5629
879.933	5506
880.007	4335
880.040	4884
880.089	5646
880.147	4857
880.171	4516
880.253	5233
880.254	5240
880.335	5250
880.360	4928
880.417	4319
880.467	4575
880.499	4848
880.574	5936
880.580	5976
880.662	4952
880.680	5091
880.744	5501
880.787	4603
880.825	3946
880.893	3883
880.907	3878
880.989	4450
881.000	4582
881.070	5006
881.106	4617
881.152	4328
881.213	5240
881.233	5454
881.315	3705
881.319	3726
881.396	4079
881.426	4115
881.478	4163
881.532	4298
881.559	4389
881.639	4688
881.641	4678
881.722	4693
881.745	4359
881.803	3564
881.852	3645
881.885	3870
881.958	4415
881.966	4398
882.047	3658
882.064	3606
882.129	3560
882.171	3609
882.210	3717
882.277	3268
882.291	3133
882.372	3152
882.383	3220
882.454	3899
882.489	4540
882.535	5124
882.596	4301
882.616	3952
882.697	4004
882.702	3983
882.778	3827
882.808	3557
882.859	2994
882.914	2732
882.940	2795
883.020	4044
883.021	4038
883.102	3753
883.127	3619
883.183	3784
883.233	4300
883.264	4390
883.339	3784
883.345	3707
883.426	2174
883.445	2126
883.507	2375
883.551	2542
883.587	2546
883.657	2877
883.668	2978
883.749	3456
883.763	3572
883.830	4021
883.869	3704
883.910	2974
883.975	2536
883.991	2495
884.072	2710
884.081	2732
884.152	3034
884.187	3217
884.233	3379
884.292	3551
884.314	3577
884.394	3372
884.398	3342
884.475	1956
884.504	1736
884.555	2005
884.610	2496
884.636	2653
884.716	3009
884.716	3001
884.797	3197
884.821	3325
884.877	3714
884.927	3352
884.958	2910
885.033	2297
885.038	2282
885.118	2146
885.139	2113
885.199	1689
885.244	1764
885.279	1995
885.350	2014
885.359	2019
885.439	2840
885.456	2985
885.520	3418
885.561	3377
885.600	2979
885.667	2019
885.680	1920
885.760	2196
885.773	2229
885.840	2196
885.878	2115
885.920	2137
885.984	2082
886.000	1971
886.080	2377
886.089	2345
886.160	2649
886.195	2944
886.240	2795
886.300	2247
886.320	2206
886.400	2570
886.406	2596
886.480	2103
886.511	1806
886.560	1531
886.616	1569
886.640	1711
886.720	2136
886.722	2150
886.800	1389
886.827	1250
886.879	1572
886.932	1750
886.959	1908
887.038	2859
887.039	2845
887.119	2256
887.143	2112
887.198	2301
887.248	2521
887.278	2278
887.354	1602
887.358	1620
887.437	2406
887.459	2563
887.517	1903
887.564	1606
887.596	1601
887.669	1304
887.676	1279
887.755	1135
887.774	1149
887.835	1285
887.880	1407
887.914	1441
887.985	1645
887.994	1666
888.073	1805
888.090	1904
888.153	2110
888.195	2108
888.232	1856
888.300	1236
888.311	1161
888.391	995
888.405	990
888.470	1162
888.510	1248
888.549	1227
888.615	1293
888.628	1254
888.708	1047
888.720	1046
888.787	1363
888.825	1443
888.866	1208
888.930	935
888.945	933
889.024	1078
889.035	1119
889.103	1726
889.140	2012
889.182	1803
889.245	1498
889.261	1371
889.340	930
889.349	887
889.419	1055
889.454	1160
889.498	846
889.559	452
889.577	699
889.656	1865
889.664	1994
889.735	1446
889.768	1191
889.814	1062
889.873	913
889.978	733
890.083	585
890.187	920
890.292	1192
890.397	669
890.501	1302
890.606	1044
890.710	1873
890.815	1146
890.919	890
891.024	1254
891.128	920
891.233	1119
891.337	325
891.442	1053
891.546	1243
891.650	1065
891.755	988
891.859	1012
891.963	1153
892.068	1105
892.172	680
892.276	110
892.380	1268
892.484	228
892.589	883
892.693	865
892.797	1878
892.901	961
893.005	866
893.109	691
893.213	1682
893.317	1334
893.421	684
893.525	676
893.629	373
893.733	138
893.837	1154
893.941	525
894.045	1331
894.148	424
894.252	1388
894.356	368
894.460	1242
894.564	1502
894.667	741
894.771	559
894.875	931
894.978	710
895.082	270
895.186	1163
895.289	1487
895.393	772
895.496	359
895.600	1129
895.703	389
895.807	441
895.910	1095
896.014	891
896.117	1134
896.221	759
896.324	1507
896.427	985
896.531	507
896.634	610
896.737	672
896.840	795
896.944	595
897.047	1230
897.150	1141
897.253	782
897.356	-11
897.460	601
897.563	861
897.666	311
897.769	1262
897.872	829
897.975	665
898.078	981
898.181	1450
898.284	399
898.387	473
898.490	1131
898.593	1078
898.695	654
898.798	400
898.901	510
899.004	637
899.107	821
899.209	-505
899.312	1753
899.415	1480
899.518	1012
899.620	277
899.723	845
899.826	1099
899.928	353
900.031	951
900.133	679
900.236	790
900.338	1028
900.441	459
900.543	591
900.646	1366
900.748	834
900.851	593
900.953	1068
901.055	575
901.158	-121
901.260	675
901.362	748
901.465	1341
901.567	663
901.669	727
901.771	1464
901.873	1888
901.976	846
902.078	817
902.180	949
902.282	0
902.384	647
902.486	497
902.588	1564
902.690	1076
902.792	456
902.894	-288
902.996	640
903.098	-42
903.200	725
903.302	671
903.404	677
903.505	-97
903.607	1018
903.709	696
903.811	941
903.913	661
904.014	974
904.116	57
904.218	12
904.319	1383
904.421	1156
904.523	1510
904.624	189
904.726	1298
904.827	47
904.929	715
905.030	826
905.132	764
905.233	1085
905.335	666
905.436	48
905.537	1231
905.639	932
905.740	642
905.841	522
905.943	1405
906.044	49
906.145	1515
906.247	-277
906.348	-48
906.449	172
906.550	581
906.651	168
906.752	642
906.854	577
906.955	752
907.056	66
907.157	596
907.258	763
907.359	891
907.460	243
907.561	46
907.662	1341
907.762	184
907.863	435
907.964	778
908.065	778
908.166	153
908.267	620
908.367	271
908.468	633
908.569	623
908.670	148
908.770	906
908.871	877
908.971	392
909.072	117
909.173	746
909.273	843
909.374	249
909.474	1026
909.575	-401
909.675	564
909.776	929
909.876	591
909.977	517
910.077	938
910.177	595
910.278	153
910.378	782
910.478	1209
910.579	1041
910.679	1301
910.779	399
910.879	238
910.980	825
911.080	45
911.180	1438
911.280	386
911.380	159
911.480	516
911.580	-68
911.680	607
911.780	330
911.880	932
911.980	689
912.080	429
912.180	-243
912.280	298
912.380	-208
912.480	543
912.580	572
912.679	307
912.779	1196
912.879	968
912.979	-68
913.078	0
913.178	342
913.278	-355
913.377	946
913.477	458
913.577	44
913.676	441
913.776	436
913.875	367
913.975	214
914.074	131
914.174	828
914.273	722
914.373	603
914.472	512
914.572	745
914.671	-105
914.770	546
914.870	0
914.969	-331
915.068	309
915.167	637
915.267	701
915.366	872
915.465	678
915.564	-66
915.663	567
915.763	763
915.862	822
915.961	536
916.060	-168
916.159	-159
916.258	220
916.357	337
916.456	319
916.555	-60
916.654	449
916.752	317
916.851	1245
916.950	-218
917.049	364
917.148	176
917.247	500
917.345	411
917.444	-363
917.543	671
917.642	614
917.740	823
917.839	548
917.937	1053
918.036	1297
918.135	1123
918.233	472
918.332	85
918.430	-195
918.529	735
918.627	933
918.726	1070
918.824	149
918.923	1152
919.021	344
919.119	899
919.218	558
919.316	89
919.414	1141
919.512	421
919.611	520
919.709	803
919.807	672
919.905	838
920.003	394
920.102	2179
920.200	1161
920.298	817
920.396	528
920.494	938
920.592	677
920.690	683
920.788	709
920.886	75
920.984	653
921.082	591
921.180	1673
921.277	1674
921.375	1505
921.473	757
921.571	1523
921.669	1305
921.766	1182
921.864	1028
921.962	2068
922.060	1206
922.157	1180
922.255	1463
922.352	1716
922.450	1071
922.548	2190
922.645	1743
922.743	2103
922.840	3127
922.938	4626
923.035	4260
923.133	4153
923.230	4174
923.327	5345
923.425	6083
923.522	4845
923.619	4822
923.717	4886
923.814	4370
923.911	3430
924.008	3903
924.106	4160
924.203	4364
924.300	3963
924.397	4041
924.494	4345
924.591	4459
924.688	4142
924.786	3487
924.883	3621
924.979	3813
925.077	4352
925.173	4099
925.270	3667
925.367	3404
925.464	4610
925.561	4548
925.658	5022
925.755	4749
925.852	3258
925.948	4417
926.045	3757
926.142	3129
926.239	4423
926.335	3874
926.432	3337
926.529	4245
926.625	4326
926.722	4682
926.818	3326
926.915	3842
927.011	4029
927.108	3311
927.204	3184
927.301	3288
927.397	2971
927.494	4376
927.590	3078
927.687	2155
927.783	2951
927.879	4815
927.976	4079
928.072	3103
928.168	2717
928.264	3469
928.361	3523
928.457	3227
928.553	3167
928.649	2570
928.745	3553
928.841	3163
928.937	3302
929.033	3560
929.129	2592
929.225	3369
929.321	3567
929.417	2979
929.513	3531
929.609	3720
929.705	2579
929.801	3030
929.897	2794
929.993	2815
930.089	2555
930.184	2588
930.280	2191
930.376	3030
930.471	4089
930.567	2126
930.663	2813
930.758	3043
930.854	2609
930.950	2460
931.045	2707
931.141	2755
931.236	2878
931.332	3637
931.427	2718
931.523	2489
931.618	3185
931.714	3031
931.809	2549
931.905	3039
932.000	3441
932.095	1398
932.191	2336
932.286	3892
932.381	2839
932.476	2895
932.572	2138
932.667	2353
932.762	2338
932.857	2174
932.952	1988
933.047	3593
933.142	1909
933.237	1730
933.332	2053
933.427	2290
933.522	2602
933.617	2735
933.712	2417
933.807	1741
933.902	2899
933.997	3604
934.092	3225
934.187	2729
934.282	2304
934.376	1843
934.471	2602
934.566	3109
934.661	2605
934.755	2536
934.850	2320
934.945	2770
935.039	2112
935.134	1957
935.228	1952
935.323	3130
935.417	3693
935.512	2327
935.606	1283
935.701	1962
935.795	2378
935.890	2401
935.984	2643
936.079	1687
936.173	2027
936.267	1898
936.362	1605
936.456	1576
936.550	2478
936.644	3337
936.738	2665
936.833	1390
936.927	1218
937.021	1461
937.115	2509
937.209	1807
937.303	2839
937.397	1616
937.491	1629
937.585	2319
937.679	2142
937.773	1477
937.867	2030
937.961	1332
938.055	2156
938.149	2189
938.243	2697
938.337	1035
938.430	1617
938.524	2373
938.618	2719
938.712	1648
938.805	1420
938.899	2168
938.993	1982
939.086	2448
939.180	1730
939.274	1753
939.367	1461
939.461	2309
939.554	2383
939.648	1208
939.741	1413
939.835	1430
939.928	1696
940.022	2788
940.115	2148
940.208	1393
940.302	2568
940.395	2549
940.488	2055
940.582	1126
940.675	1825
940.768	965
940.861	2020
940.954	2651
941.048	1945
941.141	1986
941.234	473
941.327	1405
941.420	656
941.513	1947
941.606	1581
941.699	1549
941.792	1693
941.885	2411
941.978	1787
942.071	1817
942.164	1923
942.257	1221
942.349	1377
942.442	1307
942.535	1771
942.628	1192
942.721	625
942.813	1862
942.906	1607
942.999	1678
943.091	1213
943.184	158
943.277	1465
943.369	1526
943.462	973
943.554	818
943.647	1421
943.739	2133
943.832	1753
943.924	1610
944.017	1201
944.109	620
944.201	1749
944.294	2082
944.386	1083
944.478	1044
944.571	683
944.663	437
944.755	1149
944.847	1455
944.940	750
945.032	1087
945.124	216
945.216	1165
945.308	1030
945.400	1057
945.492	1174
945.584	1825
945.676	1626
945.768	1552
945.860	1904
945.952	281
946.044	1509
946.136	1139
946.228	1870
946.320	1119
946.412	1186
946.503	1047
946.595	1682
946.687	1172
946.779	690
946.870	1364
946.962	510
947.054	760
947.145	780
947.237	1931
947.329	190
947.420	655
947.512	1810
947.603	787
947.695	262
947.786	926
947.878	74
947.969	1019
948.061	1152
948.152	701
948.243	1038
948.335	342
948.426	982
948.517	667
948.609	1322
948.700	1160
948.791	1500
948.882	652
948.973	-303
949.065	636
949.156	1051
949.247	1057
949.338	1007
949.429	337
949.520	834
949.611	935
949.702	124
949.793	532
949.884	560
949.975	1029
950.066	-397
950.157	1273
950.247	358
950.338	-198
950.429	-288
950.520	1297
950.611	603
950.701	1006
950.792	724
950.883	856
950.973	1098
951.064	1340
951.155	876
951.245	1010
951.336	1156
951.427	1400
951.517	1430
951.608	1516
951.698	304
951.788	740
951.879	560
951.969	509
952.060	994
952.150	607
952.240	1122
952.331	567
952.421	1146
952.511	1315
952.602	556
952.692	-2
952.782	362
952.872	853
952.962	363
953.052	298
953.143	549
953.233	150
953.323	637
953.413	496
953.503	1857
953.593	940
953.683	921
953.773	-234
953.863	179
953.953	737
954.042	471
954.132	1125
954.222	738
954.312	1087
954.402	372
954.492	327
954.581	12
954.671	742
954.761	636
954.850	61
954.940	712
955.030	362
955.119	-45
955.209	535
955.298	638
955.388	609
955.477	572
955.567	-117
955.656	814
955.746	-101
955.835	362
955.925	44
956.014	476
956.103	236
956.193	922
956.282	1198
956.371	164
956.461	299
956.550	1326
956.639	-46
956.728	854
956.817	233
956.906	211
956.995	348
957.085	1267
957.174	193
957.263	721
957.352	-14
957.441	662
957.530	975
957.619	172
957.708	125
957.796	702
957.885	170
957.974	72
958.063	364
958.152	97
958.241	16
958.329	-257
958.418	523
958.507	-37
958.596	854
958.684	334
958.773	-121
958.861	-22
958.950	-426
959.039	-265
959.127	-92
959.216	-302
959.304	477
959.393	122
959.481	-136
959.570	423
959.658	-841
959.746	62
959.835	234
959.923	612
960.011	-470
960.100	44
960.188	314
960.276	554
960.365	0
960.453	-304
960.541	-201
960.629	22
960.717	160
960.805	-175
960.893	428
960.981	15
961.069	288
961.158	-187
961.245	872
961.333	1127
961.421	556
961.509	361
961.597	-697
961.685	863
961.773	329
961.861	-186
961.949	652
962.036	-39
962.124	464
962.212	355
962.299	212
962.387	-103
962.475	-843
962.562	-793
962.650	-596
962.738	-113
962.825	386
962.913	38
963.000	-303
963.088	-422
963.175	-15
963.263	-26
963.350	151
963.438	-402
963.525	-1282
963.612	538
963.700	-392
963.787	-140
963.874	135
963.962	325
964.049	366
964.136	134
964.223	-1349
964.310	-36
964.398	50
964.485	-354
964.572	-45
964.659	-295
964.746	17
964.833	-279
964.920	-462
965.007	229
965.094	-215
965.181	40
965.268	355
965.355	-120
965.441	-118
965.528	-516
965.615	-72
965.702	-67
965.789	569
965.875	-30
965.962	-310
966.049	-420
966.136	74
966.222	757
966.309	652
966.395	786
966.482	-163
966.569	-72
966.655	5
966.742	235
966.828	89
966.915	-687
967.001	-70
967.087	-465
967.174	-464
967.260	-578
967.347	2
967.433	112
967.519	-274
967.605	130
967.692	199
967.778	-241
967.864	143
967.950	114
968.036	642
968.123	-632
968.209	496
968.295	-487
968.381	-74
968.467	425
968.553	-403
968.639	461
968.725	231
968.811	239
968.897	91
968.983	173
969.069	-283
969.154	-379
969.240	-385
969.326	-353
969.412	-216
969.497	-843
969.583	-225
969.669	-862
969.755	-205
969.840	-374
969.926	-201
970.012	576
970.097	1028
970.183	1482
970.268	668
970.354	690
970.439	-442
970.525	-134
970.610	-446
970.696	-75
970.781	464
970.866	-963
970.952	-94
971.037	-523
971.122	-348
971.208	-423
971.293	911
971.378	-713
971.463	194
971.549	107
971.634	120
971.719	-332
971.804	-73
971.889	134
971.974	36
972.059	-806
972.144	26
972.229	-631
972.314	-234
972.399	-403
972.484	-1372
972.569	138
972.654	-624
972.739	-382
972.824	-127
972.908	1010
972.993	369
973.078	-402
973.163	46
973.247	-256
973.332	-977
973.417	201
973.501	151
973.586	181
973.671	-274
973.755	-617
973.840	78
973.924	-814
974.009	-172
974.093	-152
974.178	-94
974.262	244
974.346	77
974.431	-185
974.515	-803
974.600	287
974.684	379
974.768	-23
974.852	-177
974.937	518
975.021	-70
975.105	342
975.189	-555
975.273	-374
975.358	-711
975.442	-943
975.526	-971
975.610	-543
975.694	-475
975.778	113
975.862	-629
975.946	-837
976.030	-94
976.114	-403
976.198	-339
976.281	-380
976.365	229
976.449	-335
976.533	-272
976.617	-623
976.700	20
976.784	-666
976.868	-1049
976.951	-92
977.035	-539
977.119	-445
977.202	-311
977.286	25
977.369	323
977.453	-35
977.536	718
977.620	125
977.703	-226
977.787	-225
977.870	219
977.953	245
978.037	-768
978.120	-79
978.203	-1448
978.287	-107
978.370	-730
978.453	-359
978.536	-641
978.620	-761
978.703	-480
978.786	-1327
978.869	-279
978.952	-771
979.035	-407
979.118	391
979.201	-84
979.284	-373
979.367	-847
979.450	3
979.533	-233
979.616	-426
979.699	-432
979.782	-562
979.865	-433
979.948	-943
980.030	-37
980.113	-394
980.196	-851
980.279	-22
980.361	-296
980.444	502
980.526	-339
980.609	457
980.692	730
980.774	738
980.857	-244
980.939	353
981.022	-333
981.104	111
981.187	-478
981.269	-128
981.352	-552
981.434	-708
981.516	-733
981.599	-6
981.681	-629
981.763	-888
981.846	271
981.928	-322
982.010	-210
982.092	-84
982.174	304
982.256	-332
982.339	-565
982.421	-782
982.503	124
982.585	-1154
982.667	-389
982.749	114
982.831	-745
982.913	-536
982.995	-181
983.077	-522
983.158	-349
983.240	-249
983.322	-475
983.404	673
983.486	307
983.568	642
983.649	-207
983.731	1062
983.813	52
983.894	606
983.976	-54
984.058	-25
984.139	-107
984.221	267
984.302	-386
984.384	332
984.465	-933
984.547	555
984.628	201
984.710	-52
984.791	1195
984.872	-168
984.954	-209
985.035	389
985.116	-77
985.198	-297
985.279	-144
985.360	-72
985.441	-112
985.522	28
985.604	1090
985.685	-56
985.766	504
985.847	926
985.928	89
986.009	24
986.090	351
986.171	444
986.252	-360
986.333	910
986.414	309
986.495	366
986.576	532
986.656	208
986.737	885
986.818	465
986.899	129
986.980	141
987.060	-377
987.141	-520
987.222	-5
987.302	-17
987.383	774
987.464	831
987.544	888
987.625	415
987.705	179
987.786	-53
987.866	881
987.947	806
988.027	260
988.108	804
988.188	653
988.268	191
988.349	-142
988.429	682
988.509	499
988.589	540
988.670	263
988.750	357
988.830	108
988.910	264
988.990	760
989.070	513
989.151	632
989.231	279
989.311	381
989.391	526
989.471	58
989.551	114
989.631	-278
989.711	472
989.791	101
989.870	248
989.950	511
990.030	532
990.110	-552
990.190	-328
990.269	216
990.349	25
990.429	621
990.509	415
990.588	-110
990.668	-316
990.747	177
990.827	-58
990.907	-52
990.986	-488
991.066	1046
991.145	227
991.225	-367
991.304	-436
991.383	-186
991.463	-463
991.542	-209
991.622	-427
991.701	457
991.780	-654
991.859	-112
991.939	-144
992.018	-628
992.097	282
992.176	-193
992.256	-114
992.335	-563
992.414	478
992.493	242
992.572	-1227
992.651	-408
992.730	-792
992.809	-74
992.888	-570
992.967	31
993.046	-129
993.125	-791
993.203	147
993.282	-305
993.361	-188
993.440	-308
993.519	-272
993.597	311
993.676	-408
993.755	-74
993.834	-21
993.912	335
993.991	-263
994.069	-91
994.148	-176
994.226	70
994.305	-435
994.384	-244
994.462	-323
994.540	-55
994.619	-663
994.697	155
994.776	-340
994.854	41
994.932	-449
995.011	-188
995.089	208
995.167	-833
995.245	-48
995.324	-647
995.402	303
995.480	-366
995.558	21
995.636	-847
995.714	-1090
995.792	-788
995.870	-858
995.948	-605
996.026	-301
996.104	-1316
996.182	-1238
996.260	-476
996.338	292
996.416	-1142
996.494	-154
996.572	490
996.649	-133
996.727	-1078
996.805	-466
996.883	-56
996.960	-9
997.038	-1143
997.116	-1025
997.193	-1292
997.271	193
997.348	-206
997.426	-1435
997.504	-1159
997.581	206
997.658	233
997.736	-968
997.813	-368
997.891	-236
997.968	-579
998.046	-319
998.123	-996
998.200	-281
998.277	-714
998.355	534
998.432	-754
998.509	-439
998.586	-489
998.663	-740
998.741	-675
998.818	-848
998.895	-961
998.972	343
999.049	-1029
999.126	-572
999.203	-1246
999.280	-139
999.357	-110
999.434	-478
999.511	-10
999.587	-710
999.664	-813
999.741	-886
999.818	94
999.895	-1063
999.971	-797
1000.048	-631
1000.125	-567
1000.202	-756
1000.278	-255
1000.355	-921
1000.431	-806
1000.508	-484
1000.584	-1023
1000.661	-677
1000.738	-671
1000.814	-918
1000.890	-1399
1000.967	-909
1001.043	-336
1001.120	-619
1001.196	-931
1001.272	-195
1001.349	-1159
1001.425	-1151
1001.501	-212
1001.577	-861
1001.654	-719
1001.730	502
1001.806	-1168
1001.882	-942
1001.958	-570
1002.034	-517
1002.110	-856
1002.186	-180
1002.262	-934
1002.338	-1236
1002.414	-431
1002.490	-514
1002.566	-972
1002.642	-1257
1002.718	-528
1002.794	-1109
1002.870	-1740
1002.945	-750
1003.021	332
1003.097	-353
1003.173	-727
1003.248	-1225
1003.324	-346
1003.400	-305
1003.475	-1351
1003.551	-976
1003.626	-1816
1003.702	-424
1003.777	-916
1003.853	-1151
1003.928	-877
1004.004	-1119
1004.079	-1017
1004.155	-1211
1004.230	-800
1004.305	-1399
1004.381	-954
1004.456	-1042
1004.531	-1321
1004.607	-1455
1004.682	-1623
1004.757	-800
1004.832	-1781
1004.907	-1552
1004.982	-1587
1005.057	-1501
1005.133	-882
1005.208	-803
1005.283	-1169
1005.358	-74
1005.433	-1040
1005.508	-914
1005.583	-973
1005.657	-1152
1005.732	-1090
1005.807	-1273
1005.882	-1033
1005.957	-881
1006.032	-995
1006.106	-1251
1006.181	-1182
1006.256	-1242
1006.331	-647
1006.405	-734
1006.480	-720
1006.554	-2110
1006.629	-1579
1006.704	-1995
1006.778	-364
1006.853	-1091
1006.927	-1114
1007.002	-1069
1007.076	-1069
1007.150	-880
1007.225	-1227
1007.299	-767
1007.373	-1226
1007.448	-1161
1007.522	-231
1007.596	-1132
1007.671	-1146
1007.745	-1273
1007.819	-1931
1007.893	-1138
1007.967	-400
1008.041	-1603
1008.115	-1186
1008.190	-722
1008.264	-1467
1008.338	-1200
1008.412	-1230
1008.486	-1161
1008.560	-391
1008.633	-1018
1008.707	-1846
1008.781	-491
1008.855	-986
1008.929	-1487
1009.003	-1262
1009.076	-1929
1009.150	-1612
1009.224	-213
1009.298	-839
1009.371	-2231
1009.445	-1091
1009.519	-965
1009.592	-1301
1009.666	-1181
1009.739	-1760
1009.813	-1213
1009.886	-1090
1009.960	-1721
1010.033	-1394
1010.107	-893
1010.180	-1315
1010.253	-707
1010.327	-897
1010.400	-1117
1010.473	-1260
1010.547	-1130
1010.620	-1427
1010.693	-1138
1010.766	-1643
1010.840	-1512
1010.913	-1170
1010.986	-2168
1011.059	-1152
1011.132	-945
1011.205	-972
1011.278	-1739
1011.351	-1133
1011.424	-1061
1011.497	-1283
1011.570	-1582
1011.643	-1253
1011.716	-1182
1011.789	-912
1011.862	-1672
1011.934	-1082
1012.007	-2193
1012.080	-1763
1012.153	-1116
1012.225	-1378
1012.298	-1581
1012.371	-1677
1012.443	-1040
1012.516	-1274
1012.588	-1470
1012.661	-656
1012.733	-1802
1012.806	-1118
1012.879	-116
1012.951	-1766
1013.023	-972
1013.096	-1222
1013.168	-1792
1013.241	-552
1013.313	-2426
1013.385	-1810
1013.458	-1832
1013.530	-1194
1013.602	-742
1013.674	-1131
1013.746	-1355
1013.819	-1541
1013.891	-1539
1013.963	-2047
1014.035	-997
1014.107	-1695
1014.179	-1852
1014.251	-1520
1014.323	-593
1014.395	-1482
1014.467	-1825
1014.539	-2060
1014.611	-1913
1014.683	-836
1014.754	-773
1014.826	-1262
1014.898	-1851
1014.970	-1950
1015.042	-1355
1015.113	-1788
1015.185	-1281
1015.257	-1021
1015.328	-1194
1015.400	-1465
1015.471	-1969
1015.543	-1858
1015.615	-1125
1015.686	-1454
1015.757	-1694
1015.829	-1361
1015.901	-1443
1015.972	-1390
1016.043	-1398
1016.115	-2133
1016.186	-1424
1016.257	-1937
1016.328	-760
1016.400	-1471
1016.471	-1654
1016.542	-721
1016.613	-1566
1016.685	-1459
1016.756	-1548
1016.827	-1834
1016.898	-1679
1016.969	-1892
1017.040	-927
1017.111	-1388
1017.182	-673
1017.253	-687
1017.324	-1817
1017.395	-2128
1017.466	-1514
1017.537	-1532
1017.608	-1640
1017.678	-1204
1017.749	-1239
1017.820	-691
1017.891	-1746
1017.961	-1675
1018.032	-1778
1018.103	-983
1018.173	-1304
1018.244	-2205
1018.315	-1686
1018.385	-1356
1018.456	-1143
1018.526	-1612
1018.597	-1414
1018.667	-1769
1018.738	-1686
1018.808	-1462
1018.878	-2152
1018.949	-1655
1019.019	-932
1019.089	-1657
1019.160	-1763
1019.230	-1790
1019.300	-1176
1019.371	-1979
1019.441	-1133
1019.511	-1370
1019.581	-1252
1019.651	-1303
1019.721	-732
1019.791	-1439
1019.861	-1796
1019.931	-1130
1020.001	-1587
1020.071	-1188
1020.141	-1565
1020.211	-1680
1020.281	-1367
1020.351	-1460
1020.421	-1772
1020.491	-1131
1020.560	-1567
1020.630	-2059
1020.700	-1003
1020.770	-1488
1020.839	-1266
1020.909	-1174
1020.979	-1224
1021.048	-1908
1021.118	-2084
1021.187	-1654
1021.257	-1485
1021.326	-2241
1021.396	-1756
1021.465	-1030
1021.535	-1359
1021.604	-1724
1021.674	-1598
1021.743	-1335
1021.812	-1152
1021.882	-1871
1021.951	-1421
1022.020	-2140
1022.089	-1596
1022.159	-1919
1022.228	-679
1022.297	-931
1022.366	-1864
1022.435	-1731
1022.504	-2131
1022.573	-1626
1022.642	-883
1022.711	-1936
1022.781	-1344
1022.849	-1247
1022.918	-1539
1022.987	-1367
1023.056	-1947
1023.125	-1622
1023.194	-689
1023.263	-1956
1023.331	-2083
1023.400	-2301
1023.469	-1483
1023.538	-1356
1023.606	-1698
1023.675	-1340
1023.744	-1136
1023.812	-1669
1023.881	-1072
1023.949	-1230
1024.018	-1993
1024.086	-1396
1024.155	-1031
1024.223	-2133
1024.292	-2145
1024.360	-1522
1024.429	-1654
1024.497	-1977
1024.565	-1635
1024.634	-1977
1024.702	-961
1024.770	-1295
1024.838	-1392
1024.907	-1742
1024.975	-1538
1025.043	-809
1025.111	-1432
1025.179	-1851
1025.247	-1559
1025.315	-825
1025.383	-1241
1025.451	-1094
1025.519	-1207
1025.587	-1756
1025.655	-1336
1025.723	-1378
1025.791	-1728
1025.859	-1017
1025.927	-1664
1025.995	-1528
1026.062	-1280
1026.130	-1957
1026.198	-1321
1026.266	-1768
1026.333	-1282
1026.401	-2019
1026.469	-2212
1026.536	-1175
1026.604	-751
1026.671	-2029
1026.739	-1141
1026.806	-2267
1026.874	-1957
1026.941	-1129
1027.009	-1087
1027.076	-1465
1027.144	-1933
1027.211	-1805
1027.278	-1647
1027.345	-1503
1027.413	-1105
1027.480	-1258
1027.547	-1964
1027.614	-1471
1027.682	-914
1027.749	-1272
1027.816	-1544
1027.883	-1290
1027.950	-1595
1028.017	-1087
1028.084	-1399
1028.151	-1187
1028.218	-1833
1028.285	-2134
1028.352	-1757
1028.419	-2460
1028.486	-2039
1028.553	-1902
1028.619	-1367
1028.686	-854
1028.753	-1547
1028.820	-1944
1028.886	-1681
1028.953	-1157
1029.020	-1692
1029.086	-1364
1029.153	-853
1029.220	-1464
1029.286	-1364
1029.353	-1070
1029.419	-1324
1029.486	-1689
1029.552	-1450
1029.619	-1124
1029.685	-1431
1029.751	-2739
1029.818	-1275
1029.884	-1787
1029.951	-358
1030.017	-1467
1030.083	-1226
1030.149	-1891
1030.216	-1324
1030.282	-1331
1030.348	-1256
1030.414	-1326
1030.480	-2589
1030.546	-1045
1030.612	-1363
1030.678	-1354
1030.744	-1507
1030.810	-1645
1030.876	-1599
1030.942	-1699
1031.008	-2183
1031.074	-1440
1031.140	-1475
1031.206	-1731
1031.272	-1466
1031.337	-1546
1031.403	-1460
1031.469	-1092
1031.534	-1598
1031.600	-677
1031.666	-1290
1031.731	-1253
1031.797	-1566
1031.863	-1752
1031.928	-1911
1031.994	-1327
1032.059	-2474
1032.125	-1033
1032.190	-1737
1032.256	-1854
1032.321	-1302
1032.386	-1868
1032.452	-1839
1032.517	-1719
1032.582	-1707
1032.647	-1442
1032.713	-1955
1032.778	-1647
1032.843	-1722
1032.908	-1736
1032.974	-1137
1033.039	-1117
1033.104	-813
1033.169	-1707
1033.234	-1596
1033.299	-1138
1033.364	-1601
1033.429	-1465
1033.494	-1137
1033.559	-1510
1033.624	-1945
1033.688	-1272
1033.753	-1722
1033.818	-1555
1033.883	-1482
1033.948	-1509
1034.013	-1354
1034.077	-1287
1034.142	-271
1034.207	-670
1034.271	17
1034.336	-581
1034.400	225
1034.465	769
1034.530	-934
1034.594	-250
1034.658	-876
1034.723	-1131
1034.787	-2147
1034.852	-2701
1034.916	-750
1034.981	-1795
1035.045	-339
1035.109	-2181
1035.173	-1315
1035.238	-2104
1035.302	-1703
1035.366	-777
1035.430	-1342
1035.495	-2371
1035.559	-1413
1035.623	-2372
1035.687	-1277
1035.751	-2018
1035.815	-1384
1035.879	-1262
1035.943	-1052
1036.007	-1917
1036.071	-1214
1036.135	-1563
1036.198	-1536
1036.262	-1589
1036.326	-2330
1036.390	-2102
1036.454	-1593
1036.517	-1203
1036.581	-2109
1036.645	-1629
1036.709	-1571
1036.772	-2302
1036.836	-1107
1036.900	-1456
1036.963	-2099
1037.026	-2332
1037.090	-1449
1037.154	-1559
1037.217	-1883
1037.280	-1847
1037.344	-1163
1037.407	-1627
1037.471	-1689
1037.534	-1745
1037.597	-1368
1037.661	-1125
1037.724	-2452
1037.787	-1762
1037.850	-1759
1037.913	-1309
1037.977	-2030
1038.040	-2096
1038.103	-2073
1038.166	-1327
1038.229	-1771
1038.292	-1377
1038.355	-1148
1038.418	-1981
1038.481	-2314
1038.544	-1662
1038.607	-1940
1038.670	-1878
1038.732	-2447
1038.795	-1562
1038.858	-1623
1038.921	-2058
1038.984	-1872
1039.046	-1764
1039.109	-1880
1039.172	-1830
1039.234	-2087
1039.297	-2069
1039.360	-1921
1039.422	-1181
1039.485	-1925
1039.547	-2697
1039.610	-1922
1039.672	-1998
1039.734	-1884
1039.797	-1728
1039.859	-2384
1039.922	-1448
1039.984	-2058
1040.046	-2012
1040.109	-1668
1040.171	-1786
1040.233	-2270
1040.295	-1951
1040.358	-1915
1040.420	-1423
1040.482	-2153
1040.544	-2348
1040.606	-1962
1040.668	-1947
1040.730	-1638
1040.792	-1764
1040.854	-1551
1040.916	-1652
1040.978	-2730
1041.040	-2633
1041.102	-1932
1041.164	-2280
1041.225	-2131
1041.287	-2920
1041.349	-2293
1041.411	-1302
1041.472	-2427
1041.534	-2158
1041.596	-1981
1041.657	-1893
1041.719	-2030
1041.781	-2253
1041.842	-1623
1041.904	-2183
1041.965	-1764
1042.027	-2250
1042.088	-1673
1042.150	-2092
1042.211	-1453
1042.272	-1656
1042.334	-1797
1042.395	-1964
1042.456	-2067
1042.518	-1598
1042.579	-1867
1042.640	-2596
1042.701	-1852
1042.763	-2033
1042.824	-2150
1042.885	-1893
1042.946	-2418
1043.007	-2150
1043.068	-2197
1043.129	-2638
1043.190	-2237
1043.251	-1931
1043.312	-2032
1043.373	-1741
1043.434	-2599
1043.495	-1746
1043.556	-1416
1043.616	-1565
1043.677	-1732
1043.738	-1941
1043.799	-2402
1043.859	-1915
1043.920	-2108
1043.981	-2679
1044.041	-2089
1044.102	-2316
1044.162	-1535
1044.223	-2237
1044.284	-1912
1044.344	-1870
1044.405	-1669
1044.465	-1550
1044.525	-1854
1044.586	-1736
1044.646	-2343
1044.707	-1970
1044.767	-2531
1044.827	-1840
1044.887	-1876
1044.948	-1954
1045.008	-1699
1045.068	-2185
1045.128	-1904
1045.188	-1965
1045.249	-2166
1045.309	-1645
1045.369	-1439
1045.429	-1634
1045.489	-1663
1045.549	-1356
1045.609	-2817
1045.669	-1895
1045.729	-2135
1045.789	-2044
1045.848	-1093
1045.908	-1843
1045.968	-1680
1046.028	-2650
1046.088	-1762
1046.147	-1865
1046.207	-2249
1046.267	-1645
1046.326	-1246
1046.386	-1959
1046.446	-1289
1046.505	-1364
1046.565	-1390
1046.624	-1549
1046.684	-903
1046.743	-1678
1046.803	-677
1046.862	-937
1046.922	0
