'Start Wavelength	183.907
'End Wavelength	1046.922
'Gate Delay	5.000
'Gate Width (ms)	1.050
'Laser Output Level	0.000
'X Position	0.000
'Y Position	0.000
'Z Position	0.000
'Grid Point Number	1.000
'Shot Number	100.000
183.907	390.000
183.977	574.000
184.047	-18
184.116	339
184.186	817
184.256	227
184.325	171
184.395	104
184.465	284
184.534	972
184.604	877
184.674	285
184.743	21
184.813	21
184.883	406
184.952	87
185.022	570
185.092	-454
185.161	-303
185.231	354
185.301	-59
185.370	269
185.440	91
185.509	-186
185.579	-73
185.649	516
185.718	486
185.788	682
185.857	19
185.927	58
185.996	-276
186.066	508
186.136	682
186.205	256
186.275	-174
186.344	-273
186.414	344
186.483	611
186.553	1180
186.622	1215
186.692	295
186.761	877
186.831	124
186.900	323
186.970	-290
187.039	796
187.109	363
187.178	850
187.248	849
187.317	1332
187.387	-22
187.456	1333
187.526	-15
187.595	656
187.664	657
187.734	475
187.803	937
187.873	-120
187.942	317
188.012	24
188.081	32
188.150	544
188.220	607
188.289	700
188.358	490
188.428	475
188.497	278
188.567	437
188.636	401
188.705	359
188.775	190
188.844	590
188.913	239
188.983	865
189.052	324
189.121	41
189.191	389
189.260	123
189.329	158
189.399	724
189.468	199
189.537	158
189.606	-213
189.676	492
189.745	192
189.814	375
189.883	637
189.953	-53
190.022	401
190.091	428
190.161	503
190.230	848
190.299	534
190.368	-54
190.437	189
190.507	488
190.576	51
190.645	623
190.714	133
190.783	400
190.853	-118
190.922	328
190.991	-59
191.060	1057
191.129	364
191.198	584
191.268	99
191.337	973
191.406	210
191.475	-394
191.544	-107
191.613	820
191.682	193
191.752	696
191.821	253
191.890	372
191.959	390
192.028	795
192.097	84
192.166	843
192.235	698
192.304	674
192.373	112
192.442	232
192.511	422
192.580	386
192.650	917
192.719	590
192.788	-117
192.857	186
192.926	-87
192.995	564
193.064	539
193.133	247
193.202	206
193.271	820
193.340	402
193.409	382
193.478	-153
193.547	563
193.615	5
193.684	966
193.753	566
193.822	539
193.891	250
193.960	391
194.029	257
194.098	369
194.167	72
194.236	759
194.305	260
194.374	1066
194.443	716
194.512	66
194.580	-172
194.649	99
194.718	209
194.787	120
194.856	246
194.925	-503
194.994	104
195.062	986
195.131	-582
195.200	170
195.269	-66
195.338	747
195.407	877
195.475	446
195.544	-349
195.613	-16
195.682	502
195.751	89
195.819	188
195.888	379
195.957	782
196.026	253
196.094	113
196.163	134
196.232	340
196.301	463
196.369	120
196.438	191
196.507	39
196.576	-463
196.644	670
196.713	365
196.782	209
196.850	548
196.919	48
196.988	-215
197.056	633
197.125	-256
197.194	289
197.262	257
197.331	11
197.400	322
197.468	132
197.537	416
197.606	741
197.674	361
197.743	36
197.812	-249
197.880	447
197.949	446
198.017	-387
198.086	36
198.155	-94
198.223	571
198.292	523
198.360	287
198.429	358
198.497	791
198.566	-116
198.635	935
198.703	225
198.772	617
198.840	512
198.909	312
198.977	-256
199.046	934
199.114	-4
199.183	156
199.251	95
199.320	-501
199.388	1041
199.457	31
199.525	169
199.594	-40
199.662	-237
199.731	327
199.799	36
199.867	756
199.936	238
200.004	497
200.073	380
200.141	1192
200.210	715
200.278	236
200.346	736
200.415	640
200.483	322
200.552	1051
200.620	147
200.688	397
200.757	122
200.825	-228
200.893	378
200.962	535
201.030	-17
201.098	416
201.167	333
201.235	-605
201.303	393
201.372	484
201.440	590
201.508	232
201.577	-251
201.645	215
201.713	53
201.781	-97
201.850	101
201.918	420
201.986	-273
202.055	142
202.123	134
202.191	86
202.259	826
202.327	22
202.396	410
202.464	86
202.532	502
202.600	589
202.669	241
202.737	533
202.805	120
202.873	98
202.941	-106
203.009	874
203.078	-306
203.146	972
203.214	-304
203.282	-57
203.350	299
203.418	514
203.487	307
203.555	102
203.623	291
203.691	318
203.759	57
203.827	83
203.895	323
203.963	351
204.031	517
204.099	524
204.168	20
204.236	422
204.304	568
204.372	116
204.440	-296
204.508	71
204.576	127
204.644	71
204.712	17
204.780	552
204.848	-38
204.916	275
204.984	-235
205.052	604
205.120	8
205.188	-140
205.256	-202
205.324	19
205.392	-178
205.460	919
205.528	31
205.596	274
205.664	354
205.732	78
205.799	647
205.867	-149
205.935	-151
206.003	-20
206.071	-472
206.139	110
206.207	-99
206.275	738
206.343	520
206.411	3
206.478	114
206.546	113
206.614	54
206.682	-220
206.750	771
206.818	338
206.885	821
206.953	-112
207.021	447
207.089	981
207.157	-208
207.225	46
207.292	54
207.360	946
207.428	-296
207.496	382
207.563	-318
207.631	716
207.699	-190
207.767	-201
207.834	-241
207.902	313
207.970	553
208.038	110
208.105	-8
208.173	193
208.241	35
208.309	235
208.376	214
208.444	984
208.512	-102
208.579	-133
208.647	3
208.715	546
208.782	1046
208.850	985
208.918	-75
208.985	657
209.053	-241
209.120	179
209.188	631
209.256	422
209.323	148
209.391	40
209.459	869
209.526	392
209.594	-872
209.661	-377
209.729	512
209.796	184
209.864	398
209.932	-92
209.999	578
210.067	124
210.134	-110
210.202	717
210.269	376
210.337	519
210.404	802
210.472	142
210.539	251
210.607	539
210.674	353
210.742	-90
210.809	-98
210.877	322
210.944	684
211.012	47
211.079	191
211.146	87
211.214	389
211.281	883
211.349	560
211.416	837
211.484	371
211.551	139
211.618	-233
211.686	286
211.753	-225
211.821	132
211.888	516
211.955	595
212.023	9
212.090	-396
212.157	140
212.225	96
212.292	596
212.359	492
212.427	773
212.494	-94
212.561	420
212.629	546
212.696	63
212.763	-73
212.831	54
212.898	843
212.965	73
213.032	-218
213.100	175
213.167	200
213.234	239
213.301	-256
213.369	197
213.436	273
213.503	324
213.570	895
213.638	272
213.705	426
213.772	-301
213.839	715
213.906	-132
213.973	921
214.041	355
214.108	314
214.175	170
214.242	872
214.309	871
214.376	-59
214.444	-145
214.511	433
214.578	-377
214.645	756
214.712	670
214.779	-96
214.846	-46
214.913	447
214.980	-13
215.048	367
215.115	-108
215.182	85
215.249	369
215.316	158
215.383	601
215.450	419
215.517	233
215.584	93
215.651	50
215.718	138
215.785	644
215.852	14
215.919	556
215.986	-169
216.053	-533
216.120	1082
216.187	-348
216.254	562
216.321	247
216.388	118
216.455	100
216.522	-262
216.589	52
216.656	233
216.722	-127
216.789	105
216.856	-173
216.923	-25
216.990	-198
217.057	889
217.124	94
217.191	346
217.258	50
217.324	-3
217.391	339
217.458	364
217.525	-476
217.592	237
217.659	168
217.725	30
217.792	-178
217.859	897
217.926	177
217.993	-2
218.059	-17
218.126	54
218.193	544
218.260	8
218.327	-383
218.393	55
218.460	-256
218.527	533
218.594	-58
218.660	483
218.727	-74
218.794	-44
218.860	110
218.927	-415
218.994	-304
219.061	623
219.127	179
219.194	51
219.261	156
219.327	520
219.394	972
219.461	-121
219.527	47
219.594	686
219.661	773
219.727	180
219.794	-436
219.860	384
219.927	-77
219.994	1037
220.060	1876
220.127	1604
220.193	338
220.260	985
220.326	26
220.393	-374
220.460	229
220.526	-758
220.593	-383
220.659	426
220.726	382
220.792	-174
220.859	200
220.925	874
220.992	-392
221.058	39
221.125	237
221.191	112
221.258	-123
221.324	688
221.391	-188
221.457	732
221.524	315
221.590	-272
221.657	1270
221.723	50
221.789	145
221.856	-377
221.922	-1
221.989	251
222.055	24
222.121	-158
222.188	1279
222.254	82
222.321	411
222.387	345
222.453	631
222.520	-488
222.586	-624
222.652	-261
222.719	-373
222.785	40
222.851	-147
222.918	-310
222.984	84
223.050	-293
223.116	-991
223.183	44
223.249	146
223.315	294
223.382	-298
223.448	217
223.514	-192
223.580	736
223.647	-113
223.713	351
223.779	54
223.845	389
223.911	-78
223.978	-58
224.044	-126
224.110	-61
224.176	242
224.242	-703
224.309	-331
224.375	-240
224.441	-283
224.507	269
224.573	-86
224.639	377
224.705	-150
224.772	58
224.838	-103
224.904	322
224.970	-843
225.036	15
225.102	265
225.168	152
225.234	347
225.300	311
225.366	162
225.432	-31
225.499	688
225.565	786
225.631	-443
225.697	-356
225.763	81
225.829	-535
225.895	-555
225.961	625
226.027	91
226.093	379
226.159	564
226.225	853
226.291	619
226.357	689
226.423	-14
226.489	651
226.554	164
226.620	558
226.686	-139
226.752	485
226.818	645
226.884	1221
226.950	104
227.016	351
227.082	223
227.148	501
227.214	652
227.279	565
227.345	592
227.411	1011
227.477	1979
227.543	4577
227.609	3848
227.674	1911
227.740	815
227.806	500
227.872	-348
227.938	789
228.003	666
228.069	699
228.135	45
228.201	416
228.267	-226
228.332	247
228.398	-396
228.464	457
228.530	193
228.595	754
228.661	-668
228.727	-329
228.792	62
228.858	-548
228.924	-627
228.990	964
229.055	-68
229.121	-227
229.187	41
229.252	445
229.318	36
229.384	261
229.449	-705
229.515	-600
229.581	-503
229.646	1045
229.712	-28
229.777	-393
229.843	-135
229.909	264
229.974	227
230.040	137
230.105	-78
230.171	995
230.236	-379
230.302	-313
230.368	181
230.433	85
230.499	-123
230.564	465
230.630	-382
230.695	262
230.761	1140
230.826	-331
230.892	1201
230.957	505
231.023	-249
231.088	-167
231.154	-387
231.219	-499
231.284	-235
231.350	-163
231.415	-227
231.481	-405
231.546	-107
231.612	-65
231.677	193
231.742	434
231.808	213
231.873	237
231.939	-573
232.004	895
232.069	214
232.135	-88
232.200	230
232.265	440
232.331	78
232.396	122
232.461	53
232.527	-225
232.592	-523
232.657	-45
232.723	135
232.788	-81
232.853	519
232.918	927
232.984	-45
233.049	-223
233.114	49
233.179	382
233.245	299
233.310	-321
233.375	-706
233.440	299
233.506	214
233.571	40
233.636	-160
233.701	39
233.766	-297
233.832	-145
233.897	-192
233.962	-284
234.027	-68
234.092	545
234.157	147
234.222	49
234.288	215
234.353	433
234.418	117
234.483	947
234.548	433
234.613	-296
234.678	-145
234.743	-477
234.808	103
234.873	-735
234.938	62
235.004	-7
235.069	348
235.134	-108
235.199	144
235.264	436
235.329	46
235.394	556
235.459	-194
235.524	58
235.589	76
235.654	802
235.719	-487
235.784	349
235.849	-485
235.913	33
235.978	-293
236.043	-140
236.108	649
236.173	45
236.238	244
236.303	-393
236.368	-396
236.433	21
236.498	4
236.563	553
236.627	164
236.692	1021
236.757	659
236.822	113
236.887	-283
236.952	65
237.017	-559
237.081	1115
237.146	-210
237.211	614
237.276	540
237.341	1815
237.405	681
237.470	62
237.535	-509
237.600	145
237.664	101
237.729	-539
237.794	-410
237.859	424
237.923	-178
237.988	-174
238.053	-106
238.118	-62
238.182	-135
238.247	582
238.312	-339
238.376	487
238.441	-877
238.506	735
238.570	-150
238.635	600
238.700	92
238.764	-376
238.829	242
238.893	135
238.958	-397
239.023	-417
239.087	104
239.152	441
239.216	-214
239.281	324
239.346	394
239.410	515
239.475	479
239.539	521
239.604	290
239.668	1577
239.733	1026
239.797	4935
239.862	7506
239.926	4179
239.991	980
240.055	1564
240.120	458
240.184	529
240.249	593
240.313	86
240.378	-164
240.442	628
240.507	-342
240.571	611
240.635	-572
240.700	-471
240.764	-74
240.829	-60
240.893	-388
240.957	156
241.022	-708
241.086	677
241.151	66
241.215	-906
241.279	16
241.344	-128
241.408	540
241.472	343
241.537	122
241.601	278
241.665	-278
241.730	91
241.794	-578
241.858	-196
241.922	-437
241.987	-122
242.051	-771
242.115	326
242.179	-30
242.244	-595
242.308	848
242.372	-11
242.436	147
242.501	-138
242.565	171
242.629	-253
242.693	200
242.757	35
242.822	-201
242.886	304
242.950	63
243.014	121
243.078	-504
243.142	-586
243.206	-141
243.271	157
243.335	535
243.399	661
243.463	588
243.527	1148
243.591	-383
243.655	-69
243.719	35
243.783	-358
243.847	-299
243.911	499
243.975	-243
244.040	-407
244.104	419
244.168	151
244.232	-613
244.296	-255
244.360	-155
244.424	453
244.488	123
244.552	-156
244.615	-707
244.679	-20
244.743	-476
244.807	-549
244.871	552
244.935	-118
244.999	27
245.063	192
245.127	0
245.191	-242
245.255	-609
245.319	179
245.383	-982
245.446	503
245.510	-883
245.574	369
245.638	323
245.702	-153
245.766	23
245.829	245
245.893	-493
245.957	-366
246.021	-21
246.085	-8
246.149	521
246.212	311
246.276	-685
246.340	471
246.404	183
246.467	-713
246.531	-671
246.595	678
246.659	248
246.722	-410
246.786	151
246.850	-39
246.913	-147
246.977	-256
247.041	-299
247.104	-203
247.168	-3
247.232	567
247.295	-391
247.359	130
247.423	239
247.486	362
247.550	-380
247.614	681
247.677	258
247.741	-275
247.804	155
247.868	401
247.932	-967
247.995	470
248.059	-556
248.122	460
248.186	178
248.249	-72
248.313	1368
248.376	794
248.440	-371
248.503	827
248.567	654
248.630	-271
248.694	-621
248.757	668
248.821	623
248.884	1074
248.948	463
249.011	351
249.075	465
249.138	1132
249.202	15
249.265	304
249.328	-339
249.392	226
249.455	-404
249.519	-148
249.582	21
249.645	937
249.709	-147
249.772	295
249.835	310
249.899	-268
249.962	125
250.025	-583
250.089	-25
250.152	563
250.215	-367
250.279	-218
250.342	38
250.405	971
250.468	-306
250.532	200
250.595	385
250.658	2770
250.721	2884
250.785	298
250.848	625
250.911	38
250.974	366
251.038	838
251.101	676
251.164	1
251.227	-816
251.290	734
251.354	513
251.417	4630
251.480	1204
251.543	2231
251.606	6723
251.669	2162
251.732	604
251.795	913
251.859	1329
251.922	2999
251.985	667
252.048	709
252.111	-209
252.174	144
252.237	402
252.300	1831
252.363	2577
252.426	4328
252.489	469
252.552	532
252.615	-693
252.678	555
252.741	833
252.804	1973
252.867	4249
252.930	1113
252.993	-826
253.056	309
253.119	-76
253.182	49
253.245	-84
253.308	716
253.371	-749
253.434	-175
253.497	691
253.559	818
253.622	-508
253.685	-221
253.748	-1208
253.811	849
253.874	169
253.937	-242
254.000	192
254.062	367
254.125	-138
254.188	347
254.251	739
254.314	-89
254.376	-442
254.439	-75
254.502	-212
254.565	214
254.628	96
254.690	-93
254.753	-581
254.816	-534
254.878	4
254.941	258
255.004	502
255.067	-195
255.129	-675
255.192	74
255.255	-1585
255.317	539
255.380	-146
255.443	831
255.505	25
255.568	-532
255.631	93
255.693	498
255.756	-510
255.819	855
255.881	244
255.944	-349
256.006	-116
256.069	-190
256.132	146
256.194	-99
256.257	-378
256.319	626
256.382	-167
256.444	1546
256.507	588
256.569	-401
256.632	197
256.694	-9
256.757	497
256.819	855
256.882	-463
256.944	-217
257.007	513
257.069	-566
257.132	429
257.194	429
257.257	73
257.319	-804
257.381	-848
257.444	297
257.506	1488
257.569	718
257.631	481
257.693	733
257.756	-25
257.818	-267
257.880	-223
257.943	91
258.005	-148
258.067	-838
258.130	213
258.192	-301
258.254	-505
258.317	-619
258.379	-323
258.441	-62
258.503	145
258.566	129
258.628	574
258.690	-834
258.753	-88
258.815	303
258.877	-17
258.939	515
259.001	-459
259.064	-102
259.126	-352
259.188	43
259.250	53
259.312	223
259.375	-372
259.437	-460
259.499	3
259.561	-26
259.623	-678
259.685	-737
259.747	-193
259.809	324
259.872	-185
259.934	-173
259.996	-19
260.058	-186
260.120	294
260.182	-454
260.244	-782
260.306	780
260.368	-151
260.430	-750
260.492	-702
260.554	-51
260.616	268
260.678	230
260.740	-302
260.802	-914
260.864	-267
260.926	-827
260.988	175
261.050	299
261.112	-780
261.174	797
261.236	-373
261.298	319
261.359	-122
261.421	322
261.483	-376
261.545	396
261.607	-449
261.669	-87
261.731	888
261.793	563
261.854	-539
261.916	-137
261.978	-323
262.040	101
262.102	828
262.164	-733
262.225	-142
262.287	956
262.349	242
262.411	277
262.472	192
262.534	-69
262.596	229
262.658	156
262.719	-744
262.781	176
262.843	-824
262.904	515
262.966	152
263.028	-232
263.090	1009
263.151	545
263.213	319
263.275	12
263.336	-55
263.398	37
263.459	80
263.521	-361
263.583	-128
263.644	-283
263.706	382
263.767	-668
263.829	11
263.891	-548
263.952	-123
264.014	-847
264.075	-358
264.137	72
264.198	-313
264.260	-588
264.321	15
264.383	-309
264.444	7
264.506	100
264.567	138
264.629	22
264.690	-445
264.752	55
264.813	203
264.875	-519
264.936	-444
264.998	376
265.059	1024
265.120	-365
265.182	103
265.243	715
265.305	400
265.366	393
265.427	369
265.489	212
265.550	-633
265.611	285
265.673	388
265.734	381
265.795	316
265.857	164
265.918	-12
265.979	312
266.040	420
266.102	394
266.163	258
266.224	-111
266.286	104
266.347	-1298
266.408	418
266.469	288
266.530	-294
266.592	112
266.653	68
266.714	-301
266.775	-389
266.836	-85
266.898	-449
266.959	-213
267.020	-81
267.081	873
267.142	132
267.203	-267
267.264	-352
267.326	269
267.387	-327
267.448	-89
267.509	-153
267.570	-142
267.631	-265
267.692	-831
267.753	50
267.814	-257
267.875	-357
267.936	-111
267.997	129
268.058	282
268.119	-334
268.180	-350
268.241	-189
268.302	185
268.363	-439
268.424	-499
268.485	72
268.546	-141
268.607	-126
268.668	-376
268.729	-287
268.790	-144
268.851	339
268.912	-338
268.972	-3
269.033	65
269.094	-1089
269.155	-139
269.216	409
269.277	-258
269.338	-237
269.398	436
269.459	100
269.520	-130
269.581	-238
269.642	-60
269.702	-24
269.763	151
269.824	160
269.885	123
269.945	-162
270.006	-109
270.067	-731
270.128	-479
270.188	-402
270.249	126
270.310	58
270.370	897
270.431	-4
270.492	-387
270.553	-23
270.613	152
270.674	221
270.734	34
270.795	445
270.856	286
270.916	-299
270.977	537
271.038	-19
271.098	116
271.159	-177
271.219	-556
271.280	128
271.340	566
271.401	1
271.462	-422
271.522	-352
271.583	588
271.643	-696
271.704	274
271.764	-233
271.825	148
271.885	1957
271.946	1023
272.006	-285
272.066	1408
272.127	2648
272.187	3372
272.248	272
272.308	307
272.369	468
272.429	168
272.489	7
272.550	-72
272.610	-87
272.671	294
272.731	776
272.791	-137
272.852	-763
272.912	530
272.972	249
273.033	37
273.093	-868
273.153	431
273.214	652
273.274	1
273.334	-298
273.394	-332
273.455	-246
273.515	574
273.575	-55
273.635	580
273.696	559
273.756	863
273.816	643
273.876	383
273.936	22
273.997	910
274.057	-381
274.117	-751
274.177	-240
274.237	1041
274.297	659
274.358	-33
274.418	537
274.478	567
274.538	444
274.598	-12
274.658	70
274.718	33
274.778	248
274.838	269
274.898	-226
274.958	265
275.018	532
275.078	431
275.138	-312
275.198	237
275.258	796
275.318	452
275.378	-25
275.438	920
275.498	-123
275.558	71
275.618	-349
275.678	-340
275.738	573
275.798	707
275.858	-86
275.918	402
275.978	416
276.038	686
276.098	255
276.157	-132
276.217	422
276.277	-88
276.337	518
276.397	728
276.457	772
276.517	390
276.576	472
276.636	-189
276.696	31
276.756	-173
276.815	428
276.875	345
276.935	178
276.995	828
277.055	135
277.114	549
277.174	63
277.234	508
277.293	-740
277.353	185
277.413	260
277.472	183
277.532	-349
277.592	906
277.651	557
277.711	599
277.771	177
277.830	1245
277.890	401
277.950	1850
278.009	3004
278.069	1214
278.128	2138
278.188	1893
278.248	916
278.307	1773
278.367	785
278.426	390
278.486	112
278.545	-26
278.605	346
278.664	135
278.724	475
278.783	1268
278.843	1323
278.902	441
278.962	-93
279.021	1299
279.081	166
279.140	-1
279.199	263
279.259	756
279.318	-66
279.378	604
279.437	873
279.496	4606
279.556	15221
279.615	6044
279.675	973
279.734	803
279.793	754
279.853	2000
279.912	767
279.971	988
280.031	476
280.090	1157
280.149	1109
280.208	2131
280.268	10294
280.327	4869
280.386	1050
280.445	319
280.505	-269
280.564	443
280.623	28
280.682	0
280.742	288
280.801	41
280.860	-82
280.919	618
280.978	186
281.037	189
281.097	-405
281.156	720
281.215	577
281.274	21
281.333	591
281.392	-119
281.451	136
281.510	836
281.569	272
281.628	157
281.688	88
281.747	544
281.806	241
281.865	482
281.924	6
281.983	-556
282.042	78
282.101	-186
282.160	401
282.219	415
282.278	124
282.337	364
282.396	252
282.454	-315
282.513	-203
282.572	279
282.631	568
282.690	41
282.749	-332
282.808	-118
282.867	-126
282.926	414
282.985	-463
283.043	-173
283.102	-43
283.161	199
283.220	743
283.279	76
283.338	489
283.396	659
283.455	772
283.514	112
283.573	-455
283.631	674
283.690	372
283.749	456
283.808	506
283.866	548
283.925	514
283.984	541
284.043	-438
284.101	969
284.160	40
284.219	1387
284.277	-80
284.336	530
284.395	952
284.453	1271
284.512	357
284.570	684
284.629	207
284.688	495
284.746	325
284.805	892
284.863	555
284.922	667
284.981	1505
285.039	596
285.098	2773
285.156	11439
285.215	29139
285.273	17618
285.332	6213
285.390	3116
285.449	1942
285.507	1860
285.566	986
285.624	1295
285.683	470
285.741	748
285.799	322
285.858	323
285.916	535
285.975	589
286.033	-240
286.091	1158
286.150	91
286.208	985
286.267	698
286.325	536
286.383	-285
286.442	643
286.500	-504
286.558	586
286.616	789
286.675	172
286.733	31
286.791	104
286.850	913
286.908	538
286.966	413
287.024	307
287.083	420
287.141	1180
287.199	248
287.257	742
287.315	-268
287.374	154
287.432	423
287.490	1134
287.548	157
287.606	-450
287.664	-349
287.723	258
287.781	987
287.839	484
287.897	455
287.955	521
288.013	810
288.071	1002
288.129	7924
288.187	14812
288.245	4196
288.303	1093
288.361	963
288.419	1034
288.477	686
288.535	291
288.593	207
288.651	731
288.709	416
288.767	435
288.825	568
288.883	576
288.941	-244
288.999	306
289.057	342
289.115	150
289.173	498
289.231	983
289.289	-165
289.346	1270
289.404	1020
289.462	5
289.520	461
289.578	970
289.636	316
289.694	333
289.751	456
289.809	717
289.867	156
289.925	280
289.983	36
290.040	409
290.098	286
290.156	537
290.214	466
290.271	437
290.329	1041
290.387	701
290.444	567
290.502	-184
290.560	1560
290.617	185
290.675	488
290.733	655
290.790	438
290.848	709
290.906	-48
290.963	815
291.021	-79
291.078	416
291.136	-68
291.194	441
291.251	526
291.309	472
291.366	253
291.424	862
291.481	544
291.539	828
291.596	313
291.654	228
291.711	-161
291.769	902
291.826	384
291.884	865
291.941	433
291.999	414
292.056	-184
292.114	-292
292.171	502
292.228	956
292.286	867
292.343	903
292.401	-46
292.458	719
292.515	247
292.573	983
292.630	383
292.687	803
292.745	219
292.802	942
292.859	526
292.917	1363
292.974	444
293.031	-194
293.089	47
293.146	377
293.203	94
293.260	93
293.318	322
293.375	404
293.432	463
293.489	1163
293.546	336
293.604	218
293.661	811
293.718	953
293.775	619
293.832	916
293.889	513
293.947	1147
294.004	113
294.061	-214
294.118	768
294.175	1359
294.232	1113
294.289	1161
294.346	869
294.403	518
294.460	499
294.517	659
294.574	522
294.631	497
294.688	345
294.745	1242
294.802	1993
294.859	636
294.916	423
294.973	662
295.030	268
295.087	64
295.144	-121
295.201	537
295.258	376
295.315	796
295.372	798
295.429	925
295.486	438
295.542	596
295.599	461
295.656	136
295.713	1035
295.770	-31
295.827	693
295.883	537
295.940	55
295.997	289
296.054	917
296.111	702
296.167	930
296.224	196
296.281	63
296.338	12
296.394	594
296.451	-148
296.508	623
296.564	132
296.621	518
296.678	1418
296.734	1353
296.791	599
296.848	245
296.904	379
296.961	446
297.018	1123
297.074	444
297.131	563
297.187	85
297.244	321
297.301	1425
297.357	1656
297.414	538
297.470	1156
297.527	100
297.583	947
297.640	181
297.696	282
297.753	554
297.809	121
297.866	-343
297.922	1356
297.979	122
298.035	142
298.092	-150
298.148	125
298.204	652
298.261	769
298.317	1494
298.374	1444
298.430	1161
298.486	1480
298.543	469
298.599	548
298.656	626
298.712	524
298.768	1193
298.824	564
298.881	458
298.937	689
298.993	266
299.050	507
299.106	502
299.162	683
299.218	454
299.275	616
299.331	551
299.387	1584
299.443	5357
299.500	11884
299.556	6576
299.612	3571
299.668	4449
299.724	12755
299.780	10058
299.837	3250
299.893	3939
299.949	9224
300.005	10022
300.061	10807
300.117	12157
300.173	5219
300.229	1797
300.285	1638
300.341	1902
300.397	1210
300.453	1732
300.510	1537
300.566	2675
300.622	6341
300.678	19374
300.734	16240
300.790	7153
300.845	5709
300.901	10960
300.957	11666
301.013	4624
301.069	2596
301.125	1749
301.181	1679
301.237	1685
301.293	1371
301.349	1424
301.405	1326
301.461	-63
301.516	1214
301.572	-98
301.628	420
301.684	129
301.740	986
301.796	378
301.851	702
301.907	1370
301.963	842
302.019	1719
302.074	5472
302.130	3875
302.186	2246
302.242	812
302.297	1185
302.353	620
302.409	1012
302.464	616
302.520	345
302.576	1190
302.631	1212
302.687	211
302.743	1387
302.798	381
302.854	728
302.910	492
302.965	659
303.021	223
303.076	444
303.132	231
303.187	559
303.243	108
303.299	1101
303.354	-336
303.410	776
303.465	831
303.521	907
303.576	237
303.632	891
303.687	978
303.743	890
303.798	239
303.853	805
303.909	511
303.964	356
304.020	76
304.075	786
304.130	884
304.186	533
304.241	920
304.297	1039
304.352	673
304.358	603
304.407	35
304.449	282
304.463	363
304.518	253
304.539	4
304.573	-382
304.629	751
304.630	753
304.684	820
304.720	988
304.739	1095
304.794	944
304.811	1015
304.850	1136
304.902	463
304.905	420
304.960	592
304.992	546
305.015	487
305.071	901
305.083	751
305.126	213
305.173	523
305.181	575
305.236	-148
305.264	114
305.292	425
305.347	719
305.354	793
305.402	1250
305.445	447
305.457	200
305.512	665
305.535	745
305.567	846
305.622	202
305.626	232
305.678	836
305.716	802
305.733	729
305.788	777
305.807	724
305.843	708
305.897	1955
305.898	1973
305.953	1328
305.988	819
306.008	499
306.063	334
306.078	355
306.118	428
306.168	202
306.173	192
306.228	196
306.259	433
306.283	586
306.338	700
306.349	734
306.393	749
306.440	-93
306.448	-203
306.503	915
306.530	746
306.558	454
306.613	600
306.620	549
306.668	253
306.711	667
306.723	808
306.778	683
306.801	719
306.833	793
306.888	936
306.892	932
306.943	706
306.982	797
306.997	859
307.052	232
307.072	207
307.107	229
307.162	710
307.163	705
307.217	288
307.253	626
307.272	738
307.327	669
307.343	568
307.381	378
307.434	184
307.436	182
307.491	803
307.524	544
307.546	387
307.600	989
307.614	1050
307.655	989
307.704	339
307.710	302
307.765	661
307.795	578
307.819	441
307.874	498
307.885	473
307.929	458
307.975	713
307.984	791
308.038	1663
308.065	1724
308.093	1919
308.148	4281
308.156	5009
308.202	10574
308.246	12185
308.257	11577
308.312	5467
308.336	3578
308.366	2829
308.421	1425
308.426	1411
308.475	1022
308.517	563
308.530	497
308.585	1157
308.607	875
308.639	296
308.694	692
308.697	644
308.748	285
308.787	591
308.803	658
308.857	663
308.877	712
308.912	972
308.967	1052
308.967	1052
309.021	1219
309.058	1432
309.076	1553
309.130	2392
309.148	2846
309.185	5855
309.238	13153
309.239	13272
309.293	18400
309.328	17406
309.348	14041
309.402	5556
309.418	3423
309.457	1898
309.508	1463
309.511	1457
309.566	1408
309.598	1380
309.620	1457
309.674	1567
309.688	1750
309.729	1860
309.778	1406
309.783	1388
309.837	1194
309.868	1235
309.892	1215
309.946	1098
309.959	1055
310.001	995
310.049	823
310.055	777
310.109	803
310.139	564
310.163	561
310.218	872
310.229	913
310.272	1075
310.319	1264
310.326	1236
310.381	791
310.409	755
310.435	917
310.489	951
310.499	975
310.543	1192
310.589	1338
310.598	1264
310.652	1039
310.679	808
310.706	906
310.760	1193
310.769	1202
310.814	1083
310.859	1162
310.868	1205
310.923	1303
310.948	1396
310.977	1274
311.031	1009
311.038	957
311.085	998
311.128	1065
311.139	1044
311.193	1000
311.218	944
311.247	1056
311.301	1261
311.308	1282
311.356	1382
311.398	1529
311.410	1459
311.464	1073
311.488	889
311.518	921
311.572	1019
311.578	1031
311.626	769
311.668	507
311.680	539
311.734	698
311.758	774
311.788	783
311.842	823
311.847	829
311.896	1351
311.937	1803
311.950	1693
312.004	1173
312.027	961
312.058	937
312.112	895
312.117	892
312.165	794
312.207	717
312.297	569
312.386	1382
312.476	731
312.566	1888
312.656	952
312.745	1236
312.835	852
312.925	1703
313.015	859
313.104	1993
313.194	1824
313.284	1165
313.374	368
313.463	1720
313.553	1690
313.643	1908
313.732	1935
313.822	1703
313.912	2481
314.001	2505
314.091	2311
314.180	2477
314.270	2765
314.360	1931
314.449	2579
314.539	1621
314.628	2457
314.718	2745
314.808	2857
314.897	2671
314.987	2706
315.076	3309
315.166	2592
315.255	3434
315.345	1900
315.434	2320
315.524	2136
315.613	2712
315.703	3054
315.792	5941
315.881	18398
315.971	11142
316.060	3321
316.150	3202
316.239	2853
316.328	2476
316.418	2755
316.507	2800
316.597	3533
316.686	2994
316.775	3339
316.865	3006
316.954	2294
317.043	1944
317.133	2212
317.222	680
317.311	1334
317.400	1650
317.490	1947
317.579	2390
317.668	2173
317.757	3371
317.847	8139
317.936	30834
318.025	15631
318.114	8504
318.203	5540
318.293	3169
318.382	3524
318.471	4387
318.560	4090
318.649	3799
318.738	2820
318.828	2225
318.917	2149
319.006	2343
319.095	1405
319.184	2384
319.273	2171
319.362	1600
319.451	1518
319.540	1342
319.629	1424
319.718	2154
319.807	1958
319.896	1541
319.985	3219
320.074	2389
320.163	1741
320.252	1092
320.341	2091
320.430	2003
320.519	1726
320.608	1727
320.697	2446
320.786	3235
320.875	3401
320.964	4329
321.053	3923
321.142	4357
321.230	4333
321.319	5245
321.408	6865
321.497	6289
321.586	5649
321.675	4444
321.764	3921
321.852	3831
321.941	4442
322.030	3949
322.119	4057
322.207	5683
322.296	6221
322.385	7126
322.474	8407
322.562	8508
322.651	7880
322.740	5105
322.829	4283
322.917	3887
323.006	3323
323.095	3266
323.183	2949
323.272	2652
323.361	2885
323.449	3442
323.538	2331
323.626	2097
323.715	2771
323.804	1690
323.892	1629
323.981	2222
324.069	2131
324.158	2155
324.246	2557
324.335	1835
324.424	2057
324.512	1853
324.601	1813
324.689	1168
324.778	1980
324.866	1837
324.954	1931
325.043	1317
325.131	901
325.220	2049
325.308	2394
325.397	1955
325.485	1348
325.574	1238
325.662	1312
325.750	1545
325.839	1697
325.927	2081
326.015	1296
326.104	1832
326.192	1302
326.280	1304
326.369	1875
326.457	1924
326.545	2251
326.634	1865
326.722	1594
326.810	1822
326.898	2530
326.987	2181
327.075	2245
327.163	2710
327.251	1964
327.340	2408
327.428	2438
327.516	4126
327.604	2312
327.692	2557
327.781	1390
327.869	1921
327.957	1456
328.045	1741
328.133	1146
328.221	1498
328.309	1462
328.397	1934
328.485	2782
328.574	3074
328.662	5187
328.750	3515
328.838	2042
328.926	1373
329.014	1102
329.102	2012
329.190	1626
329.278	1723
329.366	1453
329.454	2042
329.542	1395
329.630	1017
329.718	1745
329.806	1819
329.893	1686
329.981	2361
330.069	1302
330.157	1630
330.245	1144
330.333	2292
330.421	1717
330.509	1966
330.597	1664
330.684	1863
330.772	1521
330.860	1594
330.948	1876
331.036	1868
331.123	896
331.211	1641
331.299	1318
331.387	1856
331.475	2119
331.562	1844
331.650	1238
331.738	1796
331.825	1342
331.913	2006
332.001	874
332.089	1664
332.176	1720
332.264	1470
332.352	1786
332.439	1658
332.527	1357
332.614	1574
332.702	1904
332.790	1796
332.877	1332
332.965	2039
333.052	1613
333.140	1563
333.228	2107
333.315	1652
333.403	1883
333.490	1348
333.578	1315
333.665	2055
333.753	2421
333.840	2508
333.928	2621
334.015	2428
334.103	3413
334.190	4902
334.278	6417
334.365	9474
334.452	9888
334.540	7136
334.627	5977
334.715	7857
334.802	10445
334.889	14785
334.977	22930
335.064	18841
335.151	8879
335.239	6275
335.326	4613
335.413	5479
335.501	5536
335.588	5400
335.675	5470
335.762	7471
335.850	8299
335.937	11597
336.024	17562
336.111	28725
336.199	33390
336.286	16457
336.373	8419
336.460	6367
336.547	4724
336.635	4425
336.722	3602
336.809	3444
336.896	2568
336.983	2820
337.070	3011
337.157	3345
337.245	2601
337.332	3378
337.419	2700
337.506	2243
337.593	2328
337.680	2445
337.767	2858
337.854	2675
337.941	2476
338.028	1618
338.115	1836
338.202	2487
338.289	2237
338.376	1749
338.463	2292
338.550	1982
338.637	1606
338.724	1708
338.811	2222
338.898	1806
338.984	1222
339.071	1335
339.158	1378
339.245	2153
339.332	2150
339.419	1364
339.506	1341
339.593	2311
339.679	1408
339.766	1777
339.853	1906
339.940	2426
340.027	1528
340.113	2329
340.200	1990
340.287	1413
340.374	1366
340.460	2091
340.547	1400
340.634	1752
340.720	1849
340.807	1798
340.894	1391
340.980	2103
341.067	1365
341.154	2403
341.240	1368
341.327	2148
341.414	1067
341.500	2167
341.587	1883
341.674	1486
341.760	1918
341.847	1856
341.933	1288
342.020	1631
342.106	1837
342.193	1775
342.279	1684
342.366	933
342.452	2042
342.539	1736
342.625	943
342.712	1738
342.798	1708
342.885	1160
342.971	1446
343.058	1594
343.144	1676
343.230	1929
343.317	1901
343.403	2273
343.490	622
343.576	1585
343.662	1558
343.749	1191
343.835	1245
343.921	1969
344.008	2102
344.094	5195
344.180	3116
344.267	1768
344.353	1524
344.439	2502
344.525	1447
344.612	1568
344.698	1341
344.784	1013
344.870	1525
344.957	1690
345.043	1745
345.129	1409
345.215	1262
345.301	1751
345.387	1898
345.474	1306
345.560	1690
345.646	2227
345.732	2025
345.818	1311
345.904	1530
345.990	1400
346.076	1538
346.162	1392
346.249	1768
346.335	548
346.421	1754
346.507	2144
346.593	1544
346.679	1396
346.765	2194
346.851	3111
346.937	3185
347.023	1798
347.108	1997
347.194	1772
347.280	1862
347.366	2102
347.452	5250
347.538	7893
347.624	4822
347.710	2775
347.796	1834
347.882	2211
347.967	2208
348.053	1570
348.139	1633
348.225	1440
348.311	1613
348.397	2076
348.482	1603
348.568	2580
348.654	3453
348.740	7567
348.825	11276
348.911	4268
348.997	2771
349.083	3045
349.168	1843
349.254	1441
349.340	1665
349.425	963
349.511	1561
349.597	1157
349.682	1996
349.768	1965
349.854	2242
349.939	2106
350.025	1535
350.110	1840
350.196	1514
350.282	1413
350.367	1718
350.453	1591
350.538	1386
350.624	1042
350.709	2019
350.795	961
350.880	1135
350.966	1763
351.051	1118
351.137	2206
351.222	1565
351.308	1890
351.393	1485
351.479	1752
351.564	1742
351.649	1582
351.735	1840
351.820	1482
351.906	2355
351.991	1622
352.076	1391
352.162	1656
352.247	1637
352.332	2057
352.418	780
352.503	1410
352.588	2227
352.673	1645
352.759	1498
352.844	1914
352.929	1072
353.014	1651
353.100	1717
353.185	1218
353.270	1424
353.355	897
353.441	1817
353.526	1843
353.611	1307
353.696	808
353.781	1768
353.866	1316
353.952	1220
354.037	1173
354.122	1772
354.207	1910
354.292	1827
354.377	1071
354.462	1675
354.547	1507
354.632	1843
354.717	1071
354.802	1198
354.887	2263
354.972	1256
355.057	1164
355.142	1400
355.227	1814
355.312	1872
355.397	1929
355.482	1245
355.567	2187
355.652	1326
355.737	1895
355.822	1163
355.907	1975
355.991	1205
356.076	1828
356.161	2079
356.246	1709
356.331	1554
356.416	1272
356.501	1995
356.585	3754
356.670	1726
356.755	2394
356.840	1558
356.924	1726
357.009	4480
357.094	3424
357.179	1683
357.263	1749
357.348	1690
357.433	1555
357.517	1580
357.602	2194
357.687	1535
357.771	1923
357.856	1783
357.941	1307
358.025	1975
358.110	5846
358.195	4959
358.279	2181
358.364	1837
358.448	1534
358.533	2285
358.617	1901
358.702	2187
358.787	1480
358.871	1895
358.956	1936
359.040	1510
359.125	2807
359.209	1755
359.294	1898
359.378	2970
359.462	4026
359.547	2019
359.631	1359
359.716	1486
359.800	1848
359.885	1239
359.969	1881
360.053	1821
360.138	1602
360.222	2000
360.306	2073
360.391	2097
360.475	1696
360.559	1744
360.644	1935
360.728	1469
360.812	1933
360.896	2565
360.981	2772
361.065	1852
361.149	2196
361.233	2028
361.318	1579
361.402	2588
361.486	2155
361.570	2563
361.654	2335
361.739	3145
361.823	3125
361.907	4784
361.991	3887
362.075	4110
362.159	4990
362.243	8986
362.327	19648
362.411	36860
362.495	19200
362.580	7410
362.664	7065
362.748	7859
362.832	10595
362.916	18384
363.000	45149
363.084	84349
363.168	44531
363.252	13517
363.336	7197
363.420	5473
363.503	5287
363.587	5761
363.671	4516
363.755	4130
363.839	4948
363.923	5686
364.007	6120
364.091	8316
364.175	12538
364.258	24581
364.342	52016
364.426	109447
364.510	84335
364.594	26506
364.677	11405
364.761	7750
364.845	5388
364.929	4123
365.013	3767
365.096	3217
365.180	2986
365.264	2299
365.347	3674
365.431	3273
365.515	1795
365.598	1548
365.682	2185
365.766	2115
365.849	2478
365.933	1943
366.017	2946
366.100	2386
366.184	2402
366.267	2738
366.351	3010
366.435	2279
366.518	2024
366.602	2326
366.685	2846
366.769	2163
366.852	2705
366.936	2072
367.019	2341
367.103	2407
367.186	1261
367.270	2474
367.353	1650
367.436	2765
367.520	2562
367.603	2851
367.687	1814
367.770	1773
367.853	2363
367.937	2287
368.020	2595
368.104	2141
368.187	2220
368.270	2038
368.353	1732
368.437	1677
368.520	2079
368.603	1032
368.687	1775
368.770	2547
368.853	1870
368.936	2031
369.020	2189
369.103	1526
369.186	1821
369.269	1607
369.352	1642
369.436	1780
369.519	2085
369.602	1454
369.685	1940
369.768	1386
369.851	1716
369.934	1369
370.018	1793
370.101	1412
370.184	2253
370.267	1766
370.350	1685
370.433	1745
370.516	2858
370.599	9951
370.682	7314
370.765	2419
370.848	1924
370.931	2237
371.014	1946
371.097	1165
371.180	1262
371.263	1776
371.346	492
371.429	1317
371.511	1574
371.594	766
371.677	2084
371.760	1692
371.843	1951
371.926	2375
372.009	6108
372.091	4118
372.174	2165
372.257	2207
372.340	2340
372.423	1371
372.505	1733
372.588	1968
372.671	1865
372.754	1590
372.836	2067
372.919	1430
373.002	2029
373.085	1519
373.167	1601
373.250	1468
373.332	2428
373.415	2999
373.498	6973
373.580	5739
373.663	11585
373.746	20276
373.828	5050
373.911	2456
373.993	2086
374.076	2400
374.159	2250
374.241	1847
374.324	2048
374.406	2709
374.489	1966
374.571	4486
374.654	3515
374.736	3156
374.819	3687
374.901	5385
374.983	5769
375.066	4008
375.148	3025
375.231	3191
375.313	4139
375.395	3878
375.478	2940
375.560	2818
375.643	3253
375.725	2854
375.807	3886
375.890	4559
375.972	2536
376.054	2692
376.136	2208
376.219	2236
376.301	2209
376.383	2473
376.465	2762
376.548	2163
376.630	2537
376.712	2629
376.794	1875
376.877	808
376.959	1536
377.041	1557
377.123	1683
377.205	1772
377.287	1077
377.369	1614
377.452	2053
377.534	2359
377.616	1824
377.698	1581
377.780	2056
377.862	1639
377.944	1665
378.026	1509
378.108	1691
378.190	1532
378.272	2236
378.354	1243
378.436	1094
378.518	896
378.600	2012
378.682	2480
378.764	1869
378.846	1471
378.928	1517
379.010	1811
379.091	1904
379.173	1740
379.255	1685
379.337	1553
379.419	1400
379.501	2235
379.583	2229
379.664	1746
379.746	2104
379.828	2298
379.910	2414
379.991	1576
380.073	1561
380.155	1953
380.237	1826
380.318	1017
380.400	1301
380.482	1951
380.564	1545
380.645	1718
380.727	1215
380.809	1349
380.890	1605
380.972	1094
381.053	1196
381.135	1004
381.217	1784
381.298	1775
381.380	1460
381.461	2243
381.543	2247
381.624	3012
381.706	2376
381.787	1323
381.869	1681
381.951	1654
382.032	3736
382.113	4861
382.195	1426
382.276	1562
382.358	1786
382.439	2286
382.521	2480
382.602	4089
382.684	2963
382.765	2170
382.846	2551
382.928	4892
383.009	3630
383.090	2856
383.172	4842
383.253	10394
383.334	5540
383.416	3413
383.497	3593
383.578	2209
383.659	2315
383.741	4623
383.822	14307
383.903	11017
383.984	4002
384.066	3369
384.147	2721
384.228	3383
384.309	3568
384.390	3640
384.471	3369
384.553	2421
384.634	2382
384.715	2292
384.796	1588
384.877	1990
384.958	2550
385.039	2909
385.120	2234
385.201	3120
385.282	2035
385.363	1968
385.444	2840
385.525	3005
385.606	3164
385.687	3937
385.768	3499
385.849	3101
385.930	4066
386.011	5966
386.092	4173
386.173	3346
386.254	3462
386.335	3846
386.416	3320
386.496	3264
386.577	4287
386.658	3761
386.739	3560
386.820	3208
386.901	2270
386.981	3153
387.062	4162
387.143	5117
387.224	4918
387.304	7217
387.385	6560
387.466	5782
387.547	6770
387.627	6488
387.708	7233
387.789	6066
387.869	6064
387.950	4979
388.031	4574
388.111	2976
388.192	4600
388.273	4601
388.353	4703
388.434	3430
388.514	3216
388.595	3614
388.676	4471
388.756	3144
388.837	2934
388.917	2178
388.998	2167
389.078	2440
389.159	2575
389.239	1829
389.320	3565
389.400	2211
389.480	2797
389.561	2615
389.641	3392
389.722	3025
389.802	2574
389.883	2919
389.963	3683
390.043	2592
390.124	2211
390.204	3503
390.284	3277
390.365	2796
390.445	2853
390.525	3247
390.605	2766
390.686	3026
390.766	3353
390.846	3143
390.927	3253
391.007	2467
391.087	3683
391.167	2189
391.247	2748
391.328	3773
391.408	3225
391.488	2931
391.568	2961
391.648	3006
391.728	4050
391.808	4169
391.888	4074
391.969	4001
392.049	3927
392.129	5174
392.209	5340
392.289	5999
392.369	6680
392.449	6354
392.529	6572
392.609	7540
392.689	8623
392.769	9833
392.849	12210
392.929	15051
393.009	19875
393.089	28555
393.169	46280
393.248	95382
393.328	231794
393.408	314704
393.488	173113
393.568	69843
393.648	36516
393.728	22506
393.807	15764
393.887	12813
393.967	9957
394.047	8709
394.127	7070
394.206	7223
394.286	7595
394.366	15861
394.446	26679
394.525	10044
394.605	5302
394.685	4923
394.764	5070
394.844	7662
394.924	13681
395.003	8000
395.083	4781
395.163	4183
395.242	4059
395.322	3952
395.402	3670
395.481	4728
395.561	4585
395.640	9972
395.720	28817
395.799	20370
395.879	8165
395.958	5537
396.038	6956
396.117	21154
396.197	38166
396.276	14200
396.356	8813
396.435	9193
396.515	13562
396.594	19019
396.673	33110
396.753	80301
396.832	220031
396.912	234789
396.991	88919
397.070	33838
397.150	18399
397.229	14934
397.308	17931
397.388	44483
397.467	31049
397.546	10170
397.625	5905
397.705	6515
397.784	4462
397.863	4630
397.942	4995
398.022	4285
398.101	3033
398.180	3612
398.259	3496
398.338	3073
398.417	3061
398.497	2460
398.576	2770
398.655	1722
398.734	2404
398.813	2380
398.892	2530
398.971	2586
399.050	1785
399.129	2171
399.208	1679
399.287	2590
399.366	1742
399.445	1831
399.524	1816
399.603	1324
399.682	2190
399.761	1664
399.840	2283
399.919	2924
399.998	1495
400.077	971
400.156	1217
400.235	2369
400.313	1449
400.392	724
400.471	2118
400.550	1607
400.629	1488
400.708	1355
400.786	347
400.865	1138
400.944	203
401.023	2068
401.102	1459
401.180	647
401.259	944
401.338	641
401.416	1225
401.495	999
401.574	1323
401.652	-175
401.731	1281
401.810	1187
401.888	767
401.967	1509
402.046	1500
402.124	430
402.203	985
402.281	1509
402.360	1024
402.438	244
402.517	572
402.596	867
402.674	862
402.753	408
402.831	819
402.910	893
402.988	1122
403.066	1817
403.145	1336
403.223	1750
403.302	1818
403.380	1669
403.459	1876
403.537	1801
403.615	1470
403.694	133
403.772	1669
403.850	1388
403.929	1558
404.007	432
404.085	1802
404.164	670
404.242	641
404.320	1418
404.398	2328
404.477	1455
404.555	2958
404.633	2618
404.711	1698
404.789	1557
404.868	979
404.946	131
405.024	429
405.102	458
405.180	378
405.258	-428
405.336	1329
405.415	-350
405.493	706
405.571	363
405.649	717
405.727	282
405.805	1412
405.883	929
405.961	1453
406.039	973
406.117	-348
406.195	1521
406.273	166
406.351	1973
406.429	1481
406.507	1110
406.585	503
406.663	90
406.740	684
406.818	36
406.896	691
406.974	274
407.052	93
407.130	1119
407.208	1252
407.285	313
407.363	261
407.441	645
407.519	131
407.596	795
407.674	1999
407.752	9756
407.830	13701
407.907	3371
407.985	809
408.063	1526
408.141	-496
408.218	1355
408.296	-134
408.373	1238
408.451	1236
408.529	1058
408.606	1235
408.684	1389
408.762	1279
408.839	1413
408.917	1234
408.994	1825
409.072	1540
409.149	2134
409.227	4326
409.304	7325
409.382	9142
409.459	8900
409.537	12646
409.614	12721
409.692	9483
409.769	8714
409.846	11495
409.924	16195
410.001	12356
410.079	8837
410.156	6199
410.233	4361
410.311	3083
410.388	3004
410.465	3359
410.543	1983
410.620	2933
410.697	2759
410.775	2759
410.852	1971
410.929	3089
411.006	1780
411.083	2396
411.161	2257
411.238	2313
411.315	2102
411.392	1099
411.469	1937
411.547	1800
411.624	1009
411.701	676
411.778	559
411.855	626
411.932	866
412.009	604
412.086	1282
412.163	1706
412.240	951
412.317	1393
412.394	905
412.471	1204
412.548	435
412.625	654
412.702	1212
412.779	911
412.856	1489
412.933	513
413.010	495
413.087	1438
413.164	469
413.241	1250
413.318	-39
413.395	2045
413.471	224
413.548	405
413.625	799
413.702	539
413.779	665
413.855	1192
413.932	876
414.009	467
414.086	888
414.162	653
414.239	293
414.316	1047
414.393	995
414.469	68
414.546	516
414.623	1175
414.699	183
414.776	-73
414.853	-69
414.929	1035
415.006	776
415.082	720
415.159	121
415.236	1262
415.312	355
415.389	949
415.465	611
415.542	141
415.618	106
415.695	1206
415.771	-317
415.848	343
415.924	375
416.000	231
416.077	625
416.153	595
416.230	-534
416.306	290
416.383	506
416.459	1225
416.535	137
416.612	252
416.688	678
416.764	683
416.841	-101
416.917	882
416.993	778
417.069	480
417.146	228
417.222	232
417.298	1264
417.374	-71
417.451	655
417.527	351
417.603	122
417.679	842
417.755	487
417.831	304
417.908	838
417.984	615
418.060	76
418.136	481
418.212	414
418.288	502
418.364	980
418.440	448
418.516	1012
418.592	962
418.668	1148
418.744	967
418.820	1293
418.896	916
418.972	199
419.048	577
419.124	712
419.200	659
419.276	644
419.352	863
419.428	1383
419.504	908
419.579	1711
419.655	1942
419.731	1097
419.807	1717
419.883	972
419.959	1454
420.034	1616
420.110	1432
420.186	1525
420.262	2010
420.337	2073
420.413	2031
420.489	2120
420.565	2870
420.640	3489
420.716	2922
420.792	2793
420.867	3536
420.943	3746
421.019	3379
421.094	3497
421.170	4992
421.245	4163
421.321	5891
421.397	5838
421.472	7368
421.548	11425
421.623	14183
421.699	9430
421.774	9818
421.850	10466
421.925	13096
422.001	15144
422.076	17944
422.152	21543
422.227	27773
422.302	35251
422.378	47408
422.453	67590
422.529	96651
422.604	139643
422.679	149674
422.755	149056
422.830	132358
422.905	89801
422.981	64314
423.056	48871
423.131	37795
423.207	29469
423.282	24133
423.357	20093
423.432	16879
423.508	14394
423.583	11850
423.658	11267
423.733	10314
423.808	8950
423.883	8945
423.959	7926
424.034	9849
424.109	9614
424.184	7604
424.259	5514
424.334	4868
424.409	4452
424.484	4583
424.559	3650
424.634	3436
424.709	3490
424.784	3688
424.859	3252
424.934	2632
425.009	1879
425.084	3002
425.159	2432
425.234	2917
425.309	2791
425.384	2444
425.459	1099
425.534	2560
425.609	2013
425.683	1559
425.758	1474
425.833	2234
425.908	2096
425.983	1136
426.058	2369
426.132	1679
426.207	1997
426.282	2086
426.357	1814
426.431	1136
426.506	1783
426.581	1456
426.655	2210
426.730	1940
426.805	681
426.879	1456
426.954	1112
427.029	1202
427.103	1023
427.178	1591
427.253	2106
427.327	2034
427.402	601
427.476	1359
427.551	1122
427.625	1060
427.700	1448
427.774	557
427.849	1124
427.923	1301
427.998	1106
428.072	1061
428.147	4092
428.221	9618
428.296	46975
428.370	55727
428.444	12544
428.519	3694
428.593	1739
428.667	3069
428.742	2302
428.816	4635
428.890	20147
428.965	60497
429.039	31753
429.113	5137
429.188	3341
429.262	1733
429.336	2398
429.410	2035
429.485	2311
429.559	2341
429.633	2266
429.707	1683
429.781	3778
429.855	17996
429.930	54883
430.004	28385
430.078	8547
430.152	13881
430.226	52939
430.300	102551
430.374	39333
430.448	9920
430.522	4963
430.596	3767
430.670	7979
430.744	28310
430.818	62827
430.892	23906
430.966	4790
431.040	2478
431.114	1711
431.188	1291
431.262	1202
431.336	1274
431.410	1122
431.484	534
431.557	2197
431.631	1737
431.705	2584
431.779	7582
431.853	41359
431.927	61394
432.000	16975
432.074	3307
432.148	2247
432.222	1186
432.295	572
432.369	671
432.443	-113
432.516	971
432.590	777
432.664	1215
432.737	654
432.811	153
432.885	819
432.958	1029
433.032	320
433.106	-684
433.179	130
433.253	621
433.326	661
433.400	687
433.473	417
433.547	226
433.620	456
433.694	266
433.767	1046
433.841	221
433.914	780
433.988	1092
434.061	582
434.134	173
434.208	331
434.281	-488
434.355	250
434.428	916
434.501	451
434.575	469
434.648	974
434.721	361
434.795	978
434.868	147
434.941	220
435.014	815
435.088	415
435.161	863
435.234	1152
435.307	1785
435.381	2445
435.454	2821
435.527	6395
435.600	8902
435.673	8318
435.746	6379
435.819	4914
435.892	3712
435.966	3188
436.039	1503
436.112	2156
436.185	1657
436.258	1181
436.331	652
436.404	1080
436.477	377
436.550	786
436.623	1471
436.696	921
436.769	855
436.842	614
436.915	314
436.987	683
437.060	885
437.133	971
437.206	601
437.279	1076
437.352	530
437.425	537
437.498	870
437.570	1082
437.643	201
437.716	681
437.789	561
437.861	273
437.934	772
438.007	330
438.080	284
438.152	171
438.225	615
438.298	449
438.370	1789
438.443	1924
438.516	935
438.588	491
438.661	655
438.734	680
438.806	746
438.879	350
438.951	1013
439.024	661
439.096	220
439.169	487
439.241	848
439.314	-18
439.386	383
439.459	923
439.531	681
439.604	620
439.676	1419
439.749	290
439.821	305
439.893	1076
439.966	798
440.038	622
440.110	1350
440.183	1043
440.255	69
440.327	1234
440.400	1321
440.472	1434
440.544	2099
440.617	944
440.689	1234
440.761	755
440.833	585
440.905	631
440.978	840
441.050	1152
441.122	1275
441.194	44
441.266	1178
441.338	210
441.411	1183
441.483	2214
441.555	1224
441.627	2002
441.699	1108
441.771	870
441.843	1921
441.915	1395
441.987	2008
442.059	2020
442.131	1947
442.203	2774
442.275	3640
442.347	6329
442.419	9649
442.491	27096
442.563	90905
442.635	82198
442.706	25378
442.778	9337
442.850	6040
442.922	4458
442.994	4473
443.066	4579
443.137	5636
443.209	7230
443.281	10328
443.353	15875
443.425	36629
443.496	110196
443.568	170276
443.640	114090
443.711	43124
443.783	16785
443.855	8960
443.926	6445
443.998	4781
444.070	3947
444.141	3216
444.213	3834
444.285	2742
444.356	1899
444.428	2932
444.499	2953
444.571	2970
444.642	3310
444.714	2986
444.785	3446
444.857	3961
444.928	4348
445.000	5205
445.071	6359
445.143	7517
445.214	10196
445.285	15446
445.357	29312
445.428	70138
445.500	164970
445.571	165048
445.642	133398
445.714	73441
445.785	31564
445.856	13095
445.928	8448
445.999	6494
446.070	5344
446.141	3617
446.213	4395
446.284	2989
446.355	2459
446.426	2343
446.497	2271
446.569	1531
446.640	1357
446.711	1265
446.782	2312
446.853	1389
446.924	990
446.995	1500
447.066	1073
447.138	1072
447.209	443
447.280	51
447.351	851
447.422	1091
447.493	824
447.564	824
447.635	118
447.706	-93
447.777	712
447.847	929
447.918	697
447.989	76
448.060	1119
448.131	466
448.202	-375
448.273	-42
448.344	286
448.414	1118
448.485	464
448.556	674
448.627	-349
448.698	952
448.768	-432
448.839	462
448.910	650
448.981	390
449.051	864
449.122	-163
449.193	-266
449.263	583
449.334	-563
449.405	245
449.475	973
449.546	494
449.616	605
449.687	1101
449.758	430
449.828	67
449.899	219
449.969	153
450.040	689
450.110	-192
450.181	694
450.251	488
450.322	997
450.392	-99
450.463	557
450.533	186
450.604	695
450.674	361
450.744	1345
450.815	849
450.885	1247
450.955	1627
451.026	1467
451.096	1471
451.166	1097
451.237	1082
451.307	1831
451.377	1946
451.447	1235
451.518	1405
451.588	1029
451.658	801
451.728	844
451.799	317
451.869	1382
451.939	943
452.009	658
452.079	917
452.149	585
452.219	562
452.289	1302
452.360	1056
452.430	1583
452.500	1968
452.570	2535
452.640	5878
452.710	14815
452.780	27145
452.850	23125
452.920	12331
452.990	7228
453.060	4540
453.129	2456
453.199	1736
453.269	1526
453.339	1849
453.409	2188
453.479	2017
453.549	1110
453.619	1737
453.688	1165
453.758	1224
453.828	916
453.898	1333
453.968	758
454.037	1280
454.087	1130
454.107	1063
454.168	297
454.177	177
454.247	629
454.249	639
454.316	731
454.330	584
454.386	-18
454.411	43
454.456	90
454.492	146
454.525	191
454.574	745
454.595	983
454.655	655
454.665	591
454.734	632
454.736	655
454.804	1063
454.817	1058
454.873	1038
454.898	1219
454.943	1520
454.979	1236
455.013	954
455.060	920
455.082	902
455.141	1176
455.152	1215
455.221	1355
455.222	1361
455.291	1133
455.303	1155
455.360	1228
455.384	1670
455.430	2108
455.465	2195
455.499	2376
455.546	2132
455.569	2060
455.627	1312
455.638	1149
455.707	999
455.708	1013
455.777	1750
455.789	1709
455.846	1484
455.869	1268
455.916	904
455.950	1064
455.985	1092
456.031	543
456.054	336
456.112	1019
456.124	1145
456.193	1009
456.193	996
456.262	1700
456.274	1728
456.332	1623
456.355	1531
456.401	1470
456.436	1788
456.470	2032
456.516	1612
456.540	1446
456.597	1633
456.609	1612
456.678	1814
456.678	1806
456.747	1748
456.759	1726
456.817	1717
456.840	1880
456.886	2146
456.920	2043
456.955	1753
457.001	1755
457.024	1812
457.082	1902
457.093	1923
457.162	2597
457.163	2608
457.232	1964
457.243	2012
457.301	2481
457.324	2690
457.370	3011
457.405	2844
457.439	2833
457.485	3821
457.508	4248
457.566	4863
457.577	5121
457.646	7386
457.647	7423
457.715	13988
457.727	15653
457.784	32681
457.808	42260
457.853	53440
457.889	68961
457.922	67792
457.969	53967
457.991	58864
458.050	59046
458.060	61371
458.129	92383
458.130	93814
458.198	96459
458.211	93860
458.267	73180
458.292	53854
458.336	38381
458.372	29779
458.405	29728
458.453	38407
458.474	50849
458.533	91666
458.543	95722
458.611	145183
458.614	147624
458.680	111621
458.694	94568
458.749	62624
458.775	44789
458.818	26999
458.855	19712
458.887	14511
458.936	10471
458.955	9171
459.016	7630
459.024	7437
459.093	6136
459.097	6079
459.162	5119
459.177	5013
459.230	4755
459.257	4675
459.299	4354
459.338	3974
459.368	3799
459.418	3928
459.437	4041
459.499	3795
459.505	3732
459.574	3924
459.579	3896
459.643	3701
459.659	3702
459.711	3478
459.740	3428
459.780	3438
459.820	3505
459.849	3520
459.900	3311
459.917	3211
459.981	3281
459.986	3289
460.054	3035
460.061	3044
460.123	3130
460.141	3118
460.191	3057
460.222	3068
460.260	3195
460.302	3082
460.328	2933
460.382	3356
460.397	3596
460.462	3602
460.465	3655
460.534	5867
460.543	6075
460.602	16177
460.623	20197
460.671	37126
460.703	49977
460.739	44886
460.783	41814
460.808	36613
460.864	13349
460.876	12379
460.944	5165
460.945	5083
461.013	3446
461.024	3391
461.081	2786
461.104	2735
461.150	3091
461.184	3002
461.218	2978
461.264	3406
461.286	3465
461.345	3062
461.355	3013
461.423	3354
461.425	3350
461.491	2938
461.505	2921
461.559	3244
461.585	3416
461.628	3395
461.665	3104
461.696	2865
461.745	3108
461.764	3295
461.825	3031
461.832	3016
461.901	3281
461.905	3299
461.969	3155
461.985	3183
462.037	3561
462.065	3589
462.105	3146
462.145	2914
462.173	3052
462.225	3111
462.241	3188
462.305	3632
462.310	3617
462.378	3127
462.385	3101
462.446	3647
462.465	3819
462.514	3608
462.545	3599
462.582	3702
462.625	3514
462.650	3430
462.705	3341
462.718	3351
462.785	3407
462.786	3410
462.854	3436
462.865	3459
462.922	3702
462.945	3793
462.990	3750
463.025	3708
463.058	3747
463.104	3850
463.126	3688
463.184	3029
463.194	3017
463.262	3126
463.264	3131
463.330	3360
463.344	3320
463.398	3023
463.424	2937
463.466	2860
463.504	3091
463.533	3372
463.583	3511
463.601	3508
463.663	3352
463.669	3336
463.737	3443
463.743	3425
463.805	3248
463.823	3227
463.873	3585
463.903	3858
463.940	3795
463.982	3643
464.008	3540
464.062	3396
464.076	3456
464.142	3533
464.144	3526
464.211	3242
464.221	3200
464.279	3309
464.301	3281
464.347	3312
464.381	3546
464.414	3607
464.461	3449
464.482	3430
464.540	3372
464.550	3391
464.617	3564
464.620	3569
464.685	3438
464.699	3405
464.753	3641
464.779	3687
464.820	3471
464.859	3339
464.888	3322
464.938	3209
464.956	3336
465.018	3937
465.023	3956
465.091	3871
465.098	3880
465.158	3857
465.177	3812
465.226	3545
465.257	3474
465.293	3510
465.336	3394
465.361	3446
465.416	3543
465.428	3467
465.495	3279
465.496	3285
465.563	3596
465.575	3642
465.631	3336
465.654	3334
465.698	3491
465.734	3386
465.765	3589
465.813	3972
465.833	3931
465.893	3949
465.900	3966
465.968	3914
465.972	3905
466.035	4027
466.052	4055
466.102	3713
466.131	3517
466.170	3740
466.210	3978
466.237	3534
466.290	2607
466.304	2781
466.369	3528
466.372	3508
466.439	2798
466.449	2689
466.506	2938
466.528	3055
466.573	3680
466.607	4086
466.641	3929
466.687	3745
466.708	3964
466.766	4500
466.775	4476
466.842	4287
466.845	4273
466.909	4555
466.925	4605
466.977	4528
467.004	4490
467.044	4567
467.083	4634
467.111	4743
467.163	4930
467.178	4920
467.242	4838
467.245	4815
467.312	4226
467.321	4144
467.379	4544
467.400	4680
467.446	5073
467.480	5347
467.559	5147
467.638	5137
467.717	4673
467.796	5695
467.875	5594
467.955	6024
468.034	7029
468.113	8454
468.192	10731
468.271	12539
468.350	18774
468.429	28087
468.508	32592
468.588	21057
468.667	11392
468.746	8696
468.825	6812
468.904	5248
468.983	5391
469.062	5357
469.141	5704
469.220	4783
469.299	4519
469.378	4432
469.456	4952
469.535	5437
469.614	3955
469.693	5226
469.772	4774
469.851	4625
469.930	4571
470.009	3763
470.088	4870
470.166	4611
470.245	5283
470.324	5614
470.403	5445
470.482	4643
470.560	4637
470.639	5165
470.718	5305
470.797	3850
470.875	4498
470.954	4027
471.033	4318
471.111	4319
471.190	4329
471.269	4233
471.347	4703
471.426	3743
471.505	4717
471.583	4065
471.662	4017
471.740	3784
471.819	4439
471.898	4293
471.976	3828
472.055	4547
472.133	4562
472.212	5491
472.290	3693
472.369	3747
472.447	4668
472.526	4242
472.604	4743
472.683	4345
472.761	4572
472.839	3722
472.918	4470
472.996	4066
473.075	5296
473.153	4053
473.231	4794
473.310	5291
473.388	4496
473.466	4474
473.545	5068
473.623	4813
473.701	4478
473.780	6149
473.858	4241
473.936	5222
474.014	4602
474.093	5724
474.171	5723
474.249	5294
474.327	4554
474.405	3980
474.484	4986
474.562	4836
474.640	4609
474.718	4569
474.796	4682
474.874	4548
474.952	4668
475.030	4194
475.108	4289
475.187	4199
475.265	5001
475.343	3812
475.421	3912
475.499	4328
475.577	4662
475.655	4949
475.733	3929
475.811	4842
475.889	4725
475.966	4761
476.044	3958
476.122	4120
476.200	3458
476.278	3993
476.356	3813
476.434	4198
476.512	4420
476.590	4422
476.667	4341
476.745	4553
476.823	3793
476.901	3740
476.979	4793
477.056	3856
477.134	3811
477.212	3358
477.290	2866
477.367	4222
477.445	4423
477.523	3985
477.601	3756
477.678	4049
477.756	3818
477.834	3726
477.911	4411
477.989	3814
478.066	4151
478.144	4335
478.222	3617
478.299	3820
478.377	4777
478.454	4714
478.532	4281
478.609	3980
478.687	3614
478.764	3698
478.842	3761
478.919	3888
478.997	4068
479.074	4264
479.152	4811
479.229	4042
479.307	4034
479.384	3431
479.461	4411
479.539	3865
479.616	5148
479.694	3559
479.771	3795
479.848	3963
479.926	4091
480.003	4864
480.080	4650
480.157	4456
480.235	4421
480.312	4252
480.389	4448
480.467	4088
480.544	5415
480.621	5483
480.698	5548
480.775	6808
480.853	5377
480.930	5081
481.007	4646
481.084	5873
481.161	8419
481.238	6534
481.315	3945
481.392	5231
481.470	5492
481.547	4138
481.624	5244
481.701	5552
481.778	5067
481.855	5778
481.932	6043
482.009	6493
482.086	6988
482.163	8702
482.240	10529
482.317	10122
482.393	8704
482.470	7622
482.547	7202
482.624	6532
482.701	6674
482.778	6599
482.855	6540
482.932	6935
483.009	6708
483.085	9063
483.162	11056
483.239	12522
483.316	11535
483.393	10609
483.469	9853
483.546	8095
483.623	8251
483.699	6733
483.776	6504
483.853	5450
483.930	5820
484.006	5893
484.083	6956
484.160	7032
484.236	6962
484.313	6701
484.389	6782
484.466	7736
484.543	11736
484.619	13366
484.696	16751
484.772	11604
484.849	7859
484.925	6883
485.002	7240
485.078	6716
485.155	5415
485.231	4275
485.308	4586
485.384	5071
485.461	5959
485.537	4500
485.614	5459
485.690	4310
485.766	4202
485.843	4625
485.919	4421
485.995	4134
486.072	4862
486.148	4853
486.224	4753
486.301	4493
486.377	4619
486.453	5187
486.530	4619
486.606	5157
486.682	5172
486.758	5150
486.835	6446
486.911	5972
486.987	7006
487.063	7075
487.139	7884
487.215	11287
487.292	11812
487.368	12704
487.444	17466
487.520	27309
487.596	44999
487.672	88887
487.748	278929
487.824	551635
487.900	231005
487.976	59124
488.052	26626
488.128	19169
488.204	12390
488.280	10237
488.356	9521
488.432	9126
488.508	7123
488.584	6967
488.660	6304
488.736	6180
488.812	5338
488.888	5776
488.964	5293
489.039	4843
489.115	6265
489.191	6378
489.267	4691
489.343	5174
489.418	5192
489.494	4199
489.570	4266
489.646	4732
489.722	5695
489.797	4367
489.873	4754
489.949	5420
490.024	5042
490.100	4439
490.176	4648
490.251	5149
490.327	5088
490.403	5476
490.478	4907
490.554	5391
490.629	4447
490.705	4174
490.781	5215
490.856	4380
490.932	4784
491.007	4352
491.083	5212
491.158	3869
491.234	3772
491.309	3731
491.385	4084
491.460	3712
491.536	4010
491.611	4578
491.686	3991
491.762	3958
491.837	4400
491.913	4258
491.988	5065
492.063	4151
492.139	3544
492.214	2466
492.289	4211
492.365	3676
492.440	3618
492.515	2454
492.590	3586
492.666	3394
492.741	3556
492.816	3666
492.891	3780
492.967	3864
493.042	3907
493.117	3821
493.192	3513
493.267	4331
493.342	6549
493.418	9393
493.493	4790
493.568	4020
493.643	3205
493.718	3766
493.793	2942
493.868	3002
493.943	2780
494.018	3867
494.093	3332
494.168	4050
494.243	3580
494.318	3335
494.393	3306
494.468	3663
494.543	3892
494.618	2751
494.693	3107
494.768	3118
494.842	2639
494.917	2653
494.992	3244
495.067	3541
495.142	3739
495.217	2752
495.292	3516
495.366	3131
495.441	2718
495.516	3202
495.591	3250
495.665	3084
495.740	5908
495.815	3275
495.890	3595
495.964	2738
496.039	3632
496.114	4018
496.188	7009
496.263	6552
496.338	3132
496.412	3001
496.487	3346
496.561	3405
496.636	2400
496.710	3061
496.785	3344
496.860	3493
496.934	3421
497.009	3091
497.083	3024
497.158	2541
497.232	3801
497.307	3069
497.381	3142
497.455	2742
497.530	2843
497.604	2797
497.679	2443
497.753	3088
497.827	2621
497.902	3017
497.976	3396
498.050	3461
498.125	6960
498.199	8368
498.273	3185
498.348	3414
498.422	3259
498.496	3296
498.570	2804
498.645	3678
498.719	2841
498.793	3791
498.867	3152
498.941	3930
499.016	4115
499.090	8124
499.164	5060
499.238	2736
499.312	3485
499.386	3022
499.460	2836
499.534	3197
499.609	3856
499.683	3067
499.757	3963
499.831	3719
499.905	5372
499.979	6965
500.053	3415
500.127	3680
500.201	3376
500.275	2898
500.349	3149
500.422	3594
500.496	4008
500.570	4078
500.644	4878
500.718	6865
500.792	4224
500.866	3246
500.940	3739
501.013	3593
501.087	3572
501.161	4461
501.235	4226
501.309	4232
501.382	5558
501.456	5942
501.530	3821
501.603	2845
501.677	4298
501.751	2823
501.825	4001
501.898	3086
501.972	4819
502.046	4171
502.119	3198
502.193	3578
502.266	4632
502.340	4642
502.413	3750
502.487	4169
502.561	3800
502.634	4366
502.708	3598
502.781	3845
502.855	3913
502.928	4259
503.002	3451
503.075	4029
503.149	3945
503.222	4124
503.295	3332
503.369	3695
503.442	4616
503.516	5053
503.589	7158
503.662	9175
503.736	9530
503.809	13996
503.882	18731
503.956	28965
504.029	56046
504.102	151346
504.175	286982
504.249	131811
504.322	44853
504.395	23028
504.468	14635
504.542	10096
504.615	7204
504.688	6621
504.761	4882
504.834	5422
504.907	4617
504.980	3893
505.053	4520
505.127	2962
505.200	4175
505.273	3688
505.346	2825
505.419	3001
505.492	3790
505.565	3450
505.638	3216
505.711	3132
505.784	2717
505.857	2396
505.930	3283
506.003	1811
506.076	3562
506.149	2068
506.221	2318
506.294	3383
506.367	2422
506.440	3609
506.513	3702
506.586	2594
506.659	1542
506.731	3022
506.804	1786
506.877	2179
506.950	1683
507.022	3375
507.095	2918
507.168	2270
507.241	1713
507.313	1835
507.386	2199
507.459	2443
507.531	3061
507.604	1961
507.677	2416
507.749	1818
507.822	1753
507.894	2214
507.967	1846
508.040	2022
508.112	2333
508.185	2023
508.257	2199
508.330	2385
508.402	2084
508.475	1742
508.547	2235
508.620	2216
508.692	1487
508.765	2574
508.837	1972
508.909	2412
508.982	2153
509.054	2173
509.127	1538
509.199	2429
509.271	1113
509.344	1252
509.416	2144
509.488	2177
509.560	2318
509.633	1242
509.705	2301
509.777	2070
509.849	1935
509.922	1545
509.994	2349
510.066	2676
510.138	2370
510.210	2923
510.283	2131
510.355	2844
510.427	1988
510.499	3158
510.571	1663
510.643	1862
510.715	3528
510.787	1309
510.859	2830
510.931	2103
511.003	2151
511.076	2773
511.148	2734
511.219	2249
511.291	2230
511.363	1767
511.435	1541
511.507	2601
511.579	2463
511.651	1624
511.723	2137
511.795	1941
511.867	1399
511.939	2319
512.010	1921
512.082	1518
512.154	1431
512.226	2445
512.298	2100
512.369	2493
512.441	1698
512.513	2220
512.585	2338
512.656	2726
512.728	2445
512.800	2293
512.871	2327
512.943	1772
513.015	2148
513.086	2070
513.158	2110
513.230	1952
513.301	1860
513.373	1581
513.444	1483
513.516	2315
513.588	2056
513.659	2370
513.731	1848
513.802	711
513.874	2066
513.945	2049
514.016	2049
514.088	2293
514.159	2585
514.231	2031
514.302	2213
514.374	1798
514.445	1647
514.516	3030
514.588	2305
514.659	2556
514.730	2408
514.802	1819
514.873	1998
514.944	3142
515.016	2137
515.087	1664
515.158	1383
515.229	2562
515.301	2023
515.372	2436
515.443	1764
515.514	2242
515.585	2240
515.656	2696
515.728	1854
515.799	2097
515.870	2030
515.941	2568
516.012	1564
516.083	2630
516.154	1829
516.225	2868
516.296	3302
516.367	2783
516.438	2970
516.509	2941
516.580	3680
516.651	5753
516.722	14029
516.793	9160
516.864	2977
516.935	3606
517.006	3742
517.077	4804
517.148	6356
517.219	16199
517.289	39284
517.360	8322
517.431	4534
517.502	2843
517.573	3643
517.643	2387
517.714	4193
517.785	3649
517.856	3224
517.926	5003
517.997	4542
518.068	6254
518.138	7329
518.209	8572
518.280	17342
518.350	60395
518.421	39928
518.492	18426
518.562	23430
518.633	35184
518.703	54766
518.774	109044
518.845	282660
518.915	346947
518.986	109003
519.056	41236
519.127	22521
519.197	16530
519.268	12738
519.338	9977
519.408	6483
519.479	5527
519.549	5301
519.620	5015
519.690	4824
519.760	4391
519.831	3264
519.901	3637
519.971	3302
520.042	3023
520.112	3017
520.182	3571
520.253	3016
520.323	2513
520.393	2256
520.463	3506
520.534	1875
520.604	3679
520.674	1960
520.744	2352
520.814	2142
520.885	2883
520.955	2523
521.025	3238
521.095	3302
521.165	3055
521.235	3039
521.305	3099
521.375	2129
521.445	2148
521.515	2677
521.585	2396
521.655	2808
521.725	2450
521.795	3553
521.865	1581
521.935	3495
522.005	2589
522.075	2738
522.145	2624
522.215	2398
522.285	3530
522.355	2433
522.424	2658
522.494	2953
522.564	2577
522.634	2415
522.704	3167
522.774	2253
522.843	3182
522.913	2572
522.983	2496
523.053	2706
523.122	2984
523.192	2632
523.262	2946
523.331	3083
523.401	3204
523.471	2617
523.540	3115
523.610	2807
523.680	3252
523.749	3063
523.819	3583
523.888	4255
523.958	3731
524.027	3519
524.097	3445
524.166	2933
524.236	3291
524.305	3922
524.375	3554
524.444	3235
524.514	3830
524.583	3404
524.653	3241
524.722	4074
524.791	3651
524.861	4419
524.930	3845
524.999	4567
525.069	4889
525.138	4521
525.207	4430
525.277	4864
525.346	4929
525.415	5903
525.484	6089
525.554	7612
525.623	9669
525.692	12550
525.761	15761
525.830	20407
525.900	30872
525.969	47986
526.038	96853
526.107	162844
526.176	521603
526.245	542690
526.314	156682
526.383	235376
526.452	432996
526.522	442774
526.591	608863
526.660	111330
526.729	55122
526.797	60257
526.867	79277
526.935	171417
527.004	665558
527.073	670163
527.142	100895
527.211	35769
527.280	21868
527.349	15436
527.418	11493
527.487	9573
527.555	7657
527.624	6288
527.693	5936
527.762	6723
527.831	6383
527.899	5293
527.968	5659
528.037	4426
528.106	4660
528.174	4484
528.243	3941
528.312	3894
528.380	3006
528.449	3841
528.518	4532
528.586	3244
528.655	4295
528.723	3797
528.792	3052
528.861	3193
528.929	3175
528.998	3787
529.066	3638
529.135	2879
529.203	2878
529.272	3262
529.340	3698
529.409	2925
529.477	2801
529.545	3183
529.614	3964
529.682	3527
529.751	2858
529.819	4980
529.887	3859
529.956	3566
530.024	3221
530.092	2754
530.161	3775
530.229	3091
530.297	3139
530.365	3940
530.434	3091
530.502	3629
530.570	3538
530.638	1386
530.707	3692
530.775	3086
530.843	3324
530.911	3761
530.979	3538
531.047	3497
531.115	3770
531.183	3966
531.252	4138
531.320	3284
531.388	3125
531.456	3874
531.524	3374
531.592	3919
531.660	4076
531.728	3216
531.796	3254
531.864	3347
531.932	3893
532.000	3280
532.067	3191
532.135	3655
532.203	4736
532.271	3908
532.339	5287
532.407	4791
532.475	5059
532.542	4839
532.610	4582
532.678	3076
532.746	5720
532.814	6586
532.881	5250
532.949	4036
533.017	4907
533.084	4678
533.152	3807
533.220	3932
533.287	4164
533.355	3865
533.423	5826
533.490	4436
533.558	4773
533.625	4880
533.693	4711
533.761	4571
533.828	4881
533.896	3875
533.963	5514
534.031	5622
534.098	7004
534.166	8147
534.233	7788
534.300	8636
534.368	8995
534.435	9372
534.503	10666
534.570	12522
534.637	16130
534.705	19499
534.772	26425
534.840	45818
534.907	174407
534.974	360172
535.041	57155
535.109	16708
535.176	12180
535.243	11152
535.310	8892
535.378	7956
535.445	7982
535.512	8761
535.579	8180
535.646	8253
535.714	8729
535.781	9414
535.848	9213
535.915	8520
535.982	7677
536.049	7431
536.116	8361
536.183	8019
536.250	7296
536.317	7702
536.384	8457
536.451	8867
536.518	8684
536.585	7935
536.652	9243
536.719	7647
536.786	7575
536.853	8226
536.920	8943
536.987	9017
537.053	7853
537.120	9467
537.187	9939
537.254	9640
537.321	8181
537.388	10147
537.454	8842
537.521	9682
537.588	8540
537.654	9440
537.721	9618
537.788	9579
537.855	9133
537.921	8809
537.988	8835
538.055	9012
538.121	8175
538.188	7371
538.254	8153
538.321	7371
538.388	8419
538.454	9836
538.521	10356
538.587	9898
538.654	9831
538.720	9801
538.787	10523
538.853	9232
538.920	9437
538.986	7661
539.053	7778
539.119	9140
539.185	9593
539.252	8829
539.318	9572
539.385	10925
539.451	9501
539.517	9817
539.583	9869
539.650	9142
539.716	9370
539.782	8712
539.849	9219
539.915	9079
539.981	8892
540.047	9015
540.114	8910
540.180	8995
540.246	9484
540.312	10451
540.378	9621
540.444	10662
540.510	9749
540.576	10759
540.643	9721
540.709	8385
540.775	9729
540.841	9166
540.907	8889
540.973	9533
541.039	8391
541.105	8933
541.171	9674
541.237	10887
541.303	11014
541.369	10967
541.435	10241
541.500	9906
541.566	8862
541.632	8825
541.698	9354
541.764	10277
541.830	8899
541.896	8692
541.961	9705
542.027	9266
542.093	10734
542.159	9880
542.224	10175
542.290	8565
542.356	9865
542.421	9408
542.487	8104
542.553	9304
542.618	9082
542.684	9050
542.750	9544
542.815	9523
542.881	9819
542.947	9734
543.012	10668
543.078	9988
543.143	8689
543.209	9681
543.274	8501
543.340	8172
543.405	9249
543.471	9297
543.536	9875
543.602	9863
543.667	9448
543.732	10205
543.798	8874
543.863	10409
543.928	9426
543.994	9797
544.059	10249
544.124	10738
544.190	10499
544.255	11345
544.320	10552
544.386	9656
544.451	11354
544.516	10693
544.581	10266
544.646	11157
544.712	12850
544.777	11263
544.842	11137
544.907	11666
544.972	11994
545.037	12052
545.102	12040
545.168	11310
545.233	12746
545.298	12739
545.363	12352
545.428	12959
545.493	13739
545.558	13036
545.623	13233
545.688	12622
545.753	13325
545.818	14927
545.883	14792
545.947	15893
546.012	16611
546.077	15875
546.142	18514
546.207	17997
546.272	19509
546.337	18894
546.401	20430
546.466	21637
546.531	22199
546.596	23488
546.661	24033
546.725	25693
546.790	27277
546.855	28619
546.919	32725
546.984	35612
547.049	38831
547.113	44277
547.178	48448
547.243	55790
547.307	63973
547.372	71450
547.436	72545
547.501	73915
547.565	83582
547.630	77316
547.695	72461
547.759	72514
547.823	73852
547.888	75850
547.952	78704
548.017	79794
548.081	82917
548.146	81718
548.210	81710
548.274	88952
548.339	88589
548.403	82959
548.468	76443
548.532	76522
548.596	76973
548.660	77407
548.725	82867
548.789	90108
548.853	89250
548.917	84898
548.982	82079
549.046	76057
549.110	69507
549.174	69390
549.238	78351
549.303	87203
549.367	91013
549.431	87944
549.495	83062
549.559	81628
549.623	90961
549.687	104385
549.751	100474
549.815	114411
549.879	122442
549.943	116309
550.007	120093
550.071	121158
550.135	111998
550.199	102819
550.263	102880
550.327	96393
550.391	97158
550.455	107083
550.519	114492
550.582	120521
550.646	133325
550.710	140706
550.774	138062
550.838	140541
550.901	143984
550.965	152591
551.029	161160
551.093	173223
551.156	189785
551.220	214094
551.284	246070
551.347	205671
551.411	161859
551.475	147048
551.538	148748
551.602	143146
551.666	133089
551.729	128155
551.793	121898
551.856	122563
551.920	119298
551.983	119347
552.047	117239
552.110	117336
552.174	117734
552.237	121818
552.301	115013
552.364	107855
552.428	106520
552.491	108673
552.554	112111
552.618	109540
552.681	113586
552.745	108426
552.808	109254
552.871	114730
552.934	114410
552.998	111581
553.061	108156
553.124	106707
553.187	104029
553.251	107926
553.314	109136
553.377	108549
553.440	114989
553.503	118408
553.567	121930
553.630	117755
553.693	116360
553.756	116683
553.819	114829
553.882	111262
553.945	109579
554.008	111934
554.071	111996
554.134	112781
554.197	108913
554.260	105888
554.323	106243
554.386	106753
554.449	113113
554.512	113399
554.575	109293
554.638	108240
554.701	105196
554.764	107438
554.827	103886
554.889	100990
554.952	95160
555.015	92960
555.078	93431
555.141	96171
555.203	92993
555.266	91296
555.329	91637
555.391	88759
555.454	86681
555.517	85842
555.580	83196
555.642	79936
555.705	77735
555.768	77376
555.830	76604
555.893	72016
555.955	70639
556.018	68937
556.080	68928
556.143	69853
556.206	70845
556.268	68468
556.330	67565
556.393	65578
556.455	63342
556.518	63313
556.580	59948
556.643	59153
556.705	57443
556.767	55780
556.830	56432
556.892	53863
556.955	54302
557.017	52763
557.079	53406
557.142	50746
557.204	50177
557.266	51125
557.328	49114
557.391	43841
557.453	43847
557.515	43386
557.577	43781
557.639	44746
557.701	44279
557.764	44747
557.826	45411
557.888	49484
557.950	52577
558.012	58949
558.074	71603
558.136	117018
558.198	325840
558.260	198538
558.322	57063
558.384	53137
558.446	56216
558.508	61382
558.570	73319
558.632	87035
558.694	112265
558.756	166570
558.818	341675
558.880	873098
558.942	539347
559.003	356441
559.065	265790
559.127	87732
559.189	78726
559.251	86157
559.312	113191
559.374	197236
559.436	584088
559.498	515223
559.559	117552
559.621	81873
559.683	87238
559.744	121525
559.806	274795
559.868	587191
559.929	210669
559.991	91931
560.052	113018
560.114	287447
560.176	294381
560.237	159595
560.299	326482
560.360	123592
560.422	35883
560.483	27723
560.545	24866
560.606	23479
560.667	22666
560.729	20356
560.790	20186
560.852	19444
560.913	19435
560.974	19205
561.036	17990
561.097	19233
561.158	18153
561.220	17557
561.281	17339
561.342	16504
561.403	17402
561.465	16456
561.526	16147
561.587	15897
561.648	14850
561.709	15243
561.771	15195
561.832	14857
561.893	14191
561.954	14472
562.015	14538
562.076	14140
562.137	14130
562.198	14464
562.259	13696
562.320	13419
562.381	14265
562.442	13856
562.503	14297
562.564	13329
562.625	12995
562.686	12657
562.747	13006
562.808	12543
562.869	12776
562.930	13311
562.991	11625
563.051	12242
563.112	11595
563.173	11977
563.234	11283
563.294	11815
563.355	12322
563.416	11045
563.477	11707
563.537	11080
563.598	11025
563.659	11267
563.720	11860
563.780	11602
563.841	11553
563.901	10816
563.962	11202
564.023	10486
564.083	11072
564.144	10936
564.204	11328
564.265	10113
564.325	11265
564.386	10650
564.446	10199
564.507	10684
564.567	9056
564.628	10942
564.688	10140
564.749	10424
564.809	10965
564.869	9766
564.930	10093
564.990	10392
565.050	9873
565.111	11041
565.171	10499
565.231	10206
565.292	10929
565.352	10301
565.412	9845
565.472	10158
565.532	10661
565.593	10369
565.653	10032
565.713	9808
565.773	10775
565.833	10493
565.893	12255
565.953	10025
566.013	9269
566.074	10176
566.134	9328
566.194	8844
566.254	10150
566.314	10025
566.374	9526
566.434	8984
566.494	9214
566.554	8805
566.614	10233
566.673	10002
566.733	10602
566.793	10477
566.853	10491
566.913	9752
566.973	10431
567.033	11153
567.092	10033
567.152	9965
567.212	10516
567.272	10692
567.331	11075
567.391	11213
567.451	11456
567.511	11463
567.570	11301
567.630	11755
567.690	10501
567.749	11020
567.809	11134
567.868	11027
567.928	10780
567.988	10564
568.047	10946
568.107	10536
568.166	11082
568.226	11346
568.285	10747
568.345	11490
568.404	10770
568.464	11822
568.523	11006
568.582	11389
568.642	11605
568.701	10841
568.761	10891
568.820	10118
568.879	11279
568.939	11363
568.998	11261
569.057	10781
569.116	11144
569.176	11684
569.235	11493
569.294	11740
569.353	10628
569.413	10472
569.472	10763
569.531	10458
569.590	10914
569.649	10452
569.708	10949
569.767	10979
569.827	10559
569.886	10195
569.945	10732
570.004	11615
570.063	11089
570.122	11735
570.181	11751
570.240	11660
570.299	11938
570.358	11942
570.417	11018
570.475	11763
570.534	12583
570.593	12310
570.652	12317
570.711	12989
570.770	12320
570.829	11550
570.887	11465
570.946	12349
571.005	12578
571.064	12163
571.122	12396
571.181	12658
571.240	12546
571.299	12120
571.357	11733
571.416	11525
571.475	12163
571.533	12153
571.592	13108
571.650	12813
571.709	13803
571.768	14317
571.826	15994
571.885	14842
571.943	14177
572.002	12096
572.060	12561
572.119	12677
572.177	12323
572.236	11633
572.294	11791
572.352	13060
572.411	13128
572.469	12864
572.528	12570
572.586	12074
572.644	11838
572.703	13215
572.761	11532
572.819	11354
572.877	11314
572.936	10630
572.994	12047
573.052	10387
573.110	11914
573.169	12643
573.227	12695
573.285	11948
573.343	12606
573.401	12496
573.459	12370
573.517	12202
573.576	13277
573.634	12459
573.692	12266
573.750	13059
573.808	12429
573.866	12210
573.924	10823
573.982	11535
574.040	11967
574.098	11590
574.155	11330
574.213	10062
574.271	10850
574.329	13243
574.387	12897
574.445	11912
574.503	10837
574.560	11214
574.618	11072
574.676	10391
574.734	10827
574.792	11456
574.849	10248
574.907	10729
574.965	10175
575.022	9120
575.080	9075
575.138	9442
575.195	9051
575.253	9196
575.311	8326
575.368	9753
575.426	9642
575.483	9219
575.541	9327
575.598	9817
575.656	9588
575.713	9556
575.771	9715
575.828	9999
575.886	10193
575.943	9470
576.001	9350
576.058	9196
576.115	9324
576.173	8394
576.230	9772
576.287	10378
576.345	10363
576.402	9879
576.459	10308
576.517	9401
576.574	9395
576.631	9846
576.688	8871
576.746	8657
576.803	8967
576.860	8947
576.917	9326
576.974	9729
577.031	9331
577.089	9095
577.146	9462
577.203	8363
577.260	8606
577.317	8337
577.374	8751
577.431	8860
577.488	8691
577.545	9324
577.602	8536
577.659	8421
577.716	9431
577.773	9314
577.830	8853
577.886	9222
577.943	8595
578.000	8782
578.057	9046
578.114	8892
578.171	9040
578.227	8680
578.284	8821
578.341	9329
578.398	9468
578.454	9228
578.511	9092
578.568	9123
578.625	9657
578.681	9340
578.738	9687
578.794	8647
578.851	9841
578.908	9168
578.964	9276
579.021	9764
579.077	8983
579.134	10075
579.190	9220
579.247	9135
579.303	9729
579.360	8115
579.416	10065
579.473	8970
579.529	9234
579.586	9863
579.642	9147
579.698	10389
579.755	8930
579.811	9465
579.867	9652
579.924	9562
579.980	9897
580.036	10808
580.093	10260
580.149	9629
580.205	10258
580.261	11121
580.317	9280
580.374	11071
580.430	11149
580.486	10512
580.542	9647
580.598	10853
580.619	10723
580.654	10510
580.692	10430
580.710	10407
580.765	11357
580.767	11400
580.823	10568
580.838	10698
580.879	11071
580.911	10958
580.935	10895
580.984	10694
580.991	10681
581.047	11113
581.057	11072
581.103	10925
581.130	10643
581.159	10357
581.203	11284
581.215	11550
581.270	10831
581.276	10787
581.326	10413
581.349	10234
581.382	9991
581.422	10010
581.438	10026
581.494	11034
581.494	11021
581.550	10444
581.567	10235
581.606	9768
581.640	10107
581.661	10327
581.713	10701
581.717	10737
581.773	10283
581.786	10289
581.829	10373
581.859	10271
581.885	10138
581.932	10610
581.940	10724
581.996	9917
582.004	10112
582.052	11202
582.077	11055
582.107	10863
582.150	10078
582.163	9843
582.219	9850
582.223	9879
582.274	10364
582.296	10156
582.330	9765
582.368	10281
582.386	10545
582.441	10349
582.441	10352
582.497	10278
582.514	10311
582.552	10518
582.587	10266
582.608	10076
582.659	10805
582.663	10856
582.719	11328
582.732	11291
582.774	11231
582.805	10884
582.830	10642
582.877	10379
582.885	10327
582.941	10658
582.950	10656
582.996	10584
583.023	10643
583.052	10774
583.095	10788
583.107	10790
583.162	11084
583.168	11066
583.218	10699
583.240	10381
583.273	10116
583.313	10208
583.328	10172
583.384	11198
583.385	11170
583.439	10621
583.458	10765
583.494	10908
583.531	10640
583.549	10521
583.603	11198
583.605	11220
583.660	10885
583.676	10884
583.715	10810
583.748	10855
583.770	10941
583.820	10653
583.825	10609
583.881	10860
583.893	10798
583.936	10601
583.965	10619
583.991	10727
584.038	11205
584.046	11256
584.101	10421
584.110	10446
584.156	10760
584.183	10860
584.211	10843
584.255	11110
584.266	11204
584.321	11824
584.328	11792
584.376	11468
584.400	11393
584.431	11410
584.472	11799
584.486	11877
584.541	12116
584.545	12150
584.596	12927
584.617	12820
584.651	12439
584.689	12836
584.706	13056
584.761	13663
584.762	13660
584.816	13112
584.834	13477
584.871	14230
584.906	14666
584.926	14895
584.978	15511
584.980	15543
585.035	17058
585.051	17476
585.090	18330
585.123	19494
585.145	20553
585.195	23385
585.200	23636
585.254	26771
585.267	28071
585.309	32833
585.340	36667
585.364	39581
585.412	46254
585.419	47341
585.473	57722
585.484	60744
585.528	74152
585.556	86221
585.583	102906
585.628	146664
585.637	162192
585.692	296938
585.700	328397
585.747	525792
585.772	538154
585.801	455856
585.845	255923
585.856	209591
585.910	89786
585.917	79506
585.965	54848
585.989	45758
586.019	39147
586.061	32837
586.074	31256
586.128	26078
586.133	25842
586.183	25073
586.205	24665
586.237	23763
586.277	23011
586.292	22907
586.346	22188
586.349	22183
586.401	21955
586.421	21896
586.455	21733
586.493	21751
586.509	21863
586.564	21374
586.565	21392
586.618	22382
586.637	22811
586.672	24275
586.709	26460
586.727	27898
586.781	33261
586.781	33267
586.835	30798
586.853	29739
586.889	26056
586.925	23594
586.944	22901
586.996	21913
586.998	21896
587.052	21285
587.068	20996
587.106	20948
587.140	21320
587.161	21484
587.212	21813
587.215	21797
587.269	21416
587.284	21315
587.323	21845
587.356	22655
587.377	22889
587.427	23026
587.431	23071
587.485	23813
587.499	23863
587.539	23591
587.571	23675
587.593	24132
587.643	25976
587.648	26074
587.702	26121
587.715	26119
587.755	26306
587.786	26492
587.810	26521
587.858	26700
587.864	26731
587.917	26922
587.930	26866
587.971	26710
588.001	26915
588.025	27086
588.073	27076
588.079	27057
588.133	26804
588.145	26829
588.187	26643
588.217	26348
588.241	26278
588.288	26223
588.295	26321
588.348	27433
588.360	27625
588.402	27849
588.431	28005
588.456	27963
588.503	27976
588.510	28102
588.564	29369
588.575	29653
588.617	30567
588.646	31209
588.671	31714
588.718	32830
588.725	33049
588.778	34870
588.789	35429
588.832	38946
588.861	42422
588.886	52261
588.932	74459
588.939	80814
588.993	139553
589.004	145666
589.047	110285
589.075	83130
589.100	61776
589.147	33745
589.154	33146
589.207	30559
589.218	30083
589.261	30329
589.290	30739
589.314	31237
589.361	32277
589.368	32444
589.421	34042
589.433	34579
589.475	41968
589.504	48321
589.528	62529
589.576	95774
589.582	97476
589.635	100461
589.647	98696
589.689	59036
589.718	36307
589.742	33864
589.790	30213
589.795	30191
589.849	29921
589.861	29909
589.902	29100
589.932	28561
589.955	28862
590.004	29403
590.009	29399
590.062	29281
590.075	29226
590.115	28906
590.146	28786
590.168	28954
590.218	28922
590.222	28932
590.275	29573
590.289	29651
590.328	30365
590.360	30960
590.381	31094
590.431	31361
590.435	31405
590.488	31879
590.503	32049
590.541	31738
590.574	31569
590.594	32066
590.645	33083
590.647	33120
590.700	34061
590.716	34318
590.753	35151
590.787	35947
590.806	36468
590.859	37933
590.859	37958
590.912	38466
590.930	38589
590.965	38848
591.001	39181
591.018	38901
591.071	37752
591.072	37729
591.124	37824
591.143	37867
591.177	37755
591.214	37656
591.230	37772
591.283	38084
591.285	38085
591.336	39049
591.356	39368
591.389	38879
591.427	38447
591.442	38312
591.495	37461
591.498	37404
591.547	37648
591.569	37716
591.600	38128
591.640	38712
591.653	38951
591.706	39821
591.711	39905
591.759	40138
591.782	40238
591.811	41459
591.853	43325
591.864	43334
591.917	43087
591.924	43048
591.969	42424
591.995	41978
592.022	42752
592.066	44107
592.075	44161
592.127	44374
592.137	44392
592.180	45071
592.208	45516
592.233	45836
592.279	46402
592.285	46575
592.338	47942
592.350	48240
592.390	48352
592.421	48406
592.443	48570
592.491	48912
592.495	49012
592.548	50191
592.562	50498
592.600	50985
592.633	51377
592.653	50997
592.704	49676
592.705	49975
592.775	50784
592.846	53141
592.916	53207
592.987	54277
593.058	55308
593.128	55151
593.199	55919
593.270	55812
593.341	56174
593.411	58332
593.482	59390
593.553	61920
593.623	63059
593.694	64434
593.764	65823
593.835	67076
593.906	65953
593.976	66747
594.047	69473
594.117	71314
594.188	74154
594.258	74822
594.329	75933
594.399	74668
594.470	78217
594.540	79947
594.611	83898
594.681	82592
594.751	82577
594.822	84562
594.892	88086
594.963	90219
595.033	93629
595.103	97132
595.174	97748
595.244	100152
595.314	101748
595.384	103813
595.455	106372
595.525	109974
595.595	113830
595.665	116267
595.736	114262
595.806	114335
595.876	117256
595.946	116278
596.016	121256
596.087	125736
596.157	127783
596.227	124361
596.297	130445
596.367	136788
596.437	146961
596.507	149692
596.577	147762
596.647	151666
596.717	157314
596.787	164319
596.857	161987
596.927	162515
596.997	165221
597.067	163334
597.137	167662
597.207	168863
597.277	172377
597.347	166525
597.417	160062
597.487	159282
597.557	159000
597.626	164960
597.696	169070
597.766	167983
597.836	163120
597.906	153255
597.975	147579
598.045	146261
598.115	153771
598.185	159833
598.254	176485
598.324	193359
598.394	203572
598.464	201901
598.533	195601
598.603	188031
598.672	178126
598.742	179736
598.812	181858
598.881	182585
598.951	185502
599.020	183199
599.090	191056
599.159	195482
599.229	193351
599.299	186437
599.368	189015
599.437	191441
599.507	182915
599.576	169651
599.646	167631
599.715	163308
599.785	163185
599.854	158882
599.924	154850
599.993	152664
600.062	155241
600.132	159373
600.201	163326
600.270	183673
600.340	203596
600.409	203429
600.478	200475
600.547	199457
600.617	202554
600.686	163482
600.755	142559
600.824	132479
600.894	127292
600.963	125466
601.032	126261
601.101	122922
601.170	117465
601.239	113361
601.308	110963
601.378	109697
601.447	111307
601.516	112901
601.585	112786
601.654	114919
601.723	115463
601.792	116186
601.861	120952
601.930	124285
601.999	124793
602.068	125311
602.137	126680
602.206	129519
602.275	129489
602.343	131651
602.412	131339
602.481	133959
602.550	135763
602.619	136674
602.688	140408
602.756	140152
602.825	143254
602.894	143262
602.963	148741
603.032	150074
603.100	152702
603.169	150960
603.238	151765
603.307	153450
603.375	155868
603.444	156332
603.513	159912
603.581	162689
603.650	164282
603.719	161630
603.787	165375
603.856	171757
603.924	174297
603.993	178150
604.061	185815
604.130	194147
604.198	199800
604.267	201199
604.335	206645
604.404	206690
604.472	210932
604.541	213152
604.609	214265
604.678	213379
604.746	214222
604.815	219000
604.883	223241
604.951	223585
605.020	225931
605.088	229919
605.156	237547
605.225	239324
605.293	240543
605.361	241029
605.429	245932
605.498	246259
605.566	252283
605.634	261434
605.702	268481
605.771	277562
605.839	283931
605.907	281408
605.975	274964
606.043	266159
606.111	266682
606.180	265059
606.248	263641
606.316	263315
606.384	260329
606.452	260853
606.520	262732
606.588	273702
606.656	277707
606.724	278481
606.792	268613
606.860	252354
606.928	226913
606.996	214924
607.064	207949
607.132	211192
607.200	217725
607.267	229349
607.335	231952
607.403	239777
607.471	239427
607.539	225352
607.607	229927
607.674	213093
607.742	199819
607.810	200663
607.878	199255
607.946	200356
608.013	209398
608.081	217335
608.149	215979
608.216	220243
608.284	231474
608.352	231729
608.419	235599
608.487	228383
608.555	223990
608.622	225539
608.690	232946
608.757	252618
608.825	270939
608.893	265776
608.960	257021
609.028	241976
609.095	239461
609.163	240272
609.230	230040
609.298	200230
609.365	202223
609.432	214833
609.500	231014
609.567	253000
609.635	287494
609.702	317193
609.769	315066
609.837	280820
609.904	219653
609.971	214653
610.039	223148
610.106	240970
610.173	311226
610.241	532190
610.308	690915
610.375	331006
610.442	244284
610.509	227445
610.577	223840
610.644	223659
610.711	227289
610.778	232075
610.845	238578
610.912	252577
610.980	264641
611.047	268855
611.114	266322
611.181	258615
611.248	256101
611.315	262262
611.382	272665
611.449	279001
611.516	286751
611.583	284141
611.650	283876
611.717	286510
611.784	287980
611.851	295018
611.918	303903
611.984	318232
612.051	361295
612.118	464047
612.185	760717
612.252	1019687
612.319	532178
612.386	378952
612.452	352983
612.519	328389
612.586	318882
612.653	314908
612.719	323211
612.786	327358
612.853	313005
612.919	295030
612.986	300294
613.053	292162
613.120	278910
613.186	262787
613.253	262874
613.319	259860
613.386	263558
613.453	263494
613.519	268936
613.586	265766
613.652	266168
613.719	264734
613.785	265342
613.852	269323
613.918	270193
613.985	267543
614.051	276951
614.118	280305
614.184	273665
614.250	264640
614.317	274316
614.383	271285
614.449	274067
614.516	274485
614.582	275559
614.648	274375
614.715	268403
614.781	268232
614.847	261640
614.914	264500
614.980	259585
615.046	256158
615.112	260483
615.179	267584
615.245	268153
615.311	266445
615.377	267140
615.443	270637
615.509	270545
615.575	276868
615.642	279391
615.708	278657
615.774	287342
615.840	296626
615.906	306608
615.972	320347
616.038	372121
616.104	512470
616.170	829125
616.236	1169879
616.302	682932
616.368	461909
616.434	391952
616.500	331064
616.565	323252
616.631	368845
616.697	386220
616.763	343464
616.829	378895
616.895	548304
616.961	717989
617.026	512144
617.092	328937
617.158	291378
617.224	281075
617.289	268917
617.355	254900
617.421	248425
617.487	248532
617.552	241398
617.618	233899
617.684	234122
617.749	234381
617.815	231434
617.880	221378
617.946	222030
618.012	223208
618.077	229681
618.143	227331
618.208	219508
618.274	229399
618.339	243574
618.405	221902
618.470	199575
618.536	203652
618.601	201181
618.667	196122
618.732	185222
618.798	180139
618.863	177282
618.928	173040
618.994	174926
619.059	174849
619.124	177606
619.190	175560
619.255	174847
619.320	175485
619.386	176591
619.451	176319
619.516	173561
619.581	172112
619.647	178162
619.712	180759
619.777	174427
619.842	170623
619.907	173538
619.972	175671
620.038	180231
620.103	174494
620.168	172992
620.233	175513
620.298	174588
620.363	176165
620.428	179693
620.493	184488
620.558	187604
620.623	188541
620.688	192700
620.753	189610
620.818	190515
620.883	192195
620.948	192946
621.013	192458
621.078	189617
621.143	187841
621.207	191069
621.272	188826
621.337	187517
621.402	181649
621.467	183252
621.532	179383
621.596	182933
621.661	180109
621.726	174446
621.791	177258
621.855	177730
621.920	177051
621.985	176387
622.049	180609
622.114	181164
622.179	181637
622.243	182890
622.308	189510
622.373	194084
622.437	197536
622.502	189728
622.566	185464
622.631	182915
622.695	186172
622.760	186590
622.824	184531
622.889	186212
622.953	186549
623.018	190468
623.082	198762
623.147	196625
623.211	194296
623.276	191559
623.340	193418
623.404	183271
623.469	184034
623.533	182883
623.597	183383
623.662	179551
623.726	178513
623.790	165133
623.854	157707
623.919	159022
623.983	159391
624.047	163159
624.111	165607
624.176	165306
624.240	164685
624.304	170668
624.368	170418
624.432	168121
624.496	167965
624.560	173824
624.625	181167
624.689	177017
624.753	179506
624.817	184349
624.881	174974
624.945	169627
625.009	154777
625.073	156645
625.137	158955
625.201	163378
625.265	166667
625.329	163921
625.393	161551
625.456	163298
625.520	166588
625.584	168599
625.648	171505
625.712	174407
625.776	176323
625.839	171314
625.903	158788
625.967	137080
626.031	137249
626.095	151080
626.158	168961
626.222	143086
626.286	121382
626.349	119007
626.413	112825
626.477	107751
626.540	106617
626.604	109587
626.668	107833
626.731	105802
626.795	104828
626.858	104673
626.922	105060
626.986	103342
627.049	102124
627.113	105243
627.176	106419
627.240	101515
627.303	100842
627.366	100289
627.430	98984
627.493	100062
627.557	97056
627.620	97143
627.684	99509
627.747	102562
627.810	100792
627.874	90713
627.937	83973
628.000	83654
628.064	84605
628.127	79145
628.190	75016
628.253	72902
628.317	72109
628.380	67958
628.443	67448
628.506	65021
628.569	64860
628.632	60495
628.696	59880
628.759	59606
628.822	57630
628.885	56024
628.948	55578
629.011	54569
629.074	53018
629.137	51948
629.200	50446
629.263	49448
629.326	47742
629.389	47870
629.452	48747
629.515	46838
629.578	46729
629.641	46221
629.704	48025
629.767	46450
629.830	45831
629.892	43570
629.955	43203
630.018	44511
630.081	44736
630.144	44536
630.207	43134
630.269	42678
630.332	41975
630.395	40495
630.458	41087
630.520	39244
630.583	40338
630.646	39376
630.708	40565
630.771	40752
630.834	41880
630.896	42148
630.959	41462
631.021	41056
631.084	40322
631.146	40315
631.209	41303
631.272	39751
631.334	41204
631.397	40310
631.459	41833
631.522	41195
631.584	43800
631.646	44562
631.709	47296
631.771	46253
631.834	45536
631.896	44115
631.958	42142
632.021	40963
632.083	39838
632.145	38568
632.208	38285
632.270	38007
632.332	37527
632.395	37428
632.457	38413
632.519	38775
632.581	37080
632.643	36711
632.706	37532
632.768	36841
632.830	36429
632.892	37017
632.954	38683
633.016	38465
633.078	37960
633.141	38299
633.203	36829
633.265	37609
633.327	36594
633.389	37229
633.451	37904
633.513	36236
633.575	37109
633.637	37399
633.698	37330
633.760	39977
633.822	40107
633.884	41090
633.946	41803
634.008	43640
634.070	43580
634.132	43893
634.193	46783
634.255	49619
634.317	53883
634.379	54796
634.441	49580
634.502	46556
634.564	42823
634.626	39981
634.687	37610
634.749	37176
634.811	35746
634.873	35146
634.934	35997
634.996	35913
635.057	35155
635.119	36330
635.181	36987
635.242	37438
635.304	36035
635.365	38707
635.427	36727
635.488	36156
635.550	36444
635.611	36129
635.673	35773
635.734	37377
635.796	38802
635.857	41199
635.918	43702
635.980	46603
636.041	49611
636.102	51773
636.164	55310
636.225	53144
636.286	49144
636.348	44833
636.409	40262
636.470	38523
636.531	36073
636.593	34811
636.654	34958
636.715	33362
636.776	33476
636.838	33591
636.899	32580
636.960	31632
637.021	31516
637.082	31421
637.143	31092
637.204	29010
637.265	29796
637.326	30637
637.387	30437
637.448	30865
637.509	30172
637.570	31215
637.631	29120
637.692	29615
637.753	29033
637.814	28831
637.875	28751
637.936	29069
637.997	28128
638.058	28363
638.119	28820
638.179	27565
638.240	28463
638.301	29328
638.362	27642
638.423	27633
638.483	27491
638.544	26218
638.605	27374
638.666	26693
638.726	27264
638.787	27007
638.848	26630
638.908	26734
638.969	25126
639.030	24593
639.090	26135
639.151	25397
639.211	25267
639.272	26218
639.332	26918
639.393	26312
639.453	26826
639.514	27875
639.574	26771
639.635	24738
639.695	24292
639.756	23846
639.816	24018
639.877	23328
639.937	24562
639.997	24446
640.058	23753
640.118	24851
640.178	24038
640.239	23914
640.299	23974
640.359	23671
640.420	24306
640.480	25501
640.540	28053
640.600	31515
640.661	29466
640.721	26787
640.781	29095
640.841	27145
640.901	26728
640.961	24054
641.021	24120
641.082	25071
641.142	26167
641.202	24162
641.262	23075
641.322	23308
641.382	23054
641.442	22701
641.502	23201
641.562	22523
641.622	23288
641.682	24103
641.742	25287
641.802	27487
641.861	24655
641.921	22473
641.981	21118
642.041	20634
642.101	21625
642.161	19991
642.221	19610
642.280	21251
642.340	21692
642.400	20551
642.460	21988
642.519	22466
642.579	21891
642.639	22035
642.698	21371
642.758	22088
642.818	22480
642.877	22655
642.937	22422
642.997	21040
643.056	21929
643.116	21241
643.175	22751
643.235	21714
643.294	23366
643.354	24627
643.414	24893
643.473	26625
643.532	28959
643.592	34568
643.651	44302
643.711	65181
643.770	106396
643.830	195378
643.889	456011
643.948	462709
644.008	114518
644.067	50075
644.126	35920
644.186	29544
644.245	27475
644.304	23656
644.363	23927
644.423	22111
644.482	22642
644.541	22567
644.600	22606
644.659	26502
644.719	28694
644.778	35057
644.837	49927
644.896	84531
644.955	178498
645.014	225756
645.073	54977
645.132	29136
645.191	25471
645.250	24419
645.309	23613
645.368	25060
645.427	28764
645.486	37082
645.545	71165
645.604	66980
645.663	24358
645.722	22116
645.781	22341
645.840	23096
645.898	24860
645.957	29968
646.016	40916
646.075	59705
646.134	99574
646.192	184849
646.251	438052
646.310	305019
646.369	70729
646.427	39934
646.486	34550
646.545	26112
646.603	23614
646.662	20459
646.721	19304
646.779	19641
646.838	19112
646.896	20952
646.955	25231
647.014	33131
647.072	53814
647.131	105836
647.189	188989
647.248	51621
647.306	21413
647.365	17961
647.423	16205
647.481	16545
647.540	15554
647.598	16351
647.657	15713
647.715	16374
647.773	15134
647.832	14539
647.890	14345
647.948	14121
648.007	13895
648.065	13111
648.123	13334
648.181	12990
648.240	13111
648.298	12121
648.356	12785
648.414	11979
648.472	12809
648.531	12715
648.589	12158
648.647	11586
648.705	12127
648.763	11992
648.821	13212
648.879	12098
648.937	13937
648.995	14582
649.053	16888
649.111	20776
649.169	30488
649.227	47349
649.285	82445
649.343	187358
649.401	328338
649.459	87201
649.516	26281
649.574	18199
649.632	17178
649.690	17126
649.748	19163
649.806	22806
649.863	37760
649.921	72193
649.979	156103
650.037	50790
650.094	15345
650.152	11939
650.210	11450
650.268	11652
650.325	10977
650.383	9851
650.440	9571
650.498	9129
650.556	8636
650.613	8646
650.671	9158
650.728	8330
650.786	9190
650.843	10463
650.901	12896
650.958	8545
651.016	8563
651.073	7952
651.131	8327
651.188	6678
651.246	7832
651.303	7278
651.360	7223
651.418	7196
651.475	7331
651.532	7317
651.590	7583
651.647	6391
651.704	7908
651.762	6956
651.819	6874
651.876	5879
651.933	6164
651.990	6628
652.048	6675
652.105	6243
652.162	6721
652.219	6089
652.276	5977
652.333	6436
652.390	5617
652.448	5967
652.505	5859
652.562	5785
652.619	6142
652.676	6308
652.733	6330
652.790	5974
652.847	4834
652.904	5706
652.961	5312
653.017	5043
653.074	5794
653.131	5663
653.188	5611
653.245	6234
653.302	5831
653.359	5381
653.415	6534
653.472	5270
653.529	5905
653.586	5815
653.642	6107
653.699	5446
653.756	5498
653.813	5772
653.869	5510
653.926	5633
653.983	5666
654.039	5372
654.096	5381
654.152	5086
654.209	4511
654.266	4495
654.322	4667
654.379	5343
654.435	4855
654.492	4930
654.548	4787
654.605	5148
654.661	6269
654.717	5239
654.774	4723
654.830	4996
654.887	5296
654.943	4971
655.000	5574
655.056	4949
655.112	4811
655.168	4307
655.225	4913
655.281	5730
655.337	4941
655.394	5212
655.450	5218
655.506	4416
655.562	4588
655.618	5364
655.675	4459
655.731	4269
655.787	3969
655.843	5015
655.899	3976
655.955	5058
656.011	5464
656.067	3522
656.123	5064
656.179	4510
656.235	5722
656.291	4621
656.347	5229
656.403	5081
656.459	4441
656.515	4175
656.571	5351
656.627	4387
656.683	4055
656.739	5587
656.795	4595
656.850	5080
656.906	5006
656.962	5205
657.018	4646
657.074	5674
657.129	7710
657.185	9883
657.241	16500
657.297	30880
657.352	10765
657.408	5146
657.464	5307
657.519	3661
657.575	3538
657.630	4247
657.686	4009
657.742	3576
657.797	3975
657.853	4232
657.908	4279
657.964	3990
658.019	3549
658.075	4209
658.130	4242
658.186	3856
658.241	3807
658.297	3852
658.352	3468
658.407	4059
658.463	3507
658.518	4092
658.573	4153
658.629	3126
658.684	3244
658.739	3406
658.795	2827
658.850	3618
658.905	3293
658.960	3940
659.016	2837
659.071	3281
659.126	3782
659.181	3321
659.236	4100
659.291	3260
659.346	3403
659.401	3355
659.457	4809
659.512	3340
659.567	3879
659.622	2598
659.677	2688
659.732	2678
659.787	3673
659.842	3011
659.897	3389
659.952	3915
660.007	3368
660.061	2824
660.116	2910
660.171	3083
660.226	2942
660.281	3702
660.336	2777
660.391	2874
660.445	3402
660.500	2906
660.555	3057
660.610	3013
660.664	3570
660.719	2239
660.774	3319
660.828	3005
660.883	3553
660.938	2295
660.992	2306
661.047	3669
661.101	2848
661.156	3092
661.211	3374
661.265	2913
661.320	2726
661.374	2421
661.429	3269
661.483	2206
661.538	3007
661.592	3006
661.647	3443
661.701	2893
661.755	3178
661.810	3237
661.864	2705
661.919	2032
661.973	3307
662.027	2801
662.081	2777
662.136	2746
662.190	3454
662.244	2654
662.299	2968
662.353	2712
662.407	2688
662.461	2225
662.515	3547
662.569	1901
662.624	3621
662.678	1696
662.732	2385
662.786	2713
662.840	3346
662.894	2886
662.948	2765
663.002	2194
663.056	3007
663.110	1666
663.164	2509
663.218	3180
663.272	2396
663.326	2457
663.380	2482
663.434	3173
663.488	2945
663.542	2704
663.595	2643
663.649	1693
663.703	3068
663.757	2419
663.811	2351
663.864	2845
663.918	3425
663.972	2204
664.026	3015
664.079	2739
664.133	2437
664.187	3194
664.240	3198
664.294	2261
664.348	2364
664.401	2187
664.455	3469
664.508	2336
664.562	3115
664.615	2749
664.669	2257
664.722	3552
664.776	3009
664.829	2776
664.883	3195
664.936	1876
664.990	2803
665.043	2709
665.097	1113
665.150	2867
665.203	2481
665.257	2316
665.310	3256
665.363	1983
665.417	2890
665.470	2932
665.523	2719
665.576	2999
665.630	2529
665.683	1742
665.736	2227
665.789	2934
665.842	2678
665.895	2921
665.949	2595
666.002	2183
666.055	2698
666.108	3041
666.161	3166
666.214	2292
666.267	2966
666.320	2870
666.373	3791
666.426	3173
666.479	3044
666.532	2744
666.585	3133
666.638	2996
666.691	3115
666.744	3791
666.796	3120
666.849	3257
666.902	4153
666.955	3083
667.008	2971
667.060	2662
667.113	3286
667.166	3481
667.219	2890
667.271	3996
667.324	3680
667.377	2358
667.430	3934
667.482	2260
667.535	3284
667.587	2675
667.640	3457
667.693	1957
667.745	2763
667.798	3044
667.850	3394
667.903	3030
667.955	2599
668.008	3696
668.060	3449
668.113	2291
668.165	3617
668.218	2543
668.270	3002
668.322	2622
668.375	2843
668.427	2612
668.479	3018
668.532	3230
668.584	3171
668.636	2780
668.689	2813
668.741	2835
668.793	3274
668.845	1919
668.898	3257
668.950	2951
669.002	2906
669.054	1845
669.106	2270
669.158	2766
669.211	3166
669.263	2468
669.315	3632
669.367	2696
669.419	2720
669.471	2421
669.523	2453
669.575	3094
669.627	1967
669.679	2075
669.731	2178
669.783	2242
669.835	2972
669.886	2632
669.938	2845
669.990	2726
670.042	2869
670.094	2221
670.146	2344
670.197	2172
670.249	2472
670.301	1936
670.353	2844
670.404	2144
670.456	2573
670.508	2652
670.560	3975
670.611	3863
670.663	6046
670.715	9606
670.766	21039
670.818	21434
670.869	5461
670.921	3113
670.972	2998
671.024	3550
671.075	3256
671.127	1560
671.178	2236
671.230	2538
671.281	3303
671.333	3745
671.384	4112
671.436	4158
671.487	7371
671.538	10588
671.590	14646
671.641	23838
671.692	40064
671.744	74590
671.795	117369
671.846	63547
671.897	25807
671.949	13830
672.000	9164
672.051	6682
672.102	5563
672.153	3151
672.204	4052
672.256	3254
672.307	3561
672.358	2266
672.409	2986
672.460	1967
672.511	2549
672.562	1791
672.613	1877
672.664	974
672.715	2739
672.766	2409
672.817	1845
672.868	1148
672.919	2190
672.970	1587
673.021	1476
673.071	1167
673.122	2452
673.173	1521
673.224	1350
673.275	1295
673.326	991
673.376	917
673.427	685
673.478	1140
673.528	2347
673.579	1758
673.630	1130
673.680	923
673.731	1205
673.782	1457
673.832	2187
673.883	1458
673.934	774
673.984	1273
674.035	1484
674.085	1774
674.136	1743
674.186	1235
674.237	1532
674.287	1243
674.338	2126
674.388	1693
674.438	1241
674.489	1087
674.539	1937
674.589	1927
674.640	1941
674.690	1455
674.740	1653
674.791	1414
674.841	896
674.891	1259
674.942	1377
674.992	-133
675.042	1312
675.092	952
675.142	1157
675.193	88
675.243	609
675.293	1151
675.343	1027
675.393	352
675.443	1328
675.493	673
675.543	733
675.593	1655
675.643	1851
675.693	1012
675.743	1829
675.793	1332
675.843	727
675.893	1201
675.943	1268
675.993	122
676.043	456
676.093	1329
676.142	424
676.192	279
676.242	639
676.292	698
676.341	1440
676.391	414
676.441	1542
676.491	1039
676.540	-196
676.590	674
676.640	832
676.689	257
676.739	837
676.789	615
676.838	817
676.888	821
676.937	1346
676.987	666
677.037	431
677.086	355
677.136	446
677.185	387
677.235	1073
677.284	-171
677.333	639
677.383	298
677.432	-368
677.482	765
677.531	-161
677.580	-271
677.630	445
677.679	340
677.728	352
677.778	-31
677.827	62
677.876	289
677.925	593
677.975	70
678.024	1364
678.073	307
678.122	223
678.171	117
678.220	1283
678.269	624
678.319	1657
678.368	1099
678.417	1039
678.466	731
678.515	-58
678.564	276
678.613	576
678.662	-143
678.711	91
678.760	121
678.809	538
678.857	412
678.906	991
678.955	-7
679.004	1021
679.053	688
679.102	838
679.151	280
679.199	862
679.248	605
679.297	349
679.346	293
679.394	137
679.443	432
679.492	112
679.540	-76
679.589	404
679.638	-313
679.686	410
679.735	189
679.784	624
679.832	1323
679.881	758
679.929	179
679.978	-261
680.026	451
680.075	696
680.123	237
680.172	170
680.220	-329
680.268	-155
680.317	-261
680.365	-266
680.414	-1013
680.462	493
680.510	187
680.559	-56
680.607	-521
680.655	435
680.703	-551
680.752	-367
680.800	-89
680.848	86
680.896	-5
680.945	-262
680.993	329
681.041	-405
681.089	-97
681.137	126
681.185	-378
681.233	-592
681.258	-120
681.281	243
681.329	579
681.377	-97
681.380	41
681.425	954
681.473	715
681.502	661
681.521	490
681.569	1457
681.617	1954
681.624	2058
681.665	2110
681.713	1957
681.745	2061
681.761	1962
681.809	1196
681.857	2277
681.867	2361
681.904	2330
681.952	2660
681.989	2479
682.000	2313
682.048	2659
682.096	2795
682.111	2869
682.143	2784
682.191	3903
682.233	4043
682.239	3969
682.286	3701
682.334	3811
682.354	4005
682.382	4139
682.430	4414
682.476	4629
682.477	4556
682.525	4965
682.572	4963
682.598	4774
682.620	4483
682.667	4882
682.715	4381
682.720	4561
682.763	5458
682.810	5746
682.841	5772
682.857	5720
682.905	6285
682.952	6560
682.963	6670
683.000	6630
683.047	7046
683.085	7345
683.095	7352
683.142	6692
683.190	7171
683.206	7213
683.237	7159
683.284	7296
683.328	7834
683.332	7805
683.379	7100
683.426	7736
683.449	7810
683.473	7806
683.521	8865
683.568	8102
683.571	8228
683.615	9113
683.662	9054
683.693	9237
683.709	9201
683.757	9282
683.804	9785
683.814	9693
683.851	9059
683.898	9347
683.936	9461
683.945	9482
683.992	10178
684.039	9583
684.057	9983
684.086	10486
684.133	10439
684.179	10777
684.180	10733
684.227	10722
684.274	11279
684.300	11095
684.321	10839
684.368	11090
684.415	11328
684.422	11384
684.462	11655
684.509	11093
684.543	11699
684.556	11849
684.603	12159
684.649	12114
684.665	12375
684.696	12791
684.743	13626
684.786	12977
684.790	12871
684.837	13729
684.883	13257
684.908	13313
684.930	13191
684.977	13735
685.023	13594
685.029	13591
685.070	13701
685.117	14208
685.150	14591
685.164	14613
685.210	14154
685.257	14613
685.272	14785
685.303	15071
685.350	14774
685.393	15210
685.396	15219
685.443	15736
685.490	15371
685.514	15417
685.536	15211
685.583	15063
685.629	15454
685.636	15385
685.675	15124
685.722	15183
685.757	15343
685.768	15365
685.815	15326
685.861	15814
685.878	15819
685.908	15769
685.954	16006
686.000	16016
686.000	16002
686.047	16854
686.093	16599
686.121	17375
686.139	17751
686.185	17679
686.232	18240
686.242	18135
686.278	17708
686.324	17845
686.363	18085
686.370	18119
686.416	18294
686.463	18696
686.484	18655
686.509	18479
686.555	18446
686.601	18614
686.606	18600
686.647	18502
686.693	19333
686.727	19146
686.739	19027
686.785	19404
686.831	18660
686.848	18750
686.877	19041
686.923	18794
686.969	19882
686.969	19884
687.015	19743
687.061	20181
687.090	20454
687.107	20650
687.153	21617
687.199	21147
687.211	21351
687.245	21590
687.291	21416
687.332	21467
687.336	21461
687.382	21706
687.428	21698
687.453	21496
687.474	21531
687.520	21999
687.565	22193
687.574	22247
687.611	22401
687.657	22345
687.695	22977
687.702	23213
687.748	23667
687.794	25432
687.816	25759
687.839	25969
687.885	26505
687.931	26900
687.937	26988
687.976	26306
688.022	25796
688.058	25361
688.067	25360
688.113	24902
688.158	24247
688.179	24042
688.204	24008
688.249	24313
688.295	23874
688.300	23912
688.340	24481
688.386	24494
688.421	24371
688.431	24364
688.477	24715
688.522	25261
688.542	25100
688.567	24953
688.613	25492
688.658	25381
688.663	25425
688.703	26381
688.749	26971
688.784	27526
688.794	27483
688.839	26711
688.884	26954
688.905	26695
688.930	26756
688.975	26975
689.020	26764
689.026	26865
689.065	27291
689.110	26653
689.146	26353
689.155	26504
689.201	27134
689.246	28069
689.267	28231
689.291	28138
689.336	28229
689.381	28132
689.388	28088
689.426	27906
689.471	27740
689.509	27720
689.516	27828
689.561	27952
689.606	28370
689.630	28378
689.651	28246
689.696	28441
689.741	28122
689.750	28118
689.785	28397
689.830	28329
689.871	28485
689.875	28564
689.920	28644
689.965	28787
689.992	28957
690.010	28915
690.054	28875
690.099	28330
690.112	28260
690.144	28457
690.189	28534
690.233	28246
690.233	28284
690.278	27924
690.323	28377
690.354	28005
690.367	28085
690.412	28895
690.457	29328
690.474	29491
690.501	29427
690.546	29172
690.590	28731
690.595	28689
690.635	28852
690.680	28650
690.716	28483
690.724	28575
690.769	28905
690.813	29499
690.836	29423
690.857	29491
690.902	29869
690.946	30191
690.957	30222
690.991	31094
691.035	32636
691.077	33001
691.080	33106
691.124	35246
691.168	36579
691.198	37683
691.213	37381
691.257	36193
691.301	35107
691.318	34489
691.346	33908
691.390	33237
691.434	32009
691.439	31891
691.478	32349
691.522	32564
691.559	32592
691.567	32704
691.611	33162
691.655	33498
691.680	33521
691.699	33509
691.743	34015
691.787	33823
691.800	33776
691.831	33836
691.875	33755
691.919	34091
691.921	34007
691.964	33232
692.008	33391
692.041	32995
692.052	33094
692.096	33694
692.139	34109
692.162	34255
692.183	34236
692.227	33950
692.271	33930
692.282	33782
692.315	33721
692.359	33537
692.402	33677
692.403	33746
692.447	33891
692.490	33694
692.523	33890
692.534	34030
692.578	33860
692.622	33907
692.643	33903
692.666	34068
692.709	34326
692.753	34262
692.763	34195
692.797	34461
692.840	34559
692.884	34996
692.884	35068
692.928	34767
692.971	34519
693.004	34118
693.015	34212
693.059	34377
693.102	34774
693.124	34762
693.146	34965
693.189	34774
693.233	35271
693.245	35341
693.276	35718
693.320	35938
693.363	35788
693.365	35730
693.407	36314
693.450	36167
693.485	36377
693.493	36581
693.537	37043
693.580	37417
693.605	37520
693.624	37547
693.667	37574
693.710	37540
693.725	37511
693.753	38420
693.797	39203
693.840	40551
693.845	40590
693.883	43613
693.926	47334
693.966	50214
693.970	50019
694.013	47036
694.056	44020
694.086	41710
694.099	41389
694.142	40147
694.185	38989
694.206	38405
694.229	38305
694.272	37801
694.315	37188
694.326	36939
694.358	37582
694.401	38603
694.444	39543
694.446	39488
694.487	38994
694.530	38700
694.566	38129
694.573	38223
694.616	38477
694.659	38417
694.686	38497
694.702	38696
694.745	38758
694.787	38959
694.806	38968
694.830	39381
694.873	40003
694.916	40276
694.926	40335
694.959	40292
695.002	40038
695.044	39602
695.046	39498
695.087	41167
695.130	42500
695.166	43744
695.172	43810
695.215	43415
695.258	43085
695.286	42840
695.301	43139
695.343	43406
695.386	43951
695.406	44056
695.428	44648
695.471	45700
695.514	46398
695.526	46637
695.556	49354
695.599	52750
695.641	56224
695.646	56457
695.684	58431
695.726	60636
695.766	62376
695.769	62326
695.811	59731
695.854	56671
695.886	54467
695.896	54407
695.938	53341
695.981	52585
696.005	51861
696.023	52489
696.065	53868
696.108	55115
696.125	55521
696.150	57269
696.192	60012
696.235	62778
696.245	63278
696.277	63741
696.319	64337
696.361	64792
696.365	64667
696.404	65156
696.446	65570
696.485	65843
696.488	65942
696.530	64966
696.572	63964
696.604	63100
696.614	63243
696.656	63155
696.698	63013
696.724	62748
696.740	62805
696.783	62583
696.825	62454
696.844	62121
696.867	62966
696.909	64442
696.951	65861
696.964	66159
696.992	66180
697.034	65822
697.076	65527
697.083	65312
697.118	66484
697.160	67776
697.202	68915
697.203	68769
697.244	69564
697.286	70235
697.323	70639
697.327	70806
697.369	70691
697.411	70406
697.442	70131
697.453	70330
697.494	70356
697.536	70378
697.562	70181
697.578	70371
697.620	70455
697.661	70401
697.682	70269
697.703	70875
697.744	71583
697.786	72421
697.801	72492
697.828	74073
697.869	76291
697.911	78604
697.921	78942
697.952	78171
697.994	76884
698.035	75584
698.040	75230
698.077	75007
698.118	74485
698.160	74006
698.160	73807
698.201	75053
698.243	76147
698.279	76914
698.284	77348
698.325	79474
698.367	81596
698.399	83026
698.408	83486
698.449	84578
698.491	85706
698.518	86198
698.532	86659
698.573	87379
698.614	88120
698.638	88298
698.656	88336
698.697	87860
698.738	87396
698.757	86932
698.779	86978
698.820	86633
698.862	86283
698.877	85916
698.903	86458
698.944	86957
698.985	87456
698.996	87357
699.026	87550
699.067	87494
699.116	87188
699.235	86585
699.354	86516
699.474	84553
699.593	78382
699.713	80731
699.832	81125
699.951	81284
700.070	85559
700.190	81136
700.309	79976
700.428	75033
700.547	75997
700.667	73599
700.786	74498
700.905	73323
701.024	69943
701.143	74062
701.262	70233
701.381	76054
701.500	74913
701.619	75902
701.738	73279
701.857	74522
701.976	73670
702.095	68439
702.214	74365
702.333	73157
702.452	72630
702.571	73240
702.690	74998
702.809	73465
702.928	72538
703.047	68560
703.165	65537
703.284	68983
703.403	66567
703.522	68162
703.640	64574
703.759	62872
703.878	63374
703.997	62383
704.115	63625
704.234	64039
704.353	63857
704.471	63895
704.590	59390
704.708	59392
704.827	58439
704.946	59191
705.064	57757
705.183	60765
705.301	57577
705.420	59969
705.538	55912
705.656	56630
705.775	53442
705.893	53985
706.012	57329
706.130	54871
706.249	53993
706.367	55867
706.485	51660
706.604	54031
706.722	51977
706.840	52253
706.958	58650
707.077	64924
707.195	51597
707.313	50901
707.431	49330
707.549	49427
707.668	47763
707.786	47126
707.904	51082
708.022	47830
708.140	51495
708.258	45729
708.376	48365
708.494	49809
708.612	46123
708.730	49573
708.848	48040
708.966	46552
709.084	48889
709.202	48632
709.320	47490
709.438	42167
709.556	45127
709.674	44059
709.791	41742
709.909	42451
710.027	43198
710.145	42888
710.263	41368
710.380	42116
710.498	43013
710.616	39623
710.733	41445
710.851	38243
710.969	41217
711.086	38612
711.204	39148
711.322	40134
711.439	39801
711.557	38847
711.674	37606
711.792	38052
711.909	39344
712.027	36214
712.144	36315
712.262	36271
712.379	38105
712.497	38722
712.614	37107
712.732	37518
712.849	37787
712.966	34662
713.084	38875
713.201	37667
713.318	34043
713.436	37336
713.553	38458
713.670	34749
713.787	37799
713.905	37285
714.022	36685
714.139	39147
714.256	40552
714.373	44367
714.490	58661
714.608	94802
714.725	225593
714.842	652605
714.959	392545
715.076	84949
715.193	50286
715.310	43771
715.427	39299
715.544	33903
715.661	37091
715.778	34490
715.895	33223
716.011	33439
716.128	33335
716.245	32114
716.362	34077
716.479	30953
716.596	29336
716.713	30394
716.829	31783
716.946	30442
717.063	29342
717.180	28148
717.296	28826
717.413	28962
717.530	30451
717.646	27644
717.763	27579
717.880	28432
717.996	27308
718.113	26143
718.229	28824
718.346	27273
718.462	26592
718.579	26660
718.695	28683
718.812	26611
718.928	26836
719.045	26430
719.161	24810
719.277	27241
719.394	27568
719.510	27610
719.626	27698
719.743	29171
719.859	33484
719.975	45376
720.092	87287
720.208	292134
720.324	364757
720.440	62629
720.557	35276
720.673	29222
720.789	27806
720.905	26039
721.021	26115
721.137	24914
721.253	24402
721.369	23261
721.486	24428
721.602	23997
721.718	23753
721.834	22951
721.950	24038
722.066	22840
722.181	22977
722.297	22341
722.413	23442
722.529	22028
722.645	23700
722.761	21522
722.877	22303
722.993	22866
723.108	24902
723.224	28499
723.340	25435
723.456	23351
723.571	20943
723.687	21030
723.803	20349
723.918	21318
724.034	22448
724.150	20381
724.265	21106
724.381	21153
724.497	20887
724.612	20587
724.728	21618
724.843	20269
724.959	19592
725.074	20051
725.190	21777
725.305	20966
725.421	20657
725.536	20458
725.651	21502
725.767	20506
725.882	21169
725.997	20075
726.113	20864
726.228	20295
726.343	20398
726.459	19967
726.574	20594
726.689	18952
726.804	19852
726.920	19119
727.035	19374
727.150	20023
727.265	20265
727.380	20098
727.495	20611
727.610	19151
727.725	19278
727.841	18370
727.956	19832
728.071	20371
728.186	20014
728.301	19199
728.416	18269
728.531	20317
728.645	18770
728.760	18400
728.875	17871
728.990	18935
729.105	19771
729.220	18458
729.335	19101
729.449	18823
729.564	19510
729.679	18205
729.794	19096
729.908	19400
730.023	19146
730.138	18266
730.253	20024
730.367	19467
730.482	18517
730.596	18375
730.711	19738
730.826	23113
730.940	30562
731.055	26607
731.169	24809
731.284	24209
731.398	24942
731.513	24793
731.627	25679
731.742	28771
731.856	36120
731.970	43394
732.085	42668
732.199	50864
732.313	68485
732.428	113786
732.542	262475
732.656	522498
732.771	241116
732.885	84473
732.999	58265
733.113	55847
733.227	57487
733.342	55802
733.456	51307
733.570	51921
733.684	49616
733.798	47505
733.912	45865
734.026	47320
734.140	46900
734.254	44769
734.368	42945
734.482	43747
734.596	43789
734.710	43590
734.824	42627
734.938	41040
735.052	41759
735.166	42333
735.280	41532
735.393	39830
735.507	39785
735.621	41149
735.735	38832
735.849	38999
735.962	41200
736.076	36682
736.190	40328
736.303	36982
736.417	38804
736.531	37376
736.644	36407
736.758	37412
736.872	37567
736.985	35655
737.099	37188
737.212	33929
737.326	37560
737.439	32957
737.553	38005
737.666	31924
737.780	34780
737.893	32615
738.007	35306
738.120	33173
738.233	35752
738.347	32934
738.460	33651
738.573	31006
738.687	35023
738.800	32272
738.913	33084
739.026	34376
739.140	33415
739.253	30338
739.366	33027
739.479	29724
739.592	31918
739.705	31830
739.818	29789
739.932	33679
740.045	28628
740.158	31218
740.271	29835
740.384	32178
740.497	29812
740.610	27433
740.723	29237
740.836	27262
740.949	30232
741.062	29022
741.174	31929
741.287	26179
741.400	28918
741.513	29403
741.626	26655
741.739	28942
741.851	27659
741.964	26335
742.077	30278
742.189	26575
742.302	25427
742.415	26855
742.527	27040
742.640	27271
742.753	25592
742.865	23500
742.978	27184
743.090	24984
743.203	24407
743.316	26874
743.428	24243
743.541	24965
743.653	25447
743.766	22501
743.878	26122
743.990	24142
744.103	23062
744.215	24640
744.327	23756
744.440	21926
744.552	27540
744.664	21488
744.777	22620
744.889	26411
745.001	22809
745.113	21884
745.226	25901
745.338	21636
745.450	21255
745.562	26484
745.674	21635
745.786	20952
745.898	25443
746.010	22240
746.122	20375
746.234	23220
746.347	23235
746.459	22115
746.570	21389
746.682	18832
746.794	24460
746.906	23184
747.018	19358
747.130	21606
747.242	22700
747.354	18975
747.466	21237
747.577	21582
747.689	20582
747.801	20673
747.913	21923
748.024	18797
748.136	20255
748.248	19771
748.359	19001
748.471	19983
748.583	21539
748.694	16911
748.806	18129
748.918	20728
749.029	19121
749.141	19327
749.252	20301
749.364	20479
749.475	17434
749.587	18054
749.698	17218
749.809	18047
749.921	18371
750.032	18404
750.144	17901
750.255	17596
750.366	17503
750.478	18009
750.589	17006
750.700	17204
750.811	16760
750.923	17944
751.034	15846
751.145	16134
751.256	19410
751.367	16633
751.479	16490
751.590	16286
751.701	16853
751.812	15792
751.923	15883
752.034	15705
752.145	19273
752.256	17339
752.367	17435
752.478	16264
752.589	16470
752.700	16639
752.811	16793
752.922	15108
753.032	16706
753.143	17565
753.254	16909
753.365	16192
753.476	17300
753.586	17990
753.697	15882
753.808	15465
753.919	16046
754.029	16170
754.140	15972
754.251	15512
754.361	16033
754.472	16338
754.582	16983
754.693	14572
754.804	15528
754.914	16803
755.025	15203
755.135	12984
755.246	16081
755.356	16664
755.466	15273
755.577	12794
755.687	14657
755.798	14874
755.908	14569
756.018	13845
756.129	15030
756.239	14965
756.349	15216
756.460	15184
756.570	15861
756.680	14604
756.790	14197
756.900	14952
757.011	15141
757.121	14243
757.231	13406
757.341	14404
757.451	14473
757.561	12828
757.671	13436
757.781	14333
757.891	15291
758.001	12203
758.111	12735
758.221	13773
758.331	15255
758.441	13284
758.551	14664
758.661	13914
758.771	15331
758.880	14144
758.990	14788
759.100	14060
759.210	14579
759.320	14055
759.429	14469
759.539	14098
759.649	15592
759.758	16075
759.868	18546
759.978	16212
760.087	17660
760.197	17272
760.307	18417
760.416	16835
760.526	17076
760.635	16700
760.745	17750
760.854	18085
760.964	17923
761.073	20223
761.182	20105
761.292	19494
761.401	17772
761.511	15113
761.620	14499
761.729	13215
761.839	14685
761.948	12747
762.057	13321
762.166	12452
762.276	13462
762.385	13406
762.494	12729
762.603	11988
762.712	13313
762.822	13487
762.931	13316
763.040	12045
763.149	11527
763.258	11781
763.367	12489
763.476	12983
763.585	13122
763.694	12401
763.803	11727
763.912	12470
764.021	12913
764.130	11769
764.238	13170
764.347	13502
764.456	13764
764.565	13319
764.674	13731
764.783	13025
764.891	12801
765.000	14114
765.109	14601
765.217	13982
765.326	14924
765.435	16016
765.543	17872
765.652	18359
765.761	20518
765.869	24642
765.978	30697
766.086	42018
766.195	67918
766.303	118776
766.412	242102
766.520	343684
766.629	282234
766.737	166313
766.846	83667
766.954	51277
767.062	36713
767.171	29733
767.279	24524
767.387	20755
767.496	19668
767.604	17205
767.712	15754
767.820	15543
767.928	14788
768.037	14551
768.145	13932
768.253	14194
768.361	13826
768.469	14560
768.577	13540
768.685	13035
768.793	14222
768.901	14284
769.009	15076
769.117	15221
769.225	17135
769.333	18737
769.441	25170
769.549	32594
769.657	52763
769.765	105636
769.873	243517
769.981	273177
770.088	166147
770.196	66839
770.304	40195
770.412	28977
770.519	24393
770.627	21606
770.735	20139
770.842	17158
770.950	17814
771.058	16491
771.165	18696
771.273	21152
771.380	22895
771.488	21185
771.595	28929
771.703	32135
771.810	28405
771.918	25231
772.025	27632
772.133	33136
772.240	37353
772.348	32190
772.455	38481
772.562	35466
772.670	33414
772.777	32390
772.884	34086
772.991	32119
773.099	30070
773.206	32313
773.313	32226
773.420	30662
773.528	30644
773.635	31586
773.742	29610
773.849	31487
773.956	29093
774.063	31572
774.170	29336
774.277	30884
774.384	30447
774.491	27881
774.598	29006
774.705	29242
774.812	28309
774.919	29175
775.026	27472
775.133	26969
775.239	27802
775.346	26929
775.453	26666
775.560	27519
775.667	25063
775.773	28036
775.880	26295
775.987	26292
776.093	26288
776.200	25659
776.307	28401
776.413	22076
776.520	22767
776.627	30127
776.733	24255
776.840	23381
776.946	23148
777.053	29151
777.159	23656
777.266	23317
777.372	24000
777.478	22926
777.585	26785
777.691	24429
777.798	20821
777.904	26541
778.010	22210
778.117	22056
778.223	24482
778.329	23141
778.435	23514
778.542	19722
778.648	24721
778.754	21664
778.860	20960
778.966	21400
779.072	22017
779.178	20158
779.284	22353
779.391	17942
779.497	20971
779.603	22711
779.708	22081
779.815	20416
779.920	19348
780.026	29007
780.132	31521
780.238	20500
780.344	19177
780.450	18917
780.556	23981
780.661	15259
780.767	19136
780.873	23232
780.979	16028
781.085	17242
781.190	21946
781.296	18161
781.402	18053
781.507	20202
781.613	19681
781.719	14749
781.824	19899
781.930	21350
782.035	16999
782.141	19355
782.246	19807
782.352	14340
782.457	16185
782.563	18392
782.668	18130
782.773	19236
782.879	15279
782.984	15696
783.090	17575
783.195	16593
783.300	18351
783.405	19722
783.511	16100
783.616	14447
783.721	16453
783.826	17072
783.932	15698
784.037	14864
784.142	17011
784.247	16227
784.352	15886
784.457	16530
784.562	13049
784.667	16405
784.772	17646
784.877	13455
784.982	12484
785.087	17261
785.192	17691
785.297	12866
785.402	14673
785.507	16470
785.611	15607
785.716	13919
785.821	12769
785.926	15288
786.031	16627
786.135	13424
786.240	14727
786.345	14393
786.450	13653
786.554	12333
786.659	14286
786.763	12593
786.868	14768
786.973	13841
787.077	14712
787.182	12010
787.286	11963
787.391	14465
787.495	16310
787.600	10100
787.704	10756
787.809	13973
787.913	13695
788.017	13066
788.122	13415
788.226	14895
788.330	12248
788.435	9903
788.539	13937
788.643	14732
788.747	11921
788.852	9762
788.956	13063
789.060	12438
789.164	13241
789.268	12635
789.372	12043
789.476	12838
789.580	12644
789.684	9359
789.788	11812
789.892	13807
789.996	13833
790.100	8957
790.204	9395
790.308	11954
790.412	14296
790.516	10290
790.620	9188
790.724	11626
790.828	14324
790.931	11064
791.035	9820
791.139	9359
791.242	11627
791.346	12467
791.450	10269
791.554	12690
791.657	10239
791.761	9469
791.864	10473
791.968	11350
792.072	13052
792.175	11889
792.279	9534
792.382	10539
792.486	10144
792.589	9213
792.693	11147
792.796	10867
792.899	11018
793.003	10054
793.106	9148
793.209	10118
793.313	11486
793.416	8319
793.519	8731
793.623	8749
793.726	11808
793.829	11431
793.932	9102
794.035	6710
794.138	9513
794.242	11483
794.345	11773
794.448	8442
794.551	8354
794.654	10125
794.757	14181
794.860	16111
794.963	9296
795.066	9871
795.169	9853
795.272	8897
795.375	9803
795.477	10782
795.580	8854
795.683	7179
795.786	8861
795.889	9977
795.991	10099
796.094	8558
796.197	8607
796.300	10140
796.402	10456
796.505	11025
796.608	7813
796.710	6665
796.813	8347
796.915	10384
797.018	9887
797.120	9553
797.223	9039
797.326	9088
797.428	9888
797.530	7927
797.633	7048
797.735	7917
797.838	9951
797.940	9902
798.042	11155
798.145	9665
798.247	8090
798.349	6747
798.452	7798
798.554	9107
798.656	9100
798.758	9168
798.860	10115
798.962	8483
799.065	8548
799.167	6955
799.269	9186
799.371	7432
799.473	9005
799.575	10051
799.677	9473
799.779	8372
799.881	7162
799.983	8901
800.085	9946
800.187	7392
800.289	8942
800.390	6850
800.492	8210
800.594	10708
800.696	7899
800.798	6767
800.899	6727
801.001	7030
801.103	8368
801.205	7969
801.306	8256
801.408	7800
801.509	8567
801.611	8038
801.713	8104
801.814	8343
801.916	7083
802.017	6789
802.119	5635
802.220	7222
802.322	7024
802.423	8398
802.525	7221
802.626	6752
802.727	7058
802.829	7820
802.930	7455
803.031	5807
803.133	6027
803.234	6375
803.335	7879
803.436	7856
803.538	7810
803.639	7204
803.740	7522
803.841	6498
803.942	8096
804.043	8970
804.144	6393
804.245	6773
804.346	6662
804.447	6993
804.548	6999
804.649	6617
804.750	7401
804.851	5576
804.952	6694
805.053	7397
805.154	6407
805.255	6119
805.355	7857
805.456	6574
805.557	6866
805.658	5933
805.758	7277
805.859	6209
805.960	6534
806.061	6920
806.161	6500
806.262	6756
806.362	6589
806.463	5715
806.564	6978
806.664	7920
806.765	7102
806.865	6103
806.966	5240
807.066	4577
807.166	6507
807.267	6186
807.367	7669
807.468	6609
807.568	6152
807.668	6219
807.769	6767
807.869	7014
807.969	7267
808.069	6053
808.170	6275
808.270	5513
808.370	6425
808.470	6692
808.570	6109
808.670	6777
808.770	5978
808.870	5501
808.970	5993
809.070	5613
809.170	6284
809.271	6477
809.370	6372
809.470	6740
809.570	6128
809.670	4750
809.770	5664
809.870	6348
809.970	7328
810.070	5974
810.169	6646
810.269	5526
810.369	7159
810.469	6402
810.568	6522
810.668	6851
810.768	5514
810.867	5694
810.967	5666
811.066	5406
811.166	5176
811.265	6489
811.365	5973
811.464	5716
811.564	6499
811.663	6172
811.763	6233
811.862	6410
811.962	6124
812.061	6056
812.160	6622
812.260	6920
812.359	5736
812.458	6098
812.557	5937
812.657	7272
812.756	5736
812.855	6474
812.954	6726
813.053	5824
813.153	6643
813.252	5778
813.351	6056
813.450	6667
813.549	7989
813.648	5908
813.747	6548
813.846	5581
813.945	7453
814.044	6635
814.143	7762
814.242	6439
814.341	7202
814.439	6620
814.538	7474
814.637	7624
814.736	8425
814.835	9148
814.933	7946
815.032	7981
815.131	9548
815.229	13060
815.328	22999
815.427	29390
815.525	22704
815.624	19338
815.722	19139
815.821	18978
815.919	20117
816.018	20680
816.116	20973
816.215	19891
816.313	20363
816.412	21784
816.510	26461
816.609	25610
816.707	25847
816.805	28390
816.904	25709
817.002	24914
817.100	25920
817.198	25506
817.296	26662
817.395	23548
817.493	24830
817.591	23216
817.689	23476
817.787	22363
817.885	24501
817.983	23032
818.081	21501
818.179	23019
818.277	22615
818.375	27138
818.473	22013
818.571	22199
818.669	20868
818.767	22695
818.865	24357
818.963	20269
819.061	17701
819.158	22867
819.256	21156
819.354	23701
819.452	20876
819.549	23486
819.647	23132
819.745	22990
819.842	19340
819.940	19065
820.038	22341
820.135	20516
820.233	19092
820.330	21184
820.428	19475
820.525	19917
820.623	20690
820.720	17834
820.818	17938
820.915	19612
821.012	19810
821.110	17875
821.207	17856
821.304	17910
821.402	18625
821.499	20118
821.596	18811
821.693	15704
821.791	18247
821.888	18542
821.985	17738
822.082	20115
822.179	15839
822.276	17516
822.373	19813
822.470	15067
822.567	16751
822.664	17599
822.761	16008
822.858	15521
822.955	19025
823.052	16112
823.149	15102
823.246	17559
823.343	18104
823.440	13646
823.536	13964
823.633	17892
823.730	17099
823.827	14929
823.923	17143
824.020	17233
824.117	13334
824.213	18062
824.310	17829
824.407	13242
824.503	13642
824.600	16502
824.696	14421
824.793	13234
824.889	16775
824.986	17784
825.082	14050
825.179	11926
825.275	13319
825.371	17036
825.468	20002
825.564	10932
825.660	10039
825.757	16160
825.853	19195
825.949	12533
826.045	13059
826.142	10952
826.238	14575
826.334	15833
826.430	14404
826.526	15890
826.622	9498
826.718	9777
826.814	15581
826.910	17680
827.006	12449
827.102	8771
827.198	11334
827.294	12557
827.390	17287
827.486	14610
827.582	10860
827.678	9199
827.774	12855
827.869	16148
827.965	12091
828.061	10036
828.157	10653
828.252	15091
828.348	14796
828.444	11956
828.539	9808
828.635	12337
828.731	13559
828.826	11567
828.922	10843
829.017	11878
829.113	14578
829.208	12586
829.304	9982
829.399	12422
829.495	14406
829.590	12700
829.685	9977
829.781	11444
829.876	13325
829.971	12898
830.066	7094
830.162	7605
830.257	11693
830.352	16792
830.447	12000
830.543	7637
830.638	8697
830.733	13607
830.828	13855
830.923	10397
831.018	9786
831.113	12401
831.208	13035
831.303	10173
831.398	7412
831.493	8356
831.588	11530
831.683	15918
831.778	10581
831.873	7046
831.967	8735
832.062	12375
832.157	12286
832.252	11028
832.346	8679
832.441	9324
832.536	10969
832.631	10054
832.725	10255
832.820	8563
832.914	10968
833.009	10054
833.104	9481
833.198	6994
833.293	7642
833.387	9253
833.482	12661
833.576	10269
833.670	10409
833.765	8430
833.859	9427
833.954	10604
834.048	11291
834.142	10692
834.237	7552
834.331	6493
834.425	9684
834.519	10424
834.613	9763
834.708	7257
834.802	9805
834.896	7984
834.990	10152
835.084	9139
835.178	7464
835.272	7046
835.366	9290
835.460	11556
835.554	11379
835.648	8575
835.742	6614
835.836	5375
835.930	6746
836.024	9227
836.117	9743
836.211	8057
836.305	9218
836.399	6680
836.493	7056
836.586	8450
836.680	9130
836.774	8075
836.867	7841
836.961	6141
837.055	7427
837.148	6674
837.242	7736
837.335	7566
837.429	9209
837.522	6888
837.616	7909
837.709	7267
837.803	6668
837.896	7540
837.989	9525
838.083	9135
838.176	6718
838.269	4755
838.363	6543
838.456	5919
838.549	6497
838.642	8278
838.735	8168
838.829	6525
838.922	7397
839.015	7449
839.108	6634
839.201	6677
839.294	7399
839.387	8833
839.480	6205
839.573	6066
839.666	5891
839.759	5806
839.852	6642
839.945	6299
840.038	8230
840.131	6879
840.223	5230
840.316	5962
840.409	6842
840.502	7649
840.594	9676
840.687	7051
840.780	5973
840.873	4020
840.965	5045
841.058	5479
841.150	6937
841.243	7654
841.336	5798
841.428	5583
841.521	6020
841.613	5389
841.706	7096
841.798	5653
841.890	5684
841.983	6264
842.075	6294
842.167	4865
842.260	5587
842.352	6654
842.444	7423
842.537	7133
842.629	5906
842.721	4289
842.813	4610
842.905	6418
842.997	7274
843.090	6036
843.182	7325
843.274	4741
843.366	4567
843.458	4962
843.550	6882
843.642	6895
843.734	6385
843.826	6477
843.918	5075
844.009	4242
844.101	5819
844.193	5509
844.285	6243
844.377	7312
844.469	6934
844.560	4088
844.652	4830
844.744	4476
844.835	4511
844.927	5502
845.019	6395
845.110	7094
845.202	6267
845.293	6523
845.385	5393
845.476	4435
845.568	5521
845.659	5204
845.751	5197
845.842	4779
845.934	5858
846.025	5823
846.116	5780
846.208	4022
846.299	5777
846.390	4989
846.482	3403
846.573	4353
846.664	5996
846.755	5128
846.846	5653
846.937	5250
847.029	5035
847.120	3515
847.211	4109
847.302	5452
847.393	5577
847.484	5700
847.575	6158
847.666	3863
847.757	4010
847.847	3638
847.938	6030
848.029	5554
848.120	6117
848.211	4842
848.302	3954
848.392	4005
848.483	4289
848.574	4056
848.664	5309
848.755	6107
848.846	5916
848.936	4052
849.027	4763
849.118	4608
849.208	5733
849.299	5199
849.389	6752
849.480	9183
849.570	12792
849.661	19054
849.751	34332
849.841	48250
849.932	21827
850.022	7520
850.112	6827
850.203	5858
850.293	6442
850.383	4354
850.474	4741
850.564	4370
850.654	4900
850.744	3852
850.834	3712
850.924	4091
851.014	5298
851.104	7028
851.194	5867
851.284	4210
851.374	4550
851.464	3674
851.554	4385
851.644	3994
851.734	5445
851.824	4588
851.914	5889
852.004	6222
852.094	5377
852.183	3865
852.273	4982
852.363	3641
852.452	5019
852.542	5632
852.632	5214
852.721	4077
852.811	4426
852.901	4647
852.990	6044
853.080	6110
853.169	5264
853.259	5326
853.348	5810
853.438	5547
853.527	6679
853.617	7410
853.706	9607
853.795	13643
853.885	22767
853.974	37847
854.063	61603
854.152	97054
854.242	119482
854.331	58042
854.420	22478
854.509	13420
854.598	11055
854.687	8382
854.777	7764
854.866	6359
854.955	7063
855.044	4338
855.133	5219
855.222	4784
855.311	4856
855.400	4489
855.488	4211
855.577	4796
855.666	5250
855.755	4362
855.844	4635
855.933	4326
856.021	5118
856.110	4797
856.199	3437
856.288	4217
856.376	3822
856.465	2856
856.554	3807
856.642	4450
856.731	5866
856.819	6156
856.908	5991
856.996	5114
857.085	4758
857.173	4213
857.262	3824
857.350	3880
857.438	4123
857.527	3024
857.615	4381
857.703	3703
857.792	5015
857.880	4216
857.968	4268
858.056	3662
858.145	5091
858.233	4487
858.321	5383
858.409	4549
858.497	5018
858.585	3742
858.673	4960
858.761	3911
858.849	3561
858.937	3322
859.025	3904
859.113	3960
859.201	4620
859.289	5626
859.377	5466
859.465	4452
859.552	5085
859.640	3610
859.728	3649
859.816	3763
859.903	4097
859.991	3319
860.079	4923
860.166	4655
860.254	4793
860.342	4554
860.429	4871
860.517	3561
860.604	5015
860.692	4411
860.779	3337
860.867	3892
860.954	4857
861.042	4311
861.129	6158
861.216	6110
861.304	4130
861.391	6038
861.478	5631
861.565	3724
861.653	4937
861.740	3954
861.827	4815
861.914	3958
862.001	4052
862.089	4112
862.176	5320
862.263	4377
862.350	4900
862.437	4354
862.524	5207
862.611	3920
862.698	4112
862.785	4831
862.871	5472
862.958	6294
863.045	7126
863.132	5625
863.219	6351
863.306	4106
863.392	5109
863.479	5244
863.566	5903
863.652	5281
863.739	4993
863.826	4425
863.912	5680
863.999	6141
864.086	6508
864.172	5865
864.259	6286
864.345	7658
864.432	6216
864.518	7240
864.604	6500
864.691	6928
864.777	7318
864.863	7444
864.950	8953
865.036	12573
865.122	17021
865.209	27816
865.295	28872
865.381	25181
865.467	24535
865.553	23340
865.639	23349
865.726	24932
865.812	28681
865.898	37638
865.984	51353
866.070	64193
866.156	94765
866.242	92026
866.328	47577
866.414	28550
866.499	24602
866.585	21760
866.671	21412
866.757	20710
866.843	21789
866.928	19713
867.014	20267
867.100	20335
867.186	19667
867.271	19504
867.357	18895
867.442	18956
867.528	18696
867.614	19691
867.699	19075
867.785	19659
867.870	19169
867.956	18436
868.041	18981
868.127	18943
868.212	17140
868.297	17991
868.383	17562
868.468	18731
868.553	18886
868.639	19264
868.724	17731
868.809	18229
868.894	18439
868.979	16550
869.065	17928
869.150	17397
869.235	15974
869.320	17097
869.405	17722
869.490	14574
869.575	18459
869.660	16761
869.745	14552
869.830	17085
869.915	19636
870.000	15782
870.085	16562
870.169	13992
870.254	18165
870.339	19285
870.424	13439
870.509	13684
870.593	16908
870.678	18031
870.763	18087
870.847	15447
870.932	13245
871.016	17558
871.101	15970
871.186	11911
871.270	15439
871.355	18526
871.439	13736
871.523	14275
871.608	17646
871.692	12208
871.777	13253
871.861	16564
871.945	17285
872.030	14882
872.114	15423
872.198	13699
872.282	13419
872.367	12575
872.451	13265
872.535	13820
872.619	13781
872.703	15459
872.787	13210
872.871	15463
872.955	14787
873.039	11350
873.123	10589
873.207	14532
873.291	14691
873.375	10200
873.459	12840
873.543	15306
873.627	14032
873.711	13308
873.794	11327
873.878	14071
873.962	13951
874.045	11704
874.129	11957
874.137	11963
874.213	12034
874.245	12606
874.296	13547
874.352	12661
874.380	12236
874.460	11044
874.464	10999
874.547	11306
874.568	11316
874.631	11376
874.676	12020
874.714	12562
874.784	11949
874.798	11834
874.881	12976
874.892	12538
874.965	9540
874.999	9345
875.048	9045
875.107	11534
875.131	12558
875.215	12034
875.215	12029
875.298	8760
875.323	8571
875.381	8184
875.430	10076
875.465	11391
875.538	13165
875.548	13404
875.631	11359
875.646	10918
875.714	8863
875.753	8669
875.798	8415
875.861	8424
875.881	8414
875.964	11920
875.968	11783
876.047	9492
876.076	9046
876.130	8158
876.183	8976
876.213	9437
876.291	10480
876.296	10554
876.379	11032
876.398	10853
876.462	10090
876.506	8974
876.545	8025
876.613	7940
876.628	7931
876.711	8415
876.721	8604
876.794	10034
876.828	10101
876.877	10068
876.935	10545
876.960	10783
877.043	7910
877.043	7911
877.125	7516
877.150	7874
877.208	8901
877.258	9947
877.291	10448
877.365	7208
877.374	6853
877.456	7374
877.472	7348
877.539	7209
877.579	7078
877.622	6973
877.687	8742
877.704	9180
877.787	9174
877.794	9164
877.869	9013
877.901	9004
877.952	9048
878.008	7992
878.034	7418
878.115	5902
878.117	5873
878.199	5843
878.222	6221
878.282	7159
878.329	7478
878.364	7701
878.437	8599
878.447	8693
878.529	7865
878.544	7637
878.611	6473
878.651	6131
878.694	6051
878.758	6922
878.776	7083
878.858	7519
878.865	7555
878.941	7800
878.972	7303
879.023	6413
879.078	5384
879.105	5029
879.185	6183
879.187	6198
879.269	6964
879.292	6997
879.351	7032
879.399	7268
879.433	7243
879.506	6008
879.516	5903
879.598	5775
879.613	5797
879.680	5632
879.720	5555
879.762	5585
879.827	5943
879.844	5998
879.926	5811
879.933	5803
880.007	5756
880.040	6031
880.089	6273
880.147	5293
880.171	4909
880.253	5950
880.254	5958
880.335	5805
880.360	5818
880.417	5865
880.467	5859
880.499	5797
880.574	5797
880.580	5803
880.662	5367
880.680	5594
880.744	6137
880.787	5415
880.825	4673
880.893	4244
880.907	4229
880.989	4753
881.000	4737
881.070	4629
881.106	5102
881.152	5594
881.213	5564
881.233	5455
881.315	4062
881.319	4094
881.396	4661
881.426	4562
881.478	4375
881.532	4157
881.559	4135
881.639	6102
881.641	6133
881.722	5120
881.745	4957
881.803	4360
881.852	4597
881.885	4771
881.958	4842
881.966	4848
882.047	4171
882.064	4227
882.129	4292
882.171	4306
882.210	4239
882.277	3365
882.291	3222
882.372	3563
882.383	3677
882.454	4518
882.489	5157
882.535	5557
882.596	4484
882.616	4244
882.697	5212
882.702	5178
882.778	4465
882.808	4176
882.859	3238
882.914	2945
882.940	3074
883.020	3869
883.021	3861
883.102	4104
883.127	4040
883.183	4176
883.233	4618
883.264	4582
883.339	3862
883.345	3826
883.426	2421
883.445	2584
883.507	2966
883.551	2899
883.587	2865
883.657	3448
883.668	3594
883.749	4062
883.763	4195
883.830	4259
883.869	3611
883.910	2836
883.975	2721
883.991	2724
884.072	3207
884.081	3204
884.152	2900
884.187	2929
884.233	3454
884.292	4378
884.314	4383
884.394	2495
884.398	2444
884.475	1502
884.504	1536
884.555	1851
884.610	2064
884.636	2146
884.716	2632
884.716	2625
884.797	3354
884.821	3650
884.877	4023
884.927	3537
884.958	3074
885.033	2637
885.038	2620
885.118	2238
885.139	2238
885.199	1978
885.244	2006
885.279	2078
885.350	2172
885.359	2310
885.439	4035
885.456	4291
885.520	4153
885.561	3831
885.600	3364
885.667	2318
885.680	2145
885.760	2387
885.773	2346
885.840	2485
885.878	2487
885.920	2133
885.984	1694
886.000	1690
886.080	2428
886.089	2453
886.160	2487
886.195	2709
886.240	2891
886.300	2590
886.320	2488
886.400	2711
886.406	2721
886.480	2229
886.511	1985
886.560	1771
886.616	1775
886.640	1840
886.720	2066
886.722	2081
886.800	2241
886.827	2366
886.879	2200
886.932	1928
886.959	2033
887.038	2512
887.039	2497
887.119	2353
887.143	2304
887.198	2209
887.248	2093
887.278	1790
887.354	1238
887.358	1261
887.437	1939
887.459	2137
887.517	1727
887.564	1576
887.596	1867
887.669	2179
887.676	2084
887.755	1174
887.774	986
887.835	1485
887.880	1974
887.914	1903
887.985	1705
887.994	1729
888.073	1994
888.090	2106
888.153	2615
888.195	2824
888.232	2621
888.300	2278
888.311	2179
888.391	1541
888.405	1483
888.470	1502
888.510	1433
888.549	1346
888.615	1350
888.628	1329
888.708	1243
888.720	1260
888.787	1780
888.825	2006
888.866	1679
888.930	1183
888.945	1076
889.024	734
889.035	708
889.103	1638
889.140	2098
889.182	1713
889.245	1191
889.261	1135
889.340	977
889.349	975
889.419	1371
889.454	1578
889.498	1300
889.559	978
889.577	1034
889.656	1360
889.664	1411
889.735	1269
889.768	1211
889.814	1062
889.873	890
889.978	1788
890.083	1404
890.187	921
890.292	1162
890.397	869
890.501	1457
890.606	778
890.710	1305
890.815	1762
890.919	1162
891.024	901
891.128	815
891.233	1219
891.337	217
891.442	1455
891.546	1322
891.650	1027
891.755	884
891.859	1509
891.963	1662
892.068	843
892.172	1336
892.276	605
892.380	621
892.484	543
892.589	1421
892.693	1021
892.797	829
892.901	672
893.005	811
893.109	1291
893.213	1365
893.317	792
893.421	214
893.525	455
893.629	103
893.733	1628
893.837	1436
893.941	1320
894.045	1330
894.148	1133
894.252	880
894.356	1025
894.460	1388
894.564	647
894.667	1049
894.771	451
894.875	-543
894.978	786
895.082	1039
895.186	1047
895.289	933
895.393	-204
895.496	380
895.600	467
895.703	626
895.807	166
895.910	350
896.014	730
896.117	448
896.221	805
896.324	725
896.427	1193
896.531	517
896.634	363
896.737	498
896.840	83
896.944	843
897.047	701
897.150	1039
897.253	-193
897.356	693
897.460	332
897.563	328
897.666	575
897.769	1132
897.872	914
897.975	431
898.078	1384
898.181	714
898.284	372
898.387	285
898.490	1631
898.593	1036
898.695	207
898.798	941
898.901	472
899.004	540
899.107	954
899.209	771
899.312	1349
899.415	811
899.518	464
899.620	133
899.723	231
899.826	608
899.928	296
900.031	429
900.133	1282
900.236	1623
900.338	1374
900.441	-85
900.543	353
900.646	192
900.748	1143
900.851	237
900.953	800
901.055	-585
901.158	752
901.260	1102
901.362	671
901.465	858
901.567	491
901.669	322
901.771	437
901.873	615
901.976	810
902.078	891
902.180	663
902.282	369
902.384	382
902.486	1058
902.588	1235
902.690	-78
902.792	416
902.894	413
902.996	726
903.098	753
903.200	958
903.302	875
903.404	755
903.505	473
903.607	88
903.709	973
903.811	1213
903.913	732
904.014	919
904.116	493
904.218	704
904.319	-403
904.421	434
904.523	1142
904.624	687
904.726	424
904.827	850
904.929	-697
905.030	48
905.132	1097
905.233	672
905.335	-60
905.436	469
905.537	532
905.639	320
905.740	890
905.841	553
905.943	711
906.044	886
906.145	791
906.247	268
906.348	265
906.449	732
906.550	907
906.651	577
906.752	-1
906.854	154
906.955	-263
907.056	740
907.157	921
907.258	868
907.359	570
907.460	383
907.561	-339
907.662	160
907.762	867
907.863	442
907.964	856
908.065	443
908.166	-204
908.267	594
908.367	319
908.468	539
908.569	-654
908.670	-55
908.770	1506
908.871	726
908.971	1632
909.072	71
909.173	-305
909.273	209
909.374	750
909.474	653
909.575	609
909.675	180
909.776	1028
909.876	484
909.977	183
910.077	401
910.177	197
910.278	622
910.378	-133
910.478	206
910.579	891
910.679	1793
910.779	185
910.879	754
910.980	1342
911.080	386
911.180	252
911.280	785
911.380	908
911.480	-87
911.580	904
911.680	98
911.780	415
911.880	764
911.980	-42
912.080	-43
912.180	600
912.280	137
912.380	172
912.480	897
912.580	211
912.679	237
912.779	752
912.879	1058
912.979	170
913.078	13
913.178	970
913.278	521
913.377	827
913.477	471
913.577	371
913.676	-107
913.776	-24
913.875	790
913.975	481
914.074	1020
914.174	43
914.273	746
914.373	895
914.472	179
914.572	102
914.671	495
914.770	-81
914.870	737
914.969	730
915.068	331
915.167	916
915.267	771
915.366	501
915.465	475
915.564	861
915.663	-129
915.763	-89
915.862	666
915.961	340
916.060	983
916.159	447
916.258	140
916.357	-62
916.456	667
916.555	-20
916.654	1032
916.752	123
916.851	836
916.950	927
917.049	519
917.148	138
917.247	256
917.345	858
917.444	445
917.543	225
917.642	-297
917.740	267
917.839	954
917.937	841
918.036	1183
918.135	492
918.233	828
918.332	802
918.430	872
918.529	994
918.627	992
918.726	759
918.824	214
918.923	9
919.021	552
919.119	148
919.218	362
919.316	309
919.414	695
919.512	258
919.611	613
919.709	1176
919.807	589
919.905	1325
920.003	515
920.102	1513
920.200	1146
920.298	601
920.396	1381
920.494	870
920.592	606
920.690	1489
920.788	652
920.886	912
920.984	892
921.082	1128
921.180	1781
921.277	1385
921.375	1533
921.473	1720
921.571	2563
921.669	2591
921.766	1248
921.864	2080
921.962	2015
922.060	857
922.157	1707
922.255	2083
922.352	2545
922.450	2143
922.548	1408
922.645	1883
922.743	3035
922.840	3633
922.938	6236
923.035	5297
923.133	4455
923.230	5085
923.327	6017
923.425	7302
923.522	6181
923.619	5542
923.717	6018
923.814	5209
923.911	5750
924.008	4448
924.106	5400
924.203	3920
924.300	5899
924.397	4825
924.494	5332
924.591	3805
924.688	4607
924.786	4955
924.883	4716
924.979	5414
925.077	5203
925.173	4225
925.270	4942
925.367	4596
925.464	5458
925.561	4734
925.658	5408
925.755	5832
925.852	4728
925.948	4597
926.045	4566
926.142	4303
926.239	5677
926.335	4445
926.432	3731
926.529	4476
926.625	5182
926.722	4879
926.818	3422
926.915	4590
927.011	4935
927.108	5056
927.204	3788
927.301	3900
927.397	4264
927.494	4736
927.590	5261
927.687	2571
927.783	4054
927.879	5119
927.976	3482
928.072	3188
928.168	3888
928.264	4448
928.361	3456
928.457	4182
928.553	4156
928.649	3394
928.745	4101
928.841	3969
928.937	4028
929.033	3821
929.129	3738
929.225	4469
929.321	3810
929.417	3412
929.513	4196
929.609	3683
929.705	3751
929.801	2912
929.897	3812
929.993	3093
930.089	3227
930.184	3347
930.280	3749
930.376	3681
930.471	3810
930.567	3227
930.663	3902
930.758	3029
930.854	3141
930.950	4010
931.045	3636
931.141	2433
931.236	4093
931.332	3582
931.427	3055
931.523	3135
931.618	4183
931.714	3014
931.809	2893
931.905	3255
932.000	3219
932.095	1433
932.191	2473
932.286	3830
932.381	3996
932.476	3629
932.572	2385
932.667	3233
932.762	2687
932.857	3606
932.952	3168
933.047	3569
933.142	3621
933.237	2039
933.332	2885
933.427	2825
933.522	3012
933.617	2597
933.712	2353
933.807	2352
933.902	3890
933.997	3669
934.092	3179
934.187	2217
934.282	3738
934.376	3000
934.471	4077
934.566	2609
934.661	2589
934.755	2900
934.850	3874
934.945	3076
935.039	2383
935.134	2473
935.228	1537
935.323	3428
935.417	3872
935.512	1727
935.606	2149
935.701	1979
935.795	2292
935.890	2817
935.984	3923
936.079	1619
936.173	1639
936.267	2288
936.362	1799
936.456	2702
936.550	2728
936.644	3416
936.738	2381
936.833	1882
936.927	2623
937.021	1610
937.115	1551
937.209	2042
937.303	1995
937.397	1828
937.491	1813
937.585	2859
937.679	2765
937.773	2130
937.867	1635
937.961	1143
938.055	1698
938.149	2786
938.243	2602
938.337	1908
938.430	1158
938.524	2244
938.618	2950
938.712	1890
938.805	2057
938.899	2221
938.993	2739
939.086	2630
939.180	357
939.274	1260
939.367	1873
939.461	2264
939.554	2485
939.648	1663
939.741	1549
939.835	1230
939.928	2580
940.022	3567
940.115	1718
940.208	2274
940.302	2951
940.395	2665
940.488	2734
940.582	1781
940.675	1184
940.768	1815
940.861	2275
940.954	2372
941.048	2569
941.141	1476
941.234	1838
941.327	980
941.420	1761
941.513	2044
941.606	1913
941.699	1581
941.792	1823
941.885	2600
941.978	1407
942.071	1783
942.164	1606
942.257	321
942.349	2224
942.442	1462
942.535	2718
942.628	547
942.721	1615
942.813	1298
942.906	2056
942.999	2249
943.091	1386
943.184	1746
943.277	2076
943.369	1494
943.462	857
943.554	543
943.647	1169
943.739	2059
943.832	1081
943.924	1966
944.017	970
944.109	819
944.201	874
944.294	1573
944.386	891
944.478	1671
944.571	1459
944.663	804
944.755	2319
944.847	1657
944.940	1397
945.032	1129
945.124	898
945.216	1613
945.308	819
945.400	917
945.492	999
945.584	1444
945.676	1781
945.768	1989
945.860	1698
945.952	1278
946.044	1947
946.136	763
946.228	2168
946.320	1514
946.412	1138
946.503	1172
946.595	2116
946.687	1540
946.779	1000
946.870	679
946.962	587
947.054	925
947.145	1731
947.237	1751
947.329	1240
947.420	1228
947.512	874
947.603	750
947.695	548
947.786	893
947.878	426
947.969	862
948.061	710
948.152	1348
948.243	854
948.335	928
948.426	731
948.517	577
948.609	984
948.700	891
948.791	974
948.882	608
948.973	193
949.065	976
949.156	528
949.247	931
949.338	1089
949.429	974
949.520	-61
949.611	489
949.702	1428
949.793	1068
949.884	1622
949.975	991
950.066	737
950.157	665
950.247	332
950.338	609
950.429	997
950.520	390
950.611	396
950.701	159
950.792	739
950.883	1579
950.973	820
951.064	1641
951.155	1262
951.245	1281
951.336	805
951.427	805
951.517	1996
951.608	1173
951.698	1720
951.788	1620
951.879	795
951.969	210
952.060	619
952.150	1366
952.240	799
952.331	871
952.421	1480
952.511	-21
952.602	1357
952.692	1013
952.782	611
952.872	142
952.962	253
953.052	1463
953.143	115
953.233	1032
953.323	968
953.413	438
953.503	97
953.593	697
953.683	207
953.773	979
953.863	636
953.953	299
954.042	941
954.132	1074
954.222	857
954.312	127
954.402	100
954.492	107
954.581	-360
954.671	986
954.761	96
954.850	1442
954.940	912
955.030	129
955.119	-279
955.209	78
955.298	-123
955.388	630
955.477	775
955.567	1044
955.656	-135
955.746	107
955.835	969
955.925	979
956.014	452
956.103	1739
956.193	1358
956.282	1499
956.371	874
956.461	759
956.550	1509
956.639	243
956.728	279
956.817	713
956.906	626
956.995	1012
957.085	601
957.174	549
957.263	622
957.352	108
957.441	553
957.530	730
957.619	361
957.708	1035
957.796	467
957.885	665
957.974	819
958.063	863
958.152	471
958.241	-48
958.329	-19
958.418	424
958.507	532
958.596	1256
958.684	98
958.773	983
958.861	1239
958.950	382
959.039	920
959.127	298
959.216	672
959.304	810
959.393	620
959.481	277
959.570	827
959.658	225
959.746	-91
959.835	-87
959.923	214
960.011	93
960.100	1066
960.188	1240
960.276	1114
960.365	504
960.453	-110
960.541	172
960.629	72
960.717	352
960.805	259
960.893	805
960.981	583
961.069	376
961.158	524
961.245	969
961.333	1330
961.421	60
961.509	701
961.597	-50
961.685	944
961.773	211
961.861	1203
961.949	1139
962.036	477
962.124	547
962.212	145
962.299	-551
962.387	442
962.475	-237
962.562	26
962.650	963
962.738	271
962.825	162
962.913	-255
963.000	162
963.088	141
963.175	843
963.263	402
963.350	335
963.438	78
963.525	429
963.612	700
963.700	181
963.787	737
963.874	256
963.962	284
964.049	561
964.136	50
964.223	193
964.310	293
964.398	485
964.485	373
964.572	308
964.659	150
964.746	561
964.833	-386
964.920	-844
965.007	71
965.094	-21
965.181	388
965.268	641
965.355	1105
965.441	646
965.528	203
965.615	1074
965.702	-114
965.789	513
965.875	405
965.962	131
966.049	606
966.136	410
966.222	1072
966.309	278
966.395	1140
966.482	694
966.569	863
966.655	833
966.742	236
966.828	641
966.915	-468
967.001	-234
967.087	66
967.174	-381
967.260	392
967.347	163
967.433	88
967.519	610
967.605	268
967.692	437
967.778	277
967.864	30
967.950	829
968.036	-268
968.123	387
968.209	159
968.295	672
968.381	139
968.467	217
968.553	304
968.639	398
968.725	211
968.811	121
968.897	1009
968.983	843
969.069	-42
969.154	506
969.240	372
969.326	-579
969.412	-277
969.497	175
969.583	438
969.669	-23
969.755	-757
969.840	740
969.926	702
970.012	1175
970.097	1685
970.183	2422
970.268	1555
970.354	188
970.439	549
970.525	-153
970.610	-325
970.696	1031
970.781	546
970.866	326
970.952	232
971.037	271
971.122	364
971.208	721
971.293	298
971.378	729
971.463	390
971.549	376
971.634	-187
971.719	132
971.804	-370
971.889	692
971.974	630
972.059	510
972.144	1127
972.229	205
972.314	510
972.399	660
972.484	436
972.569	562
972.654	-884
972.739	369
972.824	-202
972.908	459
972.993	-27
973.078	-15
973.163	-324
973.247	915
973.332	18
973.417	570
973.501	343
973.586	346
973.671	343
973.755	711
973.840	-665
973.924	956
974.009	972
974.093	1057
974.178	793
974.262	703
974.346	-422
974.431	380
974.515	501
974.600	-461
974.684	531
974.768	113
974.852	159
974.937	989
975.021	770
975.105	914
975.189	58
975.273	1114
975.358	-37
975.442	-604
975.526	-70
975.610	376
975.694	-312
975.778	561
975.862	-82
975.946	366
976.030	202
976.114	-391
976.198	-104
976.281	-177
976.365	639
976.449	347
976.533	140
976.617	170
976.700	31
976.784	-938
976.868	440
976.951	-841
977.035	554
977.119	970
977.202	-160
977.286	64
977.369	513
977.453	489
977.536	755
977.620	137
977.703	1053
977.787	266
977.870	1320
977.953	551
978.037	35
978.120	1021
978.203	-33
978.287	1281
978.370	-382
978.453	535
978.536	-417
978.620	170
978.703	-23
978.786	-24
978.869	707
978.952	6
979.035	830
979.118	226
979.201	396
979.284	277
979.367	530
979.450	-68
979.533	-473
979.616	-257
979.699	-454
979.782	-468
979.865	-26
979.948	-351
980.030	51
980.113	328
980.196	-4
980.279	160
980.361	-655
980.444	190
980.526	587
980.609	15
980.692	1054
980.774	1063
980.857	993
980.939	523
981.022	-147
981.104	203
981.187	919
981.269	66
981.352	-293
981.434	-917
981.516	-99
981.599	575
981.681	-358
981.763	-81
981.846	230
981.928	478
982.010	270
982.092	-203
982.174	138
982.256	242
982.339	34
982.421	-458
982.503	-605
982.585	636
982.667	-959
982.749	195
982.831	-471
982.913	-298
982.995	241
983.077	-9
983.158	499
983.240	470
983.322	-272
983.404	556
983.486	1008
983.568	936
983.649	282
983.731	838
983.813	-92
983.894	561
983.976	501
984.058	496
984.139	-616
984.221	-812
984.302	782
984.384	-398
984.465	98
984.547	370
984.628	48
984.710	857
984.791	295
984.872	582
984.954	412
985.035	-169
985.116	-2
985.198	495
985.279	257
985.360	18
985.441	799
985.522	30
985.604	467
985.685	-201
985.766	1312
985.847	1078
985.928	-402
986.009	497
986.090	213
986.171	146
986.252	-731
986.333	566
986.414	471
986.495	687
986.576	232
986.656	828
986.737	994
986.818	1064
986.899	233
986.980	-277
987.060	921
987.141	-448
987.222	701
987.302	593
987.383	974
987.464	676
987.544	237
987.625	1331
987.705	1070
987.786	505
987.866	796
987.947	1060
988.027	663
988.108	729
988.188	890
988.268	704
988.349	225
988.429	133
988.509	914
988.589	736
988.670	-700
988.750	1199
988.830	1034
988.910	701
988.990	299
989.070	728
989.151	307
989.231	513
989.311	749
989.391	1227
989.471	-297
989.551	892
989.631	-300
989.711	846
989.791	423
989.870	609
989.950	745
990.030	331
990.110	579
990.190	187
990.269	475
990.349	237
990.429	432
990.509	785
990.588	-547
990.668	1069
990.747	201
990.827	8
990.907	929
990.986	806
991.066	470
991.145	1000
991.225	107
991.304	463
991.383	200
991.463	477
991.542	76
991.622	-479
991.701	866
991.780	670
991.859	-195
991.939	-196
992.018	225
992.097	500
992.176	62
992.256	-456
992.335	-221
992.414	689
992.493	-455
992.572	-461
992.651	623
992.730	-153
992.809	-771
992.888	1009
992.967	-674
993.046	727
993.125	-55
993.203	358
993.282	408
993.361	699
993.440	526
993.519	-718
993.597	127
993.676	-478
993.755	-82
993.834	275
993.912	-633
993.991	825
994.069	-106
994.148	-203
994.226	192
994.305	-440
994.384	119
994.462	376
994.540	-51
994.619	-400
994.697	32
994.776	174
994.854	-819
994.932	46
995.011	-156
995.089	-236
995.167	135
995.245	-1040
995.324	11
995.402	640
995.480	-373
995.558	-614
995.636	-868
995.714	-81
995.792	-220
995.870	150
995.948	-1060
996.026	-212
996.104	-395
996.182	300
996.260	-850
996.338	-883
996.416	-1339
996.494	-437
996.572	470
996.649	-466
996.727	-1039
996.805	-257
996.883	-110
996.960	160
997.038	-644
997.116	-1089
997.193	232
997.271	223
997.348	-1337
997.426	-628
997.504	-571
997.581	102
997.658	216
997.736	-1228
997.813	-948
997.891	-54
997.968	71
998.046	-180
998.123	-444
998.200	-9
998.277	-588
998.355	215
998.432	-1951
998.509	-449
998.586	-733
998.663	403
998.741	50
998.818	-1129
998.895	-509
998.972	295
999.049	-889
999.126	-746
999.203	-493
999.280	-303
999.357	-1281
999.434	-199
999.511	65
999.587	-198
999.664	-1268
999.741	-818
999.818	-609
999.895	-686
999.971	-1707
1000.048	-1011
1000.125	-521
1000.202	-947
1000.278	-341
1000.355	86
1000.431	-512
1000.508	-570
1000.584	-957
1000.661	-637
1000.738	-1101
1000.814	-995
1000.890	-427
1000.967	-1044
1001.043	-38
1001.120	-648
1001.196	-545
1001.272	-1109
1001.349	146
1001.425	-843
1001.501	-914
1001.577	-518
1001.654	-308
1001.730	-740
1001.806	-426
1001.882	-640
1001.958	-895
1002.034	-421
1002.110	-650
1002.186	-843
1002.262	-1316
1002.338	-1239
1002.414	-920
1002.490	-834
1002.566	-1591
1002.642	-975
1002.718	-1178
1002.794	-1255
1002.870	-516
1002.945	-65
1003.021	-1155
1003.097	-992
1003.173	-544
1003.248	-306
1003.324	-552
1003.400	-194
1003.475	-1145
1003.551	-474
1003.626	-1974
1003.702	-1435
1003.777	-333
1003.853	-366
1003.928	-856
1004.004	-825
1004.079	-778
1004.155	-194
1004.230	-1135
1004.305	-635
1004.381	-1861
1004.456	-884
1004.531	-1520
1004.607	-1639
1004.682	-1091
1004.757	58
1004.832	-574
1004.907	-919
1004.982	-297
1005.057	-862
1005.133	-1106
1005.208	-1066
1005.283	-447
1005.358	-648
1005.433	-1116
1005.508	-680
1005.583	-970
1005.657	-1286
1005.732	-255
1005.807	-1158
1005.882	-1189
1005.957	-931
1006.032	-88
1006.106	-665
1006.181	-862
1006.256	-662
1006.331	-1302
1006.405	-1236
1006.480	-706
1006.554	-1282
1006.629	-1292
1006.704	-678
1006.778	-798
1006.853	-903
1006.927	-1466
1007.002	-1154
1007.076	-1275
1007.150	-1025
1007.225	-1219
1007.299	-838
1007.373	-2216
1007.448	-820
1007.522	-1200
1007.596	-1336
1007.671	-1631
1007.745	-740
1007.819	-1306
1007.893	-1972
1007.967	-980
1008.041	-1236
1008.115	-829
1008.190	-1302
1008.264	-1581
1008.338	-1484
1008.412	-1633
1008.486	-1195
1008.560	-1427
1008.633	-1240
1008.707	-553
1008.781	-1409
1008.855	-1492
1008.929	-1491
1009.003	-692
1009.076	-967
1009.150	-671
1009.224	-964
1009.298	-1426
1009.371	-1246
1009.445	-1149
1009.519	-771
1009.592	-1801
1009.666	-828
1009.739	-1290
1009.813	-616
1009.886	-378
1009.960	-1703
1010.033	-1298
1010.107	-1600
1010.180	-1596
1010.253	-535
1010.327	-1535
1010.400	-92
1010.473	-1297
1010.547	-1024
1010.620	-2302
1010.693	-591
1010.766	-1507
1010.840	-904
1010.913	-1042
1010.986	-1481
1011.059	-600
1011.132	-1383
1011.205	-820
1011.278	-975
1011.351	-1422
1011.424	-1601
1011.497	-1253
1011.570	-1183
1011.643	-1469
1011.716	-1468
1011.789	-1966
1011.862	-1599
1011.934	-1334
1012.007	-2034
1012.080	-521
1012.153	-1287
1012.225	-1253
1012.298	-2066
1012.371	-1318
1012.443	-1052
1012.516	-1608
1012.588	-830
1012.661	-1435
1012.733	-1459
1012.806	-550
1012.879	-1835
1012.951	-1206
1013.023	-2259
1013.096	-1325
1013.168	-2087
1013.241	-1515
1013.313	-661
1013.385	-1664
1013.458	-1780
1013.530	-1407
1013.602	-2260
1013.674	-1011
1013.746	-1775
1013.819	-1610
1013.891	-1475
1013.963	-2368
1014.035	-303
1014.107	-1129
1014.179	-1024
1014.251	-1452
1014.323	-1489
1014.395	-821
1014.467	-1390
1014.539	-1228
1014.611	-1357
1014.683	-1249
1014.754	-1247
1014.826	-1687
1014.898	-1206
1014.970	-1362
1015.042	-1127
1015.113	-1535
1015.185	-1382
1015.257	-2538
1015.328	-660
1015.400	-1639
1015.471	-1714
1015.543	-1362
1015.615	-1639
1015.686	-2419
1015.757	-824
1015.829	-1638
1015.901	-980
1015.972	-1020
1016.043	-1476
1016.115	-1470
1016.186	-1656
1016.257	-2082
1016.328	-991
1016.400	-1283
1016.471	-1479
1016.542	-1380
1016.613	-1320
1016.685	-1634
1016.756	-1272
1016.827	-2008
1016.898	-2213
1016.969	-1080
1017.040	-1620
1017.111	-1615
1017.182	-1534
1017.253	-1076
1017.324	-1488
1017.395	-1654
1017.466	-1429
1017.537	-1573
1017.608	-934
1017.678	-551
1017.749	-1556
1017.820	-1213
1017.891	-1713
1017.961	-2028
1018.032	-1399
1018.103	-1066
1018.173	-1281
1018.244	-1876
1018.315	-2452
1018.385	-613
1018.456	-465
1018.526	-1149
1018.597	-1236
1018.667	-1565
1018.738	-766
1018.808	-1129
1018.878	-1253
1018.949	-1313
1019.019	-967
1019.089	-1136
1019.160	-1660
1019.230	-1967
1019.300	-1015
1019.371	-1792
1019.441	-1066
1019.511	-293
1019.581	-1996
1019.651	-1412
1019.721	-1691
1019.791	-2232
1019.861	-1368
1019.931	-855
1020.001	-981
1020.071	-2092
1020.141	-991
1020.211	-1475
1020.281	-1587
1020.351	-1614
1020.421	-1400
1020.491	-764
1020.560	-1430
1020.630	-1240
1020.700	-1425
1020.770	-2283
1020.839	-1699
1020.909	-1999
1020.979	-1527
1021.048	-1181
1021.118	-2006
1021.187	-1461
1021.257	-1500
1021.326	-1293
1021.396	-1702
1021.465	-729
1021.535	-1353
1021.604	-1221
1021.674	-1478
1021.743	-1357
1021.812	-1623
1021.882	-2528
1021.951	-1349
1022.020	-2676
1022.089	-1736
1022.159	-1723
1022.228	-1605
1022.297	-2176
1022.366	-1235
1022.435	-2007
1022.504	-992
1022.573	-1493
1022.642	-487
1022.711	-1379
1022.781	-1381
1022.849	-698
1022.918	-1593
1022.987	-1712
1023.056	-1768
1023.125	-1874
1023.194	-1239
1023.263	-1811
1023.331	-1126
1023.400	-1695
1023.469	-1626
1023.538	-750
1023.606	-1546
1023.675	-1423
1023.744	-2235
1023.812	-1877
1023.881	-2030
1023.949	-2069
1024.018	-1152
1024.086	-2025
1024.155	-1484
1024.223	-1208
1024.292	-896
1024.360	-1598
1024.429	-1860
1024.497	-1406
1024.565	-1408
1024.634	-1974
1024.702	-1485
1024.770	-1502
1024.838	-2428
1024.907	-777
1024.975	-1323
1025.043	-1351
1025.111	-1849
1025.179	-1244
1025.247	-1787
1025.315	-2712
1025.383	-1269
1025.451	-1651
1025.519	-1461
1025.587	-1232
1025.655	-2697
1025.723	-1775
1025.791	-1811
1025.859	-993
1025.927	-1992
1025.995	-1451
1026.062	-1774
1026.130	-1977
1026.198	-1279
1026.266	-2337
1026.333	-1378
1026.401	-2265
1026.469	-1569
1026.536	-1422
1026.604	-1432
1026.671	-1368
1026.739	-1648
1026.806	-1934
1026.874	-1959
1026.941	-1453
1027.009	-1493
1027.076	-2060
1027.144	-1506
1027.211	-1789
1027.278	-1745
1027.345	-1903
1027.413	-2075
1027.480	-2147
1027.547	-1363
1027.614	-2100
1027.682	-1136
1027.749	-1492
1027.816	-1429
1027.883	-2255
1027.950	-1932
1028.017	-2429
1028.084	-1503
1028.151	-1712
1028.218	-1036
1028.285	-1351
1028.352	-1847
1028.419	-2424
1028.486	-2523
1028.553	-1382
1028.619	-1901
1028.686	-2011
1028.753	-2263
1028.820	-1818
1028.886	-1952
1028.953	-2595
1029.020	-2088
1029.086	-1966
1029.153	-1331
1029.220	-1304
1029.286	-451
1029.353	-1120
1029.419	-1692
1029.486	-1509
1029.552	-1764
1029.619	-1997
1029.685	-1511
1029.751	-2107
1029.818	-913
1029.884	-1771
1029.951	-1612
1030.017	-860
1030.083	-1293
1030.149	-1641
1030.216	-2229
1030.282	-1614
1030.348	-2383
1030.414	-1753
1030.480	-1550
1030.546	-1409
1030.612	-1588
1030.678	-1495
1030.744	-1695
1030.810	-1766
1030.876	-1920
1030.942	-1905
1031.008	-1770
1031.074	-1718
1031.140	-2078
1031.206	-1900
1031.272	-2116
1031.337	-1525
1031.403	-1955
1031.469	-1900
1031.534	-1282
1031.600	-1712
1031.666	-2501
1031.731	-1644
1031.797	-1042
1031.863	-2495
1031.928	-1454
1031.994	-2425
1032.059	-1973
1032.125	-2044
1032.190	-1638
1032.256	-1311
1032.321	-1517
1032.386	-2357
1032.452	-1382
1032.517	-1171
1032.582	-2301
1032.647	-1717
1032.713	-1654
1032.778	-1588
1032.843	-1669
1032.908	-2987
1032.974	-1801
1033.039	-1902
1033.104	-1531
1033.169	-2335
1033.234	-1950
1033.299	-1355
1033.364	-2368
1033.429	-1762
1033.494	-1410
1033.559	-2359
1033.624	-1761
1033.688	-1857
1033.753	-1609
1033.818	-1988
1033.883	-1607
1033.948	-1489
1034.013	-1334
1034.077	-1500
1034.142	-1599
1034.207	-636
1034.271	-626
1034.336	-178
1034.400	695
1034.465	-32
1034.530	-978
1034.594	-1487
1034.658	-2244
1034.723	-1071
1034.787	-1119
1034.852	-1789
1034.916	-2029
1034.981	-2250
1035.045	-1485
1035.109	-1800
1035.173	-1670
1035.238	-2602
1035.302	-1300
1035.366	-1617
1035.430	-1804
1035.495	-2184
1035.559	-1766
1035.623	-2259
1035.687	-2272
1035.751	-2412
1035.815	-1381
1035.879	-2451
1035.943	-1870
1036.007	-1177
1036.071	-1258
1036.135	-1830
1036.198	-2152
1036.262	-1970
1036.326	-2196
1036.390	-1638
1036.454	-1462
1036.517	-1996
1036.581	-1734
1036.645	-1980
1036.709	-1808
1036.772	-1930
1036.836	-1988
1036.900	-2037
1036.963	-1759
1037.026	-1350
1037.090	-1766
1037.154	-2421
1037.217	-1648
1037.280	-2782
1037.344	-1812
1037.407	-2141
1037.471	-1369
1037.534	-2029
1037.597	-2431
1037.661	-2189
1037.724	-1674
1037.787	-2089
1037.850	-1680
1037.913	-2439
1037.977	-1704
1038.040	-2421
1038.103	-2082
1038.166	-2531
1038.229	-2218
1038.292	-1772
1038.355	-1439
1038.418	-2117
1038.481	-2335
1038.544	-1631
1038.607	-1448
1038.670	-1849
1038.732	-2331
1038.795	-2624
1038.858	-2045
1038.921	-1486
1038.984	-1392
1039.046	-2355
1039.109	-2465
1039.172	-2251
1039.234	-2065
1039.297	-1922
1039.360	-2109
1039.422	-2856
1039.485	-2175
1039.547	-1624
1039.610	-1907
1039.672	-2801
1039.734	-1776
1039.797	-1452
1039.859	-2345
1039.922	-1915
1039.984	-1453
1040.046	-2189
1040.109	-1998
1040.171	-2321
1040.233	-1930
1040.295	-1968
1040.358	-2260
1040.420	-2729
1040.482	-2067
1040.544	-1956
1040.606	-1612
1040.668	-1638
1040.730	-1926
1040.792	-2634
1040.854	-2061
1040.916	-1834
1040.978	-1069
1041.040	-1675
1041.102	-1824
1041.164	-1670
1041.225	-2350
1041.287	-1954
1041.349	-1761
1041.411	-2171
1041.472	-1721
1041.534	-2317
1041.596	-1845
1041.657	-2133
1041.719	-2255
1041.781	-1688
1041.842	-2095
1041.904	-1935
1041.965	-1507
1042.027	-3156
1042.088	-2046
1042.150	-2335
1042.211	-1881
1042.272	-2249
1042.334	-2207
1042.395	-2845
1042.456	-2454
1042.518	-2056
1042.579	-2311
1042.640	-2509
1042.701	-2571
1042.763	-1568
1042.824	-1999
1042.885	-2403
1042.946	-2338
1043.007	-1963
1043.068	-1166
1043.129	-2068
1043.190	-2006
1043.251	-843
1043.312	-2083
1043.373	-1104
1043.434	-1923
1043.495	-2611
1043.556	-1849
1043.616	-1972
1043.677	-1988
1043.738	-2233
1043.799	-1819
1043.859	-2350
1043.920	-1782
1043.981	-2426
1044.041	-2271
1044.102	-1576
1044.162	-2044
1044.223	-2137
1044.284	-1792
1044.344	-2223
1044.405	-2357
1044.465	-1455
1044.525	-1481
1044.586	-2076
1044.646	-1725
1044.707	-2109
1044.767	-1486
1044.827	-2243
1044.887	-1823
1044.948	-1704
1045.008	-1489
1045.068	-2275
1045.128	-1307
1045.188	-1995
1045.249	-2725
1045.309	-2194
1045.369	-1327
1045.429	-1907
1045.489	-1520
1045.549	-2545
1045.609	-2154
1045.669	-2330
1045.729	-1830
1045.789	-1430
1045.848	-2124
1045.908	-2232
1045.968	-1854
1046.028	-1381
1046.088	-1924
1046.147	-1373
1046.207	-2294
1046.267	-2075
1046.326	-1668
1046.386	-1627
1046.446	-1541
1046.505	-815
1046.565	-2056
1046.624	-1230
1046.684	-1472
1046.743	-1259
1046.803	-1202
1046.862	-1543
1046.922	0
