'Start Wavelength	183.907
'End Wavelength	1046.922
'Gate Delay	5.000
'Gate Width (ms)	1.050
'Laser Output Level	0.000
'X Position	0.000
'Y Position	0.000
'Z Position	0.000
'Grid Point Number	1.000
'Shot Number	100.000
183.907	9.000
183.977	-555.000
184.047	482
184.116	327
184.186	523
184.256	23
184.325	-310
184.395	-421
184.465	399
184.534	-322
184.604	-239
184.674	-266
184.743	-645
184.813	20
184.883	-47
184.952	34
185.022	-516
185.092	301
185.161	-351
185.231	681
185.301	-38
185.370	-298
185.440	-85
185.509	-435
185.579	-868
185.649	287
185.718	-90
185.788	394
185.857	-47
185.927	409
185.996	-30
186.066	81
186.136	98
186.205	458
186.275	219
186.344	-176
186.414	-413
186.483	-632
186.553	1004
186.622	171
186.692	33
186.761	-738
186.831	-389
186.900	-706
186.970	-12
187.039	410
187.109	240
187.178	-285
187.248	707
187.317	-49
187.387	-540
187.456	348
187.526	824
187.595	-181
187.664	-47
187.734	505
187.803	454
187.873	219
187.942	1011
188.012	-236
188.081	130
188.150	-613
188.220	589
188.289	-35
188.358	248
188.428	346
188.497	-1296
188.567	348
188.636	298
188.705	156
188.775	663
188.844	-380
188.913	593
188.983	134
189.052	-33
189.121	184
189.191	-5
189.260	600
189.329	99
189.399	559
189.468	-126
189.537	257
189.606	161
189.676	-369
189.745	-5
189.814	506
189.883	-115
189.953	210
190.022	129
190.091	989
190.161	1042
190.230	1043
190.299	39
190.368	209
190.437	189
190.507	482
190.576	277
190.645	-150
190.714	-593
190.783	-166
190.853	987
190.922	889
190.991	350
191.060	495
191.129	-558
191.198	640
191.268	292
191.337	-76
191.406	-250
191.475	-350
191.544	-445
191.613	189
191.682	-278
191.752	-171
191.821	616
191.890	310
191.959	498
192.028	408
192.097	970
192.166	20
192.235	-163
192.304	278
192.373	7
192.442	199
192.511	-18
192.580	373
192.650	685
192.719	-275
192.788	313
192.857	347
192.926	18
192.995	229
193.064	283
193.133	598
193.202	484
193.271	1565
193.340	989
193.409	825
193.478	1105
193.547	1141
193.615	2082
193.684	1475
193.753	901
193.822	1265
193.891	271
193.960	1073
194.029	178
194.098	617
194.167	26
194.236	538
194.305	492
194.374	181
194.443	277
194.512	1027
194.580	740
194.649	335
194.718	1163
194.787	857
194.856	433
194.925	1240
194.994	1064
195.062	741
195.131	797
195.200	913
195.269	126
195.338	1056
195.407	134
195.475	129
195.544	1323
195.613	125
195.682	447
195.751	1021
195.819	571
195.888	76
195.957	2003
196.026	1280
196.094	1411
196.163	1691
196.232	316
196.301	854
196.369	96
196.438	404
196.507	169
196.576	51
196.644	801
196.713	-286
196.782	-517
196.850	366
196.919	527
196.988	828
197.056	-109
197.125	274
197.194	-192
197.262	101
197.331	348
197.400	-42
197.468	242
197.537	-500
197.606	-125
197.674	1045
197.743	2116
197.812	1088
197.880	1599
197.949	1165
198.017	2117
198.086	630
198.155	691
198.223	396
198.292	1410
198.360	788
198.429	223
198.497	684
198.566	507
198.635	1932
198.703	1504
198.772	509
198.840	2052
198.909	2835
198.977	761
199.046	303
199.114	1127
199.183	642
199.251	286
199.320	-26
199.388	-826
199.457	306
199.525	489
199.594	826
199.662	192
199.731	1096
199.799	878
199.867	928
199.936	45
200.004	899
200.073	611
200.141	-344
200.210	962
200.278	-15
200.346	502
200.415	990
200.483	1498
200.552	468
200.620	124
200.688	1252
200.757	899
200.825	200
200.893	706
200.962	977
201.030	533
201.098	715
201.167	734
201.235	594
201.303	206
201.372	569
201.440	341
201.508	1078
201.577	833
201.645	426
201.713	467
201.781	615
201.850	1216
201.918	319
201.986	143
202.055	1153
202.123	-6
202.191	1247
202.259	771
202.327	29
202.396	1254
202.464	1197
202.532	1255
202.600	3550
202.669	1683
202.737	972
202.805	521
202.873	658
202.941	675
203.009	1093
203.078	472
203.146	862
203.214	-737
203.282	-89
203.350	1202
203.418	923
203.487	752
203.555	496
203.623	-49
203.691	1549
203.759	784
203.827	824
203.895	1335
203.963	1143
204.031	888
204.099	447
204.168	446
204.236	1226
204.304	995
204.372	-2
204.440	1125
204.508	761
204.576	40
204.644	1406
204.712	258
204.780	1426
204.848	1462
204.916	545
204.984	941
205.052	687
205.120	862
205.188	958
205.256	1070
205.324	486
205.392	724
205.460	972
205.528	632
205.596	1515
205.664	775
205.732	1083
205.799	2850
205.867	4115
205.935	769
206.003	2029
206.071	146
206.139	888
206.207	513
206.275	713
206.343	258
206.411	848
206.478	1235
206.546	1002
206.614	1041
206.682	718
206.750	539
206.818	925
206.885	1974
206.953	183
207.021	2018
207.089	674
207.157	83
207.225	472
207.292	1
207.360	-87
207.428	1368
207.496	898
207.563	1091
207.631	1130
207.699	498
207.767	736
207.834	284
207.902	1090
207.970	830
208.038	631
208.105	861
208.173	1458
208.241	813
208.309	2199
208.376	2246
208.444	2735
208.512	1143
208.579	667
208.647	1166
208.715	2111
208.782	1179
208.850	565
208.918	804
208.985	990
209.053	1402
209.120	1331
209.188	202
209.256	798
209.323	644
209.391	1587
209.459	2494
209.526	838
209.594	1533
209.661	1125
209.729	1452
209.796	997
209.864	1188
209.932	345
209.999	1944
210.067	1936
210.134	1277
210.202	1711
210.269	1882
210.337	2094
210.404	775
210.472	854
210.539	1701
210.607	1410
210.674	1458
210.742	863
210.809	847
210.877	2332
210.944	1948
211.012	501
211.079	2062
211.146	1222
211.214	1042
211.281	2075
211.349	1147
211.416	1764
211.484	1985
211.551	669
211.618	1678
211.686	1506
211.753	984
211.821	1404
211.888	818
211.955	1703
212.023	1327
212.090	1562
212.157	890
212.225	2337
212.292	3507
212.359	5179
212.427	12323
212.494	6057
212.561	2748
212.629	2199
212.696	2365
212.763	1568
212.831	1173
212.898	1043
212.965	508
213.032	2103
213.100	1730
213.167	2212
213.234	2545
213.301	2153
213.369	1324
213.436	1018
213.503	593
213.570	1841
213.638	2937
213.705	1359
213.772	65
213.839	1578
213.906	2510
213.973	2745
214.041	1513
214.108	1975
214.175	1762
214.242	1709
214.309	1516
214.376	1985
214.444	1784
214.511	1783
214.578	2111
214.645	2439
214.712	1930
214.779	2286
214.846	2038
214.913	2792
214.980	1894
215.048	2938
215.115	3021
215.182	2159
215.249	2322
215.316	1974
215.383	1865
215.450	1551
215.517	1687
215.584	1944
215.651	2029
215.718	1893
215.785	2233
215.852	1666
215.919	2491
215.986	2410
216.053	2014
216.120	604
216.187	1823
216.254	2524
216.321	2013
216.388	2253
216.455	1950
216.522	2195
216.589	3183
216.656	4708
216.722	4850
216.789	3242
216.856	3372
216.923	2816
216.990	2479
217.057	2310
217.124	3188
217.191	2301
217.258	3939
217.324	4522
217.391	5152
217.458	3884
217.525	2472
217.592	2690
217.659	1535
217.725	3149
217.792	2947
217.859	3483
217.926	2066
217.993	917
218.059	2138
218.126	1819
218.193	1855
218.260	858
218.327	920
218.393	1839
218.460	1379
218.527	863
218.594	1694
218.660	3147
218.727	3999
218.794	1061
218.860	1741
218.927	756
218.994	1198
219.061	1563
219.127	1893
219.194	2998
219.261	1497
219.327	1581
219.394	1213
219.461	391
219.527	915
219.594	2510
219.661	1642
219.727	371
219.794	1877
219.860	1089
219.927	1031
219.994	1852
220.060	4025
220.127	3999
220.193	2922
220.260	1460
220.326	3238
220.393	5750
220.460	7509
220.526	5087
220.593	2539
220.659	3977
220.726	2928
220.792	7633
220.859	7179
220.925	9235
220.992	12574
221.058	11292
221.125	10129
221.191	7437
221.258	3621
221.324	2602
221.391	1924
221.457	2028
221.524	2118
221.590	2563
221.657	8624
221.723	5774
221.789	6183
221.856	4965
221.922	2301
221.989	2830
222.055	2137
222.121	917
222.188	3693
222.254	2337
222.321	1098
222.387	1028
222.453	1895
222.520	1624
222.586	1110
222.652	1212
222.719	929
222.785	1482
222.851	1215
222.918	1524
222.984	1226
223.050	1840
223.116	584
223.183	1889
223.249	596
223.315	730
223.382	1097
223.448	1532
223.514	428
223.580	829
223.647	1139
223.713	1217
223.779	749
223.845	1094
223.911	944
223.978	569
224.044	1642
224.110	418
224.176	1823
224.242	1029
224.309	281
224.375	1574
224.441	1146
224.507	666
224.573	576
224.639	962
224.705	206
224.772	1011
224.838	334
224.904	2189
224.970	1230
225.036	929
225.102	401
225.168	1848
225.234	1348
225.300	1010
225.366	1179
225.432	2015
225.499	692
225.565	1853
225.631	1730
225.697	1858
225.763	2079
225.829	1856
225.895	2637
225.961	3878
226.027	3606
226.093	2941
226.159	3078
226.225	4342
226.291	10600
226.357	16798
226.423	9897
226.489	6040
226.554	3064
226.620	3005
226.686	3571
226.752	7612
226.818	9993
226.884	21734
226.950	18668
227.016	8775
227.082	4765
227.148	3141
227.214	4200
227.279	2235
227.345	2407
227.411	2968
227.477	2830
227.543	5659
227.609	5176
227.674	4011
227.740	2253
227.806	2765
227.872	991
227.938	1871
228.003	4112
228.069	1351
228.135	1393
228.201	1745
228.267	1058
228.332	1940
228.398	1508
228.464	2195
228.530	565
228.595	1672
228.661	439
228.727	3019
228.792	2932
228.858	1165
228.924	947
228.990	3987
229.055	1538
229.121	2536
229.187	1160
229.252	2256
229.318	1460
229.384	1921
229.449	2775
229.515	-413
229.581	1070
229.646	1818
229.712	1905
229.777	4808
229.843	4629
229.909	3502
229.974	3687
230.040	3391
230.105	2624
230.171	2963
230.236	3092
230.302	5581
230.368	4606
230.433	2182
230.499	2173
230.564	2416
230.630	1459
230.695	2105
230.761	2508
230.826	1082
230.892	3807
230.957	2296
231.023	1199
231.088	1880
231.154	1600
231.219	1985
231.284	1611
231.350	3982
231.415	1305
231.481	2201
231.546	1850
231.612	1809
231.677	873
231.742	1096
231.808	2231
231.873	807
231.939	388
232.004	3885
232.069	3995
232.135	2041
232.200	1526
232.265	1218
232.331	784
232.396	1549
232.461	1355
232.527	626
232.592	916
232.657	1645
232.723	3689
232.788	3083
232.853	1568
232.918	1259
232.984	1096
233.049	1563
233.114	2300
233.179	2627
233.245	4684
233.310	6041
233.375	1538
233.440	1179
233.506	262
233.571	1524
233.636	907
233.701	1142
233.766	3565
233.832	5180
233.897	2311
233.962	1583
234.027	3389
234.092	2415
234.157	1887
234.222	1968
234.288	2527
234.353	11197
234.418	11031
234.483	6344
234.548	4125
234.613	2948
234.678	3247
234.743	3482
234.808	12891
234.873	6808
234.938	4763
235.004	3393
235.069	2460
235.134	1603
235.199	1917
235.264	2346
235.329	1401
235.394	2843
235.459	3781
235.524	2353
235.589	2560
235.654	1806
235.719	318
235.784	2613
235.849	2767
235.913	6402
235.978	6152
236.043	8252
236.108	2825
236.173	2820
236.238	3555
236.303	2742
236.368	1791
236.433	4219
236.498	7664
236.563	4399
236.627	8444
236.692	27945
236.757	22288
236.822	10293
236.887	7679
236.952	5683
237.017	3793
237.081	6474
237.146	6147
237.211	13324
237.276	26761
237.341	44385
237.405	23699
237.470	9192
237.535	7061
237.600	4981
237.664	3903
237.729	2350
237.794	4485
237.859	9533
237.923	7604
237.988	4175
238.053	6153
238.118	6254
238.182	15131
238.247	14568
238.312	6596
238.376	5992
238.441	3074
238.506	4306
238.570	1436
238.635	3856
238.700	2381
238.764	1351
238.829	7195
238.893	8002
238.958	4842
239.023	3883
239.087	2439
239.152	3056
239.216	1608
239.281	2273
239.346	2038
239.410	1045
239.475	1988
239.539	14799
239.604	11566
239.668	4334
239.733	2638
239.797	3386
239.862	9096
239.926	13043
239.991	5584
240.055	2907
240.120	2479
240.184	2382
240.249	1249
240.313	1854
240.378	2173
240.442	9531
240.507	13927
240.571	5435
240.635	6153
240.700	9235
240.764	3400
240.829	3024
240.893	1069
240.957	2690
241.022	8287
241.086	14727
241.151	7409
241.215	2203
241.279	4750
241.344	7174
241.408	3672
241.472	3080
241.537	3962
241.601	3401
241.665	1272
241.730	2170
241.794	2983
241.858	2189
241.922	3303
241.987	2969
242.051	1994
242.115	2309
242.179	2491
242.244	2000
242.308	3050
242.372	3337
242.436	3823
242.501	3155
242.565	1517
242.629	2217
242.693	3327
242.757	1908
242.822	2283
242.886	3667
242.950	2682
243.014	3046
243.078	3602
243.142	3683
243.206	2640
243.271	3642
243.335	3393
243.399	4897
243.463	14819
243.527	42695
243.591	14620
243.655	5977
243.719	2841
243.783	4603
243.847	6843
243.911	9008
243.975	11624
244.040	6955
244.104	5076
244.168	1916
244.232	5012
244.296	7471
244.360	7686
244.424	4442
244.488	3249
244.552	4112
244.615	1302
244.679	2259
244.743	3372
244.807	3756
244.871	2951
244.935	2339
244.999	911
245.063	2849
245.127	3226
245.191	5718
245.255	5570
245.319	4638
245.383	4125
245.446	4421
245.510	1870
245.574	3469
245.638	3443
245.702	2432
245.766	9872
245.829	5371
245.893	3190
245.957	2777
246.021	4484
246.085	3527
246.149	4540
246.212	11911
246.276	16872
246.340	7776
246.404	5779
246.467	6521
246.531	7663
246.595	6726
246.659	6135
246.722	3895
246.786	6841
246.850	6298
246.913	7738
246.977	3321
247.041	4290
247.104	4577
247.168	4459
247.232	11211
247.295	23286
247.359	11460
247.423	4923
247.486	10010
247.550	6721
247.614	5056
247.677	7121
247.741	4633
247.804	3776
247.868	4016
247.932	9621
247.995	21282
248.059	7944
248.122	3871
248.186	5905
248.249	9800
248.313	34059
248.376	36175
248.440	23172
248.503	8018
248.567	8162
248.630	10398
248.694	13783
248.757	17842
248.821	37018
248.884	23515
248.948	19345
249.011	27606
249.075	41205
249.138	36961
249.202	15812
249.265	8894
249.328	12244
249.392	8559
249.455	7482
249.519	5581
249.582	7205
249.645	12247
249.709	8846
249.772	6203
249.835	6094
249.899	6534
249.962	5593
250.025	4427
250.089	13447
250.152	19451
250.215	9798
250.279	7151
250.342	6719
250.405	6937
250.468	5502
250.532	7823
250.595	11792
250.658	39036
250.721	61547
250.785	24512
250.848	13148
250.911	6254
250.974	7302
251.038	10116
251.101	21979
251.164	12009
251.227	12235
251.290	10667
251.354	14396
251.417	52948
251.480	52923
251.543	34683
251.606	94025
251.669	71373
251.732	29482
251.795	29824
251.859	28909
251.922	61355
251.985	37233
252.048	15095
252.111	11634
252.174	10021
252.237	18992
252.300	41910
252.363	43500
252.426	81293
252.489	36517
252.552	19158
252.615	12431
252.678	12705
252.741	30719
252.804	37648
252.867	79768
252.930	53190
252.993	29611
253.056	16473
253.119	12345
253.182	8822
253.245	16230
253.308	12936
253.371	13779
253.434	13161
253.497	11863
253.559	21203
253.622	14429
253.685	19945
253.748	20827
253.811	9268
253.874	13683
253.937	11679
254.000	8420
254.062	14307
254.125	23137
254.188	20496
254.251	17361
254.314	8388
254.376	16969
254.439	18010
254.502	15647
254.565	14708
254.628	26571
254.690	16944
254.753	9991
254.816	8654
254.878	8293
254.941	15935
255.004	15890
255.067	7977
255.129	8224
255.192	4526
255.255	3888
255.317	6029
255.380	3572
255.443	3069
255.505	3006
255.568	3027
255.631	2932
255.693	3152
255.756	2401
255.819	3796
255.881	2401
255.944	3230
256.006	2387
256.069	2270
256.132	2375
256.194	4190
256.257	13831
256.319	10385
256.382	9132
256.444	5131
256.507	4573
256.569	3077
256.632	3421
256.694	6658
256.757	16162
256.819	43792
256.882	18895
256.944	7336
257.007	6591
257.069	7385
257.132	5324
257.194	4753
257.257	3389
257.319	3712
257.381	4029
257.444	12274
257.506	48429
257.569	57264
257.631	33507
257.693	17143
257.756	8268
257.818	7295
257.880	4492
257.943	4296
258.005	3196
258.067	3318
258.130	3463
258.192	4818
258.254	12097
258.317	7423
258.379	4803
258.441	12037
258.503	13022
258.566	15807
258.628	21018
258.690	5567
258.753	5190
258.815	11462
258.877	6807
258.939	3904
259.001	3717
259.064	3509
259.126	5296
259.188	7145
259.250	4681
259.312	6157
259.375	16053
259.437	10117
259.499	4999
259.561	3359
259.623	4203
259.685	3673
259.747	4415
259.809	14011
259.872	27991
259.934	42007
259.996	36877
260.058	9864
260.120	4849
260.182	4405
260.244	3408
260.306	2453
260.368	3227
260.430	3555
260.492	6796
260.554	16257
260.616	11368
260.678	21868
260.740	30284
260.802	8165
260.864	5592
260.926	4451
260.988	5632
261.050	4811
261.112	10424
261.174	30525
261.236	23732
261.298	6953
261.359	13156
261.421	19676
261.483	5338
261.545	4933
261.607	2246
261.669	3921
261.731	8112
261.793	21470
261.854	9123
261.916	6083
261.978	3739
262.040	5889
262.102	4855
262.164	8370
262.225	7276
262.287	4086
262.349	12061
262.411	9138
262.472	5369
262.534	8620
262.596	19593
262.658	7160
262.719	3177
262.781	4885
262.843	18511
262.904	8892
262.966	5432
263.028	6436
263.090	29729
263.151	75885
263.213	26148
263.275	14082
263.336	6619
263.398	4505
263.459	2586
263.521	3346
263.583	11305
263.644	7776
263.706	4053
263.767	1605
263.829	2123
263.891	2134
263.952	1819
264.014	1204
264.075	3903
264.137	12717
264.198	6413
264.260	2136
264.321	2481
264.383	7896
264.444	19509
264.506	5556
264.567	3256
264.629	7064
264.690	13708
264.752	5952
264.813	4018
264.875	2564
264.936	3560
264.998	2257
265.059	2005
265.120	2905
265.182	4665
265.243	23332
265.305	23484
265.366	6796
265.427	3645
265.489	3655
265.550	1211
265.611	3864
265.673	3252
265.734	2650
265.795	2089
265.857	1818
265.918	1644
265.979	6520
266.040	38122
266.102	31007
266.163	10168
266.224	7939
266.286	4756
266.347	2608
266.408	3461
266.469	4422
266.530	2782
266.592	2328
266.653	7571
266.714	12538
266.775	4459
266.836	2576
266.898	1509
266.959	5048
267.020	2415
267.081	3526
267.142	2281
267.203	2599
267.264	2082
267.326	3696
267.387	2064
267.448	2350
267.509	2096
267.570	2726
267.631	2109
267.692	1151
267.753	2328
267.814	1509
267.875	5870
267.936	15226
267.997	7287
268.058	6541
268.119	3737
268.180	4642
268.241	2387
268.302	2364
268.363	2167
268.424	3360
268.485	3557
268.546	1771
268.607	1816
268.668	916
268.729	1325
268.790	2345
268.851	2646
268.912	9351
268.972	11885
269.033	6254
269.094	1952
269.155	2901
269.216	1895
269.277	3201
269.338	2540
269.398	2198
269.459	3291
269.520	4706
269.581	6704
269.642	7974
269.702	5715
269.763	3720
269.824	3015
269.885	4403
269.945	7956
270.006	3736
270.067	1890
270.128	2266
270.188	2366
270.249	1673
270.310	1452
270.370	2349
270.431	3149
270.492	1795
270.553	2811
270.613	7322
270.674	15623
270.734	6562
270.795	3096
270.856	5489
270.916	3824
270.977	3488
271.038	4005
271.098	4005
271.159	7571
271.219	6775
271.280	3192
271.340	2494
271.401	3241
271.462	10497
271.522	5938
271.583	3138
271.643	3910
271.704	3084
271.764	3618
271.825	9972
271.885	35082
271.946	44950
272.006	15498
272.066	20942
272.127	34026
272.187	11159
272.248	5942
272.308	5799
272.369	23532
272.429	13218
272.489	11325
272.550	11153
272.610	12751
272.671	8976
272.731	8346
272.791	14748
272.852	8328
272.912	6622
272.972	4631
273.033	4185
273.093	7058
273.153	7417
273.214	3692
273.274	4879
273.334	17784
273.394	37261
273.455	16108
273.515	13950
273.575	32636
273.635	14100
273.696	18631
273.756	34335
273.816	14006
273.876	8288
273.936	17813
273.997	32658
274.057	9365
274.117	6814
274.177	8694
274.237	43069
274.297	38141
274.358	27690
274.418	28426
274.478	22561
274.538	9413
274.598	6750
274.658	26749
274.718	35208
274.778	14453
274.838	6595
274.898	14151
274.958	47669
275.018	37697
275.078	24108
275.138	11058
275.198	5610
275.258	4310
275.318	5131
275.378	11765
275.438	12758
275.498	7754
275.558	19549
275.618	42729
275.678	26235
275.738	16457
275.798	12291
275.858	6459
275.918	3085
275.978	5130
276.038	4704
276.098	3299
276.157	9703
276.217	27729
276.277	12269
276.337	9292
276.397	5332
276.457	6537
276.517	4448
276.576	3466
276.636	3068
276.696	6479
276.756	16615
276.815	12631
276.875	5923
276.935	7399
276.995	6300
277.055	2932
277.114	3895
277.174	6524
277.234	22079
277.293	9115
277.353	5550
277.413	4028
277.472	5158
277.532	4603
277.592	5353
277.651	18859
277.711	35828
277.771	11448
277.830	44115
277.890	33898
277.950	22902
278.009	65105
278.069	24510
278.128	25611
278.188	37567
278.248	15288
278.307	40280
278.367	24907
278.426	8751
278.486	5500
278.545	4796
278.605	4544
278.664	3523
278.724	3973
278.783	14172
278.843	35461
278.902	11526
278.962	7077
279.021	7722
279.081	13085
279.140	12805
279.199	8942
279.259	8239
279.318	8480
279.378	11249
279.437	18539
279.496	64599
279.556	179694
279.615	145762
279.675	45522
279.734	25384
279.793	37134
279.853	52908
279.912	20779
279.971	11636
280.031	9931
280.090	18671
280.149	32392
280.208	26104
280.268	124985
280.327	128332
280.386	35483
280.445	24727
280.505	21682
280.564	10503
280.623	8077
280.682	13298
280.742	20528
280.801	7932
280.860	5627
280.919	4916
280.978	5615
281.037	4779
281.097	3786
281.156	4607
281.215	3295
281.274	5007
281.333	24109
281.392	18263
281.451	6274
281.510	3948
281.569	3452
281.628	2855
281.688	3373
281.747	4185
281.806	4508
281.865	3395
281.924	3046
281.983	3299
282.042	3293
282.101	3244
282.160	2739
282.219	2659
282.278	3451
282.337	14143
282.396	10332
282.454	4841
282.513	4992
282.572	22996
282.631	13650
282.690	4297
282.749	3507
282.808	5648
282.867	4867
282.926	5572
282.985	2633
283.043	2428
283.102	2691
283.161	4469
283.220	10585
283.279	25570
283.338	7954
283.396	5069
283.455	5236
283.514	5037
283.573	9229
283.631	6819
283.690	4791
283.749	4313
283.808	10243
283.866	13213
283.925	4533
283.984	5072
284.043	7601
284.101	8275
284.160	5128
284.219	6278
284.277	6247
284.336	8214
284.395	32183
284.453	27117
284.512	11071
284.570	14648
284.629	12303
284.688	13121
284.746	12682
284.805	15030
284.863	19884
284.922	25556
284.981	28264
285.039	39523
285.098	66596
285.156	134589
285.215	177520
285.273	171952
285.332	141686
285.390	85851
285.449	54694
285.507	37266
285.566	26890
285.624	20379
285.683	15903
285.741	12401
285.799	10971
285.858	10626
285.916	11098
285.975	8163
286.033	7306
286.091	5760
286.150	5287
286.208	5241
286.267	6918
286.325	6862
286.383	10860
286.442	9002
286.500	5067
286.558	4649
286.616	3699
286.675	6814
286.733	6038
286.791	5709
286.850	6143
286.908	7814
286.966	13761
287.024	6416
287.083	4396
287.141	3520
287.199	4483
287.257	7373
287.315	4926
287.374	5597
287.432	13658
287.490	10342
287.548	5314
287.606	5202
287.664	4295
287.723	6059
287.781	9283
287.839	5436
287.897	5749
287.955	5926
288.013	8119
288.071	17877
288.129	81627
288.187	214103
288.245	99210
288.303	34136
288.361	18648
288.419	13390
288.477	9367
288.535	6688
288.593	4654
288.651	4807
288.709	3461
288.767	4601
288.825	3521
288.883	3421
288.941	3127
288.999	3690
289.057	2983
289.115	3072
289.173	3856
289.231	4326
289.289	3197
289.346	3423
289.404	3835
289.462	8929
289.520	8857
289.578	4756
289.636	3045
289.694	2317
289.751	2445
289.809	2261
289.867	2846
289.925	4643
289.983	5857
290.040	2806
290.098	2120
290.156	4943
290.214	4952
290.271	3244
290.329	1812
290.387	1990
290.444	2262
290.502	1778
290.560	2351
290.617	3722
290.675	3625
290.733	3279
290.790	3656
290.848	3264
290.906	3074
290.963	3947
291.021	3523
291.078	3049
291.136	3791
291.194	13265
291.251	30610
291.309	9503
291.366	3849
291.424	3165
291.481	3998
291.539	4457
291.596	4155
291.654	3089
291.711	2412
291.769	3007
291.826	9133
291.884	5779
291.941	2633
291.999	2665
292.056	3646
292.114	5426
292.171	2839
292.228	3718
292.286	5455
292.343	9412
292.401	13588
292.458	7943
292.515	5537
292.573	6321
292.630	5852
292.687	5868
292.745	4559
292.802	5321
292.859	17886
292.917	31172
292.974	17981
293.031	6821
293.089	4552
293.146	3326
293.203	3386
293.260	2915
293.318	4581
293.375	8684
293.432	4512
293.489	3587
293.546	4165
293.604	5024
293.661	18224
293.718	45233
293.775	24279
293.832	12458
293.889	9849
293.947	8866
294.004	7088
294.061	6668
294.118	13618
294.175	29578
294.232	36918
294.289	16668
294.346	8514
294.403	7408
294.460	7083
294.517	5532
294.574	4361
294.631	3987
294.688	4689
294.745	12595
294.802	49561
294.859	56441
294.916	24067
294.973	13511
295.030	11505
295.087	8953
295.144	6068
295.201	5332
295.258	3850
295.315	6252
295.372	19460
295.429	35639
295.486	15852
295.542	8685
295.599	23224
295.656	40091
295.713	31309
295.770	35611
295.827	14637
295.883	8011
295.940	7637
295.997	13477
296.054	12698
296.111	7309
296.167	5824
296.224	3187
296.281	4316
296.338	4623
296.394	4151
296.451	5024
296.508	15467
296.564	30923
296.621	21808
296.678	41566
296.734	57206
296.791	23674
296.848	12133
296.904	12128
296.961	27918
297.018	41214
297.074	30134
297.131	12939
297.187	8610
297.244	11381
297.301	38161
297.357	63339
297.414	24225
297.470	10490
297.527	7637
297.583	5704
297.640	7256
297.696	5507
297.753	4264
297.809	4291
297.866	3544
297.922	2754
297.979	3977
298.035	4591
298.092	7507
298.148	24253
298.204	22654
298.261	11252
298.317	19578
298.374	49632
298.430	30006
298.486	15458
298.543	10642
298.599	8564
298.656	9166
298.712	17034
298.768	39918
298.824	26142
298.881	10300
298.937	7159
298.993	5750
299.050	9060
299.106	7963
299.162	5997
299.218	6300
299.275	5194
299.331	5947
299.387	10813
299.443	43267
299.500	46088
299.556	20545
299.612	11071
299.668	9230
299.724	12077
299.780	13006
299.837	8057
299.893	10604
299.949	38157
300.005	42670
300.061	39457
300.117	60326
300.173	30772
300.229	15122
300.285	18739
300.341	21240
300.397	11090
300.453	7566
300.510	6762
300.566	6348
300.622	7600
300.678	23887
300.734	43006
300.790	39688
300.845	42269
300.901	29378
300.957	42145
301.013	31979
301.069	13142
301.125	9543
301.181	10192
301.237	8285
301.293	5834
301.349	5305
301.405	4641
301.461	5311
301.516	6010
301.572	7300
301.628	14013
301.684	12141
301.740	18077
301.796	26050
301.851	19417
301.907	30065
301.963	27641
302.019	44522
302.074	113373
302.130	110956
302.186	53006
302.242	23880
302.297	15851
302.353	14122
302.409	26894
302.464	22807
302.520	18548
302.576	45595
302.631	51351
302.687	32389
302.743	15354
302.798	9281
302.854	7057
302.910	7763
302.965	9154
303.021	16757
303.076	16009
303.132	21288
303.187	24772
303.243	13365
303.299	8529
303.354	6609
303.410	6675
303.465	6125
303.521	6042
303.576	6084
303.632	6067
303.687	12690
303.743	38153
303.798	32235
303.853	14969
303.909	8121
303.964	7884
304.020	12548
304.075	18523
304.130	16853
304.186	31730
304.241	32210
304.297	26643
304.352	14562
304.358	13999
304.407	9442
304.449	9080
304.463	8965
304.518	9169
304.539	8646
304.573	7814
304.629	7460
304.630	7519
304.684	10507
304.720	23930
304.739	30675
304.794	43009
304.811	37011
304.850	22855
304.902	12128
304.905	11437
304.960	8440
304.992	8264
305.015	8142
305.071	7833
305.083	7552
305.126	6575
305.173	5433
305.181	5251
305.236	4623
305.264	5021
305.292	5358
305.347	7428
305.354	7532
305.402	8292
305.445	8488
305.457	8542
305.512	9980
305.535	9765
305.567	9493
305.622	9878
305.626	10227
305.678	17423
305.716	34073
305.733	40279
305.788	43077
305.807	37573
305.843	28264
305.897	38363
305.898	38471
305.953	36025
305.988	25490
306.008	19697
306.063	13332
306.078	12192
306.118	9644
306.168	6538
306.173	6245
306.228	5125
306.259	4502
306.283	4108
306.338	4434
306.349	4624
306.393	5244
306.440	5263
306.448	5293
306.503	5241
306.530	5942
306.558	7347
306.613	18505
306.620	19996
306.668	29633
306.711	38180
306.723	39475
306.778	30357
306.801	24021
306.833	16583
306.888	8991
306.892	8750
306.943	6553
306.982	5953
306.997	5705
307.052	4805
307.072	4858
307.107	5317
307.162	6389
307.163	6435
307.217	10250
307.253	12983
307.272	14056
307.327	14784
307.343	13599
307.381	11076
307.434	9745
307.436	9841
307.491	17877
307.524	27835
307.546	32075
307.600	32301
307.614	28777
307.655	17823
307.704	9969
307.710	9440
307.765	9593
307.795	12352
307.819	14601
307.874	23553
307.885	23023
307.929	18159
307.975	13441
307.984	13251
308.038	15048
308.065	18279
308.093	28803
308.148	65349
308.156	74321
308.202	117384
308.246	136106
308.257	134235
308.312	77390
308.336	58349
308.366	46102
308.421	30487
308.426	29211
308.475	18554
308.517	13485
308.530	12228
308.585	10151
308.607	9541
308.639	9059
308.694	9631
308.697	9863
308.748	16891
308.787	25470
308.803	26520
308.857	20876
308.877	17785
308.912	14494
308.967	13093
308.967	13129
309.021	17040
309.058	22275
309.076	27398
309.130	47682
309.148	56432
309.185	94906
309.238	165627
309.239	165926
309.293	178200
309.328	159915
309.348	139974
309.402	71910
309.418	55253
309.457	38804
309.508	26223
309.511	25674
309.566	23243
309.598	24593
309.620	28436
309.674	43785
309.688	47655
309.729	45634
309.778	35157
309.783	34273
309.837	23688
309.868	19234
309.892	20912
309.946	30288
309.959	34052
310.001	42815
310.049	47867
310.055	46614
310.109	28628
310.139	18493
310.163	14168
310.218	8742
310.229	8078
310.272	6721
310.319	5617
310.326	5347
310.381	4409
310.409	3865
310.435	3676
310.489	3538
310.499	3577
310.543	3962
310.589	4630
310.598	4516
310.652	3892
310.679	3420
310.706	3238
310.760	2829
310.769	2791
310.814	2574
310.859	2494
310.868	2504
310.923	2851
310.948	3030
310.977	3138
311.031	3505
311.038	3568
311.085	3429
311.128	3076
311.139	3015
311.193	3011
311.218	2945
311.247	2865
311.301	2924
311.308	2938
311.356	2599
311.398	2370
311.410	2403
311.464	2650
311.488	2735
311.518	2647
311.572	2542
311.578	2567
311.626	3465
311.668	4260
311.680	4232
311.734	4063
311.758	4047
311.788	3810
311.842	3347
311.847	3336
311.896	4227
311.937	5171
311.950	5030
312.004	4530
312.027	4317
312.058	3465
312.112	2075
312.117	1970
312.165	2253
312.207	2559
312.297	2614
312.386	2214
312.476	3413
312.566	5457
312.656	3283
312.745	1443
312.835	1807
312.925	1902
313.015	2589
313.104	1913
313.194	2588
313.284	2706
313.374	3260
313.463	2956
313.553	1475
313.643	1687
313.732	1437
313.822	847
313.912	2219
314.001	2481
314.091	2828
314.180	3500
314.270	4015
314.360	3369
314.449	2765
314.539	2149
314.628	2024
314.718	2528
314.808	2629
314.897	2001
314.987	2751
315.076	3238
315.166	4653
315.255	3263
315.345	4142
315.434	2682
315.524	2624
315.613	3653
315.703	5512
315.792	7802
315.881	16871
315.971	5908
316.060	7492
316.150	8193
316.239	9111
316.328	3081
316.418	2054
316.507	2464
316.597	3800
316.686	2839
316.775	5069
316.865	9235
316.954	2906
317.043	1217
317.133	2289
317.222	1636
317.311	2037
317.400	1197
317.490	3962
317.579	3831
317.668	2173
317.757	3706
317.847	11835
317.936	31318
318.025	13367
318.114	7578
318.203	4936
318.293	7107
318.382	11554
318.471	9661
318.560	14410
318.649	21923
318.738	4164
318.828	4105
318.917	3716
319.006	5466
319.095	14807
319.184	32982
319.273	17101
319.362	8890
319.451	2453
319.540	3704
319.629	9179
319.718	11914
319.807	4501
319.896	15513
319.985	40784
320.074	11521
320.163	3443
320.252	4914
320.341	4923
320.430	3853
320.519	6750
320.608	3507
320.697	3198
320.786	2307
320.875	4348
320.964	5958
321.053	8375
321.142	12822
321.230	11396
321.319	11059
321.408	22612
321.497	8233
321.586	8356
321.675	10569
321.764	8818
321.852	6380
321.941	12841
322.030	7122
322.119	10197
322.207	24420
322.296	13715
322.385	6330
322.474	10673
322.562	29290
322.651	11984
322.740	10917
322.829	14942
322.917	13574
323.006	7057
323.095	7086
323.183	4391
323.272	7454
323.361	18221
323.449	44271
323.538	13486
323.626	32347
323.715	15042
323.804	8074
323.892	28429
323.981	12768
324.069	4576
324.158	16201
324.246	11912
324.335	5727
324.424	7654
324.512	3405
324.601	4537
324.689	6258
324.778	10133
324.866	8944
324.954	2771
325.043	2128
325.131	6394
325.220	11485
325.308	12314
325.397	9132
325.485	5225
325.574	1646
325.662	2424
325.750	2154
325.839	1939
325.927	1474
326.015	2979
326.104	5072
326.192	5401
326.280	1493
326.369	2586
326.457	3171
326.545	7045
326.634	2210
326.722	1811
326.810	1731
326.898	1664
326.987	2691
327.075	6471
327.163	6020
327.251	2179
327.340	3460
327.428	4221
327.516	1332
327.604	1969
327.692	1913
327.781	2666
327.869	4850
327.957	3066
328.045	2707
328.133	1664
328.221	2540
328.309	2319
328.397	2218
328.485	2805
328.574	5168
328.662	16433
328.750	7062
328.838	2821
328.926	1822
329.014	1805
329.102	3312
329.190	8081
329.278	4497
329.366	1660
329.454	775
329.542	1708
329.630	1136
329.718	2461
329.806	1805
329.893	1876
329.981	2055
330.069	3465
330.157	17612
330.245	51037
330.333	23112
330.421	3194
330.509	5653
330.597	19988
330.684	10075
330.772	3368
330.860	4181
330.948	5908
331.036	2515
331.123	1360
331.211	1216
331.299	2673
331.387	6294
331.475	8206
331.562	3102
331.650	1489
331.738	2829
331.825	2937
331.913	1996
332.001	1185
332.089	2148
332.176	5433
332.264	15243
332.352	9493
332.439	3266
332.527	1633
332.614	1755
332.702	3000
332.790	2229
332.877	7356
332.965	12363
333.052	3526
333.140	4854
333.228	10493
333.315	2690
333.403	2107
333.490	8429
333.578	7264
333.665	14343
333.753	5570
333.840	1499
333.928	2623
334.015	8543
334.103	15404
334.190	41578
334.278	8582
334.365	4455
334.452	3837
334.540	2166
334.627	3715
334.715	3140
334.802	10116
334.889	56745
334.977	49720
335.064	5710
335.151	2671
335.239	2612
335.326	4514
335.413	23456
335.501	24395
335.588	3334
335.675	2264
335.762	3341
335.850	5119
335.937	4147
336.024	14866
336.111	55295
336.199	20016
336.286	3551
336.373	2472
336.460	1956
336.547	1375
336.635	2865
336.722	2001
336.809	1872
336.896	3435
336.983	12220
337.070	31079
337.157	42266
337.245	35087
337.332	20559
337.419	2458
337.506	2096
337.593	2557
337.680	10656
337.767	25102
337.854	7605
337.941	8164
338.028	10572
338.115	3866
338.202	4729
338.289	10116
338.376	33026
338.463	9787
338.550	15791
338.637	13812
338.724	7189
338.811	9655
338.898	1897
338.984	1018
339.071	2189
339.158	4090
339.245	8554
339.332	5237
339.419	6599
339.506	6179
339.593	176
339.679	1973
339.766	1518
339.853	3029
339.940	6468
340.027	2154
340.113	2793
340.200	3383
340.287	2354
340.374	2729
340.460	5247
340.547	1679
340.634	5558
340.720	20493
340.807	9345
340.894	1824
340.980	1938
341.067	1570
341.154	2876
341.240	4139
341.327	8169
341.414	3260
341.500	3073
341.587	2031
341.674	1947
341.760	7074
341.847	6773
341.933	1749
342.020	458
342.106	1554
342.193	2678
342.279	4237
342.366	3076
342.452	5134
342.539	3623
342.625	8539
342.712	19798
342.798	7347
342.885	2169
342.971	1014
343.058	826
343.144	676
343.230	1561
343.317	1691
343.403	1586
343.490	1345
343.576	893
343.662	1810
343.749	1756
343.835	3387
343.921	6800
344.008	50238
344.094	102305
344.180	18802
344.267	7290
344.353	29229
344.439	25172
344.525	8396
344.612	3070
344.698	2645
344.784	1260
344.870	1733
344.957	1797
345.043	4640
345.129	2479
345.215	5528
345.301	2762
345.387	1657
345.474	750
345.560	1811
345.646	1705
345.732	2061
345.818	2822
345.904	2181
345.990	2702
346.076	2761
346.162	4270
346.249	2605
346.335	1008
346.421	1775
346.507	12867
346.593	39932
346.679	7570
346.765	1938
346.851	1732
346.937	1665
347.023	2188
347.108	2556
347.194	822
347.280	1439
347.366	3570
347.452	12822
347.538	48576
347.624	33756
347.710	23735
347.796	2819
347.882	1549
347.967	1692
348.053	2477
348.139	2172
348.225	1411
348.311	1776
348.397	1228
348.482	3205
348.568	2579
348.654	1692
348.740	1962
348.825	776
348.911	5156
348.997	24009
349.083	43099
349.168	5208
349.254	1512
349.340	1901
349.425	883
349.511	2549
349.597	3497
349.682	8176
349.768	25915
349.854	10196
349.939	1428
350.025	928
350.110	1263
350.196	638
350.282	652
350.367	1747
350.453	2725
350.538	2701
350.624	2353
350.709	2578
350.795	182
350.880	1318
350.966	2977
351.051	3183
351.137	1411
351.222	2475
351.308	8401
351.393	20248
351.479	4658
351.564	1530
351.649	1258
351.735	1890
351.820	546
351.906	1962
351.991	2121
352.076	14951
352.162	19088
352.247	3417
352.332	1845
352.418	4578
352.503	8052
352.588	32518
352.673	21787
352.759	4746
352.844	2551
352.929	3078
353.014	3309
353.100	2657
353.185	3452
353.270	7248
353.355	6297
353.441	1552
353.526	2194
353.611	6013
353.696	7168
353.781	3637
353.866	1473
353.952	2562
354.037	6480
354.122	15069
354.207	12444
354.292	3905
354.377	1595
354.462	1712
354.547	2393
354.632	2393
354.717	3315
354.802	3978
354.887	1905
354.972	1383
355.057	1002
355.142	776
355.227	2062
355.312	3957
355.397	9114
355.482	22971
355.567	9356
355.652	8122
355.737	9640
355.822	31495
355.907	22539
355.991	4129
356.076	1238
356.161	1974
356.246	1116
356.331	2169
356.416	7204
356.501	55087
356.585	50317
356.670	5278
356.755	4044
356.840	6495
356.924	37096
357.009	122266
357.094	40951
357.179	7436
357.263	5718
357.348	5670
357.433	4571
357.517	4817
357.602	4027
357.687	2874
357.771	3323
357.856	7412
357.941	7263
358.025	28888
358.110	116157
358.195	48406
358.279	5186
358.364	5178
358.448	21500
358.533	53947
358.617	36819
358.702	37693
358.787	12352
358.871	6137
358.956	5582
359.040	1453
359.125	340
359.209	1448
359.294	3195
359.378	4882
359.462	4927
359.547	3448
359.631	2110
359.716	490
359.800	2079
359.885	3970
359.969	1183
360.053	2294
360.138	1328
360.222	3664
360.306	7186
360.391	5182
360.475	7471
360.559	15222
360.644	17691
360.728	13683
360.812	30719
360.896	78970
360.981	26413
361.065	11319
361.149	4186
361.233	3135
361.318	2541
361.402	3260
361.486	2578
361.570	1740
361.654	3539
361.739	11117
361.823	52411
361.907	76226
361.991	11652
362.075	6062
362.159	12768
362.243	9545
362.327	7735
362.411	10627
362.495	5141
362.580	3789
362.664	1455
362.748	1202
362.832	1696
362.916	2837
363.000	18318
363.084	62007
363.168	87882
363.252	17443
363.336	5741
363.420	9698
363.503	31445
363.587	32196
363.671	5997
363.755	3778
363.839	6235
363.923	2326
364.007	6664
364.091	6854
364.175	12613
364.258	47168
364.342	29960
364.426	33151
364.510	16494
364.594	9530
364.677	15819
364.761	69531
364.845	46262
364.929	12618
365.013	9421
365.096	8158
365.180	9042
365.264	15825
365.347	48602
365.431	17980
365.515	4323
365.598	2104
365.682	3251
365.766	4050
365.849	4582
365.933	3618
366.017	4683
366.100	1939
366.184	-12
366.267	2325
366.351	1922
366.435	809
366.518	348
366.602	1388
366.685	1424
366.769	2420
366.852	3886
366.936	7431
367.019	4524
367.103	2829
367.186	5392
367.270	2235
367.353	268
367.436	1657
367.520	1191
367.603	2756
367.687	3878
367.770	7116
367.853	5943
367.937	20766
368.020	31598
368.104	6501
368.187	6945
368.270	8404
368.353	7937
368.437	10291
368.520	21673
368.603	14227
368.687	23046
368.770	39652
368.853	8600
368.936	7414
369.020	6669
369.103	2388
369.186	887
369.269	2016
369.352	5908
369.436	7481
369.519	4355
369.602	1202
369.685	3365
369.768	2347
369.851	2128
369.934	1297
370.018	2497
370.101	5529
370.184	6532
370.267	3579
370.350	6741
370.433	12283
370.516	36017
370.599	41986
370.682	11085
370.765	21207
370.848	28271
370.931	49759
371.014	17967
371.097	2562
371.180	2506
371.263	1833
371.346	-349
371.429	2025
371.511	1316
371.594	4905
371.677	7542
371.760	7847
371.843	9160
371.926	44028
372.009	93831
372.091	30027
372.174	21022
372.257	51442
372.340	18870
372.423	10836
372.505	11016
372.588	5279
372.671	16767
372.754	49717
372.836	23844
372.919	15376
373.002	24899
373.085	8501
373.167	8205
373.250	22472
373.332	49979
373.415	67761
373.498	128031
373.580	46524
373.663	62901
373.746	81947
373.828	16512
373.911	6476
373.993	8590
374.076	26274
374.159	22267
374.241	13889
374.324	39922
374.406	27530
374.489	42967
374.571	113242
374.654	43553
374.736	23036
374.819	71074
374.901	98028
374.983	96069
375.066	15958
375.148	6392
375.231	22363
375.313	39677
375.395	12686
375.478	3338
375.560	2861
375.643	5012
375.725	23254
375.807	86365
375.890	62521
375.972	19737
376.054	11970
376.136	17688
376.219	9478
376.301	27350
376.383	72791
376.465	26007
376.548	13892
376.630	21620
376.712	60402
376.794	26837
376.877	2495
376.959	2340
377.041	2403
377.123	4631
377.205	5653
377.287	859
377.369	1235
377.452	1726
377.534	2133
377.616	1848
377.698	1412
377.780	421
377.862	2184
377.944	2731
378.026	474
378.108	894
378.190	1522
378.272	1829
378.354	739
378.436	591
378.518	3038
378.600	10853
378.682	12254
378.764	27518
378.846	22053
378.928	5750
379.010	7894
379.091	4034
379.173	1537
379.255	1037
379.337	3707
379.419	14737
379.501	40391
379.583	15650
379.664	3587
379.746	8719
379.828	28298
379.910	38442
379.991	32760
380.073	5077
380.155	2296
380.237	1873
380.318	1184
380.400	1796
380.482	5854
380.564	7586
380.645	7689
380.727	6850
380.809	5023
380.890	2983
380.972	1264
381.053	2161
381.135	3356
381.217	11330
381.298	28203
381.380	13287
381.461	15689
381.543	61240
381.624	71751
381.706	12019
381.787	5286
381.869	7393
381.951	30411
382.032	101519
382.113	62048
382.195	9962
382.276	9146
382.358	21660
382.439	56726
382.521	65954
382.602	98582
382.684	45566
382.765	73971
382.846	84064
382.928	118246
383.009	62748
383.090	46861
383.172	167953
383.253	251244
383.334	86417
383.416	84037
383.497	43982
383.578	18285
383.659	37814
383.741	146481
383.822	360481
383.903	183734
383.984	62845
384.066	100346
384.147	59362
384.228	11959
384.309	7520
384.390	6197
384.471	4166
384.553	5540
384.634	5754
384.715	7235
384.796	3921
384.877	6208
384.958	26127
385.039	30511
385.120	9672
385.201	5635
385.282	5880
385.363	5167
385.444	4789
385.525	14030
385.606	44200
385.687	37571
385.768	6650
385.849	11150
385.930	47668
386.011	80397
386.092	20314
386.173	3230
386.254	2671
386.335	4033
386.416	4985
386.496	17018
386.577	26857
386.658	9491
386.739	4428
386.820	4325
386.901	2200
386.981	2987
387.062	2193
387.143	7560
387.224	26222
387.304	25419
387.385	7863
387.466	3431
387.547	5550
387.627	4187
387.708	13401
387.789	53340
387.869	62594
387.950	16767
388.031	1934
388.111	1176
388.192	6949
388.273	9240
388.353	4792
388.434	3803
388.514	12034
388.595	54255
388.676	65581
388.756	29194
388.837	24810
388.917	15025
388.998	1421
389.078	3615
389.159	1333
389.239	1056
389.320	5251
389.400	3077
389.480	11972
389.561	29739
389.641	15147
389.722	5143
389.802	6626
389.883	14793
389.963	38180
390.043	21817
390.124	4246
390.204	11659
390.284	30624
390.365	18868
390.445	21454
390.525	49051
390.605	42841
390.686	14489
390.766	4915
390.846	3002
390.927	608
391.007	880
391.087	2940
391.167	2541
391.247	1638
391.328	4803
391.408	6552
391.488	4410
391.568	653
391.648	3073
391.728	5109
391.808	4720
391.888	5867
391.969	17718
392.049	25819
392.129	11587
392.209	13407
392.289	35378
392.369	18115
392.449	10290
392.529	6346
392.609	7062
392.689	10943
392.769	34906
392.849	29224
392.929	20240
393.009	45808
393.089	34280
393.169	25913
393.248	93967
393.328	336134
393.408	351704
393.488	82463
393.568	19618
393.648	9170
393.728	5908
393.807	4145
393.887	4851
393.967	4433
394.047	5032
394.127	5768
394.206	12816
394.286	52252
394.366	196150
394.446	200229
394.525	40639
394.605	8896
394.685	8084
394.764	17850
394.844	25689
394.924	17319
395.003	5784
395.083	3744
395.163	4164
395.242	2834
395.322	3659
395.402	2230
395.481	5776
395.561	12725
395.640	30944
395.720	26511
395.799	33036
395.879	25749
395.958	18778
396.038	73402
396.117	257601
396.197	265791
396.276	67358
396.356	19062
396.435	13052
396.515	10287
396.594	11310
396.673	26111
396.753	106077
396.832	306965
396.912	226012
396.991	47706
397.070	11832
397.150	5406
397.229	5215
397.308	5906
397.388	9463
397.467	4317
397.546	2114
397.625	443
397.705	4660
397.784	3700
397.863	1861
397.942	407
398.022	2849
398.101	10645
398.180	27770
398.259	13287
398.338	3519
398.417	1683
398.497	1767
398.576	2425
398.655	308
398.734	1237
398.813	2162
398.892	11036
398.971	30734
399.050	13530
399.129	1204
399.208	806
399.287	1153
399.366	34
399.445	1320
399.524	1292
399.603	173
399.682	4125
399.761	13230
399.840	35680
399.919	25598
399.998	2886
400.077	449
400.156	-259
400.235	2689
400.313	660
400.392	1782
400.471	14998
400.550	22264
400.629	5030
400.708	3048
400.786	1252
400.865	5695
400.944	5756
401.023	3692
401.102	336
401.180	727
401.259	551
401.338	834
401.416	1873
401.495	955
401.574	1527
401.652	524
401.731	2088
401.810	778
401.888	333
401.967	-22
402.046	861
402.124	2424
402.203	2137
402.281	1597
402.360	3026
402.438	7709
402.517	3860
402.596	1184
402.674	718
402.753	1215
402.831	1019
402.910	2458
402.988	10717
403.066	31889
403.145	18708
403.223	12769
403.302	25499
403.380	19792
403.459	17997
403.537	6820
403.615	1813
403.694	-709
403.772	203
403.850	414
403.929	723
404.007	211
404.085	3590
404.164	2345
404.242	847
404.320	2645
404.398	5221
404.477	19106
404.555	79071
404.633	65429
404.711	8852
404.789	1895
404.868	1576
404.946	343
405.024	-30
405.102	-355
405.180	-230
405.258	-754
405.336	823
405.415	-391
405.493	3085
405.571	2628
405.649	412
405.727	-719
405.805	1948
405.883	1585
405.961	1960
406.039	1564
406.117	-228
406.195	3042
406.273	18896
406.351	65239
406.429	36602
406.507	4191
406.585	1069
406.663	1370
406.740	2637
406.818	1188
406.896	325
406.974	1769
407.052	5778
407.130	38726
407.208	50861
407.285	10024
407.363	605
407.441	819
407.519	1054
407.596	1492
407.674	5053
407.752	16673
407.830	15289
407.907	4783
407.985	1126
408.063	1350
408.141	-34
408.218	2760
408.296	1192
408.373	1301
408.451	1876
408.529	690
408.606	31
408.684	5
408.762	-466
408.839	-322
408.917	-302
408.994	157
409.072	-513
409.149	691
409.227	1834
409.304	2106
409.382	646
409.459	1568
409.537	3177
409.614	2331
409.692	413
409.769	1344
409.846	3155
409.924	4189
410.001	948
410.079	1232
410.156	772
410.233	1163
410.311	-130
410.388	404
410.465	646
410.543	1020
410.620	939
410.697	1478
410.775	855
410.852	-132
410.929	1687
411.006	2806
411.083	1481
411.161	3887
411.238	3369
411.315	1542
411.392	655
411.469	2140
411.547	1406
411.624	9
411.701	408
411.778	1818
411.855	4121
411.932	1476
412.009	154
412.086	663
412.163	601
412.240	1137
412.317	1891
412.394	139
412.471	855
412.548	244
412.625	29
412.702	584
412.779	3375
412.856	1635
412.933	-593
413.010	1248
413.087	2052
413.164	13404
413.241	18384
413.318	3225
413.395	2906
413.471	3751
413.548	1358
413.625	1285
413.702	570
413.779	691
413.855	-513
413.932	-970
414.009	-474
414.086	-135
414.162	-452
414.239	3112
414.316	14434
414.393	29186
414.469	8977
414.546	637
414.623	131
414.699	188
414.776	1057
414.853	566
414.929	814
415.006	-74
415.082	-78
415.159	554
415.236	57
415.312	1502
415.389	2477
415.465	3220
415.542	844
415.618	143
415.695	2593
415.771	1015
415.848	1284
415.924	1591
416.000	-75
416.077	681
416.153	-417
416.230	-1380
416.306	-329
416.383	-52
416.459	888
416.535	-674
416.612	-596
416.688	260
416.764	-672
416.841	-625
416.917	145
416.993	135
417.069	891
417.146	486
417.222	1356
417.298	825
417.374	49
417.451	790
417.527	987
417.603	1531
417.679	454
417.755	722
417.831	-326
417.908	620
417.984	-16
418.060	-162
418.136	2716
418.212	3914
418.288	784
418.364	281
418.440	474
418.516	1926
418.592	1961
418.668	5482
418.744	8446
418.820	5328
418.896	917
418.972	343
419.048	869
419.124	3519
419.200	510
419.276	-109
419.352	-584
419.428	242
419.504	267
419.579	1499
419.655	94
419.731	1371
419.807	5596
419.883	9703
419.959	5860
420.034	1918
420.110	4966
420.186	18519
420.262	13666
420.337	1681
420.413	376
420.489	1150
420.565	45
420.640	150
420.716	1035
420.792	-559
420.867	1031
420.943	445
421.019	2663
421.094	1599
421.170	8
421.245	110
421.321	530
421.397	607
421.472	3355
421.548	8124
421.623	5563
421.699	1529
421.774	2461
421.850	1396
421.925	3560
422.001	2908
422.076	2479
422.152	3007
422.227	5440
422.302	6649
422.378	9233
422.453	19409
422.529	51019
422.604	147897
422.679	241266
422.755	145409
422.830	45341
422.905	16990
422.981	8605
423.056	5606
423.131	4069
423.207	2603
423.282	3416
423.357	6109
423.432	3551
423.508	4566
423.583	8867
423.658	7174
423.733	2067
423.808	2854
423.883	3022
423.959	2141
424.034	862
424.109	680
424.184	-308
424.259	-179
424.334	489
424.409	513
424.484	474
424.559	747
424.634	380
424.709	1330
424.784	1821
424.859	637
424.934	2440
425.009	13381
425.084	21410
425.159	7227
425.234	374
425.309	-450
425.384	923
425.459	1648
425.534	912
425.609	-97
425.683	-178
425.758	183
425.833	371
425.908	1882
425.983	8151
426.058	22620
426.132	9259
426.207	1391
426.282	2353
426.357	1061
426.431	592
426.506	366
426.581	-492
426.655	-129
426.730	375
426.805	-430
426.879	955
426.954	715
427.029	3880
427.103	25251
427.178	56886
427.253	24555
427.327	3182
427.402	1594
427.476	4042
427.551	755
427.625	760
427.700	490
427.774	-151
427.849	677
427.923	-341
427.998	-45
428.072	451
428.147	3698
428.221	17283
428.296	42616
428.370	20885
428.444	1745
428.519	3016
428.593	5639
428.667	5040
428.742	6235
428.816	8317
428.890	27532
428.965	39017
429.039	12097
429.113	5879
429.188	2178
429.262	578
429.336	4315
429.410	9806
429.485	7014
429.559	4387
429.633	2985
429.707	1362
429.781	6954
429.855	30560
429.930	44428
430.004	23921
430.078	31119
430.152	32924
430.226	60433
430.300	58971
430.374	8582
430.448	3082
430.522	11557
430.596	30060
430.670	22907
430.744	56429
430.818	81364
430.892	16165
430.966	2255
431.040	1060
431.114	-15
431.188	-628
431.262	374
431.336	226
431.410	3184
431.484	8113
431.557	5637
431.631	295
431.705	1586
431.779	9370
431.853	37153
431.927	24906
432.000	3089
432.074	623
432.148	1377
432.222	-282
432.295	568
432.369	654
432.443	3327
432.516	24110
432.590	57899
432.664	20498
432.737	1615
432.811	-685
432.885	-403
432.958	219
433.032	-979
433.106	-645
433.179	-494
433.253	-37
433.326	-146
433.400	-581
433.473	-803
433.547	-1028
433.620	-12
433.694	1348
433.767	1968
433.841	-1021
433.914	-256
433.988	-223
434.061	260
434.134	-892
434.208	-528
434.281	-1101
434.355	-652
434.428	-256
434.501	-834
434.575	-930
434.648	-279
434.721	-900
434.795	-412
434.868	-896
434.941	-1046
435.014	-709
435.088	249
435.161	672
435.234	2226
435.307	2459
435.381	1105
435.454	427
435.527	1161
435.600	1033
435.673	1072
435.746	346
435.819	-90
435.892	29
435.966	-899
436.039	-742
436.112	670
436.185	-430
436.258	-396
436.331	-1396
436.404	-541
436.477	-821
436.550	-559
436.623	-79
436.696	-726
436.769	-118
436.842	-218
436.915	694
436.987	232
437.060	505
437.133	-649
437.206	-516
437.279	976
437.352	-491
437.425	-718
437.498	291
437.570	3102
437.643	2606
437.716	532
437.789	11
437.861	2149
437.934	7052
438.007	2792
438.080	-599
438.152	752
438.225	4204
438.298	35172
438.370	87019
438.443	35756
438.516	7206
438.588	1509
438.661	-391
438.734	-590
438.806	-182
438.879	668
438.951	1012
439.024	2899
439.096	207
439.169	-390
439.241	-450
439.314	-352
439.386	253
439.459	2196
439.531	2872
439.604	1078
439.676	796
439.749	-683
439.821	-416
439.893	-172
439.966	-117
440.038	415
440.110	926
440.183	-449
440.255	-281
440.327	1829
440.400	13317
440.472	52678
440.544	33654
440.617	3980
440.689	3033
440.761	3179
440.833	5985
440.905	3984
440.978	13
441.050	-863
441.122	176
441.194	-426
441.266	-364
441.338	-608
441.411	2252
441.483	15899
441.555	22884
441.627	5980
441.699	1394
441.771	1507
441.843	-86
441.915	-132
441.987	68
442.059	-74
442.131	335
442.203	1074
442.275	2727
442.347	2260
442.419	3563
442.491	19200
442.563	47592
442.635	24501
442.706	11396
442.778	9738
442.850	1197
442.922	79
442.994	440
443.066	2066
443.137	1174
443.209	1037
443.281	2155
443.353	6120
443.425	27112
443.496	88059
443.568	89685
443.640	35779
443.711	6395
443.783	1751
443.855	567
443.926	302
443.998	311
444.070	1316
444.141	530
444.213	2389
444.285	4276
444.356	2435
444.428	1350
444.499	360
444.571	4
444.642	706
444.714	377
444.785	2230
444.857	2535
444.928	6111
445.000	4595
445.071	4117
445.143	5971
445.214	4056
445.285	6420
445.357	19513
445.428	63640
445.500	141326
445.571	94422
445.642	48274
445.714	19606
445.785	13519
445.856	5298
445.928	3958
445.999	2937
446.070	3093
446.141	3319
446.213	3885
446.284	1635
446.355	763
446.426	585
446.497	863
446.569	1235
446.640	3031
446.711	2714
446.782	422
446.853	1261
446.924	825
446.995	1092
447.066	749
447.138	1811
447.209	945
447.280	-122
447.351	230
447.422	210
447.493	521
447.564	1544
447.635	2290
447.706	1209
447.777	-203
447.847	-680
447.918	-313
447.989	410
448.060	1655
448.131	3526
448.202	5079
448.273	3361
448.344	1008
448.414	832
448.485	320
448.556	510
448.627	-305
448.698	-288
448.768	2
448.839	11
448.910	1192
448.981	2227
449.051	1288
449.122	278
449.193	-445
449.263	106
449.334	846
449.405	1848
449.475	4327
449.546	2995
449.616	2536
449.687	2481
449.758	964
449.828	110
449.899	499
449.969	129
450.040	468
450.110	-80
450.181	926
450.251	-276
450.322	515
450.392	218
450.463	-93
450.533	307
450.604	-48
450.674	108
450.744	115
450.815	-118
450.885	611
450.955	671
451.026	188
451.096	-83
451.166	649
451.237	2864
451.307	8030
451.377	4678
451.447	121
451.518	-69
451.588	-585
451.658	321
451.728	1888
451.799	8000
451.869	10960
451.939	3490
452.009	452
452.079	-268
452.149	921
452.219	2111
452.289	8723
452.360	8190
452.430	1580
452.500	344
452.570	1391
452.640	2934
452.710	8383
452.780	13792
452.850	11930
452.920	8953
452.990	3948
453.060	1537
453.129	1508
453.199	2950
453.269	12088
453.339	27863
453.409	43682
453.479	38454
453.549	58873
453.619	61480
453.688	30570
453.758	3827
453.828	866
453.898	603
453.968	652
454.037	-207
454.087	487
454.107	715
454.168	545
454.177	460
454.247	1055
454.249	1116
454.316	814
454.330	1381
454.386	2569
454.411	4420
454.456	5619
454.492	7347
454.525	8912
454.574	5781
454.595	4619
454.655	2475
454.665	2221
454.734	4847
454.736	5248
454.804	9486
454.817	11605
454.873	13857
454.898	14818
454.943	15765
454.979	10470
455.013	7119
455.060	6049
455.082	6342
455.141	10405
455.152	10415
455.221	17134
455.222	17668
455.291	17825
455.303	15972
455.360	12034
455.384	11553
455.430	11604
455.465	14247
455.499	14552
455.546	17582
455.569	16422
455.627	10530
455.638	10234
455.707	3381
455.708	3435
455.777	2662
455.789	2719
455.846	2647
455.869	2884
455.916	3279
455.950	3667
455.985	3705
456.031	3260
456.054	3014
456.112	3231
456.124	3362
456.193	3875
456.193	3810
456.262	4847
456.274	5278
456.332	5952
456.355	6293
456.401	5571
456.436	4640
456.470	4165
456.516	3714
456.540	3617
456.597	3164
456.609	2987
456.678	3063
456.678	3026
456.747	3246
456.759	3166
456.817	2715
456.840	3137
456.886	3790
456.920	3854
456.955	4399
457.001	5631
457.024	6435
457.082	7941
457.093	8134
457.162	10603
457.163	10709
457.232	8535
457.243	8001
457.301	5842
457.324	5009
457.370	4776
457.405	4890
457.439	5129
457.485	5685
457.508	6032
457.566	6943
457.577	7270
457.646	9679
457.647	9775
457.715	16551
457.727	17898
457.784	25734
457.808	29930
457.853	31575
457.889	33556
457.922	31752
457.969	27030
457.991	30448
458.050	38824
458.060	40298
458.129	57867
458.130	58508
458.198	39959
458.211	35188
458.267	23324
458.292	17142
458.336	15888
458.372	17463
458.405	24595
458.453	36150
458.474	44355
458.533	70386
458.543	70868
458.611	82577
458.614	83094
458.680	42252
458.694	31702
458.749	19247
458.775	14790
458.818	11422
458.855	10349
458.887	9961
458.936	9087
458.955	8749
459.016	8935
459.024	9005
459.093	9237
459.097	9320
459.162	10713
459.177	11095
459.230	12578
459.257	13578
459.299	14337
459.338	14783
459.368	14985
459.418	15687
459.437	14564
459.499	10389
459.505	10330
459.574	9543
459.579	9568
459.643	9610
459.659	9513
459.711	10031
459.740	10586
459.780	11596
459.820	12614
459.849	13157
459.900	14254
459.917	13811
459.981	12168
459.986	12122
460.054	11961
460.061	11928
460.123	13415
460.141	13956
460.191	16436
460.222	18274
460.260	19345
460.302	20577
460.328	18716
460.382	14665
460.397	14795
460.462	14386
460.465	14660
460.534	22799
460.543	23821
460.602	43943
460.623	51404
460.671	74781
460.703	93763
460.739	73635
460.783	46012
460.808	39904
460.864	16794
460.876	15360
460.944	12258
460.945	12203
461.013	12717
461.024	12623
461.081	13116
461.104	13606
461.150	12604
461.184	11604
461.218	11641
461.264	11765
461.286	11954
461.345	12228
461.355	12370
461.423	14363
461.425	14394
461.491	18181
461.505	19118
461.559	40077
461.585	49658
461.628	75613
461.665	99468
461.696	96202
461.745	92127
461.764	75658
461.825	19752
461.832	19768
461.901	17146
461.905	17190
461.969	14958
461.985	14481
462.037	15575
462.065	15853
462.105	21292
462.145	27265
462.173	36917
462.225	54907
462.241	59445
462.305	77855
462.310	74778
462.378	26727
462.385	21190
462.446	17467
462.465	16179
462.514	14949
462.545	14873
462.582	15071
462.625	15089
462.650	15196
462.705	15372
462.718	16422
462.785	22026
462.786	22235
462.854	34388
462.865	36278
462.922	38086
462.945	38883
462.990	26099
463.025	15927
463.058	15223
463.104	14124
463.126	14281
463.184	14754
463.194	15012
463.262	16943
463.264	17012
463.330	17931
463.344	17986
463.398	20132
463.424	21333
463.466	21301
463.504	21221
463.533	21229
463.583	21012
463.601	22362
463.663	26952
463.669	28085
463.737	41129
463.743	42280
463.805	65463
463.823	72194
463.873	109567
463.903	132285
463.940	123344
463.982	113546
464.008	86288
464.062	27353
464.076	25958
464.142	17753
464.144	17731
464.211	17482
464.221	17489
464.279	19604
464.301	20330
464.347	23254
464.381	25542
464.414	29460
464.461	34771
464.482	34094
464.540	31959
464.550	30848
464.617	22734
464.620	22421
464.685	26104
464.699	26845
464.753	28644
464.779	29595
464.820	31145
464.859	32579
464.888	34205
464.938	36636
464.956	36329
465.018	35057
465.023	34432
465.091	25354
465.098	24396
465.158	23847
465.177	23627
465.226	25469
465.257	26544
465.293	28080
465.336	29948
465.361	34212
465.416	43505
465.428	47802
465.495	70697
465.496	71128
465.563	119621
465.575	127830
465.631	131386
465.654	132814
465.698	76900
465.734	30087
465.765	28017
465.813	24371
465.833	24321
465.893	24780
465.900	24832
465.968	25010
465.972	24967
466.035	25152
466.052	25167
466.102	26249
466.131	26760
466.170	26670
466.210	26540
466.237	27438
466.290	29004
466.304	29313
466.369	30334
466.372	30476
466.439	33038
466.449	33339
466.506	41163
466.528	44014
466.573	69733
466.607	88924
466.641	126697
466.687	178793
466.708	184516
466.766	199122
466.775	182875
466.842	57720
466.845	51658
466.909	41267
466.925	38722
466.977	38197
467.004	37890
467.044	38648
467.083	39245
467.111	41372
467.163	45128
467.178	45581
467.242	46984
467.245	46984
467.312	44932
467.321	44563
467.379	46622
467.400	47226
467.446	52963
467.480	56919
467.559	43056
467.638	39071
467.717	40757
467.796	45391
467.875	50401
467.955	51165
468.034	97826
468.113	202268
468.192	246949
468.271	49738
468.350	41837
468.429	47095
468.508	45152
468.588	40058
468.667	41558
468.746	43580
468.825	39665
468.904	35462
468.983	51189
469.062	81867
469.141	84273
469.220	33953
469.299	34762
469.378	36969
469.456	38889
469.535	35800
469.614	37273
469.693	44409
469.772	60826
469.851	90624
469.930	45701
470.009	35231
470.088	35332
470.166	43479
470.245	58309
470.324	69282
470.403	51160
470.482	39935
470.560	37308
470.639	39733
470.718	44774
470.797	37711
470.875	50344
470.954	74249
471.033	66410
471.111	26953
471.190	27655
471.269	26935
471.347	27581
471.426	31873
471.505	38117
471.583	34282
471.662	30759
471.740	29310
471.819	29627
471.898	28905
471.976	28309
472.055	31207
472.133	39556
472.212	57523
472.290	54285
472.369	30020
472.447	27920
472.526	26534
472.604	29142
472.683	33058
472.761	33834
472.839	31376
472.918	30137
472.996	33996
473.075	39803
473.153	34759
473.231	30985
473.310	39760
473.388	34729
473.466	33924
473.545	37698
473.623	48579
473.701	43584
473.780	30625
473.858	30890
473.936	35011
474.014	31337
474.093	40997
474.171	64240
474.249	93550
474.327	42523
474.405	26829
474.484	26451
474.562	30007
474.640	29590
474.718	34083
474.796	30020
474.874	27099
474.952	26260
475.030	27662
475.108	29235
475.187	33012
475.265	38567
475.343	55081
475.421	54077
475.499	29190
475.577	33288
475.655	56662
475.733	123175
475.811	194280
475.889	176736
475.966	76978
476.044	33885
476.122	46422
476.200	56432
476.278	38357
476.356	30892
476.434	35281
476.512	43538
476.590	56560
476.667	42460
476.745	29735
476.823	32161
476.901	33105
476.979	34488
477.056	31201
477.134	34194
477.212	33714
477.290	31418
477.367	28082
477.445	28134
477.523	28719
477.601	29955
477.678	31952
477.756	42098
477.834	42595
477.911	28443
477.989	29719
478.066	31873
478.144	39896
478.222	43414
478.299	68271
478.377	48870
478.454	27072
478.532	27680
478.609	30468
478.687	31684
478.764	27235
478.842	29582
478.919	34059
478.997	28876
479.074	29081
479.152	40191
479.229	50380
479.307	26956
479.384	24549
479.461	25304
479.539	30473
479.616	38372
479.694	29720
479.771	36413
479.848	39128
479.926	59282
480.003	47513
480.080	26299
480.157	26771
480.235	25720
480.312	28775
480.389	39951
480.467	67836
480.544	72143
480.621	35106
480.698	35154
480.775	40718
480.853	39593
480.930	32085
481.007	34130
481.084	41307
481.161	40777
481.238	36722
481.315	27126
481.392	27995
481.470	30299
481.547	32079
481.624	29673
481.701	29981
481.778	32378
481.855	41738
481.932	66562
482.009	110397
482.086	51871
482.163	35969
482.240	52305
482.317	85046
482.393	49497
482.470	33094
482.547	34672
482.624	30110
482.701	33303
482.778	30281
482.855	25839
482.932	26485
483.009	27090
483.085	33413
483.162	40050
483.239	35912
483.316	27691
483.393	28905
483.469	28238
483.546	37544
483.623	37434
483.699	29134
483.776	30848
483.853	38780
483.930	70569
484.006	170284
484.083	240287
484.160	77046
484.236	96777
484.313	74814
484.389	61246
484.466	55110
484.543	56292
484.619	59105
484.696	63996
484.772	70287
484.849	72104
484.925	51813
485.002	53457
485.078	60146
485.155	60457
485.231	49800
485.308	50822
485.384	58177
485.461	86015
485.537	159181
485.614	148628
485.690	51749
485.766	49770
485.843	57998
485.919	82550
485.995	74108
486.072	45375
486.148	45100
486.224	46937
486.301	53604
486.377	67587
486.453	66126
486.530	54660
486.606	67590
486.682	80575
486.758	120575
486.835	130423
486.911	113136
486.987	200535
487.063	167457
487.139	193516
487.215	123138
487.292	56382
487.368	53111
487.444	67148
487.520	85515
487.596	79784
487.672	133975
487.748	306650
487.824	372113
487.900	114568
487.976	69252
488.052	74786
488.128	88306
488.204	63935
488.280	56040
488.356	86008
488.432	196150
488.508	242392
488.584	59594
488.660	46857
488.736	47099
488.812	52565
488.888	67564
488.964	102592
489.039	224558
489.115	291575
489.191	125938
489.267	52074
489.343	47330
489.418	39604
489.494	38712
489.570	37242
489.646	40533
489.722	42216
489.797	51889
489.873	104410
489.949	218475
490.024	118833
490.100	41132
490.176	42261
490.251	56729
490.327	68192
490.403	39576
490.478	36198
490.554	32170
490.629	33392
490.705	35282
490.781	39358
490.856	41953
490.932	45847
491.007	44362
491.083	43167
491.158	44385
491.234	78065
491.309	171030
491.385	119469
491.460	43336
491.536	44440
491.611	36798
491.686	45213
491.762	69737
491.837	149977
491.913	232589
491.988	331021
492.063	313392
492.139	104118
492.214	55361
492.289	31501
492.365	34981
492.440	42543
492.515	46990
492.590	40846
492.666	36915
492.741	61531
492.816	87251
492.891	33896
492.967	28256
493.042	27171
493.117	28136
493.192	29437
493.267	36596
493.342	51134
493.418	47442
493.493	27944
493.568	26335
493.643	30777
493.718	49064
493.793	77120
493.868	65195
493.943	39020
494.018	31942
494.093	31745
494.168	30928
494.243	25842
494.318	25957
494.393	26508
494.468	25756
494.543	27520
494.618	34580
494.693	28181
494.768	31311
494.842	29382
494.917	26552
494.992	29437
495.067	25866
495.142	25301
495.217	27902
495.292	29004
495.366	37385
495.441	46836
495.516	61103
495.591	109807
495.665	333621
495.740	611019
495.815	153879
495.890	47789
495.964	40313
496.039	42327
496.114	40165
496.188	43356
496.263	42625
496.338	41636
496.412	49956
496.487	53675
496.561	57566
496.636	52935
496.710	44905
496.785	54776
496.860	58780
496.934	44973
497.009	44725
497.083	43763
497.158	50132
497.232	60827
497.307	71534
497.381	56971
497.455	77203
497.530	92237
497.604	58947
497.679	71147
497.753	114581
497.827	125516
497.902	104985
497.976	144072
498.050	376499
498.125	1064619
498.199	683273
498.273	145412
498.348	118553
498.422	98775
498.496	97254
498.570	81661
498.645	65336
498.719	67700
498.793	84682
498.867	139849
498.941	195516
499.016	527060
499.090	1020801
499.164	192564
499.238	49711
499.312	50165
499.386	62553
499.460	53072
499.534	52003
499.609	70876
499.683	105456
499.757	100433
499.831	280086
499.905	822668
499.979	473479
500.053	125149
500.127	111127
500.201	73461
500.275	51256
500.349	49613
500.422	60902
500.496	100172
500.570	225371
500.644	524341
500.718	702437
500.792	93819
500.866	54942
500.940	73599
501.013	52766
501.087	61222
501.161	104983
501.235	155192
501.309	382369
501.382	843087
501.456	439997
501.530	168113
501.603	265597
501.677	65802
501.751	43692
501.825	61823
501.898	147968
501.972	355327
502.046	126452
502.119	69185
502.193	183761
502.266	365134
502.340	123762
502.413	202221
502.487	307646
502.561	151575
502.634	44102
502.708	40951
502.781	36995
502.855	31095
502.928	29836
503.002	29841
503.075	30256
503.149	32979
503.222	33595
503.295	38158
503.369	53378
503.442	98727
503.516	332083
503.589	638196
503.662	294962
503.736	139500
503.809	322815
503.882	207585
503.956	362552
504.029	227681
504.102	188201
504.175	188890
504.249	70354
504.322	59174
504.395	45745
504.468	34584
504.542	36392
504.615	25907
504.688	25666
504.761	27986
504.834	36005
504.907	45407
504.980	61694
505.053	35679
505.127	48208
505.200	50397
505.273	55898
505.346	29116
505.419	27218
505.492	24840
505.565	20267
505.638	20653
505.711	21615
505.784	22949
505.857	22068
505.930	24928
506.003	22922
506.076	28317
506.149	43969
506.221	49077
506.294	56039
506.367	174637
506.440	434741
506.513	124920
506.586	50001
506.659	27109
506.731	26426
506.804	37854
506.877	46578
506.950	29933
507.022	25850
507.095	42953
507.168	40008
507.241	23968
507.313	22964
507.386	29151
507.459	34914
507.531	21930
507.604	20566
507.677	21114
507.749	19368
507.822	31974
507.894	53843
507.967	47611
508.040	28109
508.112	27118
508.185	27149
508.257	28677
508.330	40037
508.402	25906
508.475	29652
508.547	30512
508.620	36185
508.692	55720
508.765	27622
508.837	22047
508.909	22260
508.982	23618
509.054	26071
509.127	22193
509.199	20714
509.271	19935
509.344	20083
509.416	21183
509.488	22344
509.560	23472
509.633	24976
509.705	28818
509.777	28625
509.849	39543
509.922	23844
509.994	20656
510.066	22730
510.138	24968
510.210	40824
510.283	34635
510.355	29019
510.427	26717
510.499	26377
510.571	25563
510.643	30271
510.715	48532
510.787	35219
510.859	31113
510.931	38615
511.003	47650
511.076	36192
511.148	24850
511.219	29986
511.291	61149
511.363	51196
511.435	23304
511.507	20965
511.579	22344
511.651	23448
511.723	23469
511.795	22439
511.867	27198
511.939	43014
512.010	92164
512.082	44843
512.154	25989
512.226	26333
512.298	39922
512.369	48759
512.441	38161
512.513	38774
512.585	30706
512.656	35030
512.728	36326
512.800	26211
512.871	26362
512.943	26211
513.015	23017
513.086	26559
513.158	30217
513.230	33805
513.301	49273
513.373	46812
513.444	26019
513.516	24130
513.588	26666
513.659	30548
513.731	37230
513.802	38918
513.874	84106
513.945	110147
514.016	30951
514.088	26623
514.159	31620
514.231	42750
514.302	44919
514.374	33510
514.445	45059
514.516	97156
514.588	47239
514.659	46998
514.730	85285
514.802	46199
514.873	37513
514.944	37690
515.016	35669
515.087	43810
515.158	68341
515.229	70178
515.301	41025
515.372	47701
515.443	32629
515.514	27370
515.585	24326
515.656	26482
515.728	24422
515.799	26022
515.870	27775
515.941	28157
516.012	29686
516.083	36558
516.154	41386
516.225	51914
516.296	44848
516.367	41137
516.438	50180
516.509	70142
516.580	129441
516.651	406410
516.722	1002636
516.793	257484
516.864	82896
516.935	79991
517.006	99688
517.077	166574
517.148	414930
517.219	1238688
517.289	1264683
517.360	462411
517.431	102178
517.502	51450
517.573	47621
517.643	48120
517.714	49886
517.785	50573
517.856	52203
517.926	58646
517.997	67161
518.068	86765
518.138	128899
518.209	264069
518.280	902571
518.350	1926002
518.421	521987
518.492	97570
518.562	73015
518.633	75803
518.703	78172
518.774	136639
518.845	260546
518.915	180864
518.986	79001
519.056	78734
519.127	135147
519.197	219505
519.268	459585
519.338	168177
519.408	65590
519.479	75163
519.549	46507
519.620	37161
519.690	29456
519.760	33063
519.831	33861
519.901	32202
519.971	29541
520.042	34258
520.112	42196
520.182	43583
520.253	43067
520.323	31911
520.393	40482
520.463	45271
520.534	44917
520.604	64875
520.674	39870
520.744	51255
520.814	84192
520.885	82959
520.955	194068
521.025	480451
521.095	91789
521.165	34272
521.235	34276
521.305	28811
521.375	27613
521.445	33689
521.515	42693
521.585	49768
521.655	40325
521.725	37951
521.795	31890
521.865	29818
521.935	53716
522.005	36955
522.075	26779
522.145	30902
522.215	41812
522.285	58743
522.355	92808
522.424	161944
522.494	103348
522.564	58258
522.634	132421
522.704	262879
522.774	61510
522.843	31395
522.913	31820
522.983	38926
523.053	30001
523.122	35260
523.192	60479
523.262	177371
523.331	104137
523.401	28668
523.471	23186
523.540	26212
523.610	21074
523.680	22833
523.749	26292
523.819	36905
523.888	30807
523.958	22957
524.027	26084
524.097	27683
524.166	24642
524.236	29438
524.305	27451
524.375	23753
524.444	22718
524.514	26673
524.583	30641
524.653	37985
524.722	39718
524.791	24349
524.861	25812
524.930	23712
524.999	28756
525.069	36800
525.138	34583
525.207	39794
525.277	25843
525.346	27564
525.415	25789
525.484	29902
525.554	38608
525.623	31867
525.692	29226
525.761	30467
525.830	33103
525.900	41362
525.969	65997
526.038	99035
526.107	219691
526.176	462256
526.245	274318
526.314	140237
526.383	288706
526.452	311547
526.522	591088
526.591	394275
526.660	142482
526.729	76373
526.797	109986
526.867	273028
526.935	861494
527.004	1136434
527.073	368623
527.142	51405
527.211	34391
527.280	40920
527.349	35467
527.418	23757
527.487	24085
527.555	22551
527.624	20130
527.693	20236
527.762	23022
527.831	20137
527.899	22193
527.968	21776
528.037	22638
528.106	33146
528.174	52750
528.243	44194
528.312	76162
528.380	65411
528.449	24240
528.518	21185
528.586	17450
528.655	19210
528.723	18426
528.792	19548
528.861	22971
528.929	18485
528.998	18308
529.066	18257
529.135	18730
529.203	18434
529.272	18588
529.340	20530
529.409	21822
529.477	22317
529.545	32538
529.614	31368
529.682	39891
529.751	37787
529.819	40157
529.887	24736
529.956	22295
530.024	22044
530.092	20434
530.161	28237
530.229	37646
530.297	22285
530.365	20606
530.434	19528
530.502	19397
530.570	19509
530.638	18344
530.707	22255
530.775	22050
530.843	20223
530.911	19015
530.979	19796
531.047	21021
531.115	21429
531.183	20493
531.252	20960
531.320	21430
531.388	20138
531.456	20535
531.524	18820
531.592	22111
531.660	24487
531.728	20755
531.796	19290
531.864	20242
531.932	20511
532.000	21403
532.067	22576
532.135	23509
532.203	28813
532.271	32590
532.339	59496
532.407	120989
532.475	50429
532.542	33299
532.610	41667
532.678	72842
532.746	267920
532.814	394376
532.881	71688
532.949	25306
533.017	24341
533.084	22668
533.152	21439
533.220	23856
533.287	25568
533.355	20978
533.423	21467
533.490	20500
533.558	22167
533.625	22891
533.693	23665
533.761	23601
533.828	25502
533.896	26767
533.963	50054
534.031	54092
534.098	71329
534.166	28912
534.233	21750
534.300	22674
534.368	24719
534.435	23349
534.503	22642
534.570	25375
534.637	25634
534.705	29742
534.772	39225
534.840	74140
534.907	248504
534.974	180567
535.041	34776
535.109	32839
535.176	20920
535.243	21977
535.310	24284
535.378	20783
535.445	19728
535.512	19071
535.579	21701
535.646	20563
535.714	21971
535.781	24262
535.848	24260
535.915	24626
535.982	23341
536.049	22217
536.116	24568
536.183	23595
536.250	24293
536.317	24921
536.384	32213
536.451	41983
536.518	39203
536.585	31432
536.652	41830
536.719	51054
536.786	37174
536.853	34616
536.920	57884
536.987	78670
537.053	88583
537.120	278646
537.187	129031
537.254	25296
537.321	24728
537.388	25426
537.454	21738
537.521	21656
537.588	22403
537.654	24337
537.721	25897
537.788	25838
537.855	21877
537.921	23377
537.988	24013
538.055	23584
538.121	23998
538.188	29590
538.254	47023
538.321	72709
538.388	36501
538.454	26159
538.521	22820
538.587	20865
538.654	21886
538.720	21340
538.787	23047
538.853	26680
538.920	32851
538.986	32819
539.053	26566
539.119	27390
539.185	26698
539.252	33244
539.318	43383
539.385	30819
539.451	30544
539.517	32220
539.583	44394
539.650	107680
539.716	167574
539.782	36328
539.849	25278
539.915	26729
539.981	28350
540.047	31981
540.114	29012
540.180	30581
540.246	30605
540.312	46361
540.378	79902
540.444	68223
540.510	106665
540.576	188602
540.643	41302
540.709	24509
540.775	24532
540.841	27348
540.907	40109
540.973	47890
541.039	43502
541.105	40445
541.171	27119
541.237	25693
541.303	28085
541.369	32470
541.435	45365
541.500	62256
541.566	33754
541.632	23388
541.698	23479
541.764	22978
541.830	22354
541.896	22829
541.961	23805
542.027	24397
542.093	24496
542.159	27059
542.224	32291
542.290	45803
542.356	69685
542.421	59583
542.487	30021
542.553	26989
542.618	30856
542.684	25514
542.750	29145
542.815	39422
542.881	75497
542.947	196786
543.012	79161
543.078	24696
543.143	23998
543.209	27431
543.274	27735
543.340	38029
543.405	88758
543.471	86928
543.536	25142
543.602	24957
543.667	22685
543.732	23054
543.798	23571
543.863	23863
543.928	22071
543.994	21321
544.059	23348
544.124	22348
544.190	23259
544.255	24005
544.320	25176
544.386	27604
544.451	37816
544.516	41570
544.581	51655
544.646	140771
544.712	130774
544.777	32618
544.842	33088
544.907	35220
544.972	29676
545.037	29578
545.102	32184
545.168	32013
545.233	34831
545.298	37759
545.363	43630
545.428	47793
545.493	89800
545.558	138170
545.623	45975
545.688	30738
545.753	31755
545.818	31840
545.883	32824
545.947	33009
546.012	37744
546.077	36252
546.142	35299
546.207	34984
546.272	45426
546.337	42521
546.401	36601
546.466	35017
546.531	34923
546.596	38826
546.661	37412
546.725	36290
546.790	34794
546.855	36787
546.919	37808
546.984	41759
547.049	47321
547.113	54271
547.178	48404
547.243	56982
547.307	63481
547.372	74497
547.436	72601
547.501	60851
547.565	65797
547.630	70473
547.695	69415
547.759	78583
547.823	63680
547.888	60340
547.952	60753
548.017	66884
548.081	76098
548.146	88128
548.210	73395
548.274	66706
548.339	62971
548.403	59198
548.468	56793
548.532	57294
548.596	60438
548.660	61292
548.725	70611
548.789	79498
548.853	74752
548.917	68829
548.982	87499
549.046	71465
549.110	54707
549.174	56521
549.238	61642
549.303	61834
549.367	65471
549.431	61569
549.495	59519
549.559	62290
549.623	71222
549.687	81429
549.751	91710
549.815	86628
549.879	82086
549.943	79838
550.007	86003
550.071	84294
550.135	87800
550.199	76331
550.263	73833
550.327	81111
550.391	91508
550.455	79620
550.519	82929
550.582	90573
550.646	110684
550.710	101772
550.774	92875
550.838	94954
550.901	96702
550.965	103782
551.029	111750
551.093	125661
551.156	155139
551.220	235669
551.284	204616
551.347	146859
551.411	236382
551.475	173003
551.538	98313
551.602	89379
551.666	86156
551.729	80350
551.793	81042
551.856	80112
551.920	78385
551.983	78182
552.047	77301
552.110	77136
552.174	78617
552.237	80045
552.301	74029
552.364	71670
552.428	71273
552.491	73702
552.554	75250
552.618	78478
552.681	83468
552.745	86671
552.808	115088
552.871	125906
552.934	90463
552.998	79934
553.061	78598
553.124	71636
553.187	72702
553.251	73427
553.314	74270
553.377	73983
553.440	80768
553.503	89814
553.567	88152
553.630	77057
553.693	76190
553.756	76472
553.819	73397
553.882	72422
553.945	73263
554.008	72018
554.071	72403
554.134	71906
554.197	69775
554.260	67805
554.323	72289
554.386	71661
554.449	71579
554.512	72274
554.575	71389
554.638	70736
554.701	69079
554.764	68392
554.827	66038
554.889	63057
554.952	59640
555.015	60970
555.078	61617
555.141	61841
555.203	60477
555.266	61421
555.329	62254
555.391	58582
555.454	61284
555.517	59184
555.580	55894
555.642	53031
555.705	52258
555.768	53437
555.830	52379
555.893	49170
555.955	49951
556.018	49020
556.080	49492
556.143	51204
556.206	50631
556.268	52727
556.330	52663
556.393	51121
556.455	53587
556.518	71544
556.580	58906
556.643	43973
556.705	43744
556.767	44698
556.830	46322
556.892	50751
556.955	64309
557.017	47714
557.079	43521
557.142	45396
557.204	52275
557.266	83407
557.328	54969
557.391	38140
557.453	38257
557.515	39392
557.577	47490
557.639	42370
557.701	37878
557.764	36873
557.826	39995
557.888	44498
557.950	44838
558.012	52061
558.074	72989
558.136	157005
558.198	244124
558.260	66720
558.322	44724
558.384	47655
558.446	51273
558.508	61042
558.570	80570
558.632	127629
558.694	171576
558.756	229360
558.818	637357
558.880	963454
558.942	250685
559.003	266370
559.065	90173
559.127	57522
559.189	64828
559.251	84877
559.312	135102
559.374	324603
559.436	733608
559.498	203204
559.559	61838
559.621	64124
559.683	91980
559.744	162448
559.806	452958
559.868	401061
559.929	78840
559.991	78199
560.052	131761
560.114	276565
560.176	134417
560.237	191259
560.299	199200
560.360	46730
560.422	35770
560.483	35786
560.545	34189
560.606	33379
560.667	31239
560.729	30344
560.790	30020
560.852	30033
560.913	30998
560.974	29323
561.036	29877
561.097	29197
561.158	29603
561.220	31918
561.281	30909
561.342	33416
561.403	40263
561.465	51076
561.526	102981
561.587	91745
561.648	34040
561.709	30336
561.771	29832
561.832	29343
561.893	27912
561.954	28116
562.015	29426
562.076	29142
562.137	29196
562.198	28751
562.259	29309
562.320	30154
562.381	35121
562.442	45106
562.503	33539
562.564	29464
562.625	28473
562.686	29912
562.747	33896
562.808	29020
562.869	32136
562.930	37213
562.991	34019
563.051	32230
563.112	30378
563.173	29112
563.234	27839
563.294	29029
563.355	30294
563.416	29853
563.477	29625
563.537	30728
563.598	31302
563.659	29887
563.720	30647
563.780	30172
563.841	30106
563.901	29300
563.962	29230
564.023	29430
564.083	30735
564.144	30020
564.204	31307
564.265	33926
564.325	40604
564.386	74305
564.446	47048
564.507	27930
564.567	28402
564.628	28978
564.688	28359
564.749	29591
564.809	34739
564.869	38329
564.930	28166
564.990	28163
565.050	27688
565.111	27627
565.171	27592
565.231	26920
565.292	27659
565.352	26415
565.412	27968
565.472	29941
565.532	29150
565.593	29104
565.653	28027
565.713	29611
565.773	32289
565.833	36557
565.893	39592
565.953	29553
566.013	30004
566.074	33850
566.134	45106
566.194	65609
566.254	54174
566.314	37823
566.374	31034
566.434	30710
566.494	31182
566.554	30901
566.614	31975
566.673	32980
566.733	35469
566.793	35625
566.853	36248
566.913	36131
566.973	37449
567.033	40082
567.092	38424
567.152	37053
567.212	37510
567.272	38669
567.331	40832
567.391	40273
567.451	45154
567.511	57008
567.570	49733
567.630	35972
567.690	35004
567.749	36849
567.809	37304
567.868	43056
567.928	46024
567.988	53137
568.047	57713
568.107	70589
568.166	92919
568.226	138373
568.285	165301
568.345	131843
568.404	105910
568.464	92995
568.523	89641
568.582	95754
568.642	110864
568.701	139864
568.761	202330
568.820	287093
568.879	250799
568.939	186565
568.998	134367
569.057	104443
569.116	86079
569.176	71233
569.235	60522
569.294	56244
569.353	49374
569.413	48234
569.472	44455
569.531	39891
569.590	36201
569.649	36039
569.708	35668
569.767	37169
569.827	41913
569.886	34157
569.945	30240
570.004	31344
570.063	31469
570.122	32532
570.181	34202
570.240	37014
570.299	36219
570.358	36151
570.417	28391
570.475	27593
570.534	29464
570.593	29114
570.652	31760
570.711	30375
570.770	28776
570.829	30248
570.887	30272
570.946	30559
571.005	26572
571.064	26635
571.122	30161
571.181	32362
571.240	26002
571.299	25248
571.357	28989
571.416	28569
571.475	34553
571.533	30068
571.592	27402
571.650	27770
571.709	25238
571.768	24677
571.826	25174
571.885	23718
571.943	23414
572.002	25050
572.060	24669
572.119	23045
572.177	21618
572.236	21448
572.294	20259
572.352	22630
572.411	23183
572.469	22753
572.528	23464
572.586	22950
572.644	29144
572.703	33154
572.761	24690
572.819	22174
572.877	21508
572.936	22192
572.994	20657
573.052	21924
573.110	24239
573.169	20953
573.227	20646
573.285	21433
573.343	22108
573.401	21448
573.459	21471
573.517	21158
573.576	21033
573.634	21395
573.692	23550
573.750	22481
573.808	22519
573.866	24540
573.924	30856
573.982	27273
574.040	21169
574.098	21569
574.155	20609
574.213	20771
574.271	20682
574.329	21691
574.387	19998
574.445	19457
574.503	19127
574.560	17781
574.618	18534
574.676	18857
574.734	18685
574.792	18441
574.849	18056
574.907	17425
574.965	18157
575.022	17443
575.080	17775
575.138	18587
575.195	19854
575.253	20801
575.311	20784
575.368	18534
575.426	18061
575.483	18513
575.541	18706
575.598	18683
575.656	20164
575.713	19394
575.771	18661
575.828	18646
575.886	19510
575.943	20133
576.001	20431
576.058	21134
576.115	22562
576.173	25403
576.230	27427
576.287	28394
576.345	22679
576.402	22569
576.459	22824
576.517	22471
576.574	24062
576.631	24399
576.688	22025
576.746	19384
576.803	20299
576.860	19913
576.917	19600
576.974	19409
577.031	19559
577.089	20441
577.146	19853
577.203	20169
577.260	21692
577.317	23325
577.374	26152
577.431	22823
577.488	20262
577.545	19241
577.602	19713
577.659	17949
577.716	19631
577.773	18235
577.830	18090
577.886	19168
577.943	19137
578.000	19425
578.057	20599
578.114	18615
578.171	19995
578.227	18403
578.284	19967
578.341	20504
578.398	20411
578.454	22017
578.511	25152
578.568	26059
578.625	22274
578.681	18916
578.738	18634
578.794	19192
578.851	18845
578.908	19484
578.964	21333
579.021	21481
579.077	19954
579.134	19642
579.190	18503
579.247	18248
579.303	19262
579.360	18607
579.416	18325
579.473	18109
579.529	17935
579.586	18082
579.642	18569
579.698	19469
579.755	21209
579.811	19195
579.867	18822
579.924	18139
579.980	18870
580.036	19013
580.093	19226
580.149	20849
580.205	21270
580.261	20765
580.317	21425
580.374	22538
580.430	25077
580.486	22415
580.542	20271
580.598	20535
580.619	20383
580.654	20147
580.692	20368
580.710	20523
580.765	19793
580.767	19799
580.823	20216
580.838	20351
580.879	20815
580.911	20018
580.935	19480
580.984	19828
580.991	19908
581.047	20980
581.057	20754
581.103	19850
581.130	20325
581.159	20877
581.203	20834
581.215	20855
581.270	20739
581.276	20667
581.326	20237
581.349	20057
581.382	19800
581.422	20999
581.438	21549
581.494	21077
581.494	21056
581.550	21249
581.567	21058
581.606	20684
581.640	20281
581.661	20064
581.713	20744
581.717	20817
581.773	20331
581.786	20452
581.829	20873
581.859	20673
581.885	20621
581.932	20684
581.940	20696
581.996	20806
582.004	20759
582.052	20595
582.077	20222
582.107	19832
582.150	19918
582.163	19947
582.219	21205
582.223	21154
582.274	20854
582.296	21068
582.330	21399
582.368	21148
582.386	21053
582.441	19900
582.441	19908
582.497	20414
582.514	20068
582.552	19454
582.587	20002
582.608	20352
582.659	19844
582.663	19806
582.719	19738
582.732	19801
582.774	20037
582.805	19881
582.830	19818
582.877	20114
582.885	20155
582.941	19045
582.950	19315
582.996	20824
583.023	21362
583.052	21888
583.095	21191
583.107	20998
583.162	21376
583.168	21305
583.218	20791
583.240	20579
583.273	20197
583.313	20056
583.328	20059
583.384	20497
583.385	20462
583.439	19087
583.458	18933
583.494	18798
583.531	18785
583.549	18873
583.603	19156
583.605	19146
583.660	19434
583.676	19202
583.715	18838
583.748	19803
583.770	20468
583.820	20286
583.825	20248
583.881	20741
583.893	20419
583.936	19328
583.965	18856
583.991	18385
584.038	19259
584.046	19440
584.101	19866
584.110	19718
584.156	18925
584.183	19350
584.211	19654
584.255	19072
584.266	18961
584.321	19506
584.328	19503
584.376	19310
584.400	19454
584.431	19640
584.472	19694
584.486	19692
584.541	20136
584.545	20138
584.596	19690
584.617	19816
584.651	20312
584.689	20819
584.706	20932
584.761	20954
584.762	20967
584.816	20783
584.834	20931
584.871	21113
584.906	21031
584.926	21026
584.978	21562
584.980	21558
585.035	22980
585.051	23138
585.090	23672
585.123	24089
585.145	24235
585.195	24640
585.200	24690
585.254	26197
585.267	26714
585.309	27747
585.340	28611
585.364	29577
585.412	33094
585.419	33499
585.473	39012
585.484	40883
585.528	49405
585.556	57671
585.583	67424
585.628	93002
585.637	99818
585.692	193879
585.700	203730
585.747	244678
585.772	183919
585.801	99721
585.845	48353
585.856	40062
585.910	30508
585.917	29890
585.965	27759
585.989	27168
586.019	26926
586.061	27176
586.074	27115
586.128	27391
586.133	27482
586.183	28295
586.205	28648
586.237	29035
586.277	28892
586.292	28771
586.346	28826
586.349	28919
586.401	29585
586.421	30195
586.455	31373
586.493	33835
586.509	35218
586.564	41429
586.565	41896
586.618	59510
586.637	55096
586.672	43130
586.709	36834
586.727	34349
586.781	33687
586.781	33629
586.835	32520
586.853	32262
586.889	31590
586.925	31189
586.944	31124
586.996	33316
586.998	33317
587.052	34322
587.068	34666
587.106	35146
587.140	35643
587.161	35770
587.212	36200
587.215	36187
587.269	38133
587.284	38503
587.323	39008
587.356	40086
587.377	40783
587.427	42201
587.431	42197
587.485	43789
587.499	44084
587.539	44953
587.571	46860
587.593	48243
587.643	50736
587.648	50851
587.702	53124
587.715	54040
587.755	56492
587.786	58628
587.810	60341
587.858	63401
587.864	63631
587.917	69506
587.930	70866
587.971	75367
588.001	79641
588.025	83068
588.073	88870
588.079	89515
588.133	99414
588.145	101903
588.187	109907
588.217	117204
588.241	124078
588.288	138982
588.295	140842
588.348	160697
588.360	165984
588.402	186050
588.431	202195
588.456	216689
588.503	251754
588.510	256865
588.564	308631
588.575	322247
588.617	379472
588.646	425278
588.671	473528
588.718	581257
588.725	602835
588.778	794604
588.789	837635
588.832	1067649
588.861	1208002
588.886	1312620
588.932	1390994
588.939	1373515
588.993	1282956
589.004	1299025
589.047	1338164
589.075	1271258
589.100	1133036
589.147	830085
589.154	800895
589.207	619170
589.218	589897
589.261	542201
589.290	526075
589.314	537770
589.361	582224
589.368	597836
589.421	764441
589.433	804842
589.475	1041849
589.504	1173952
589.528	1225042
589.576	1272917
589.582	1250710
589.635	1160658
589.647	1113158
589.689	829931
589.718	622678
589.742	521467
589.790	354068
589.795	342455
589.849	259047
589.861	243341
589.902	209129
589.932	183488
589.955	167104
590.004	139793
590.009	137469
590.062	119288
590.075	115466
590.115	103734
590.146	95993
590.168	91900
590.218	84574
590.222	83733
590.275	76607
590.289	74977
590.328	70940
590.360	67879
590.381	65378
590.431	60679
590.435	60231
590.488	56440
590.503	55506
590.541	53015
590.574	51408
590.594	50063
590.645	47011
590.647	46753
590.700	44181
590.716	43729
590.753	42930
590.787	42446
590.806	41587
590.859	39630
590.859	39455
590.912	37159
590.930	36675
590.965	35591
591.001	34803
591.018	34810
591.071	35027
591.072	35155
591.124	34017
591.143	33809
591.177	32613
591.214	31678
591.230	31734
591.283	32244
591.285	32388
591.336	32289
591.356	32407
591.389	31684
591.427	30901
591.442	30028
591.495	27347
591.498	27272
591.547	26508
591.569	26381
591.600	26061
591.640	25876
591.653	25814
591.706	26071
591.711	26226
591.759	26009
591.782	26139
591.811	26172
591.853	26331
591.864	26069
591.917	25151
591.924	25159
591.969	24425
591.995	24306
592.022	24308
592.066	24417
592.075	24393
592.127	25125
592.137	25426
592.180	25761
592.208	25895
592.233	24645
592.279	22790
592.285	22626
592.338	22343
592.350	22392
592.390	21360
592.421	20827
592.443	21027
592.491	21795
592.495	21638
592.548	21019
592.562	20968
592.600	20586
592.633	20463
592.653	20238
592.704	19852
592.705	19963
592.775	19995
592.846	20026
592.916	20792
592.987	21335
593.058	19963
593.128	19780
593.199	19509
593.270	19114
593.341	19027
593.411	19123
593.482	19328
593.553	19744
593.623	17437
593.694	19426
593.764	19283
593.835	18643
593.906	18417
593.976	18581
594.047	19105
594.117	21365
594.188	21069
594.258	18934
594.329	18951
594.399	19469
594.470	19104
594.540	20760
594.611	19145
594.681	19448
594.751	18294
594.822	20483
594.892	20405
594.963	21278
595.033	19584
595.103	20729
595.174	22016
595.244	25222
595.314	27593
595.384	22066
595.455	21679
595.525	22106
595.595	22048
595.665	22488
595.736	20958
595.806	22071
595.876	21606
595.946	21640
596.016	21950
596.087	23209
596.157	22516
596.227	22452
596.297	23870
596.367	24360
596.437	27357
596.507	28340
596.577	31739
596.647	26426
596.717	25612
596.787	26188
596.857	26084
596.927	26708
596.997	27023
597.067	27535
597.137	27128
597.207	27245
597.277	27432
597.347	27093
597.417	26000
597.487	26590
597.557	27357
597.626	27097
597.696	27764
597.766	29720
597.836	31171
597.906	27516
597.975	24569
598.045	24534
598.115	24367
598.185	26511
598.254	29890
598.324	31389
598.394	32552
598.464	31332
598.533	30423
598.603	29103
598.672	27538
598.742	27960
598.812	27769
598.881	28617
598.951	28187
599.020	29496
599.090	29276
599.159	31081
599.229	29118
599.299	28307
599.368	28428
599.437	28734
599.507	26613
599.576	27317
599.646	25841
599.715	25962
599.785	25508
599.854	25814
599.924	26303
599.993	24880
600.062	24506
600.132	25935
600.201	26420
600.270	30531
600.340	31772
600.409	30007
600.478	29833
600.547	31373
600.617	29493
600.686	25818
600.755	23660
600.824	23771
600.894	22169
600.963	21436
601.032	21280
601.101	21827
601.170	20273
601.239	19789
601.308	21433
601.378	21059
601.447	20725
601.516	20524
601.585	21512
601.654	21984
601.723	21078
601.792	20939
601.861	22075
601.930	24385
601.999	24138
602.068	22695
602.137	23738
602.206	24353
602.275	23693
602.343	26208
602.412	25885
602.481	24728
602.550	23257
602.619	23348
602.688	24707
602.756	23943
602.825	24896
602.894	24974
602.963	24430
603.032	25147
603.100	24743
603.169	25707
603.238	24886
603.307	25703
603.375	26073
603.444	25605
603.513	25671
603.581	26012
603.650	26759
603.719	26245
603.787	25930
603.856	26272
603.924	27646
603.993	27899
604.061	28029
604.130	29997
604.198	30659
604.267	31670
604.335	30710
604.404	29911
604.472	31353
604.541	32091
604.609	32777
604.678	31445
604.746	32383
604.815	33388
604.883	33280
604.951	34105
605.020	33100
605.088	33739
605.156	34260
605.225	35044
605.293	34014
605.361	35349
605.429	35389
605.498	35915
605.566	37607
605.634	38983
605.702	38990
605.771	39425
605.839	40419
605.907	40052
605.975	38503
606.043	37709
606.111	37482
606.180	37380
606.248	36278
606.316	37269
606.384	37717
606.452	39784
606.520	40176
606.588	38905
606.656	37995
606.724	37686
606.792	34981
606.860	32587
606.928	28665
606.996	28441
607.064	28192
607.132	29240
607.200	29687
607.267	31260
607.335	31312
607.403	32596
607.471	32192
607.539	31458
607.607	30588
607.674	27977
607.742	28895
607.810	28607
607.878	26923
607.946	28162
608.013	29353
608.081	30452
608.149	30461
608.216	31032
608.284	31702
608.352	32356
608.419	30051
608.487	33546
608.555	31087
608.622	31419
608.690	31808
608.757	35264
608.825	36400
608.893	35243
608.960	34832
609.028	35510
609.095	35280
609.163	33645
609.230	29397
609.298	27753
609.365	27880
609.432	30933
609.500	33518
609.567	37103
609.635	42097
609.702	44015
609.769	42958
609.837	35331
609.904	30411
609.971	31652
610.039	37611
610.106	47926
610.173	90568
610.241	208949
610.308	174135
610.375	95669
610.442	39930
610.509	31568
610.577	31951
610.644	30765
610.711	32175
610.778	33195
610.845	32959
610.912	35382
610.980	37221
611.047	37013
611.114	36664
611.181	35819
611.248	34269
611.315	37700
611.382	37202
611.449	37916
611.516	39788
611.583	38567
611.650	39098
611.717	39938
611.784	41109
611.851	42779
611.918	45571
611.984	55157
612.051	79746
612.118	162709
612.185	402643
612.252	245942
612.319	63052
612.386	50481
612.452	47422
612.519	43686
612.586	47280
612.653	45302
612.719	45716
612.786	44166
612.853	39883
612.919	39099
612.986	40720
613.053	37711
613.120	34544
613.186	35312
613.253	36748
613.319	36261
613.386	35019
613.453	35382
613.519	38257
613.586	39826
613.652	45704
613.719	40662
613.785	38849
613.852	37224
613.918	35148
613.985	37192
614.051	37649
614.118	40580
614.184	38222
614.250	36334
614.317	35785
614.383	35943
614.449	36880
614.516	37440
614.582	36827
614.648	36656
614.715	36607
614.781	34945
614.847	36121
614.914	35092
614.980	34624
615.046	35657
615.112	36418
615.179	36329
615.245	38029
615.311	41228
615.377	52032
615.443	53815
615.509	42223
615.575	40544
615.642	38116
615.708	39979
615.774	43185
615.840	47193
615.906	54426
615.972	74857
616.038	127912
616.104	230340
616.170	506795
616.236	420160
616.302	93015
616.368	64877
616.434	48877
616.500	47486
616.565	49718
616.631	58761
616.697	49692
616.763	51064
616.829	72709
616.895	121994
616.961	115181
617.026	53714
617.092	39799
617.158	39094
617.224	36717
617.289	35729
617.355	33957
617.421	32950
617.487	33807
617.552	32034
617.618	32366
617.684	31018
617.749	33687
617.815	29966
617.880	29747
617.946	30469
618.012	30783
618.077	32488
618.143	30388
618.208	31918
618.274	32754
618.339	33360
618.405	27605
618.470	28317
618.536	27663
618.601	29065
618.667	28085
618.732	26334
618.798	25789
618.863	26327
618.928	25864
618.994	26539
619.059	27834
619.124	33047
619.190	27955
619.255	25204
619.320	25171
619.386	26324
619.451	25043
619.516	24105
619.581	24235
619.647	25763
619.712	25420
619.777	25278
619.842	26019
619.907	26035
619.972	24917
620.038	26178
620.103	24556
620.168	24167
620.233	24386
620.298	25298
620.363	24306
620.428	26270
620.493	25835
620.558	26071
620.623	25956
620.688	26734
620.753	26826
620.818	27533
620.883	26675
620.948	26744
621.013	26301
621.078	25772
621.143	25771
621.207	29203
621.272	26788
621.337	27373
621.402	27703
621.467	28713
621.532	28893
621.596	27962
621.661	26950
621.726	25958
621.791	24923
621.855	27286
621.920	26831
621.985	27645
622.049	28846
622.114	27923
622.179	27615
622.243	28417
622.308	27131
622.373	30542
622.437	28696
622.502	27689
622.566	26467
622.631	26836
622.695	28066
622.760	28604
622.824	27914
622.889	28273
622.953	28264
623.018	36959
623.082	35151
623.147	29855
623.211	28445
623.276	28000
623.340	26427
623.404	26282
623.469	25568
623.533	26708
623.597	25152
623.662	25725
623.726	24684
623.790	22581
623.854	23311
623.919	23264
623.983	23561
624.047	23902
624.111	23453
624.176	24281
624.240	24282
624.304	26871
624.368	24354
624.432	23873
624.496	25556
624.560	26609
624.625	27022
624.689	25913
624.753	25268
624.817	24661
624.881	24096
624.945	22553
625.009	21820
625.073	23187
625.137	22650
625.201	27441
625.265	26854
625.329	23444
625.393	24778
625.456	23835
625.520	23725
625.584	25382
625.648	27054
625.712	31492
625.776	47459
625.839	52015
625.903	27467
625.967	20717
626.031	28585
626.095	36747
626.158	23593
626.222	17545
626.286	17383
626.349	15919
626.413	15227
626.477	17455
626.540	16105
626.604	16085
626.668	17107
626.731	16080
626.795	15539
626.858	16855
626.922	15533
626.986	16042
627.049	13831
627.113	16213
627.176	14697
627.240	15345
627.303	14467
627.366	15176
627.430	13978
627.493	15204
627.557	14118
627.620	16284
627.684	14720
627.747	16024
627.810	12420
627.874	14306
627.937	11952
628.000	14870
628.064	13068
628.127	10721
628.190	11658
628.253	13120
628.317	11375
628.380	11975
628.443	10740
628.506	11988
628.569	10837
628.632	9862
628.696	10274
628.759	9433
628.822	9665
628.885	9193
628.948	10432
629.011	9560
629.074	8970
629.137	9418
629.200	9322
629.263	10110
629.326	8016
629.389	9212
629.452	9674
629.515	9251
629.578	9188
629.641	9672
629.704	8280
629.767	9335
629.830	8382
629.892	8437
629.955	7730
630.018	10280
630.081	9038
630.144	10968
630.207	8679
630.269	9921
630.332	8075
630.395	8525
630.458	7415
630.520	6580
630.583	9070
630.646	8324
630.708	7694
630.771	7432
630.834	8662
630.896	8097
630.959	7524
631.021	7804
631.084	7395
631.146	7853
631.209	8858
631.272	7063
631.334	7151
631.397	7840
631.459	7033
631.522	7960
631.584	8231
631.646	9833
631.709	8841
631.771	9866
631.834	8104
631.896	8035
631.958	7223
632.021	9217
632.083	6458
632.145	7670
632.208	6602
632.270	8113
632.332	6108
632.395	6118
632.457	7940
632.519	6907
632.581	7878
632.643	6706
632.706	7824
632.768	6820
632.830	6852
632.892	6555
632.954	6931
633.016	7648
633.078	5923
633.141	7045
633.203	7305
633.265	8290
633.327	7217
633.389	6325
633.451	7905
633.513	8755
633.575	9269
633.637	8903
633.698	7638
633.760	7894
633.822	7581
633.884	7545
633.946	6780
634.008	8216
634.070	6987
634.132	7700
634.193	7524
634.255	8929
634.317	8175
634.379	8748
634.441	8114
634.502	7406
634.564	8001
634.626	7097
634.687	6876
634.749	6728
634.811	7115
634.873	6734
634.934	6606
634.996	7016
635.057	5275
635.119	5559
635.181	6946
635.242	7201
635.304	4106
635.365	8483
635.427	5890
635.488	6974
635.550	5756
635.611	6326
635.673	4407
635.734	7806
635.796	6903
635.857	8645
635.918	7161
635.980	7997
636.041	7656
636.102	8963
636.164	9368
636.225	9784
636.286	5884
636.348	8319
636.409	6585
636.470	5983
636.531	6274
636.593	5942
636.654	6175
636.715	6359
636.776	6227
636.838	5368
636.899	5963
636.960	5744
637.021	5253
637.082	5914
637.143	6339
637.204	4898
637.265	4641
637.326	6094
637.387	5437
637.448	4866
637.509	5267
637.570	5508
637.631	5667
637.692	4435
637.753	4111
637.814	5679
637.875	5477
637.936	5667
637.997	5104
638.058	4805
638.119	5099
638.179	5107
638.240	4832
638.301	5195
638.362	4135
638.423	4611
638.483	6045
638.544	3541
638.605	4647
638.666	4699
638.726	5387
638.787	5801
638.848	4181
638.908	5675
638.969	5049
639.030	4598
639.090	3651
639.151	3954
639.211	6168
639.272	6520
639.332	10321
639.393	7552
639.453	4160
639.514	5739
639.574	4087
639.635	4600
639.695	4752
639.756	4263
639.816	4430
639.877	5128
639.937	9414
639.997	10962
640.058	4574
640.118	3886
640.178	4738
640.239	4114
640.299	4796
640.359	3633
640.420	4316
640.480	4857
640.540	4358
640.600	5201
640.661	4417
640.721	4938
640.781	6736
640.841	3566
640.901	5357
640.961	4732
641.021	4199
641.082	4736
641.142	7018
641.202	5964
641.262	2733
641.322	4516
641.382	2946
641.442	4538
641.502	4052
641.562	4668
641.622	3378
641.682	4653
641.742	4260
641.802	5041
641.861	4953
641.921	4845
641.981	5700
642.041	5310
642.101	5327
642.161	3599
642.221	3935
642.280	3520
642.340	3923
642.400	2611
642.460	4302
642.519	3665
642.579	3933
642.639	5234
642.698	1710
642.758	5273
642.818	4088
642.877	2474
642.937	4324
642.997	4673
643.056	6972
643.116	4051
643.175	5198
643.235	4457
643.294	4849
643.354	4791
643.414	4978
643.473	6489
643.532	7339
643.592	9447
643.651	16886
643.711	30614
643.770	57908
643.830	142664
643.889	319322
643.948	73054
644.008	11351
644.067	7690
644.126	4982
644.186	5262
644.245	5175
644.304	2743
644.363	6190
644.423	2909
644.482	4403
644.541	4229
644.600	3260
644.659	4955
644.719	5301
644.778	8520
644.837	13152
644.896	27461
644.955	66407
645.014	22785
645.073	5397
645.132	4042
645.191	3696
645.250	3286
645.309	4953
645.368	4358
645.427	5204
645.486	6663
645.545	13531
645.604	5089
645.663	3686
645.722	3078
645.781	4816
645.840	5617
645.898	5603
645.957	9666
646.016	13120
646.075	27378
646.134	52445
646.192	142048
646.251	219303
646.310	29907
646.369	8454
646.427	6665
646.486	3847
646.545	4185
646.603	3447
646.662	3374
646.721	3854
646.779	3100
646.838	2151
646.896	4435
646.955	5425
647.014	7741
647.072	14533
647.131	40973
647.189	20683
647.248	3082
647.306	3709
647.365	3989
647.423	665
647.481	4370
647.540	1187
647.598	2598
647.657	2150
647.715	3674
647.773	2082
647.832	3841
647.890	1936
647.948	2085
648.007	2511
648.065	1843
648.123	1889
648.181	3103
648.240	2719
648.298	2580
648.356	2072
648.414	2680
648.472	1694
648.531	2253
648.589	1902
648.647	1694
648.705	2569
648.763	2955
648.821	2230
648.879	2863
648.937	3084
648.995	3359
649.053	4858
649.111	7745
649.169	11198
649.227	20117
649.285	40042
649.343	121227
649.401	61118
649.459	14164
649.516	9364
649.574	3371
649.632	4665
649.690	4649
649.748	4800
649.806	5015
649.863	10006
649.921	29230
649.979	19324
650.037	3403
650.094	700
650.152	2070
650.210	1327
650.268	2493
650.325	2093
650.383	1527
650.440	1003
650.498	2289
650.556	1759
650.613	1465
650.671	2177
650.728	2432
650.786	2731
650.843	2079
650.901	583
650.958	1599
651.016	1311
651.073	1732
651.131	1355
651.188	64
651.246	1893
651.303	541
651.360	1684
651.418	1480
651.475	1174
651.532	351
651.590	2253
651.647	942
651.704	1242
651.762	1788
651.819	2188
651.876	1398
651.933	1646
651.990	1695
652.048	-130
652.105	1082
652.162	1799
652.219	1002
652.276	2030
652.333	971
652.390	-392
652.448	1839
652.505	1579
652.562	756
652.619	1082
652.676	1151
652.733	1571
652.790	157
652.847	-377
652.904	2500
652.961	5
653.017	487
653.074	1436
653.131	1152
653.188	726
653.245	1429
653.302	1082
653.359	468
653.415	1452
653.472	750
653.529	1666
653.586	620
653.642	1066
653.699	1407
653.756	128
653.813	352
653.869	1719
653.926	676
653.983	587
654.039	777
654.096	1454
654.152	2903
654.209	808
654.266	1124
654.322	1182
654.379	1783
654.435	1437
654.492	933
654.548	2424
654.605	3028
654.661	2613
654.717	1216
654.774	1690
654.830	1201
654.887	718
654.943	979
655.000	1588
655.056	1800
655.112	1428
655.168	744
655.225	1135
655.281	1876
655.337	1852
655.394	2562
655.450	2705
655.506	1356
655.562	2909
655.618	3889
655.675	681
655.731	1631
655.787	1509
655.843	2179
655.899	602
655.955	1788
656.011	1712
656.067	615
656.123	2150
656.179	2203
656.235	2206
656.291	772
656.347	2735
656.403	1676
656.459	1129
656.515	1252
656.571	1544
656.627	1477
656.683	1495
656.739	1602
656.795	893
656.850	1278
656.906	1819
656.962	2144
657.018	156
657.074	614
657.129	993
657.185	1839
657.241	3759
657.297	1905
657.352	2082
657.408	873
657.464	1433
657.519	810
657.575	574
657.630	1282
657.686	785
657.742	-57
657.797	98
657.853	344
657.908	1931
657.964	440
658.019	706
658.075	1447
658.130	433
658.186	141
658.241	1022
658.297	-151
658.352	133
658.407	801
658.463	43
658.518	1100
658.573	525
658.629	46
658.684	-18
658.739	1812
658.795	-191
658.850	613
658.905	233
658.960	1403
659.016	646
659.071	1053
659.126	622
659.181	1176
659.236	3246
659.291	4120
659.346	1323
659.401	991
659.457	309
659.512	1098
659.567	2270
659.622	767
659.677	196
659.732	29
659.787	814
659.842	969
659.897	776
659.952	1179
660.007	75
660.061	1083
660.116	-471
660.171	786
660.226	1373
660.281	1996
660.336	187
660.391	660
660.445	-301
660.500	466
660.555	679
660.610	-155
660.664	759
660.719	633
660.774	745
660.828	1414
660.883	1134
660.938	1119
660.992	239
661.047	1879
661.101	419
661.156	787
661.211	48
661.265	939
661.320	670
661.374	297
661.429	-14
661.483	1273
661.538	-1197
661.592	671
661.647	311
661.701	1237
661.755	477
661.810	562
661.864	577
661.919	696
661.973	714
662.027	223
662.081	-259
662.136	736
662.190	813
662.244	1263
662.299	574
662.353	238
662.407	45
662.461	370
662.515	197
662.569	417
662.624	1545
662.678	619
662.732	490
662.786	-49
662.840	54
662.894	782
662.948	404
663.002	377
663.056	512
663.110	181
663.164	404
663.218	706
663.272	39
663.326	616
663.380	646
663.434	1178
663.488	516
663.542	665
663.595	218
663.649	758
663.703	543
663.757	760
663.811	-479
663.864	536
663.918	461
663.972	56
664.026	699
664.079	-18
664.133	847
664.187	657
664.240	462
664.294	787
664.348	315
664.401	1216
664.455	-438
664.508	818
664.562	392
664.615	539
664.669	-126
664.722	827
664.776	-4
664.829	748
664.883	164
664.936	488
664.990	297
665.043	1365
665.097	607
665.150	1795
665.203	3
665.257	915
665.310	1299
665.363	1108
665.417	370
665.470	454
665.523	580
665.576	736
665.630	735
665.683	1031
665.736	1440
665.789	991
665.842	1158
665.895	1039
665.949	441
666.002	1236
666.055	979
666.108	1680
666.161	163
666.214	989
666.267	1209
666.320	1878
666.373	800
666.426	866
666.479	944
666.532	1029
666.585	1415
666.638	1715
666.691	1102
666.744	1870
666.796	1565
666.849	1757
666.902	1258
666.955	1136
667.008	297
667.060	1441
667.113	906
667.166	760
667.219	672
667.271	583
667.324	781
667.377	1240
667.430	7
667.482	1355
667.535	491
667.587	1313
667.640	1274
667.693	1725
667.745	2267
667.798	4057
667.850	1581
667.903	1061
667.955	940
668.008	1285
668.060	1814
668.113	1585
668.165	2084
668.218	2017
668.270	1090
668.322	1639
668.375	1139
668.427	2007
668.479	1499
668.532	1734
668.584	1486
668.636	876
668.689	1685
668.741	720
668.793	1163
668.845	1816
668.898	1014
668.950	1717
669.002	1942
669.054	648
669.106	497
669.158	1368
669.211	1483
669.263	1449
669.315	1815
669.367	1823
669.419	1385
669.471	3323
669.523	2394
669.575	3255
669.627	2168
669.679	939
669.731	2401
669.783	1865
669.835	2277
669.886	1950
669.938	2203
669.990	2105
670.042	2026
670.094	3086
670.146	2730
670.197	3110
670.249	4528
670.301	5556
670.353	7215
670.404	11200
670.456	16179
670.508	27510
670.560	45690
670.611	78612
670.663	139405
670.715	332208
670.766	538905
670.818	197489
670.869	37062
670.921	17755
670.972	11498
671.024	7875
671.075	6616
671.127	5450
671.178	4048
671.230	3669
671.281	2845
671.333	2890
671.384	3156
671.436	3372
671.487	3439
671.538	4168
671.590	5079
671.641	6969
671.692	12060
671.744	24307
671.795	17113
671.846	6348
671.897	3305
671.949	2574
672.000	2488
672.051	2742
672.102	2201
672.153	2617
672.204	1361
672.256	2340
672.307	2005
672.358	1761
672.409	1237
672.460	1136
672.511	1367
672.562	1421
672.613	757
672.664	1308
672.715	1741
672.766	1596
672.817	2206
672.868	838
672.919	1064
672.970	1876
673.021	280
673.071	1349
673.122	1332
673.173	1673
673.224	1545
673.275	1445
673.326	553
673.376	1241
673.427	1152
673.478	840
673.528	1329
673.579	1413
673.630	940
673.680	2348
673.731	483
673.782	1065
673.832	792
673.883	1585
673.934	1076
673.984	1491
674.035	1042
674.085	1438
674.136	1088
674.186	1901
674.237	1980
674.287	4025
674.338	1708
674.388	521
674.438	700
674.489	978
674.539	1627
674.589	1261
674.640	1834
674.690	1371
674.740	1070
674.791	945
674.841	974
674.891	1431
674.942	1082
674.992	1598
675.042	841
675.092	475
675.142	793
675.193	862
675.243	799
675.293	2183
675.343	1326
675.393	1837
675.443	1033
675.493	1003
675.543	1141
675.593	1438
675.643	984
675.693	909
675.743	1266
675.793	1418
675.843	343
675.893	1265
675.943	1215
675.993	1747
676.043	1743
676.093	1434
676.142	-24
676.192	1579
676.242	-41
676.292	1319
676.341	444
676.391	764
676.441	458
676.491	730
676.540	788
676.590	315
676.640	1066
676.689	823
676.739	269
676.789	820
676.838	186
676.888	910
676.937	832
676.987	255
677.037	1271
677.086	458
677.136	590
677.185	405
677.235	177
677.284	1162
677.333	473
677.383	375
677.432	285
677.482	431
677.531	1371
677.580	1074
677.630	792
677.679	713
677.728	690
677.778	1151
677.827	4
677.876	1014
677.925	-121
677.975	393
678.024	-152
678.073	417
678.122	771
678.171	518
678.220	477
678.269	788
678.319	1115
678.368	948
678.417	684
678.466	876
678.515	1649
678.564	880
678.613	-20
678.662	189
678.711	723
678.760	128
678.809	600
678.857	1045
678.906	601
678.955	258
679.004	670
679.053	779
679.102	544
679.151	1104
679.199	-400
679.248	862
679.297	424
679.346	963
679.394	157
679.443	365
679.492	1072
679.540	1393
679.589	419
679.638	988
679.686	960
679.735	1030
679.784	717
679.832	1160
679.881	833
679.929	394
679.978	399
680.026	624
680.075	995
680.123	340
680.172	446
680.220	374
680.268	-85
680.317	658
680.365	444
680.414	817
680.462	469
680.510	1143
680.559	331
680.607	234
680.655	822
680.703	454
680.752	731
680.800	217
680.848	321
680.896	464
680.945	549
680.993	491
681.041	479
681.089	779
681.137	429
681.185	291
681.233	126
681.258	742
681.281	1309
681.329	504
681.377	788
681.380	799
681.425	653
681.473	630
681.502	505
681.521	391
681.569	1348
681.617	437
681.624	507
681.665	805
681.713	952
681.745	1746
681.761	2115
681.809	243
681.857	862
681.867	852
681.904	704
681.952	727
681.989	926
682.000	974
682.048	1635
682.096	1291
682.111	1408
682.143	1576
682.191	885
682.233	1460
682.239	1531
682.286	1555
682.334	425
682.354	880
682.382	1450
682.430	1428
682.476	1446
682.477	1433
682.525	1610
682.572	1309
682.598	1603
682.620	1837
682.667	1636
682.715	1561
682.720	1625
682.763	2095
682.810	1307
682.841	1591
682.857	1689
682.905	1148
682.952	2102
682.963	1865
683.000	1006
683.047	2570
683.085	3050
683.095	3159
683.142	2082
683.190	2400
683.206	2085
683.237	1488
683.284	2000
683.328	2037
683.332	2021
683.379	2247
683.426	1895
683.449	1736
683.473	1626
683.521	1208
683.568	2380
683.571	2350
683.615	1672
683.662	2184
683.693	1985
683.709	1849
683.757	1908
683.804	1757
683.814	1809
683.851	1973
683.898	2120
683.936	2285
683.945	2330
683.992	2177
684.039	2876
684.057	2735
684.086	2438
684.133	2491
684.179	3007
684.180	3011
684.227	2747
684.274	2489
684.300	2640
684.321	2746
684.368	2431
684.415	3137
684.422	2999
684.462	2089
684.509	2376
684.543	2292
684.556	2278
684.603	2437
684.649	2962
684.665	2904
684.696	2729
684.743	2837
684.786	3093
684.790	3106
684.837	2955
684.883	3430
684.908	3344
684.930	3285
684.977	4227
685.023	3823
685.029	3780
685.070	3109
685.117	2764
685.150	2526
685.164	2548
685.210	3271
685.257	4497
685.272	4544
685.303	4369
685.350	3932
685.393	3232
685.396	3189
685.443	3870
685.490	3879
685.514	4015
685.536	4022
685.583	3812
685.629	3742
685.636	3652
685.675	3115
685.722	3811
685.757	3648
685.768	3601
685.815	3950
685.861	4104
685.878	4014
685.908	3888
685.954	4092
686.000	4508
686.000	4511
686.047	4545
686.093	5162
686.121	5224
686.139	5172
686.185	4551
686.232	4322
686.242	4295
686.278	4038
686.324	4307
686.363	4160
686.370	4176
686.416	3758
686.463	4377
686.484	3987
686.509	3512
686.555	4253
686.601	3775
686.606	3793
686.647	3957
686.693	3842
686.727	3958
686.739	4033
686.785	3900
686.831	4508
686.848	4432
686.877	4174
686.923	4011
686.969	4125
686.969	4125
687.015	3997
687.061	3852
687.090	4155
687.107	4347
687.153	4666
687.199	4521
687.211	4400
687.245	4044
687.291	4162
687.332	4345
687.336	4366
687.382	5403
687.428	4661
687.453	4737
687.474	4709
687.520	4387
687.565	4369
687.574	4338
687.611	4371
687.657	4356
687.695	4231
687.702	4262
687.748	4668
687.794	5813
687.816	5821
687.839	5507
687.885	5049
687.931	4654
687.937	4599
687.976	4499
688.022	4898
688.058	4442
688.067	4370
688.113	4448
688.158	5114
688.179	4912
688.204	4552
688.249	4829
688.295	5370
688.300	5301
688.340	5060
688.386	5163
688.421	5162
688.431	5107
688.477	4899
688.522	4893
688.542	4906
688.567	5074
688.613	5285
688.658	5049
688.663	5067
688.703	4985
688.749	4642
688.784	4903
688.794	5034
688.839	4776
688.884	5327
688.905	5207
688.930	4977
688.975	4869
689.020	4823
689.026	4806
689.065	4960
689.110	4885
689.146	5256
689.155	5312
689.201	5057
689.246	5384
689.267	5337
689.291	5368
689.336	5728
689.381	5547
689.388	5544
689.426	5451
689.471	5717
689.509	5506
689.516	5482
689.561	5188
689.606	4936
689.630	5189
689.651	5422
689.696	5126
689.741	5295
689.750	5293
689.785	5430
689.830	5229
689.871	5506
689.875	5516
689.920	5353
689.965	5210
689.992	5088
690.010	5161
690.054	5222
690.099	5588
690.112	5570
690.144	5290
690.189	5332
690.233	5134
690.233	5143
690.278	5183
690.323	5423
690.354	5461
690.367	5493
690.412	5306
690.457	5291
690.474	5439
690.501	5559
690.546	5908
690.590	5215
690.595	5195
690.635	5224
690.680	5118
690.716	5217
690.724	5262
690.769	5725
690.813	5662
690.836	5652
690.857	5734
690.902	5967
690.946	6104
690.957	6217
690.991	6931
691.035	6897
691.077	7878
691.080	7911
691.124	8050
691.168	8124
691.198	7647
691.213	7427
691.257	7819
691.301	7135
691.318	7193
691.346	7132
691.390	6615
691.434	6247
691.439	6194
691.478	6404
691.522	6826
691.559	6969
691.567	6979
691.611	6338
691.655	6663
691.680	6838
691.699	6987
691.743	6819
691.787	6661
691.800	6642
691.831	6632
691.875	6829
691.919	6502
691.921	6487
691.964	6788
692.008	6943
692.041	7231
692.052	7250
692.096	6944
692.139	7184
692.162	6989
692.183	6831
692.227	6773
692.271	6534
692.282	6503
692.315	6566
692.359	7002
692.402	6759
692.403	6771
692.447	6631
692.490	6669
692.523	6721
692.534	6794
692.578	6977
692.622	6966
692.643	7087
692.666	7137
692.709	6788
692.753	6919
692.763	6842
692.797	6689
692.840	6677
692.884	6573
692.884	6590
692.928	6819
692.971	7027
693.004	7424
693.015	7458
693.059	7056
693.102	6826
693.124	6673
693.146	6833
693.189	7164
693.233	7580
693.245	7601
693.276	7399
693.320	7582
693.363	7286
693.365	7266
693.407	7457
693.450	7530
693.485	7541
693.493	7546
693.537	7692
693.580	7622
693.605	7685
693.624	8023
693.667	8491
693.710	9121
693.725	9364
693.753	10042
693.797	11211
693.840	12168
693.845	12246
693.883	12143
693.926	11707
693.966	11639
693.970	11514
694.013	9659
694.056	8473
694.086	7146
694.099	7203
694.142	7583
694.185	8056
694.206	8130
694.229	7998
694.272	7973
694.315	7775
694.326	7719
694.358	8087
694.401	8736
694.444	9199
694.446	9202
694.487	9006
694.530	8549
694.566	8414
694.573	8380
694.616	7794
694.659	7322
694.686	6929
694.702	6934
694.745	6965
694.787	7060
694.806	7085
694.830	7149
694.873	7241
694.916	7261
694.926	7259
694.959	7420
695.002	7439
695.044	7650
695.046	7638
695.087	7906
695.130	7950
695.166	8097
695.172	8085
695.215	7826
695.258	7627
695.286	7304
695.301	7269
695.343	7430
695.386	7634
695.406	7591
695.428	7696
695.471	7750
695.514	8036
695.526	8092
695.556	8064
695.599	8079
695.641	7886
695.646	7848
695.684	7658
695.726	7453
695.766	7279
695.769	7329
695.811	7684
695.854	8224
695.886	8423
695.896	8339
695.938	8027
695.981	7606
696.005	7380
696.023	7477
696.065	7756
696.108	7849
696.125	7898
696.150	8029
696.192	8275
696.235	8594
696.245	8581
696.277	8435
696.319	8246
696.361	8324
696.365	8299
696.404	8264
696.446	8167
696.485	7901
696.488	7943
696.530	8473
696.572	8755
696.604	9067
696.614	9050
696.656	8754
696.698	8581
696.724	8382
696.740	8334
696.783	8165
696.825	8119
696.844	8038
696.867	8032
696.909	7917
696.951	7839
696.964	7803
696.992	8024
697.034	8292
697.076	8506
697.083	8533
697.118	8743
697.160	8894
697.202	9083
697.203	9061
697.244	8854
697.286	8641
697.323	8377
697.327	8391
697.369	8344
697.411	8287
697.442	8183
697.453	8308
697.494	8749
697.536	9195
697.562	9465
697.578	9423
697.620	9239
697.661	9018
697.682	8871
697.703	9011
697.744	9244
697.786	9594
697.801	9639
697.828	9532
697.869	9362
697.911	9184
697.921	9124
697.952	9086
697.994	8970
698.035	8887
698.040	8846
698.077	8635
698.118	8405
698.160	8199
698.160	8175
698.201	8406
698.243	8654
698.279	8927
698.284	8947
698.325	8794
698.367	8726
698.399	8624
698.408	8619
698.449	8468
698.491	8339
698.518	8223
698.532	8290
698.573	8432
698.614	8565
698.638	8619
698.656	8812
698.697	9215
698.738	9575
698.757	9727
698.779	9596
698.820	9300
698.862	8999
698.877	8863
698.903	9197
698.944	9679
698.985	10164
698.996	10272
699.026	10010
699.067	9605
699.116	9098
699.235	9703
699.354	9155
699.474	9759
699.593	9565
699.713	9646
699.832	8760
699.951	9892
700.070	9000
700.190	8540
700.309	9023
700.428	9447
700.547	9051
700.667	9012
700.786	9566
700.905	9406
701.024	9039
701.143	9032
701.262	7516
701.381	9044
701.500	8374
701.619	10860
701.738	7938
701.857	8931
701.976	8070
702.095	7963
702.214	9886
702.333	9275
702.452	8291
702.571	8937
702.690	7954
702.809	9020
702.928	7209
703.047	8287
703.165	7589
703.284	8205
703.403	7499
703.522	8855
703.640	7981
703.759	9254
703.878	11484
703.997	8055
704.115	7630
704.234	8168
704.353	7028
704.471	6583
704.590	6216
704.708	7283
704.827	6987
704.946	7283
705.064	8010
705.183	6817
705.301	8097
705.420	11397
705.538	10180
705.656	9283
705.775	7635
705.893	9194
706.012	10096
706.130	9166
706.249	8526
706.367	8839
706.485	9167
706.604	8694
706.722	8470
706.840	11322
706.958	12241
707.077	10559
707.195	8922
707.313	8273
707.431	8648
707.549	8061
707.668	8145
707.786	8728
707.904	8114
708.022	8677
708.140	7555
708.258	7980
708.376	8030
708.494	8166
708.612	9451
708.730	12105
708.848	11446
708.966	10819
709.084	10053
709.202	10150
709.320	10337
709.438	9719
709.556	9703
709.674	9851
709.791	10984
709.909	9030
710.027	9321
710.145	8845
710.263	8838
710.380	9290
710.498	9099
710.616	8986
710.733	8619
710.851	8672
710.969	9441
711.086	10409
711.204	8013
711.322	8621
711.439	8792
711.557	9184
711.674	8700
711.792	8526
711.909	8540
712.027	8668
712.144	7897
712.262	8446
712.379	9415
712.497	13503
712.614	13040
712.732	11195
712.849	9622
712.966	11639
713.084	13224
713.201	10830
713.318	10687
713.436	10157
713.553	10695
713.670	10994
713.787	11513
713.905	11260
714.022	10165
714.139	10065
714.256	11937
714.373	15066
714.490	21432
714.608	50238
714.725	209277
714.842	248418
714.959	21157
715.076	11460
715.193	9728
715.310	10182
715.427	9117
715.544	9087
715.661	8469
715.778	8830
715.895	9166
716.011	9453
716.128	9271
716.245	8545
716.362	10582
716.479	10387
716.596	8581
716.713	9788
716.829	8571
716.946	8679
717.063	8071
717.180	8111
717.296	8409
717.413	8952
717.530	7301
717.646	7837
717.763	7480
717.880	6895
717.996	7197
718.113	7789
718.229	6577
718.346	7501
718.462	8337
718.579	10112
718.695	13915
718.812	11109
718.928	8903
719.045	8186
719.161	7058
719.277	6784
719.394	6718
719.510	7368
719.626	8413
719.743	9942
719.859	10488
719.975	16917
720.092	56360
720.208	143290
720.324	20564
720.440	8758
720.557	8306
720.673	12723
720.789	14760
720.905	26354
721.021	11066
721.137	7089
721.253	6944
721.369	7716
721.486	8213
721.602	10495
721.718	5881
721.834	6207
721.950	5918
722.066	5686
722.181	5953
722.297	6522
722.413	6156
722.529	6258
722.645	5714
722.761	5812
722.877	5529
722.993	6306
723.108	7526
723.224	5489
723.340	5404
723.456	5364
723.571	5637
723.687	5387
723.803	5164
723.918	5594
724.034	5876
724.150	5009
724.265	6445
724.381	11558
724.497	13259
724.612	5483
724.728	4872
724.843	5078
724.959	5720
725.074	9953
725.190	12316
725.305	5252
725.421	4719
725.536	4322
725.651	5476
725.767	4848
725.882	4550
725.997	4754
726.113	4586
726.228	4635
726.343	4770
726.459	4421
726.574	4581
726.689	4887
726.804	4369
726.920	4696
727.035	4420
727.150	4772
727.265	4530
727.380	5391
727.495	4869
727.610	4893
727.725	3762
727.841	4742
727.956	4862
728.071	5322
728.186	4040
728.301	3239
728.416	5026
728.531	4770
728.645	3928
728.760	4603
728.875	4420
728.990	4535
729.105	4096
729.220	5151
729.335	4152
729.449	4567
729.564	4355
729.679	3877
729.794	3916
729.908	4427
730.023	4741
730.138	4209
730.253	3831
730.367	3949
730.482	3591
730.596	5036
730.711	4624
730.826	5427
730.940	4288
731.055	3650
731.169	4631
731.284	4737
731.398	3462
731.513	5189
731.627	4019
731.742	5177
731.856	5745
731.970	4869
732.085	5010
732.199	6195
732.313	8745
732.428	23196
732.542	70074
732.656	46403
732.771	8694
732.885	5876
732.999	4424
733.113	4783
733.227	4517
733.342	4814
733.456	4290
733.570	4784
733.684	3882
733.798	4149
733.912	4618
734.026	4328
734.140	4102
734.254	4383
734.368	6534
734.482	8504
734.596	3949
734.710	3660
734.824	3674
734.938	4240
735.052	4663
735.166	5236
735.280	4380
735.393	4050
735.507	3863
735.621	4399
735.735	6865
735.849	5068
735.962	3371
736.076	4179
736.190	4150
736.303	5081
736.417	6280
736.531	3608
736.644	3123
736.758	3565
736.872	3446
736.985	3238
737.099	3518
737.212	2578
737.326	3178
737.439	3217
737.553	3589
737.666	3710
737.780	3490
737.893	3703
738.007	3247
738.120	2675
738.233	2949
738.347	3569
738.460	2614
738.573	4536
738.687	3548
738.800	3874
738.913	3695
739.026	3812
739.140	3284
739.253	3801
739.366	2706
739.479	2879
739.592	2607
739.705	3748
739.818	3234
739.932	2543
740.045	2791
740.158	4080
740.271	2949
740.384	2864
740.497	2705
740.610	4285
740.723	2898
740.836	3550
740.949	3841
741.062	4877
741.174	3337
741.287	2980
741.400	2563
741.513	2992
741.626	3062
741.739	3712
741.851	2936
741.964	3237
742.077	3632
742.189	3648
742.302	3081
742.415	3382
742.527	2473
742.640	3562
742.753	2968
742.865	2757
742.978	2765
743.090	2392
743.203	2574
743.316	3215
743.428	2632
743.541	2797
743.653	1155
743.766	2747
743.878	3292
743.990	3535
744.103	3718
744.215	3621
744.327	2176
744.440	4003
744.552	4760
744.664	3478
744.777	3140
744.889	2218
745.001	2161
745.113	3235
745.226	2334
745.338	2152
745.450	2151
745.562	3332
745.674	2845
745.786	2660
745.898	1802
746.010	2267
746.122	2102
746.234	2731
746.347	1925
746.459	3182
746.570	2259
746.682	2981
746.794	4033
746.906	1883
747.018	1313
747.130	2354
747.242	2679
747.354	2706
747.466	2421
747.577	2251
747.689	2546
747.801	1955
747.913	2434
748.024	1334
748.136	2277
748.248	2401
748.359	1958
748.471	1618
748.583	1838
748.694	2235
748.806	2820
748.918	2564
749.029	1982
749.141	3090
749.252	2461
749.364	2098
749.475	4632
749.587	4163
749.698	2642
749.809	2487
749.921	1899
750.032	1610
750.144	2010
750.255	1914
750.366	1687
750.478	2196
750.589	1784
750.700	1879
750.811	1840
750.923	4067
751.034	5397
751.145	6371
751.256	1524
751.367	2128
751.479	2179
751.590	1386
751.701	1123
751.812	2272
751.923	1816
752.034	2490
752.145	1716
752.256	2345
752.367	1710
752.478	2106
752.589	1907
752.700	1357
752.811	2167
752.922	1656
753.032	1350
753.143	1754
753.254	1210
753.365	2363
753.476	1550
753.586	1567
753.697	1755
753.808	2367
753.919	920
754.029	1776
754.140	2275
754.251	1129
754.361	1306
754.472	1507
754.582	1828
754.693	979
754.804	1762
754.914	1810
755.025	1316
755.135	1477
755.246	1403
755.356	861
755.466	1867
755.577	1199
755.687	1720
755.798	1877
755.908	1092
756.018	1277
756.129	1226
756.239	2807
756.349	1451
756.460	2095
756.570	1722
756.680	1905
756.790	1180
756.900	2422
757.011	1329
757.121	2381
757.231	1567
757.341	2040
757.451	1591
757.561	1329
757.671	1495
757.781	771
757.891	2148
758.001	1616
758.111	1921
758.221	2384
758.331	2181
758.441	2633
758.551	2469
758.661	2779
758.771	1544
758.880	1639
758.990	1173
759.100	1918
759.210	1467
759.320	2376
759.429	1612
759.539	1917
759.649	2401
759.758	2539
759.868	2088
759.978	1990
760.087	2957
760.197	2428
760.307	2287
760.416	1249
760.526	1122
760.635	2188
760.745	1891
760.854	2096
760.964	2009
761.073	2794
761.182	2391
761.292	1302
761.401	2530
761.511	1952
761.620	1672
761.729	2853
761.839	1452
761.948	2324
762.057	1795
762.166	2119
762.276	1891
762.385	3029
762.494	2166
762.603	1446
762.712	1711
762.822	1792
762.931	2202
763.040	1807
763.149	1282
763.258	2094
763.367	1653
763.476	1959
763.585	1693
763.694	2045
763.803	1676
763.912	2787
764.021	1790
764.130	2389
764.238	1988
764.347	2178
764.456	1758
764.565	2037
764.674	2563
764.783	2442
764.891	2341
765.000	2925
765.109	2820
765.217	2756
765.326	3386
765.435	4578
765.543	4490
765.652	4054
765.761	6336
765.869	10791
765.978	14951
766.086	26218
766.195	51607
766.303	132086
766.412	350367
766.520	313273
766.629	92859
766.737	33272
766.846	18461
766.954	11991
767.062	9747
767.171	7228
767.279	5636
767.387	4504
767.496	4248
767.604	4567
767.712	3527
767.820	2986
767.928	3786
768.037	3148
768.145	3736
768.253	4103
768.361	2143
768.469	3480
768.577	2242
768.685	4041
768.793	2587
768.901	3806
769.009	3703
769.117	4107
769.225	4644
769.333	7488
769.441	10913
769.549	20867
769.657	47591
769.765	147907
769.873	307758
769.981	119493
770.088	26143
770.196	12128
770.304	8389
770.412	6869
770.519	4942
770.627	4053
770.735	3835
770.842	3546
770.950	3393
771.058	2824
771.165	3479
771.273	2730
771.380	2856
771.488	3286
771.595	2048
771.703	2821
771.810	2554
771.918	2731
772.025	2763
772.133	1702
772.240	2613
772.348	3382
772.455	2042
772.562	2768
772.670	2284
772.777	2826
772.884	2208
772.991	1992
773.099	1964
773.206	1686
773.313	1930
773.420	1911
773.528	2081
773.635	2295
773.742	2552
773.849	2163
773.956	1988
774.063	1859
774.170	1048
774.277	2247
774.384	1488
774.491	1818
774.598	1464
774.705	2387
774.812	2508
774.919	2557
775.026	2338
775.133	2264
775.239	1926
775.346	2194
775.453	2126
775.560	1880
775.667	1436
775.773	537
775.880	2173
775.987	2125
776.093	2203
776.200	1568
776.307	1161
776.413	2547
776.520	1417
776.627	2083
776.733	1103
776.840	752
776.946	3369
777.053	2459
777.159	2962
777.266	2323
777.372	3855
777.478	4204
777.585	2457
777.691	1526
777.798	1658
777.904	2620
778.010	2570
778.117	2703
778.223	2001
778.329	2167
778.435	2330
778.542	2001
778.648	1526
778.754	762
778.860	1787
778.966	716
779.072	1200
779.178	1103
779.284	1326
779.391	1348
779.497	266
779.603	2562
779.708	32
779.815	2394
779.920	5660
780.026	10005
780.132	2674
780.238	1699
780.344	808
780.450	2309
780.556	397
780.661	1285
780.767	487
780.873	1462
780.979	1723
781.085	1104
781.190	1180
781.296	436
781.402	740
781.507	644
781.613	830
781.719	870
781.824	1057
781.930	1440
782.035	1648
782.141	1522
782.246	1282
782.352	1915
782.457	1422
782.563	1195
782.668	1643
782.773	1797
782.879	412
782.984	2143
783.090	1420
783.195	2375
783.300	2174
783.405	1977
783.511	1216
783.616	1091
783.721	906
783.826	1984
783.932	1254
784.037	1074
784.142	1355
784.247	1162
784.352	1154
784.457	1681
784.562	1554
784.667	1829
784.772	1130
784.877	385
784.982	1324
785.087	1135
785.192	1899
785.297	996
785.402	1129
785.507	929
785.611	1369
785.716	1479
785.821	1471
785.926	1137
786.031	807
786.135	1128
786.240	665
786.345	402
786.450	759
786.554	1096
786.659	402
786.763	284
786.868	726
786.973	1161
787.077	673
787.182	1191
787.286	833
787.391	363
787.495	412
787.600	864
787.704	214
787.809	968
787.913	349
788.017	1648
788.122	466
788.226	1312
788.330	626
788.435	443
788.539	724
788.643	637
788.747	-125
788.852	569
788.956	228
789.060	1591
789.164	478
789.268	261
789.372	1447
789.476	1107
789.580	240
789.684	644
789.788	63
789.892	265
789.996	493
790.100	298
790.204	295
790.308	830
790.412	-362
790.516	621
790.620	132
790.724	1361
790.828	554
790.931	727
791.035	1446
791.139	307
791.242	-171
791.346	568
791.450	473
791.554	615
791.657	-174
791.761	1783
791.864	1219
791.968	1429
792.072	60
792.175	947
792.279	845
792.382	-175
792.486	-328
792.589	837
792.693	1026
792.796	-156
792.899	802
793.003	1521
793.106	-115
793.209	409
793.313	1039
793.416	-509
793.519	1310
793.623	1860
793.726	2104
793.829	1300
793.932	248
794.035	-576
794.138	854
794.242	1737
794.345	47
794.448	1662
794.551	1190
794.654	3825
794.757	4335
794.860	1352
794.963	533
795.066	112
795.169	967
795.272	623
795.375	857
795.477	1125
795.580	10
795.683	-28
795.786	347
795.889	-107
795.991	2245
796.094	1772
796.197	-704
796.300	1474
796.402	-158
796.505	643
796.608	27
796.710	1176
796.813	-263
796.915	736
797.018	621
797.120	1132
797.223	-1370
797.326	1391
797.428	-895
797.530	-340
797.633	787
797.735	1278
797.838	-267
797.940	1835
798.042	-436
798.145	335
798.247	869
798.349	-579
798.452	667
798.554	-7
798.656	-380
798.758	1707
798.860	235
798.962	738
799.065	60
799.167	-361
799.269	101
799.371	469
799.473	638
799.575	478
799.677	979
799.779	2386
799.881	1340
799.983	1647
800.085	99
800.187	868
800.289	-358
800.390	648
800.492	508
800.594	471
800.696	-240
800.798	1044
800.899	23
801.001	284
801.103	-628
801.205	260
801.306	377
801.408	-16
801.509	23
801.611	515
801.713	-67
801.814	143
801.916	136
802.017	-20
802.119	-338
802.220	518
802.322	-1179
802.423	1332
802.525	-769
802.626	-359
802.727	270
802.829	997
802.930	-1646
803.031	1780
803.133	-1072
803.234	544
803.335	382
803.436	-691
803.538	-237
803.639	-1826
803.740	905
803.841	-588
803.942	63
804.043	1332
804.144	-795
804.245	-257
804.346	-835
804.447	-488
804.548	781
804.649	1634
804.750	-279
804.851	-318
804.952	-682
805.053	1266
805.154	-835
805.255	246
805.355	227
805.456	-118
805.557	294
805.658	-1085
805.758	683
805.859	570
805.960	-506
806.061	81
806.161	-747
806.262	429
806.362	-775
806.463	-212
806.564	591
806.664	-355
806.765	-100
806.865	1049
806.966	-75
807.066	35
807.166	874
807.267	1171
807.367	-121
807.468	90
807.568	-1829
807.668	573
807.769	430
807.869	234
807.969	-91
808.069	22
808.170	-19
808.270	298
808.370	-473
808.470	585
808.570	-640
808.670	427
808.770	540
808.870	-424
808.970	602
809.070	28
809.170	-306
809.271	-323
809.370	-613
809.470	282
809.570	-568
809.670	-458
809.770	194
809.870	396
809.970	-174
810.070	-429
810.169	-374
810.269	-1508
810.369	571
810.469	725
810.568	-1063
810.668	-602
810.768	-758
810.867	-62
810.967	-263
811.066	224
811.166	-185
811.265	724
811.365	-1486
811.464	-675
811.564	673
811.663	664
811.763	-1857
811.862	551
811.962	-348
812.061	236
812.160	-94
812.260	659
812.359	1014
812.458	936
812.557	6174
812.657	8261
812.756	2767
812.855	305
812.954	-959
813.053	641
813.153	-493
813.252	-516
813.351	-11
813.450	3
813.549	-396
813.648	448
813.747	-597
813.846	214
813.945	-224
814.044	-562
814.143	66
814.242	929
814.341	-473
814.439	1373
814.538	650
814.637	32
814.736	-609
814.835	553
814.933	-673
815.032	1043
815.131	482
815.229	714
815.328	666
815.427	577
815.525	1428
815.624	1702
815.722	82
815.821	989
815.919	676
816.018	338
816.116	980
816.215	1277
816.313	556
816.412	1031
816.510	1753
816.609	2239
816.707	1427
816.805	1797
816.904	1014
817.002	2109
817.100	3253
817.198	3108
817.296	3027
817.395	3739
817.493	4967
817.591	5129
817.689	7476
817.787	8834
817.885	15317
817.983	29407
818.081	60412
818.179	138140
818.277	315643
818.375	286041
818.473	88176
818.571	35215
818.669	21718
818.767	19069
818.865	18596
818.963	22988
819.061	32863
819.158	55412
819.256	110048
819.354	237396
819.452	447502
819.549	321480
819.647	113517
819.745	47172
819.842	27813
819.940	18581
820.038	13466
820.135	10623
820.233	8512
820.330	5677
820.428	5106
820.525	4969
820.623	3940
820.720	3414
820.818	4563
820.915	2817
821.012	3355
821.110	652
821.207	2456
821.304	1806
821.402	2286
821.499	2513
821.596	2144
821.693	1136
821.791	2235
821.888	1666
821.985	3039
822.082	2504
822.179	2602
822.276	1776
822.373	805
822.470	1579
822.567	513
822.664	517
822.761	1147
822.858	-288
822.955	276
823.052	1121
823.149	1131
823.246	-403
823.343	807
823.440	1923
823.536	-262
823.633	603
823.730	140
823.827	778
823.923	718
824.020	1122
824.117	-439
824.213	-93
824.310	704
824.407	1155
824.503	537
824.600	695
824.696	629
824.793	734
824.889	-974
824.986	671
825.082	-23
825.179	598
825.275	23
825.371	-201
825.468	-304
825.564	-812
825.660	-15
825.757	62
825.853	1227
825.949	-548
826.045	73
826.142	702
826.238	-171
826.334	889
826.430	-1034
826.526	926
826.622	-1074
826.718	743
826.814	-70
826.910	1169
827.006	-65
827.102	-484
827.198	959
827.294	-232
827.390	-296
827.486	622
827.582	-1086
827.678	-1067
827.774	470
827.869	-928
827.965	1051
828.061	-1077
828.157	-349
828.252	-917
828.348	-891
828.444	562
828.539	-868
828.635	-373
828.731	205
828.826	-563
828.922	-44
829.017	371
829.113	-660
829.208	-458
829.304	-188
829.399	813
829.495	-830
829.590	885
829.685	-264
829.781	1187
829.876	-1060
829.971	-654
830.066	-504
830.162	-321
830.257	-241
830.352	-530
830.447	-180
830.543	327
830.638	-397
830.733	-116
830.828	-723
830.923	499
831.018	-353
831.113	-472
831.208	-1533
831.303	-40
831.398	-271
831.493	-1
831.588	-320
831.683	-1125
831.778	-571
831.873	-171
831.967	1033
832.062	-400
832.157	-2079
832.252	243
832.346	79
832.441	1114
832.536	339
832.631	3012
832.725	1241
832.820	-588
832.914	-580
833.009	-762
833.104	1
833.198	531
833.293	-680
833.387	35
833.482	-423
833.576	-1160
833.670	-324
833.765	-156
833.859	-618
833.954	411
834.048	-1174
834.142	341
834.237	-1040
834.331	-658
834.425	-627
834.519	-361
834.613	-684
834.708	-723
834.802	523
834.896	-517
834.990	-646
835.084	-539
835.178	-207
835.272	-147
835.366	-1252
835.460	240
835.554	32
835.648	268
835.742	-1133
835.836	-93
835.930	-1972
836.024	-83
836.117	-148
836.211	-519
836.305	-515
836.399	262
836.493	-934
836.586	339
836.680	-1668
836.774	-758
836.867	642
836.961	-603
837.055	-557
837.148	-754
837.242	-1060
837.335	-245
837.429	-323
837.522	-451
837.616	141
837.709	688
837.803	-69
837.896	-69
837.989	-620
838.083	792
838.176	977
838.269	783
838.363	100
838.456	-132
838.549	405
838.642	672
838.735	2664
838.829	914
838.922	-935
839.015	281
839.108	-413
839.201	410
839.294	-231
839.387	408
839.480	-947
839.573	63
839.666	-46
839.759	-469
839.852	-1344
839.945	52
840.038	-656
840.131	-499
840.223	-710
840.316	-327
840.409	-576
840.502	-1353
840.594	384
840.687	-564
840.780	-78
840.873	-1125
840.965	-941
841.058	29
841.150	657
841.243	295
841.336	-288
841.428	-791
841.521	-191
841.613	-804
841.706	-92
841.798	200
841.890	-949
841.983	-420
842.075	5
842.167	-231
842.260	-600
842.352	219
842.444	-59
842.537	975
842.629	2329
842.721	252
842.813	-413
842.905	-1741
842.997	143
843.090	545
843.182	670
843.274	1818
843.366	3687
843.458	8096
843.550	5604
843.642	490
843.734	169
843.826	-707
843.918	-175
844.009	230
844.101	-1427
844.193	-966
844.285	-1044
844.377	-332
844.469	264
844.560	-425
844.652	-216
844.744	-157
844.835	-670
844.927	26
845.019	-713
845.110	168
845.202	-803
845.293	-101
845.385	-1274
845.476	324
845.568	672
845.659	-1023
845.751	-517
845.842	-179
845.934	-1075
846.025	-981
846.116	-310
846.208	-557
846.299	-1254
846.390	-271
846.482	-686
846.573	-69
846.664	98
846.755	511
846.846	-197
846.937	-1182
847.029	-1016
847.120	-560
847.211	-833
847.302	64
847.393	-1058
847.484	517
847.575	-1291
847.666	-1259
847.757	-1389
847.847	-289
847.938	122
848.029	-418
848.120	-101
848.211	-736
848.302	-1083
848.392	-579
848.483	-887
848.574	-1695
848.664	-989
848.755	351
848.846	-1150
848.936	-976
849.027	-1343
849.118	-569
849.208	-1157
849.299	174
849.389	-208
849.480	2036
849.570	4163
849.661	8829
849.751	15924
849.841	5054
849.932	-257
850.022	-1251
850.112	-530
850.203	-1424
850.293	-1197
850.383	-800
850.474	-1713
850.564	-328
850.654	-354
850.744	-736
850.834	-1107
850.924	27
851.014	150
851.104	-1237
851.194	-1299
851.284	-383
851.374	-367
851.464	-505
851.554	-673
851.644	-295
851.734	-656
851.824	-525
851.914	-1522
852.004	-125
852.094	-896
852.183	-843
852.273	-632
852.363	72
852.452	-595
852.542	-699
852.632	-1194
852.721	-1165
852.811	-757
852.901	507
852.990	-636
853.080	-660
853.169	-696
853.259	-1073
853.348	-602
853.438	-432
853.527	-124
853.617	850
853.706	2807
853.795	6304
853.885	17217
853.974	32229
854.063	59345
854.152	101809
854.242	37191
854.331	4808
854.420	282
854.509	1609
854.598	610
854.687	816
854.777	248
854.866	-547
854.955	-193
855.044	-533
855.133	-655
855.222	-743
855.311	-828
855.400	418
855.488	-625
855.577	-1012
855.666	-601
855.755	-770
855.844	-1221
855.933	-756
856.021	-1143
856.110	-552
856.199	-2060
856.288	-529
856.376	-927
856.465	-748
856.554	-242
856.642	-978
856.731	-725
856.819	-845
856.908	-1255
856.996	-1201
857.085	-1604
857.173	-404
857.262	-1065
857.350	-351
857.438	-852
857.527	102
857.615	-1231
857.703	183
857.792	-1359
857.880	-781
857.968	-1675
858.056	-539
858.145	-1468
858.233	-706
858.321	-1563
858.409	442
858.497	-1301
858.585	-633
858.673	-1259
858.761	-1145
858.849	-993
858.937	-494
859.025	-1699
859.113	-9
859.201	-1758
859.289	179
859.377	-1356
859.465	-935
859.552	-1200
859.640	-529
859.728	-517
859.816	-1404
859.903	-1110
859.991	-992
860.079	-1007
860.166	-803
860.254	-1698
860.342	152
860.429	-929
860.517	-1060
860.604	-1299
860.692	118
860.779	-1824
860.867	-731
860.954	-1758
861.042	-1128
861.129	-1088
861.216	-404
861.304	-1289
861.391	-783
861.478	-847
861.565	-1177
861.653	-708
861.740	-820
861.827	-661
861.914	-793
862.001	-1837
862.089	-1071
862.176	-648
862.263	-961
862.350	-1074
862.437	-916
862.524	-1467
862.611	-655
862.698	-772
862.785	-634
862.871	-70
862.958	-1240
863.045	-1567
863.132	82
863.219	-1281
863.306	-1631
863.392	-629
863.479	-1190
863.566	-1361
863.652	-795
863.739	-1108
863.826	-561
863.912	-1499
863.999	-952
864.086	-1619
864.172	-406
864.259	-803
864.345	-1336
864.432	-688
864.518	-625
864.604	-910
864.691	-809
864.777	-729
864.863	-382
864.950	-483
865.036	-538
865.122	253
865.209	806
865.295	-235
865.381	23
865.467	30
865.553	600
865.639	852
865.726	3636
865.812	7612
865.898	15810
865.984	24340
866.070	46121
866.156	53419
866.242	12145
866.328	1876
866.414	470
866.499	224
866.585	557
866.671	290
866.757	224
866.843	-284
866.928	-77
867.014	-249
867.100	831
867.186	-499
867.271	832
867.357	112
867.442	983
867.528	55
867.614	-1086
867.699	-592
867.785	406
867.870	72
867.956	897
868.041	127
868.127	529
868.212	179
868.297	979
868.383	183
868.468	643
868.553	1942
868.639	2426
868.724	3579
868.809	3897
868.894	-389
868.979	-587
869.065	424
869.150	-1007
869.235	-565
869.320	-376
869.405	-929
869.490	-178
869.575	-689
869.660	-721
869.745	-488
869.830	-361
869.915	-789
870.000	-319
870.085	-780
870.169	-742
870.254	266
870.339	-900
870.424	-709
870.509	-451
870.593	-416
870.678	39
870.763	-795
870.847	-138
870.932	-845
871.016	40
871.101	-554
871.186	-140
871.270	-8
871.355	-887
871.439	-179
871.523	-212
871.608	-992
871.692	-210
871.777	-856
871.861	-205
871.945	-1659
872.030	-339
872.114	-777
872.198	-1064
872.282	-497
872.367	-239
872.451	-1288
872.535	84
872.619	-838
872.703	-1046
872.787	-192
872.871	-353
872.955	-832
873.039	-597
873.123	-1348
873.207	-601
873.291	-1039
873.375	-1458
873.459	-353
873.543	-825
873.627	-934
873.711	-827
873.794	-915
873.878	-1121
873.962	-1100
874.045	-635
874.129	-970
874.137	-966
874.213	-931
874.245	-1045
874.296	-1235
874.352	-755
874.380	-524
874.460	-1547
874.464	-1589
874.547	-786
874.568	-848
874.631	-1020
874.676	-642
874.714	-341
874.784	-586
874.798	-631
874.881	-163
874.892	-233
874.965	-706
874.999	-520
875.048	-274
875.107	-271
875.131	-284
875.215	-599
875.215	-599
875.298	-903
875.323	-728
875.381	-243
875.430	-526
875.465	-761
875.538	-361
875.548	-318
875.631	-897
875.646	-924
875.714	-885
875.753	-846
875.798	-883
875.861	-142
875.881	103
875.964	-332
875.968	-356
876.047	-773
876.076	-727
876.130	-642
876.183	-75
876.213	254
876.291	-396
876.296	-443
876.379	-656
876.398	-682
876.462	-822
876.506	-533
876.545	-198
876.613	-473
876.628	-550
876.711	-3
876.721	-71
876.794	-529
876.828	-617
876.877	-828
876.935	-771
876.960	-690
877.043	115
877.043	113
877.125	-279
877.150	-187
877.208	145
877.258	-206
877.291	-585
877.365	31
877.374	130
877.456	-402
877.472	-295
877.539	205
877.579	114
877.622	-74
877.687	151
877.704	222
877.787	-63
877.794	-67
877.869	55
877.901	34
877.952	-112
878.008	69
878.034	176
878.115	-456
878.117	-468
878.199	-974
878.222	-849
878.282	-464
878.329	128
878.364	518
878.437	117
878.447	56
878.529	-365
878.544	-384
878.611	-192
878.651	-145
878.694	-189
878.758	-25
878.776	-16
878.858	218
878.865	189
878.941	82
878.972	353
879.023	753
879.078	79
879.105	-163
879.185	264
879.187	268
879.269	307
879.292	243
879.351	263
879.399	-2
879.433	-276
879.506	9
879.516	88
879.598	-76
879.613	-38
879.680	61
879.720	373
879.762	541
879.827	-172
879.844	-309
879.926	-81
879.933	-61
880.007	353
880.040	298
880.089	235
880.147	843
880.171	997
880.253	2216
880.254	2217
880.335	3117
880.360	3608
880.417	5562
880.467	8245
880.499	10571
880.574	14108
880.580	13800
880.662	5793
880.680	4434
880.744	1533
880.787	377
880.825	195
880.893	336
880.907	416
880.989	-119
881.000	-68
881.070	140
881.106	108
881.152	146
881.213	243
881.233	298
881.315	91
881.319	93
881.396	56
881.426	56
881.478	323
881.532	408
881.559	298
881.639	512
881.641	523
881.722	510
881.745	390
881.803	233
881.852	319
881.885	352
881.958	727
881.966	785
882.047	924
882.064	914
882.129	918
882.171	1157
882.210	1634
882.277	2619
882.291	2704
882.372	2029
882.383	1978
882.454	1084
882.489	665
882.535	600
882.596	868
882.616	875
882.697	118
882.702	101
882.778	299
882.808	259
882.859	-19
882.914	-30
882.940	124
883.020	231
883.021	235
883.102	594
883.127	463
883.183	262
883.233	544
883.264	661
883.339	606
883.345	604
883.426	77
883.445	134
883.507	255
883.551	302
883.587	465
883.657	653
883.668	722
883.749	929
883.763	911
883.830	440
883.869	632
883.910	862
883.975	426
883.991	344
884.072	415
884.081	398
884.152	761
884.187	990
884.233	1078
884.292	1017
884.314	827
884.394	383
884.398	341
884.475	601
884.504	769
884.555	776
884.610	622
884.636	507
884.716	394
884.716	400
884.797	401
884.821	429
884.877	783
884.927	884
884.958	682
885.033	592
885.038	590
885.118	-79
885.139	-131
885.199	86
885.244	101
885.279	49
885.350	387
885.359	494
885.439	786
885.456	853
885.520	885
885.561	991
885.600	858
885.667	774
885.680	810
885.760	735
885.773	740
885.840	936
885.878	968
885.920	972
885.984	1085
886.000	1163
886.080	1241
886.089	1257
886.160	1197
886.195	1179
886.240	1187
886.300	1048
886.320	935
886.400	887
886.406	866
886.480	988
886.511	983
886.560	1477
886.616	2010
886.640	1872
886.720	1303
886.722	1285
886.800	970
886.827	814
886.879	745
886.932	641
886.959	842
887.038	1545
887.039	1551
887.119	1350
887.143	1210
887.198	1212
887.248	1435
887.278	1387
887.354	814
887.358	813
887.437	777
887.459	838
887.517	1137
887.564	1241
887.596	1155
887.669	916
887.676	898
887.755	809
887.774	659
887.835	796
887.880	1182
887.914	1419
887.985	1631
887.994	1603
888.073	1440
888.090	1353
888.153	1148
888.195	1091
888.232	1364
888.300	1791
888.311	1710
888.391	1045
888.405	921
888.470	691
888.510	574
888.549	822
888.615	1109
888.628	1101
888.708	1115
888.720	1107
888.787	1121
888.825	1095
888.866	963
888.930	784
888.945	762
889.024	637
889.035	610
889.103	1483
889.140	1952
889.182	1668
889.245	1201
889.261	1267
889.340	1607
889.349	1636
889.419	1318
889.454	1150
889.498	1279
889.559	1446
889.577	1510
889.656	1777
889.664	1800
889.735	1925
889.768	1980
889.814	1412
889.873	650
889.978	1861
890.083	754
890.187	1471
890.292	1163
890.397	1936
890.501	727
890.606	1113
890.710	2305
890.815	2039
890.919	1748
891.024	1631
891.128	864
891.233	1352
891.337	1668
891.442	1350
891.546	1667
891.650	973
891.755	744
891.859	2359
891.963	1665
892.068	1319
892.172	1013
892.276	656
892.380	1524
892.484	1907
892.589	1619
892.693	1332
892.797	1011
892.901	1234
893.005	696
893.109	1174
893.213	1150
893.317	2024
893.421	1282
893.525	928
893.629	534
893.733	828
893.837	1204
893.941	1363
894.045	1517
894.148	1480
894.252	1499
894.356	1727
894.460	1379
894.564	1567
894.667	966
894.771	1734
894.875	1220
894.978	1646
895.082	1127
895.186	2083
895.289	497
895.393	1269
895.496	1471
895.600	1466
895.703	1819
895.807	1094
895.910	1249
896.014	1466
896.117	1135
896.221	1457
896.324	1700
896.427	1294
896.531	365
896.634	1186
896.737	1624
896.840	1540
896.944	740
897.047	1517
897.150	1344
897.253	1002
897.356	1454
897.460	1343
897.563	470
897.666	1588
897.769	1485
897.872	665
897.975	729
898.078	1187
898.181	666
898.284	477
898.387	1000
898.490	2088
898.593	1415
898.695	1495
898.798	783
898.901	1496
899.004	1767
899.107	1437
899.209	1505
899.312	1429
899.415	1155
899.518	1868
899.620	1160
899.723	1431
899.826	2919
899.928	3892
900.031	1023
900.133	1271
900.236	382
900.338	1436
900.441	1522
900.543	1176
900.646	736
900.748	296
900.851	1341
900.953	1019
901.055	908
901.158	1737
901.260	1643
901.362	706
901.465	560
901.567	1314
901.669	1631
901.771	1333
901.873	1084
901.976	1336
902.078	1110
902.180	474
902.282	1087
902.384	2000
902.486	1175
902.588	1585
902.690	2230
902.792	1808
902.894	2127
902.996	1268
903.098	1154
903.200	1253
903.302	1327
903.404	1358
903.505	309
903.607	1752
903.709	1332
903.811	1589
903.913	1090
904.014	505
904.116	1017
904.218	1393
904.319	1900
904.421	1684
904.523	1194
904.624	1100
904.726	1692
904.827	1772
904.929	861
905.030	1027
905.132	1827
905.233	1342
905.335	1211
905.436	1882
905.537	1322
905.639	970
905.740	923
905.841	1397
905.943	1521
906.044	1514
906.145	1067
906.247	623
906.348	1631
906.449	877
906.550	668
906.651	1897
906.752	330
906.854	1964
906.955	2041
907.056	1760
907.157	536
907.258	1279
907.359	1534
907.460	1629
907.561	693
907.662	737
907.762	951
907.863	1707
907.964	1038
908.065	1491
908.166	874
908.267	2283
908.367	1077
908.468	1524
908.569	604
908.670	2056
908.770	1796
908.871	2526
908.971	1950
909.072	1914
909.173	1799
909.273	1042
909.374	443
909.474	1024
909.575	1451
909.675	757
909.776	1393
909.876	641
909.977	1395
910.077	1166
910.177	1080
910.278	788
910.378	1604
910.478	635
910.579	1007
910.679	1472
910.779	1560
910.879	821
910.980	1039
911.080	1410
911.180	935
911.280	928
911.380	656
911.480	1906
911.580	592
911.680	1035
911.780	778
911.880	1374
911.980	1030
912.080	1532
912.180	841
912.280	1471
912.380	1312
912.480	721
912.580	935
912.679	793
912.779	1124
912.879	1368
912.979	458
913.078	1150
913.178	1318
913.278	1268
913.377	1137
913.477	545
913.577	1219
913.676	2135
913.776	1117
913.875	1405
913.975	1383
914.074	1140
914.174	1262
914.273	554
914.373	1460
914.472	1119
914.572	811
914.671	1770
914.770	673
914.870	577
914.969	1164
915.068	1655
915.167	1406
915.267	1080
915.366	1027
915.465	1424
915.564	964
915.663	1283
915.763	962
915.862	1324
915.961	845
916.060	882
916.159	725
916.258	829
916.357	654
916.456	1299
916.555	1611
916.654	663
916.752	1354
916.851	1234
916.950	1283
917.049	1056
917.148	-43
917.247	1106
917.345	1090
917.444	1148
917.543	615
917.642	1416
917.740	549
917.839	1262
917.937	1041
918.036	1082
918.135	401
918.233	960
918.332	1068
918.430	1120
918.529	1619
918.627	814
918.726	597
918.824	1633
918.923	992
919.021	1351
919.119	1101
919.218	900
919.316	2034
919.414	1525
919.512	439
919.611	1439
919.709	818
919.807	1458
919.905	914
920.003	1027
920.102	624
920.200	1317
920.298	724
920.396	1353
920.494	929
920.592	1367
920.690	1192
920.788	1468
920.886	1032
920.984	1760
921.082	555
921.180	1264
921.277	1675
921.375	1588
921.473	1172
921.571	1168
921.669	642
921.766	1459
921.864	1496
921.962	1597
922.060	1166
922.157	2077
922.255	2081
922.352	1143
922.450	1648
922.548	1701
922.645	1891
922.743	2083
922.840	2678
922.938	4119
923.035	2392
923.133	2604
923.230	2738
923.327	3910
923.425	3642
923.522	3601
923.619	2219
923.717	2067
923.814	3125
923.911	2803
924.008	3329
924.106	3101
924.203	2214
924.300	2647
924.397	3219
924.494	2947
924.591	2444
924.688	3124
924.786	1953
924.883	2173
924.979	2644
925.077	2156
925.173	2498
925.270	3362
925.367	2882
925.464	3440
925.561	2687
925.658	3275
925.755	2336
925.852	3533
925.948	2553
926.045	3164
926.142	2413
926.239	2726
926.335	2870
926.432	3226
926.529	2627
926.625	2471
926.722	1906
926.818	2215
926.915	1909
927.011	2945
927.108	2917
927.204	1751
927.301	1894
927.397	3260
927.494	2905
927.590	2896
927.687	2308
927.783	1943
927.879	2443
927.976	1408
928.072	2017
928.168	2090
928.264	1903
928.361	1821
928.457	1631
928.553	2603
928.649	2370
928.745	1839
928.841	2013
928.937	2746
929.033	2533
929.129	2323
929.225	2211
929.321	2440
929.417	1450
929.513	1955
929.609	1737
929.705	2192
929.801	2453
929.897	2300
929.993	1630
930.089	2560
930.184	1483
930.280	2465
930.376	2962
930.471	1574
930.567	1788
930.663	2162
930.758	1624
930.854	1962
930.950	1609
931.045	1930
931.141	1259
931.236	2050
931.332	1836
931.427	1753
931.523	2336
931.618	2142
931.714	582
931.809	2040
931.905	2673
932.000	1333
932.095	1493
932.191	3209
932.286	2360
932.381	1727
932.476	1025
932.572	1443
932.667	1518
932.762	1542
932.857	1623
932.952	1336
933.047	1240
933.142	1576
933.237	1552
933.332	2103
933.427	2385
933.522	1858
933.617	1507
933.712	1510
933.807	1638
933.902	1970
933.997	1742
934.092	1049
934.187	830
934.282	1888
934.376	2010
934.471	1746
934.566	1489
934.661	1841
934.755	1560
934.850	2011
934.945	1403
935.039	924
935.134	1533
935.228	1489
935.323	2457
935.417	2223
935.512	734
935.606	100
935.701	1087
935.795	1873
935.890	1321
935.984	1401
936.079	1285
936.173	2063
936.267	893
936.362	1430
936.456	2056
936.550	1912
936.644	1740
936.738	1461
936.833	873
936.927	824
937.021	985
937.115	1582
937.209	1093
937.303	2316
937.397	862
937.491	1542
937.585	1848
937.679	1099
937.773	765
937.867	515
937.961	496
938.055	2032
938.149	1719
938.243	1268
938.337	191
938.430	645
938.524	1618
938.618	1319
938.712	1045
938.805	1585
938.899	710
938.993	1360
939.086	1821
939.180	801
939.274	624
939.367	1031
939.461	595
939.554	1397
939.648	-165
939.741	1101
939.835	876
939.928	1801
940.022	1622
940.115	1499
940.208	1869
940.302	2442
940.395	960
940.488	964
940.582	1121
940.675	1530
940.768	881
940.861	587
940.954	2262
941.048	1375
941.141	1647
941.234	483
941.327	1925
941.420	3072
941.513	1967
941.606	439
941.699	1341
941.792	1870
941.885	1300
941.978	1770
942.071	884
942.164	261
942.257	941
942.349	798
942.442	948
942.535	1153
942.628	1000
942.721	582
942.813	-206
942.906	2022
942.999	951
943.091	1554
943.184	1111
943.277	919
943.369	741
943.462	207
943.554	1337
943.647	408
943.739	1594
943.832	1229
943.924	-178
944.017	1293
944.109	101
944.201	1863
944.294	1080
944.386	1312
944.478	254
944.571	922
944.663	1425
944.755	1532
944.847	952
944.940	1340
945.032	-190
945.124	916
945.216	1020
945.308	780
945.400	396
945.492	772
945.584	1005
945.676	1255
945.768	1366
945.860	1426
945.952	1123
946.044	1883
946.136	255
946.228	397
946.320	200
946.412	461
946.503	972
946.595	720
946.687	590
946.779	760
946.870	1063
946.962	95
947.054	1771
947.145	1848
947.237	365
947.329	1196
947.420	923
947.512	1178
947.603	-320
947.695	1113
947.786	675
947.878	133
947.969	1001
948.061	349
948.152	754
948.243	906
948.335	518
948.426	-16
948.517	280
948.609	1800
948.700	946
948.791	1202
948.882	1060
948.973	819
949.065	872
949.156	367
949.247	-123
949.338	293
949.429	-78
949.520	599
949.611	637
949.702	1630
949.793	1144
949.884	383
949.975	675
950.066	250
950.157	416
950.247	-223
950.338	522
950.429	1036
950.520	471
950.611	776
950.701	1351
950.792	1578
950.883	1909
950.973	821
951.064	1015
951.155	1831
951.245	985
951.336	1273
951.427	60
951.517	1474
951.608	937
951.698	346
951.788	196
951.879	872
951.969	1152
952.060	772
952.150	216
952.240	1136
952.331	-763
952.421	1486
952.511	89
952.602	336
952.692	422
952.782	917
952.872	774
952.962	1050
953.052	-40
953.143	510
953.233	119
953.323	900
953.413	822
953.503	481
953.593	623
953.683	582
953.773	373
953.863	721
953.953	709
954.042	548
954.132	541
954.222	992
954.312	128
954.402	1364
954.492	1650
954.581	3581
954.671	1495
954.761	114
954.850	1463
954.940	68
955.030	66
955.119	340
955.209	292
955.298	70
955.388	59
955.477	1190
955.567	-338
955.656	710
955.746	377
955.835	704
955.925	-274
956.014	675
956.103	227
956.193	367
956.282	9
956.371	987
956.461	-95
956.550	469
956.639	478
956.728	96
956.817	711
956.906	-211
956.995	1109
957.085	-267
957.174	213
957.263	-110
957.352	294
957.441	-60
957.530	227
957.619	587
957.708	868
957.796	536
957.885	257
957.974	-386
958.063	520
958.152	-789
958.241	283
958.329	636
958.418	273
958.507	-332
958.596	1250
958.684	351
958.773	603
958.861	379
958.950	254
959.039	936
959.127	633
959.216	757
959.304	-262
959.393	667
959.481	-38
959.570	1121
959.658	649
959.746	961
959.835	991
959.923	3110
960.011	1287
960.100	952
960.188	-158
960.276	122
960.365	405
960.453	483
960.541	467
960.629	1080
960.717	-178
960.805	279
960.893	-402
960.981	17
961.069	875
961.158	289
961.245	711
961.333	448
961.421	198
961.509	-107
961.597	17
961.685	-239
961.773	155
961.861	253
961.949	1351
962.036	181
962.124	391
962.212	47
962.299	-442
962.387	-661
962.475	1052
962.562	161
962.650	44
962.738	630
962.825	297
962.913	-15
963.000	-567
963.088	1143
963.175	-115
963.263	37
963.350	280
963.438	46
963.525	1108
963.612	2235
963.700	5705
963.787	16660
963.874	9511
963.962	1716
964.049	433
964.136	-734
964.223	-492
964.310	1180
964.398	-278
964.485	755
964.572	634
964.659	2146
964.746	2421
964.833	441
964.920	156
965.007	994
965.094	255
965.181	-410
965.268	-426
965.355	267
965.441	432
965.528	-765
965.615	1516
965.702	-314
965.789	-225
965.875	109
965.962	384
966.049	-417
966.136	-175
966.222	13
966.309	225
966.395	-39
966.482	547
966.569	-528
966.655	487
966.742	583
966.828	-59
966.915	-185
967.001	347
967.087	656
967.174	-687
967.260	1288
967.347	687
967.433	3651
967.519	10412
967.605	4706
967.692	-527
967.778	143
967.864	-527
967.950	28
968.036	-333
968.123	-113
968.209	71
968.295	-860
968.381	721
968.467	957
968.553	-1169
968.639	1072
968.725	-70
968.811	1338
968.897	2295
968.983	-121
969.069	-1305
969.154	625
969.240	422
969.326	-626
969.412	-645
969.497	73
969.583	-47
969.669	525
969.755	678
969.840	-73
969.926	1055
970.012	-130
970.097	1622
970.183	475
970.268	451
970.354	1782
970.439	1386
970.525	6757
970.610	2082
970.696	877
970.781	4
970.866	-731
970.952	-304
971.037	-1004
971.122	-528
971.208	-351
971.293	11
971.378	-655
971.463	-338
971.549	138
971.634	-422
971.719	46
971.804	445
971.889	1816
971.974	94
972.059	-838
972.144	-232
972.229	-100
972.314	-1260
972.399	448
972.484	-439
972.569	-253
972.654	644
972.739	2957
972.824	3922
972.908	1056
972.993	-650
973.078	93
973.163	136
973.247	-65
973.332	-1694
973.417	645
973.501	-1636
973.586	170
973.671	44
973.755	420
973.840	491
973.924	1125
974.009	433
974.093	-640
974.178	1451
974.262	2632
974.346	2578
974.431	453
974.515	-243
974.600	-300
974.684	200
974.768	-508
974.852	892
974.937	-725
975.021	-189
975.105	-39
975.189	320
975.273	405
975.358	-1154
975.442	-1134
975.526	-850
975.610	-386
975.694	-280
975.778	-315
975.862	-268
975.946	-1615
976.030	329
976.114	-1465
976.198	551
976.281	-172
976.365	-102
976.449	-168
976.533	274
976.617	-61
976.700	523
976.784	57
976.868	-388
976.951	1159
977.035	974
977.119	256
977.202	-210
977.286	100
977.369	-1230
977.453	-308
977.536	391
977.620	-393
977.703	-239
977.787	179
977.870	23
977.953	645
978.037	-1331
978.120	415
978.203	712
978.287	3377
978.370	1813
978.453	375
978.536	-762
978.620	935
978.703	1248
978.786	1056
978.869	-246
978.952	-880
979.035	960
979.118	208
979.201	-1195
979.284	-64
979.367	-1272
979.450	867
979.533	-912
979.616	-1060
979.699	-1065
979.782	-114
979.865	-297
979.948	-334
980.030	-622
980.113	118
980.196	-1479
980.279	83
980.361	-494
980.444	-458
980.526	236
980.609	-88
980.692	52
980.774	856
980.857	-971
980.939	1182
981.022	-774
981.104	-264
981.187	-1199
981.269	-56
981.352	-671
981.434	-826
981.516	-1
981.599	1184
981.681	-86
981.763	-347
981.846	-811
981.928	193
982.010	-216
982.092	-649
982.174	45
982.256	131
982.339	-560
982.421	-190
982.503	211
982.585	-554
982.667	-376
982.749	-242
982.831	131
982.913	-689
982.995	340
983.077	-136
983.158	1788
983.240	-995
983.322	400
983.404	567
983.486	-119
983.568	-510
983.649	-748
983.731	683
983.813	-392
983.894	208
983.976	-415
984.058	-139
984.139	634
984.221	-321
984.302	809
984.384	228
984.465	-1011
984.547	-53
984.628	56
984.710	105
984.791	-117
984.872	533
984.954	-480
985.035	-67
985.116	-287
985.198	-215
985.279	297
985.360	-432
985.441	-444
985.522	716
985.604	-157
985.685	-1626
985.766	459
985.847	869
985.928	-353
986.009	134
986.090	-155
986.171	522
986.252	-263
986.333	-34
986.414	-567
986.495	528
986.576	-303
986.656	993
986.737	-54
986.818	-576
986.899	19
986.980	-59
987.060	669
987.141	-315
987.222	-740
987.302	443
987.383	736
987.464	10
987.544	462
987.625	322
987.705	314
987.786	275
987.866	-525
987.947	593
988.027	-298
988.108	-509
988.188	-208
988.268	-315
988.349	-116
988.429	304
988.509	351
988.589	-435
988.670	-1351
988.750	1227
988.830	602
988.910	242
988.990	-718
989.070	-132
989.151	138
989.231	-764
989.311	362
989.391	194
989.471	-97
989.551	-403
989.631	-364
989.711	343
989.791	-238
989.870	-978
989.950	288
990.030	-499
990.110	-464
990.190	-854
990.269	-525
990.349	-751
990.429	-366
990.509	-254
990.588	-1038
990.668	645
990.747	-1256
990.827	-70
990.907	133
990.986	-106
991.066	-31
991.145	202
991.225	30
991.304	-43
991.383	225
991.463	408
991.542	418
991.622	714
991.701	-1106
991.780	-1443
991.859	-837
991.939	-508
992.018	-355
992.097	-237
992.176	-155
992.256	-979
992.335	-762
992.414	-425
992.493	-967
992.572	-874
992.651	731
992.730	-524
992.809	234
992.888	-481
992.967	-905
993.046	494
993.125	-1114
993.203	96
993.282	-634
993.361	-795
993.440	-197
993.519	-1361
993.597	-16
993.676	-252
993.755	-425
993.834	-1178
993.912	-426
993.991	0
994.069	-672
994.148	-798
994.226	-797
994.305	-30
994.384	-919
994.462	363
994.540	-633
994.619	-630
994.697	-402
994.776	-668
994.854	840
994.932	-537
995.011	-825
995.089	-761
995.167	-1092
995.245	-195
995.324	-1700
995.402	491
995.480	-485
995.558	-288
995.636	-1925
995.714	-1003
995.792	143
995.870	-214
995.948	-658
996.026	-574
996.104	-1706
996.182	-198
996.260	-1084
996.338	-847
996.416	-1294
996.494	-849
996.572	429
996.649	-1253
996.727	-1916
996.805	-579
996.883	-500
996.960	-980
997.038	-704
997.116	-1189
997.193	-1045
997.271	-408
997.348	-1073
997.426	46
997.504	-1130
997.581	-273
997.658	-520
997.736	-1577
997.813	-1395
997.891	-1654
997.968	-979
998.046	-775
998.123	-845
998.200	-619
998.277	-1419
998.355	-671
998.432	-1952
998.509	-752
998.586	-550
998.663	-410
998.741	-1220
998.818	-549
998.895	-1932
998.972	-1218
999.049	-1347
999.126	-1115
999.203	-407
999.280	-530
999.357	-1597
999.434	-863
999.511	-495
999.587	-214
999.664	-1799
999.741	-818
999.818	-894
999.895	-1800
999.971	-1755
1000.048	-1402
1000.125	-642
1000.202	-1853
1000.278	-1070
1000.355	-1206
1000.431	-743
1000.508	-769
1000.584	-1089
1000.661	-1136
1000.738	-815
1000.814	-757
1000.890	-628
1000.967	-797
1001.043	-1267
1001.120	-1202
1001.196	-480
1001.272	-1511
1001.349	-955
1001.425	-603
1001.501	-1377
1001.577	-1923
1001.654	-818
1001.730	-1092
1001.806	-1893
1001.882	-1300
1001.958	-843
1002.034	-826
1002.110	-1471
1002.186	-1859
1002.262	-1150
1002.338	-1701
1002.414	-885
1002.490	-1186
1002.566	-1503
1002.642	-1712
1002.718	-221
1002.794	-378
1002.870	-1484
1002.945	-1266
1003.021	-1326
1003.097	-1129
1003.173	-793
1003.248	-1856
1003.324	-936
1003.400	-655
1003.475	-1999
1003.551	-1116
1003.626	-940
1003.702	-2783
1003.777	-1264
1003.853	-2144
1003.928	-1677
1004.004	-1538
1004.079	-1525
1004.155	-886
1004.230	-1991
1004.305	-833
1004.381	-2222
1004.456	-1573
1004.531	-1495
1004.607	-1297
1004.682	-1709
1004.757	-367
1004.832	-1684
1004.907	-1736
1004.982	-1538
1005.057	-364
1005.133	-1680
1005.208	-2094
1005.283	-962
1005.358	-1414
1005.433	-2445
1005.508	-1222
1005.583	-1487
1005.657	-1618
1005.732	-1060
1005.807	-1309
1005.882	-1526
1005.957	-2068
1006.032	-2023
1006.106	-1090
1006.181	-1823
1006.256	-1159
1006.331	-2031
1006.405	-1346
1006.480	-1956
1006.554	-1179
1006.629	-792
1006.704	-1254
1006.778	-1141
1006.853	-1672
1006.927	-1429
1007.002	-2338
1007.076	-1358
1007.150	-1094
1007.225	-768
1007.299	-275
1007.373	-2301
1007.448	-1854
1007.522	-1221
1007.596	-786
1007.671	-1181
1007.745	-1432
1007.819	-2664
1007.893	-1292
1007.967	-1382
1008.041	-2631
1008.115	-596
1008.190	-1632
1008.264	-1265
1008.338	-2366
1008.412	-2023
1008.486	-1198
1008.560	-2096
1008.633	-2261
1008.707	-1889
1008.781	-489
1008.855	-1725
1008.929	-1989
1009.003	-1812
1009.076	-1756
1009.150	-1389
1009.224	-1455
1009.298	-1712
1009.371	-1687
1009.445	-1215
1009.519	-1455
1009.592	-2535
1009.666	-1675
1009.739	-1137
1009.813	-2176
1009.886	-661
1009.960	-2176
1010.033	-1240
1010.107	-1943
1010.180	-2257
1010.253	-1430
1010.327	-2422
1010.400	-1555
1010.473	-1981
1010.547	-900
1010.620	-1424
1010.693	-1315
1010.766	-1625
1010.840	-1049
1010.913	-1819
1010.986	-2150
1011.059	-1881
1011.132	-2101
1011.205	-1025
1011.278	-1838
1011.351	-1723
1011.424	-1051
1011.497	-2667
1011.570	-2113
1011.643	-1787
1011.716	-1524
1011.789	-1626
1011.862	-1088
1011.934	-1530
1012.007	-2042
1012.080	-876
1012.153	-810
1012.225	-1424
1012.298	-1912
1012.371	-1786
1012.443	-1361
1012.516	-1977
1012.588	-887
1012.661	-1135
1012.733	-2354
1012.806	-24
1012.879	-2251
1012.951	-1723
1013.023	-1066
1013.096	-1742
1013.168	-1594
1013.241	-1225
1013.313	-2005
1013.385	-2668
1013.458	-1107
1013.530	-1105
1013.602	-1266
1013.674	-1931
1013.746	-2276
1013.819	-2179
1013.891	-966
1013.963	-2713
1014.035	-1783
1014.107	-2208
1014.179	-1765
1014.251	-2345
1014.323	-1327
1014.395	-986
1014.467	-1158
1014.539	-1480
1014.611	-1698
1014.683	-1560
1014.754	-1253
1014.826	-2818
1014.898	-1923
1014.970	-2207
1015.042	-1032
1015.113	-1767
1015.185	-1982
1015.257	-1725
1015.328	-929
1015.400	-2238
1015.471	-2009
1015.543	-2214
1015.615	-1428
1015.686	-1321
1015.757	-1688
1015.829	-995
1015.901	-1691
1015.972	-1786
1016.043	-1793
1016.115	-1930
1016.186	-1410
1016.257	-2617
1016.328	-1535
1016.400	-1751
1016.471	-2277
1016.542	-1615
1016.613	-1334
1016.685	-1881
1016.756	-1931
1016.827	-1712
1016.898	-1844
1016.969	-1343
1017.040	-2014
1017.111	-2284
1017.182	-1402
1017.253	-1531
1017.324	-1976
1017.395	-1336
1017.466	-1828
1017.537	-1559
1017.608	-1266
1017.678	-1244
1017.749	-1512
1017.820	-1923
1017.891	-1715
1017.961	-1960
1018.032	-1504
1018.103	-1531
1018.173	-1381
1018.244	-2441
1018.315	-1506
1018.385	-1189
1018.456	-1789
1018.526	-2135
1018.597	-1974
1018.667	-2359
1018.738	-1095
1018.808	-2576
1018.878	-1622
1018.949	-1851
1019.019	-1407
1019.089	-1478
1019.160	-1244
1019.230	-2057
1019.300	-1643
1019.371	-2206
1019.441	-1191
1019.511	-1865
1019.581	-1783
1019.651	-1897
1019.721	-1821
1019.791	-1322
1019.861	-1403
1019.931	-1617
1020.001	-1614
1020.071	-1246
1020.141	-1473
1020.211	-1459
1020.281	-2756
1020.351	-2035
1020.421	-1265
1020.491	-1065
1020.560	-1809
1020.630	-1099
1020.700	-2179
1020.770	-1287
1020.839	-999
1020.909	-1671
1020.979	-1612
1021.048	-1739
1021.118	-1963
1021.187	-2233
1021.257	-1770
1021.326	-1536
1021.396	-1724
1021.465	-1161
1021.535	-1734
1021.604	-1936
1021.674	-1502
1021.743	-2120
1021.812	-2150
1021.882	-1627
1021.951	-1576
1022.020	-2050
1022.089	-1242
1022.159	-2507
1022.228	-1620
1022.297	-2097
1022.366	-1962
1022.435	-2311
1022.504	-1417
1022.573	-2599
1022.642	-1862
1022.711	-1896
1022.781	-2213
1022.849	-1438
1022.918	-1913
1022.987	-2032
1023.056	-1032
1023.125	-2013
1023.194	-2505
1023.263	-1317
1023.331	-1574
1023.400	-1986
1023.469	-2262
1023.538	-1459
1023.606	-1921
1023.675	-1470
1023.744	-2244
1023.812	-1816
1023.881	-2169
1023.949	-1204
1024.018	-1682
1024.086	-1896
1024.155	-1803
1024.223	-2118
1024.292	-1434
1024.360	-1813
1024.429	-1817
1024.497	-2298
1024.565	-2788
1024.634	-2035
1024.702	-1715
1024.770	-1990
1024.838	-2095
1024.907	-2810
1024.975	-2319
1025.043	-1410
1025.111	-1769
1025.179	-1473
1025.247	-2035
1025.315	-1824
1025.383	-1593
1025.451	-1719
1025.519	-1718
1025.587	-2138
1025.655	-1257
1025.723	-1701
1025.791	-1534
1025.859	-2251
1025.927	-1669
1025.995	-2501
1026.062	-2133
1026.130	-2217
1026.198	-2231
1026.266	-2743
1026.333	-2364
1026.401	-2068
1026.469	-1593
1026.536	-1666
1026.604	-2149
1026.671	-2501
1026.739	-1709
1026.806	-2130
1026.874	-1852
1026.941	-1503
1027.009	-2492
1027.076	-1874
1027.144	-1324
1027.211	-1498
1027.278	-2314
1027.345	-2579
1027.413	-1376
1027.480	-2408
1027.547	-2184
1027.614	-2559
1027.682	-1246
1027.749	-1107
1027.816	-1519
1027.883	-1998
1027.950	-1412
1028.017	-2847
1028.084	-1977
1028.151	-2233
1028.218	-2303
1028.285	-2378
1028.352	-1789
1028.419	-2829
1028.486	-1662
1028.553	-1603
1028.619	-2797
1028.686	-1459
1028.753	-2204
1028.820	-2554
1028.886	-2436
1028.953	-1821
1029.020	-1611
1029.086	-2080
1029.153	-1574
1029.220	-1976
1029.286	-2748
1029.353	-1909
1029.419	-2597
1029.486	-1357
1029.552	-2881
1029.619	-2568
1029.685	-2784
1029.751	-1208
1029.818	-1308
1029.884	-1633
1029.951	-706
1030.017	-1695
1030.083	-1880
1030.149	-2446
1030.216	-2475
1030.282	-1722
1030.348	-1869
1030.414	-2742
1030.480	-2345
1030.546	-1973
1030.612	-1727
1030.678	-2214
1030.744	-1644
1030.810	-2186
1030.876	-2089
1030.942	-2010
1031.008	-2608
1031.074	-2094
1031.140	-1671
1031.206	-1280
1031.272	-2418
1031.337	-1880
1031.403	-1878
1031.469	-2294
1031.534	-1785
1031.600	-2117
1031.666	-1758
1031.731	-2539
1031.797	-1617
1031.863	-2448
1031.928	-1927
1031.994	-2115
1032.059	-1683
1032.125	-1980
1032.190	-1859
1032.256	-2156
1032.321	-2075
1032.386	-2803
1032.452	-1762
1032.517	-1920
1032.582	-1245
1032.647	-1661
1032.713	-1894
1032.778	-1634
1032.843	-2408
1032.908	-2327
1032.974	-2565
1033.039	-2148
1033.104	-1616
1033.169	-2479
1033.234	-2510
1033.299	-1651
1033.364	-1924
1033.429	-1185
1033.494	-799
1033.559	-2732
1033.624	-1680
1033.688	-1716
1033.753	-2207
1033.818	-1955
1033.883	-1848
1033.948	-1896
1034.013	-1738
1034.077	-2400
1034.142	-1660
1034.207	-1292
1034.271	-753
1034.336	10
1034.400	-39
1034.465	-619
1034.530	-739
1034.594	-1537
1034.658	-1910
1034.723	-1348
1034.787	-1787
1034.852	-2126
1034.916	-2036
1034.981	-2305
1035.045	-1565
1035.109	-2318
1035.173	-1541
1035.238	-2248
1035.302	-1666
1035.366	-1682
1035.430	-1519
1035.495	-2773
1035.559	-796
1035.623	-2261
1035.687	-1985
1035.751	-2745
1035.815	-1725
1035.879	-2115
1035.943	-1953
1036.007	-1763
1036.071	-1775
1036.135	-1728
1036.198	-1914
1036.262	-2527
1036.326	-2014
1036.390	-2441
1036.454	-1047
1036.517	-719
1036.581	-1256
1036.645	-472
1036.709	-604
1036.772	-1078
1036.836	-1279
1036.900	-2006
1036.963	-1516
1037.026	-1713
1037.090	-1776
1037.154	-2164
1037.217	-1868
1037.280	-2237
1037.344	-2020
1037.407	-2177
1037.471	-1624
1037.534	-1430
1037.597	-1941
1037.661	-1611
1037.724	-2174
1037.787	-2262
1037.850	-1912
1037.913	-1664
1037.977	-1483
1038.040	-2416
1038.103	-1787
1038.166	-3045
1038.229	-1437
1038.292	-2293
1038.355	-2122
1038.418	-2065
1038.481	-1114
1038.544	-2353
1038.607	-1415
1038.670	-1502
1038.732	-1824
1038.795	-2694
1038.858	-1719
1038.921	-1625
1038.984	-1874
1039.046	-1816
1039.109	-1696
1039.172	-2702
1039.234	-1767
1039.297	-1827
1039.360	-1891
1039.422	-2359
1039.485	-1523
1039.547	-2145
1039.610	-1683
1039.672	-2757
1039.734	-1643
1039.797	-2255
1039.859	-1771
1039.922	-2464
1039.984	-2196
1040.046	-2263
1040.109	-1615
1040.171	-1670
1040.233	-1579
1040.295	-2318
1040.358	-1738
1040.420	-2320
1040.482	-2129
1040.544	-2015
1040.606	-1817
1040.668	-1436
1040.730	-1897
1040.792	-1789
1040.854	-1552
1040.916	-1581
1040.978	-1892
1041.040	-1691
1041.102	-1594
1041.164	-2303
1041.225	-2064
1041.287	-2754
1041.349	-2677
1041.411	-2091
1041.472	-1831
1041.534	-1475
1041.596	-1944
1041.657	-1882
1041.719	-1742
1041.781	-1294
1041.842	-1947
1041.904	-2298
1041.965	-1553
1042.027	-1252
1042.088	-1636
1042.150	-1131
1042.211	-2028
1042.272	-1133
1042.334	-1389
1042.395	-2154
1042.456	-2121
1042.518	-2158
1042.579	-2281
1042.640	-2189
1042.701	-1332
1042.763	-2088
1042.824	-1621
1042.885	-1925
1042.946	-1587
1043.007	-2382
1043.068	-1943
1043.129	-2157
1043.190	-1961
1043.251	-1851
1043.312	-2109
1043.373	-1602
1043.434	-1596
1043.495	-1491
1043.556	-1438
1043.616	-1860
1043.677	-1458
1043.738	-1245
1043.799	-1964
1043.859	-1516
1043.920	-2189
1043.981	-2095
1044.041	-1640
1044.102	-2432
1044.162	-1860
1044.223	-2124
1044.284	-1963
1044.344	-2128
1044.405	-1164
1044.465	-2351
1044.525	-1923
1044.586	-2381
1044.646	-1784
1044.707	-2688
1044.767	-1361
1044.827	-1613
1044.887	-1164
1044.948	-1739
1045.008	-1695
1045.068	-2696
1045.128	-770
1045.188	-1757
1045.249	-1250
1045.309	-1928
1045.369	-1224
1045.429	-2172
1045.489	-2065
1045.549	-1693
1045.609	-1549
1045.669	-2171
1045.729	-932
1045.789	-1253
1045.848	-1837
1045.908	-1226
1045.968	-669
1046.028	-1730
1046.088	-1430
1046.147	-1268
1046.207	-976
1046.267	-1797
1046.326	-1176
1046.386	-1877
1046.446	-1423
1046.505	-569
1046.565	-1868
1046.624	-473
1046.684	-519
1046.743	-971
1046.803	-193
1046.862	-846
1046.922	0
