'Start Wavelength	183.907
'End Wavelength	1046.922
'Gate Delay	5.000
'Gate Width (ms)	1.050
'Laser Output Level	0.000
'X Position	0.000
'Y Position	0.000
'Z Position	0.000
'Grid Point Number	1.000
'Shot Number	100.000
183.907	674.000
183.977	-575.000
184.047	-87
184.116	203
184.186	247
184.256	220
184.325	-161
184.395	324
184.465	548
184.534	-491
184.604	286
184.674	435
184.743	-890
184.813	160
184.883	331
184.952	-255
185.022	367
185.092	640
185.161	369
185.231	609
185.301	-303
185.370	1404
185.440	267
185.509	64
185.579	23
185.649	567
185.718	932
185.788	1035
185.857	-1066
185.927	303
185.996	682
186.066	-476
186.136	-998
186.205	137
186.275	381
186.344	514
186.414	-102
186.483	65
186.553	91
186.622	1415
186.692	470
186.761	282
186.831	207
186.900	-39
186.970	32
187.039	19
187.109	1581
187.178	324
187.248	186
187.317	338
187.387	105
187.456	251
187.526	633
187.595	448
187.664	301
187.734	889
187.803	-571
187.873	412
187.942	135
188.012	704
188.081	277
188.150	-67
188.220	-69
188.289	147
188.358	512
188.428	159
188.497	102
188.567	262
188.636	-46
188.705	532
188.775	259
188.844	-173
188.913	837
188.983	255
189.052	1123
189.121	609
189.191	358
189.260	506
189.329	553
189.399	-209
189.468	-416
189.537	279
189.606	753
189.676	646
189.745	73
189.814	1230
189.883	21
189.953	472
190.022	747
190.091	878
190.161	823
190.230	466
190.299	-391
190.368	385
190.437	-69
190.507	22
190.576	476
190.645	738
190.714	153
190.783	291
190.853	32
190.922	753
190.991	194
191.060	784
191.129	-442
191.198	588
191.268	526
191.337	473
191.406	421
191.475	713
191.544	201
191.613	559
191.682	21
191.752	449
191.821	537
191.890	1074
191.959	147
192.028	597
192.097	47
192.166	623
192.235	101
192.304	995
192.373	596
192.442	316
192.511	237
192.580	1172
192.650	153
192.719	-132
192.788	1060
192.857	719
192.926	419
192.995	1055
193.064	692
193.133	1484
193.202	950
193.271	1760
193.340	1438
193.409	1551
193.478	1200
193.547	1584
193.615	2051
193.684	1910
193.753	1558
193.822	1736
193.891	633
193.960	145
194.029	422
194.098	722
194.167	389
194.236	1143
194.305	1128
194.374	180
194.443	865
194.512	985
194.580	1073
194.649	719
194.718	999
194.787	676
194.856	-496
194.925	639
194.994	280
195.062	1362
195.131	432
195.200	1382
195.269	410
195.338	1119
195.407	1099
195.475	229
195.544	968
195.613	1255
195.682	504
195.751	1131
195.819	698
195.888	1101
195.957	1334
196.026	1759
196.094	977
196.163	1116
196.232	1470
196.301	827
196.369	759
196.438	1548
196.507	604
196.576	430
196.644	1379
196.713	1470
196.782	120
196.850	1551
196.919	657
196.988	-35
197.056	529
197.125	846
197.194	515
197.262	1381
197.331	429
197.400	803
197.468	355
197.537	713
197.606	936
197.674	1640
197.743	1729
197.812	158
197.880	1327
197.949	1196
198.017	1963
198.086	571
198.155	559
198.223	1394
198.292	1300
198.360	1294
198.429	1233
198.497	1047
198.566	1702
198.635	1359
198.703	1478
198.772	1430
198.840	2057
198.909	1410
198.977	1212
199.046	1000
199.114	1893
199.183	721
199.251	624
199.320	964
199.388	1281
199.457	1389
199.525	17
199.594	706
199.662	1085
199.731	305
199.799	1365
199.867	853
199.936	845
200.004	1033
200.073	1080
200.141	1238
200.210	669
200.278	458
200.346	632
200.415	1712
200.483	1308
200.552	965
200.620	569
200.688	1177
200.757	1302
200.825	299
200.893	642
200.962	987
201.030	363
201.098	1137
201.167	1578
201.235	1680
201.303	747
201.372	1636
201.440	746
201.508	1302
201.577	1535
201.645	1189
201.713	1052
201.781	682
201.850	1328
201.918	1129
201.986	1138
202.055	1265
202.123	495
202.191	503
202.259	983
202.327	1272
202.396	521
202.464	1399
202.532	1210
202.600	2831
202.669	1329
202.737	1665
202.805	928
202.873	1200
202.941	818
203.009	1143
203.078	653
203.146	1301
203.214	642
203.282	727
203.350	1239
203.418	1091
203.487	830
203.555	713
203.623	1122
203.691	1567
203.759	1966
203.827	1151
203.895	1896
203.963	1200
204.031	576
204.099	1216
204.168	1494
204.236	1475
204.304	2483
204.372	1713
204.440	743
204.508	1001
204.576	745
204.644	1479
204.712	51
204.780	676
204.848	1056
204.916	1145
204.984	491
205.052	856
205.120	1313
205.188	1323
205.256	1037
205.324	637
205.392	675
205.460	1470
205.528	813
205.596	1430
205.664	590
205.732	1011
205.799	2023
205.867	3653
205.935	696
206.003	1334
206.071	1100
206.139	1384
206.207	1176
206.275	1017
206.343	1747
206.411	1786
206.478	1225
206.546	2088
206.614	1394
206.682	1528
206.750	961
206.818	1560
206.885	1036
206.953	339
207.021	1558
207.089	1773
207.157	594
207.225	1720
207.292	1031
207.360	2121
207.428	1127
207.496	841
207.563	743
207.631	1372
207.699	402
207.767	1731
207.834	1225
207.902	1510
207.970	794
208.038	1637
208.105	1010
208.173	1409
208.241	1695
208.309	2152
208.376	1984
208.444	2978
208.512	1774
208.579	1141
208.647	1257
208.715	1910
208.782	1250
208.850	1931
208.918	699
208.985	1596
209.053	1698
209.120	1631
209.188	1285
209.256	2210
209.323	1071
209.391	2264
209.459	3007
209.526	1906
209.594	762
209.661	677
209.729	1412
209.796	1854
209.864	1401
209.932	707
209.999	2302
210.067	2215
210.134	1233
210.202	1804
210.269	2911
210.337	3080
210.404	1535
210.472	1822
210.539	2261
210.607	2100
210.674	2229
210.742	2300
210.809	1040
210.877	2191
210.944	3015
211.012	1489
211.079	2780
211.146	1676
211.214	2670
211.281	2486
211.349	2412
211.416	2335
211.484	2390
211.551	2120
211.618	1510
211.686	1686
211.753	884
211.821	1921
211.888	1001
211.955	1791
212.023	995
212.090	1071
212.157	1967
212.225	2403
212.292	3498
212.359	5020
212.427	7913
212.494	4939
212.561	3085
212.629	2479
212.696	1861
212.763	2578
212.831	1774
212.898	2545
212.965	2256
213.032	2314
213.100	2415
213.167	2702
213.234	1686
213.301	2417
213.369	2343
213.436	2105
213.503	1176
213.570	2298
213.638	2364
213.705	2362
213.772	1169
213.839	3197
213.906	2974
213.973	2609
214.041	2311
214.108	2936
214.175	2296
214.242	2249
214.309	2337
214.376	2112
214.444	2358
214.511	3052
214.578	2082
214.645	2638
214.712	1920
214.779	3210
214.846	2453
214.913	3103
214.980	3011
215.048	3031
215.115	3463
215.182	3606
215.249	2699
215.316	2051
215.383	2122
215.450	2686
215.517	2668
215.584	2952
215.651	2153
215.718	2100
215.785	2645
215.852	2672
215.919	2403
215.986	2451
216.053	2200
216.120	1956
216.187	2544
216.254	2504
216.321	1715
216.388	2503
216.455	2703
216.522	2644
216.589	3806
216.656	5497
216.722	4262
216.789	4114
216.856	3938
216.923	3613
216.990	3063
217.057	3906
217.124	3341
217.191	3728
217.258	3865
217.324	5145
217.391	5345
217.458	4308
217.525	3586
217.592	2859
217.659	1879
217.725	3866
217.792	2995
217.859	4189
217.926	1315
217.993	2197
218.059	2043
218.126	1858
218.193	2324
218.260	2448
218.327	1649
218.393	2825
218.460	1287
218.527	1988
218.594	2412
218.660	2781
218.727	3657
218.794	1552
218.860	2205
218.927	1823
218.994	1507
219.061	1320
219.127	1851
219.194	3210
219.261	2064
219.327	1286
219.394	1423
219.461	1366
219.527	1688
219.594	1819
219.661	2205
219.727	1211
219.794	1863
219.860	1857
219.927	2313
219.994	3443
220.060	4583
220.127	4416
220.193	3201
220.260	2758
220.326	4300
220.393	7106
220.460	7885
220.526	5753
220.593	3442
220.659	4585
220.726	3810
220.792	6649
220.859	6863
220.925	10022
220.992	11544
221.058	10528
221.125	7845
221.191	6397
221.258	3900
221.324	3726
221.391	2752
221.457	2414
221.524	2804
221.590	3941
221.657	6378
221.723	4779
221.789	4370
221.856	4645
221.922	2941
221.989	2777
222.055	2512
222.121	2462
222.188	3933
222.254	2663
222.321	2012
222.387	2336
222.453	2565
222.520	2051
222.586	1719
222.652	1997
222.719	1476
222.785	2295
222.851	1691
222.918	2390
222.984	2018
223.050	2183
223.116	710
223.183	2387
223.249	1535
223.315	1285
223.382	2322
223.448	1543
223.514	761
223.580	1805
223.647	1100
223.713	1813
223.779	1628
223.845	1931
223.911	1612
223.978	1267
224.044	1771
224.110	1592
224.176	1921
224.242	1652
224.309	1338
224.375	2074
224.441	1631
224.507	1220
224.573	982
224.639	1761
224.705	986
224.772	1881
224.838	1709
224.904	2426
224.970	1606
225.036	1251
225.102	745
225.168	2152
225.234	2379
225.300	1683
225.366	1457
225.432	1615
225.499	2078
225.565	1876
225.631	2074
225.697	2883
225.763	2978
225.829	3155
225.895	3955
225.961	4702
226.027	3764
226.093	3338
226.159	4990
226.225	6429
226.291	11880
226.357	16832
226.423	11103
226.489	7274
226.554	4449
226.620	4770
226.686	5188
226.752	7934
226.818	11343
226.884	18718
226.950	17593
227.016	9081
227.082	5183
227.148	4643
227.214	4446
227.279	4003
227.345	3144
227.411	3074
227.477	3583
227.543	6765
227.609	5696
227.674	4849
227.740	2812
227.806	2912
227.872	1762
227.938	3804
228.003	4115
228.069	2837
228.135	1876
228.201	2605
228.267	2681
228.332	3586
228.398	2119
228.464	3358
228.530	1653
228.595	1992
228.661	2157
228.727	2504
228.792	3035
228.858	2826
228.924	1806
228.990	3477
229.055	1926
229.121	3642
229.187	1991
229.252	1816
229.318	1799
229.384	2044
229.449	2733
229.515	497
229.581	802
229.646	3154
229.712	2222
229.777	4282
229.843	3760
229.909	4613
229.974	4385
230.040	5019
230.105	3663
230.171	3501
230.236	4971
230.302	5947
230.368	4890
230.433	3484
230.499	3332
230.564	4326
230.630	3504
230.695	3016
230.761	2545
230.826	1459
230.892	3715
230.957	2176
231.023	2258
231.088	2631
231.154	2559
231.219	3390
231.284	3736
231.350	4253
231.415	2161
231.481	3133
231.546	2284
231.612	2148
231.677	1932
231.742	2436
231.808	3843
231.873	1579
231.939	533
232.004	4420
232.069	3878
232.135	2364
232.200	2063
232.265	2499
232.331	1665
232.396	1621
232.461	1451
232.527	2024
232.592	2001
232.657	2718
232.723	3255
232.788	2478
232.853	2183
232.918	2649
232.984	1315
233.049	2303
233.114	2133
233.179	3102
233.245	4609
233.310	3997
233.375	1193
233.440	2535
233.506	1921
233.571	2185
233.636	2517
233.701	2361
233.766	3169
233.832	4058
233.897	2914
233.962	2205
234.027	4620
234.092	3075
234.157	3225
234.222	2589
234.288	3637
234.353	6990
234.418	7073
234.483	6522
234.548	6012
234.613	4659
234.678	4376
234.743	4284
234.808	7593
234.873	5650
234.938	4602
235.004	3408
235.069	3880
235.134	2838
235.199	3496
235.264	3667
235.329	1605
235.394	4118
235.459	3960
235.524	2631
235.589	3322
235.654	2665
235.719	1612
235.784	3753
235.849	3406
235.913	4657
235.978	4982
236.043	5258
236.108	3282
236.173	2820
236.238	3538
236.303	1952
236.368	2944
236.433	4883
236.498	5050
236.563	5942
236.627	10112
236.692	24369
236.757	21905
236.822	11246
236.887	8207
236.952	7398
237.017	4658
237.081	6431
237.146	7931
237.211	14787
237.276	24801
237.341	32127
237.405	19613
237.470	10280
237.535	6839
237.600	5690
237.664	4540
237.729	3852
237.794	5280
237.859	10709
237.923	6212
237.988	4498
238.053	5811
238.118	4657
238.182	8911
238.247	9810
238.312	4846
238.376	4975
238.441	2172
238.506	4228
238.570	1687
238.635	4831
238.700	1980
238.764	3434
238.829	5582
238.893	5921
238.958	3726
239.023	4435
239.087	2968
239.152	3991
239.216	2412
239.281	3209
239.346	3034
239.410	3338
239.475	2598
239.539	8655
239.604	6291
239.668	4241
239.733	2841
239.797	5214
239.862	10290
239.926	9780
239.991	4698
240.055	3231
240.120	2644
240.184	3709
240.249	2085
240.313	3085
240.378	1894
240.442	5089
240.507	8435
240.571	3619
240.635	3971
240.700	5223
240.764	3431
240.829	2914
240.893	1023
240.957	3579
241.022	5337
241.086	9205
241.151	5180
241.215	2819
241.279	3001
241.344	5059
241.408	4558
241.472	4487
241.537	4910
241.601	4909
241.665	2730
241.730	4775
241.794	4267
241.858	4206
241.922	3566
241.987	4627
242.051	3068
242.115	2788
242.179	4496
242.244	3299
242.308	3684
242.372	4152
242.436	4629
242.501	4990
242.565	3291
242.629	3702
242.693	3422
242.757	3311
242.822	3131
242.886	3856
242.950	4199
243.014	2899
243.078	4457
243.142	4589
243.206	3562
243.271	4102
243.335	2775
243.399	5398
243.463	12860
243.527	29672
243.591	12311
243.655	6251
243.719	3506
243.783	5894
243.847	6950
243.911	8776
243.975	9811
244.040	7347
244.104	5656
244.168	4512
244.232	6095
244.296	8826
244.360	8330
244.424	5034
244.488	3963
244.552	3914
244.615	1611
244.679	3355
244.743	3570
244.807	4252
244.871	3970
244.935	3671
244.999	2357
245.063	3799
245.127	4262
245.191	5819
245.255	5737
245.319	5800
245.383	3987
245.446	5145
245.510	2708
245.574	4095
245.638	4510
245.702	3430
245.766	7320
245.829	5811
245.893	4629
245.957	3592
246.021	4521
246.085	3950
246.149	4740
246.212	10917
246.276	13165
246.340	8445
246.404	6329
246.467	5995
246.531	6985
246.595	6686
246.659	5158
246.722	4864
246.786	7218
246.850	7398
246.913	7116
246.977	3612
247.041	4777
247.104	5150
247.168	3977
247.232	10283
247.295	17195
247.359	10596
247.423	5200
247.486	8845
247.550	6860
247.614	5232
247.677	7669
247.741	4809
247.804	3536
247.868	5554
247.932	8964
247.995	18557
248.059	7875
248.122	4555
248.186	7424
248.249	11128
248.313	24910
248.376	28460
248.440	20789
248.503	8972
248.567	8967
248.630	9930
248.694	13679
248.757	19697
248.821	27267
248.884	23304
248.948	18624
249.011	25746
249.075	30774
249.138	30325
249.202	15102
249.265	10253
249.328	10571
249.392	9089
249.455	8713
249.519	6285
249.582	8039
249.645	11765
249.709	8347
249.772	6994
249.835	6295
249.899	6170
249.962	6233
250.025	6427
250.089	13075
250.152	18254
250.215	10479
250.279	7803
250.342	8385
250.405	7689
250.468	5930
250.532	8411
250.595	11666
250.658	30393
250.721	46318
250.785	21797
250.848	12896
250.911	7656
250.974	7252
251.038	10154
251.101	18196
251.164	11905
251.227	12662
251.290	11319
251.354	13371
251.417	40260
251.480	42059
251.543	32281
251.606	64828
251.669	54752
251.732	26797
251.795	25712
251.859	25695
251.922	45710
251.985	30803
252.048	14615
252.111	11433
252.174	10781
252.237	20657
252.300	32958
252.363	38121
252.426	55766
252.489	28256
252.552	16551
252.615	10926
252.678	13393
252.741	25488
252.804	33988
252.867	59124
252.930	42216
252.993	23932
253.056	16475
253.119	11796
253.182	7628
253.245	14997
253.308	12145
253.371	12447
253.434	10896
253.497	11661
253.559	18746
253.622	13066
253.685	19993
253.748	21624
253.811	10413
253.874	11356
253.937	10030
254.000	8160
254.062	13925
254.125	18753
254.188	18842
254.251	14633
254.314	8780
254.376	14802
254.439	16643
254.502	16554
254.565	15074
254.628	24202
254.690	18093
254.753	9805
254.816	8389
254.878	8294
254.941	14191
255.004	14662
255.067	8038
255.129	8352
255.192	4867
255.255	4441
255.317	6662
255.380	4477
255.443	4223
255.505	3223
255.568	3462
255.631	3210
255.693	5169
255.756	3068
255.819	4630
255.881	3274
255.944	3058
256.006	2829
256.069	3627
256.132	3079
256.194	4791
256.257	8749
256.319	6790
256.382	6299
256.444	5846
256.507	4367
256.569	4205
256.632	3519
256.694	6100
256.757	17098
256.819	44342
256.882	19719
256.944	10347
257.007	9271
257.069	8908
257.132	5168
257.194	5718
257.257	5807
257.319	4838
257.381	5055
257.444	13211
257.506	47677
257.569	58092
257.631	29126
257.693	16931
257.756	7730
257.818	6785
257.880	4551
257.943	4942
258.005	4109
258.067	5201
258.130	4245
258.192	6477
258.254	11319
258.317	6897
258.379	4421
258.441	11091
258.503	9707
258.566	10431
258.628	12905
258.690	4174
258.753	6223
258.815	12544
258.877	6659
258.939	5195
259.001	5577
259.064	4884
259.126	4882
259.188	6751
259.250	4976
259.312	6152
259.375	12490
259.437	9092
259.499	4965
259.561	4762
259.623	4606
259.685	4270
259.747	3544
259.809	9626
259.872	17008
259.934	24528
259.996	24416
260.058	10237
260.120	4092
260.182	4015
260.244	3779
260.306	3214
260.368	4561
260.430	3209
260.492	8435
260.554	14134
260.616	9034
260.678	14572
260.740	17711
260.802	6832
260.864	6755
260.926	4374
260.988	5572
261.050	5113
261.112	9766
261.174	21690
261.236	14518
261.298	7632
261.359	8482
261.421	12119
261.483	4352
261.545	5115
261.607	2800
261.669	4326
261.731	5156
261.793	15526
261.854	8657
261.916	6329
261.978	4699
262.040	5825
262.102	3113
262.164	5216
262.225	5145
262.287	4395
262.349	10024
262.411	8452
262.472	4382
262.534	6988
262.596	11281
262.658	5182
262.719	2482
262.781	4023
262.843	9884
262.904	6297
262.966	4407
263.028	4858
263.090	18937
263.151	48996
263.213	19121
263.275	12831
263.336	5787
263.398	4636
263.459	2132
263.521	3845
263.583	10236
263.644	7070
263.706	3912
263.767	2237
263.829	2715
263.891	2832
263.952	1617
264.014	2020
264.075	4536
264.137	12878
264.198	7022
264.260	3109
264.321	2494
264.383	7808
264.444	18784
264.506	6627
264.567	4939
264.629	6998
264.690	13639
264.752	7287
264.813	4709
264.875	3030
264.936	3674
264.998	3694
265.059	2881
265.120	2883
265.182	5909
265.243	26678
265.305	27692
265.366	7089
265.427	4134
265.489	4727
265.550	2092
265.611	3815
265.673	4362
265.734	3348
265.795	2773
265.857	2535
265.918	2817
265.979	8224
266.040	39662
266.102	33494
266.163	11005
266.224	9839
266.286	5117
266.347	3171
266.408	3285
266.469	3741
266.530	2793
266.592	2861
266.653	7311
266.714	13484
266.775	5112
266.836	3559
266.898	2911
266.959	6793
267.020	4561
267.081	4354
267.142	3022
267.203	3053
267.264	3059
267.326	5169
267.387	3069
267.448	2727
267.509	4237
267.570	3971
267.631	1567
267.692	2980
267.753	3360
267.814	3032
267.875	6098
267.936	13176
267.997	8326
268.058	8885
268.119	4691
268.180	4522
268.241	3119
268.302	3191
268.363	2216
268.424	4305
268.485	4169
268.546	2046
268.607	2019
268.668	2659
268.729	2610
268.790	2750
268.851	3170
268.912	9104
268.972	10784
269.033	6479
269.094	3083
269.155	3125
269.216	2688
269.277	2916
269.338	2152
269.398	3177
269.459	4677
269.520	6840
269.581	8928
269.642	11062
269.702	7276
269.763	5260
269.824	3742
269.885	5614
269.945	8848
270.006	3640
270.067	2134
270.128	2497
270.188	2191
270.249	3078
270.310	1826
270.370	3441
270.431	2447
270.492	2833
270.553	3483
270.613	8227
270.674	14327
270.734	6837
270.795	3391
270.856	6000
270.916	4299
270.977	3423
271.038	5286
271.098	4838
271.159	7776
271.219	7450
271.280	2782
271.340	2510
271.401	3090
271.462	7719
271.522	5951
271.583	4788
271.643	3691
271.704	3298
271.764	4935
271.825	11721
271.885	32510
271.946	40992
272.006	16950
272.066	20454
272.127	31096
272.187	12615
272.248	7072
272.308	6132
272.369	20348
272.429	12551
272.489	11677
272.550	11856
272.610	13242
272.671	10174
272.731	6028
272.791	10701
272.852	7411
272.912	8566
272.972	4476
273.033	3535
273.093	6501
273.153	7640
273.214	4666
273.274	4583
273.334	16155
273.394	30186
273.455	16458
273.515	14213
273.575	26690
273.635	12242
273.696	15259
273.756	28963
273.816	14297
273.876	8480
273.936	11947
273.997	18407
274.057	5758
274.117	6123
274.177	8451
274.237	36140
274.297	28983
274.358	18466
274.418	23991
274.478	20252
274.538	6975
274.598	5776
274.658	14347
274.718	19732
274.778	8545
274.838	4864
274.898	8024
274.958	24456
275.018	25998
275.078	20413
275.138	9675
275.198	4825
275.258	3294
275.318	4852
275.378	10840
275.438	13888
275.498	8068
275.558	12184
275.618	24956
275.678	19845
275.738	15263
275.798	11665
275.858	5763
275.918	3639
275.978	5299
276.038	5687
276.098	3815
276.157	8205
276.217	24770
276.277	11773
276.337	11164
276.397	5061
276.457	8033
276.517	4097
276.576	2861
276.636	3559
276.696	6859
276.756	15790
276.815	10728
276.875	5356
276.935	6520
276.995	6553
277.055	3857
277.114	4397
277.174	4898
277.234	18380
277.293	8844
277.353	5980
277.413	3526
277.472	4530
277.532	4033
277.592	4908
277.651	16215
277.711	27263
277.771	9150
277.830	33833
277.890	26766
277.950	18956
278.009	46484
278.069	18701
278.128	21403
278.188	30585
278.248	14028
278.307	33025
278.367	17803
278.426	6557
278.486	4959
278.545	3535
278.605	3447
278.664	2898
278.724	4052
278.783	11166
278.843	27037
278.902	8728
278.962	6303
279.021	7764
279.081	6356
279.140	6596
279.199	8103
279.259	7840
279.318	6651
279.378	8027
279.437	13529
279.496	43389
279.556	108439
279.615	84830
279.675	26270
279.734	17143
279.793	23724
279.853	33422
279.912	13974
279.971	8541
280.031	7121
280.090	13321
280.149	21913
280.208	16402
280.268	72901
280.327	75021
280.386	20708
280.445	17503
280.505	15985
280.564	7416
280.623	5489
280.682	9978
280.742	15515
280.801	5258
280.860	4912
280.919	4567
280.978	3593
281.037	3626
281.097	2774
281.156	3248
281.215	3205
281.274	3881
281.333	16691
281.392	12957
281.451	3748
281.510	3253
281.569	3492
281.628	2944
281.688	2764
281.747	4248
281.806	3942
281.865	2934
281.924	3296
281.983	4483
282.042	1667
282.101	2717
282.160	3176
282.219	2108
282.278	3349
282.337	12698
282.396	7613
282.454	3723
282.513	4661
282.572	19637
282.631	11283
282.690	4830
282.749	3287
282.808	5688
282.867	5117
282.926	4906
282.985	3003
283.043	2486
283.102	2884
283.161	3848
283.220	8564
283.279	18077
283.338	6069
283.396	4769
283.455	4731
283.514	5993
283.573	9010
283.631	7436
283.690	3681
283.749	3712
283.808	10305
283.866	12012
283.925	4558
283.984	5413
284.043	7912
284.101	7361
284.160	4731
284.219	6693
284.277	6351
284.336	10113
284.395	28254
284.453	21665
284.512	10732
284.570	16153
284.629	14273
284.688	13461
284.746	15312
284.805	18958
284.863	24277
284.922	29897
284.981	35944
285.039	51292
285.098	79635
285.156	122027
285.215	87222
285.273	91698
285.332	121596
285.390	91127
285.449	60524
285.507	43389
285.566	30958
285.624	23754
285.683	18797
285.741	15074
285.799	12563
285.858	11455
285.916	11448
285.975	9313
286.033	7817
286.091	7115
286.150	5958
286.208	6471
286.267	6806
286.325	7463
286.383	11962
286.442	9663
286.500	4724
286.558	3979
286.616	3785
286.675	7783
286.733	5488
286.791	5083
286.850	5071
286.908	7418
286.966	12386
287.024	5402
287.083	3999
287.141	3856
287.199	4018
287.257	7050
287.315	4568
287.374	4403
287.432	13545
287.490	8622
287.548	5523
287.606	3459
287.664	3771
287.723	6489
287.781	7443
287.839	4115
287.897	5706
287.955	5255
288.013	7505
288.071	15440
288.129	61916
288.187	146850
288.245	71625
288.303	26135
288.361	14327
288.419	10564
288.477	7026
288.535	5767
288.593	4070
288.651	3699
288.709	3215
288.767	3892
288.825	3296
288.883	2704
288.941	2391
288.999	2848
289.057	2562
289.115	2486
289.173	2307
289.231	2346
289.289	3350
289.346	3050
289.404	3367
289.462	8009
289.520	8037
289.578	3361
289.636	2465
289.694	2843
289.751	1669
289.809	1966
289.867	2812
289.925	4355
289.983	5272
290.040	3246
290.098	2123
290.156	4637
290.214	4367
290.271	3090
290.329	2856
290.387	1419
290.444	1769
290.502	1744
290.560	1970
290.617	2253
290.675	2371
290.733	2437
290.790	2963
290.848	1780
290.906	2314
290.963	3358
291.021	1976
291.078	2313
291.136	1413
291.194	9656
291.251	19952
291.309	5602
291.366	2808
291.424	2535
291.481	3389
291.539	2919
291.596	2003
291.654	1468
291.711	671
291.769	2746
291.826	7213
291.884	3934
291.941	2741
291.999	2413
292.056	3242
292.114	4691
292.171	2105
292.228	3117
292.286	4288
292.343	8447
292.401	10603
292.458	6474
292.515	3907
292.573	5521
292.630	4148
292.687	3399
292.745	2933
292.802	4429
292.859	10864
292.917	21455
292.974	11558
293.031	4107
293.089	3357
293.146	2909
293.203	2265
293.260	2436
293.318	2532
293.375	5580
293.432	2850
293.489	2375
293.546	2155
293.604	3826
293.661	11318
293.718	32166
293.775	16702
293.832	9836
293.889	8338
293.947	6784
294.004	4214
294.061	4733
294.118	9647
294.175	20288
294.232	24863
294.289	10459
294.346	6786
294.403	6277
294.460	3576
294.517	3689
294.574	3109
294.631	2423
294.688	2696
294.745	10221
294.802	35187
294.859	37876
294.916	13743
294.973	8875
295.030	8178
295.087	6486
295.144	3510
295.201	3708
295.258	2324
295.315	4539
295.372	14829
295.429	24588
295.486	10352
295.542	6070
295.599	16004
295.656	25370
295.713	18037
295.770	23333
295.827	8800
295.883	4451
295.940	5151
295.997	10636
296.054	9154
296.111	4432
296.167	3772
296.224	3468
296.281	2170
296.338	3065
296.394	2341
296.451	3750
296.508	10968
296.564	19823
296.621	14171
296.678	31634
296.734	40727
296.791	15893
296.848	8070
296.904	9072
296.961	22669
297.018	29019
297.074	18478
297.131	8638
297.187	5230
297.244	7872
297.301	25039
297.357	40117
297.414	14438
297.470	6954
297.527	5202
297.583	4745
297.640	4537
297.696	3396
297.753	2375
297.809	3458
297.866	2031
297.922	2952
297.979	2234
298.035	2706
298.092	5120
298.148	16223
298.204	15096
298.261	7579
298.317	14370
298.374	35015
298.430	19889
298.486	9528
298.543	6339
298.599	5919
298.656	6612
298.712	13781
298.768	31917
298.824	19449
298.881	7145
298.937	5150
298.993	4670
299.050	6527
299.106	4911
299.162	4257
299.218	4724
299.275	3437
299.331	3570
299.387	8237
299.443	31824
299.500	31535
299.556	13691
299.612	7511
299.668	6068
299.724	9786
299.780	8962
299.837	4614
299.893	6624
299.949	27658
300.005	29174
300.061	27917
300.117	41838
300.173	19347
300.229	10537
300.285	15228
300.341	16191
300.397	8467
300.453	5411
300.510	4188
300.566	4509
300.622	5869
300.678	17997
300.734	31989
300.790	25532
300.845	28923
300.901	20321
300.957	30915
301.013	21347
301.069	8016
301.125	6920
301.181	7310
301.237	5522
301.293	3603
301.349	2776
301.405	3199
301.461	3316
301.516	4996
301.572	6502
301.628	10920
301.684	7965
301.740	12051
301.796	19192
301.851	12348
301.907	21675
301.963	19470
302.019	30593
302.074	72446
302.130	71342
302.186	35007
302.242	15472
302.297	10325
302.353	9665
302.409	17517
302.464	14170
302.520	12517
302.576	33284
302.631	35405
302.687	22061
302.743	9692
302.798	5599
302.854	4010
302.910	3991
302.965	6819
303.021	13358
303.076	12147
303.132	17234
303.187	19890
303.243	9135
303.299	5583
303.354	4104
303.410	4546
303.465	4178
303.521	3399
303.576	2326
303.632	3883
303.687	9579
303.743	27446
303.798	23091
303.853	9273
303.909	5610
303.964	5652
304.020	9368
304.075	14035
304.130	12515
304.186	26898
304.241	24326
304.297	19698
304.352	9747
304.358	9427
304.407	6836
304.449	6587
304.463	6506
304.518	6396
304.539	5827
304.573	4920
304.629	4167
304.630	4224
304.684	6901
304.720	17247
304.739	22483
304.794	29165
304.811	24771
304.850	14372
304.902	7044
304.905	6569
304.960	4912
304.992	5154
305.015	5343
305.071	5833
305.083	5706
305.126	5205
305.173	3452
305.181	3176
305.236	2405
305.264	3080
305.292	3746
305.347	4766
305.354	4936
305.402	6062
305.445	5650
305.457	5520
305.512	7660
305.535	7102
305.567	6331
305.622	6329
305.626	6513
305.678	10442
305.716	22890
305.733	27660
305.788	27330
305.807	23654
305.843	17199
305.897	24643
305.898	24736
305.953	23280
305.988	15930
306.008	11793
306.063	9819
306.078	8797
306.118	6178
306.168	3587
306.173	3363
306.228	3244
306.259	2928
306.283	2676
306.338	2414
306.349	2620
306.393	3603
306.440	3696
306.448	3705
306.503	3552
306.530	3715
306.558	4434
306.613	11187
306.620	12030
306.668	17407
306.711	24191
306.723	25360
306.778	19494
306.801	15433
306.833	10549
306.888	5411
306.892	5204
306.943	3574
306.982	3601
306.997	3508
307.052	3093
307.072	2775
307.107	2628
307.162	3414
307.163	3428
307.217	5022
307.253	6412
307.272	6847
307.327	7100
307.343	6792
307.381	6198
307.434	5283
307.436	5364
307.491	10798
307.524	16663
307.546	18932
307.600	19298
307.614	17092
307.655	10129
307.704	5832
307.710	5601
307.765	5911
307.795	7410
307.819	8924
307.874	13609
307.885	13535
307.929	11136
307.975	8740
307.984	8774
308.038	11961
308.065	14695
308.093	23154
308.148	52503
308.156	59304
308.202	94209
308.246	108133
308.257	105838
308.312	60736
308.336	46090
308.366	36658
308.421	23926
308.426	22837
308.475	14185
308.517	10004
308.530	9226
308.585	8031
308.607	7716
308.639	7339
308.694	7272
308.697	7349
308.748	11314
308.787	16340
308.803	16801
308.857	12927
308.877	11502
308.912	10289
308.967	10596
308.967	10623
309.021	15410
309.058	20194
309.076	24623
309.130	42786
309.148	49992
309.185	76219
309.238	123200
309.239	123511
309.293	133740
309.328	125547
309.348	111366
309.402	60481
309.418	48072
309.457	34950
309.508	22980
309.511	22568
309.566	21842
309.598	22756
309.620	26457
309.674	40726
309.688	44299
309.729	43005
309.778	33666
309.783	32745
309.837	22065
309.868	17372
309.892	18488
309.946	25279
309.959	28043
310.001	36381
310.049	41200
310.055	39910
310.109	23582
310.139	15241
310.163	12041
310.218	7666
310.229	6900
310.272	5613
310.319	4677
310.326	4485
310.381	3488
310.409	3195
310.435	3151
310.489	2743
310.499	2784
310.543	3269
310.589	3409
310.598	3357
310.652	3355
310.679	3289
310.706	3318
310.760	3296
310.769	3290
310.814	3103
310.859	2952
310.868	2911
310.923	2824
310.948	2732
310.977	2992
311.031	3648
311.038	3728
311.085	3616
311.128	3319
311.139	3253
311.193	3201
311.218	3039
311.247	3071
311.301	3242
311.308	3267
311.356	3386
311.398	3461
311.410	3407
311.464	3125
311.488	3046
311.518	2849
311.572	2249
311.578	2220
311.626	3902
311.668	5288
311.680	5130
311.734	4299
311.758	3925
311.788	4085
311.842	4466
311.847	4502
311.896	5437
311.937	6344
311.950	6312
312.004	6076
312.027	5981
312.058	5051
312.112	3392
312.117	3232
312.165	3302
312.207	3377
312.297	5247
312.386	4469
312.476	4212
312.566	8597
312.656	4534
312.745	2941
312.835	4084
312.925	3750
313.015	4015
313.104	3260
313.194	3772
313.284	3489
313.374	4794
313.463	4871
313.553	2707
313.643	3310
313.732	2548
313.822	2866
313.912	3820
314.001	4558
314.091	4414
314.180	5525
314.270	5008
314.360	4814
314.449	4722
314.539	3045
314.628	3138
314.718	4564
314.808	4350
314.897	3445
314.987	4285
315.076	5223
315.166	5703
315.255	5451
315.345	4691
315.434	5602
315.524	3569
315.613	4795
315.703	6386
315.792	7492
315.881	15169
315.971	6773
316.060	7789
316.150	9922
316.239	8463
316.328	4445
316.418	2912
316.507	3384
316.597	5477
316.686	4567
316.775	5118
316.865	9128
316.954	3304
317.043	3238
317.133	3863
317.222	2721
317.311	3255
317.400	2808
317.490	4709
317.579	5489
317.668	2653
317.757	5748
317.847	10827
317.936	27658
318.025	14258
318.114	8186
318.203	5693
318.293	10619
318.382	22021
318.471	16090
318.560	20265
318.649	29136
318.738	6979
318.828	5522
318.917	4510
319.006	5075
319.095	13372
319.184	37980
319.273	21294
319.362	10996
319.451	4255
319.540	3931
319.629	10234
319.718	15338
319.807	6381
319.896	15800
319.985	45699
320.074	16282
320.163	4350
320.252	7336
320.341	7434
320.430	7178
320.519	8821
320.608	5404
320.697	4774
320.786	4638
320.875	5043
320.964	7441
321.053	11343
321.142	16215
321.230	15382
321.319	12581
321.408	28912
321.497	12594
321.586	11765
321.675	10166
321.764	10127
321.852	7715
321.941	16362
322.030	9844
322.119	11577
322.207	28292
322.296	15287
322.385	9053
322.474	12692
322.562	35597
322.651	16815
322.740	12560
322.829	16094
322.917	13394
323.006	9752
323.095	9439
323.183	5642
323.272	8889
323.361	14074
323.449	34651
323.538	12055
323.626	25915
323.715	14484
323.804	7317
323.892	23055
323.981	13880
324.069	4577
324.158	11887
324.246	11010
324.335	7047
324.424	10475
324.512	4677
324.601	6717
324.689	15111
324.778	25042
324.866	10670
324.954	4191
325.043	3738
325.131	6303
325.220	9670
325.308	10378
325.397	8884
325.485	5629
325.574	3552
325.662	2966
325.750	4131
325.839	3627
325.927	2731
326.015	3981
326.104	4423
326.192	5413
326.280	3287
326.369	3787
326.457	6616
326.545	10075
326.634	4179
326.722	2766
326.810	2812
326.898	3313
326.987	3847
327.075	7280
327.163	7424
327.251	4593
327.340	13278
327.428	18180
327.516	4141
327.604	3509
327.692	3907
327.781	3246
327.869	4508
327.957	3169
328.045	4051
328.133	2059
328.221	3107
328.309	3463
328.397	3518
328.485	4015
328.574	5979
328.662	17919
328.750	8406
328.838	3079
328.926	2630
329.014	2695
329.102	4904
329.190	11577
329.278	7695
329.366	2257
329.454	2963
329.542	2942
329.630	2990
329.718	3742
329.806	3736
329.893	4499
329.981	4604
330.069	6750
330.157	27541
330.245	73075
330.333	38942
330.421	7543
330.509	6641
330.597	22828
330.684	13604
330.772	4131
330.860	5672
330.948	8754
331.036	4270
331.123	2444
331.211	3093
331.299	3340
331.387	8003
331.475	12726
331.562	3858
331.650	2166
331.738	2889
331.825	3526
331.913	2787
332.001	2233
332.089	4231
332.176	4970
332.264	11289
332.352	9469
332.439	3969
332.527	3869
332.614	2426
332.702	3593
332.790	2961
332.877	5929
332.965	12320
333.052	4463
333.140	5334
333.228	12775
333.315	4400
333.403	3406
333.490	7179
333.578	7864
333.665	17530
333.753	7769
333.840	3286
333.928	3409
334.015	7938
334.103	12852
334.190	43293
334.278	12185
334.365	6774
334.452	5625
334.540	4190
334.627	4129
334.715	5195
334.802	9332
334.889	40934
334.977	43469
335.064	12150
335.151	5070
335.239	4806
335.326	5897
335.413	23395
335.501	31073
335.588	5401
335.675	3983
335.762	5121
335.850	8368
335.937	7242
336.024	16649
336.111	54195
336.199	29450
336.286	8525
336.373	4943
336.460	3320
336.547	3798
336.635	4581
336.722	4371
336.809	3066
336.896	5095
336.983	14537
337.070	36671
337.157	47148
337.245	26964
337.332	17430
337.419	3472
337.506	3129
337.593	3193
337.680	12129
337.767	35896
337.854	10338
337.941	11103
338.028	11370
338.115	4503
338.202	5139
338.289	8737
338.376	26173
338.463	9368
338.550	21253
338.637	21472
338.724	5973
338.811	8131
338.898	2897
338.984	2674
339.071	3712
339.158	4302
339.245	12124
339.332	7915
339.419	6544
339.506	6736
339.593	2278
339.679	3122
339.766	2912
339.853	3873
339.940	8567
340.027	2484
340.113	4289
340.200	4406
340.287	3491
340.374	4468
340.460	8089
340.547	2970
340.634	5250
340.720	20451
340.807	11100
340.894	2806
340.980	3290
341.067	3254
341.154	3761
341.240	5136
341.327	11917
341.414	4609
341.500	6464
341.587	4115
341.674	3045
341.760	7670
341.847	9260
341.933	3547
342.020	1707
342.106	1388
342.193	3648
342.279	6670
342.366	4764
342.452	8330
342.539	5061
342.625	10025
342.712	22545
342.798	9527
342.885	4384
342.971	2263
343.058	2492
343.144	1875
343.230	2820
343.317	3527
343.403	3169
343.490	2321
343.576	2079
343.662	2449
343.749	3294
343.835	3129
343.921	5526
344.008	31887
344.094	67224
344.180	15142
344.267	7447
344.353	19301
344.439	20470
344.525	10420
344.612	6112
344.698	4939
344.784	2762
344.870	2645
344.957	2810
345.043	5858
345.129	3698
345.215	9108
345.301	5125
345.387	4122
345.474	2009
345.560	2263
345.646	2192
345.732	2755
345.818	4644
345.904	3506
345.990	4314
346.076	2833
346.162	6045
346.249	3912
346.335	2915
346.421	3576
346.507	8442
346.593	26718
346.679	7125
346.765	3066
346.851	3586
346.937	2763
347.023	3782
347.108	3285
347.194	2452
347.280	3353
347.366	4496
347.452	10217
347.538	34205
347.624	26825
347.710	21488
347.796	3713
347.882	2726
347.967	2592
348.053	3572
348.139	3139
348.225	2515
348.311	2856
348.397	2981
348.482	3992
348.568	4762
348.654	2641
348.740	5333
348.825	4209
348.911	5221
348.997	16268
349.083	29114
349.168	5562
349.254	4392
349.340	3742
349.425	3007
349.511	4094
349.597	4288
349.682	7817
349.768	23546
349.854	11485
349.939	3638
350.025	2684
350.110	2816
350.196	2169
350.282	1961
350.367	2432
350.453	4213
350.538	3857
350.624	4428
350.709	4208
350.795	3061
350.880	2172
350.966	4062
351.051	3534
351.137	3723
351.222	3433
351.308	8894
351.393	22375
351.479	7255
351.564	3589
351.649	3433
351.735	2210
351.820	2672
351.906	2249
351.991	3822
352.076	13834
352.162	22266
352.247	5053
352.332	4309
352.418	7547
352.503	10495
352.588	32222
352.673	27371
352.759	7121
352.844	3663
352.929	4252
353.014	4860
353.100	4024
353.185	5733
353.270	9309
353.355	9453
353.441	3158
353.526	3553
353.611	7470
353.696	9236
353.781	5617
353.866	2939
353.952	3807
354.037	7666
354.122	17316
354.207	15854
354.292	6690
354.377	4227
354.462	3190
354.547	4471
354.632	3999
354.717	6042
354.802	7204
354.887	3918
354.972	3450
355.057	3070
355.142	2388
355.227	3768
355.312	5438
355.397	10765
355.482	26118
355.567	12865
355.652	9981
355.737	9980
355.822	26310
355.907	21148
355.991	5520
356.076	2700
356.161	2693
356.246	2856
356.331	3377
356.416	6568
356.501	36935
356.585	37383
356.670	7128
356.755	6492
356.840	7037
356.924	27827
357.009	89937
357.094	37281
357.179	9525
357.263	7228
357.348	6087
357.433	7206
357.517	5745
357.602	5351
357.687	4268
357.771	7974
357.856	20105
357.941	13381
358.025	22378
358.110	84043
358.195	42324
358.279	8454
358.364	6200
358.448	20195
358.533	51711
358.617	39212
358.702	36669
358.787	14534
358.871	9116
358.956	8585
359.040	3427
359.125	2882
359.209	3403
359.294	10152
359.378	17676
359.462	8929
359.547	5033
359.631	3480
359.716	2499
359.800	2666
359.885	5237
359.969	3459
360.053	3286
360.138	2943
360.222	4666
360.306	8994
360.391	7270
360.475	12047
360.559	26417
360.644	20922
360.728	14435
360.812	21391
360.896	54306
360.981	26619
361.065	15295
361.149	5604
361.233	4691
361.318	3843
361.402	5460
361.486	4949
361.570	3341
361.654	5040
361.739	9380
361.823	36431
361.907	55115
361.991	12171
362.075	7692
362.159	16493
362.243	12608
362.327	14764
362.411	22756
362.495	10127
362.580	5903
362.664	4265
362.748	4343
362.832	5315
362.916	9367
363.000	33023
363.084	76503
363.168	73265
363.252	19355
363.336	9113
363.420	10701
363.503	33185
363.587	40500
363.671	7729
363.755	5438
363.839	8848
363.923	4242
364.007	9441
364.091	10346
364.175	14079
364.258	56854
364.342	52566
364.426	77638
364.510	44796
364.594	16683
364.677	15157
364.761	46539
364.845	36765
364.929	15369
365.013	13451
365.096	9801
365.180	11981
365.264	14911
365.347	51655
365.431	25020
365.515	7411
365.598	3604
365.682	5243
365.766	6190
365.849	9288
365.933	4839
366.017	6928
366.100	4544
366.184	2291
366.267	4294
366.351	3441
366.435	3910
366.518	2716
366.602	2640
366.685	3767
366.769	3773
366.852	6585
366.936	11263
367.019	7593
367.103	4817
367.186	11053
367.270	3876
367.353	3033
367.436	3540
367.520	2982
367.603	4584
367.687	5593
367.770	10085
367.853	7121
367.937	16279
368.020	25651
368.104	6701
368.187	7970
368.270	12516
368.353	10997
368.437	10784
368.520	17214
368.603	13446
368.687	19870
368.770	35875
368.853	10647
368.936	9679
369.020	10955
369.103	5278
369.186	3055
369.269	3652
369.352	7647
369.436	9674
369.519	6524
369.602	3296
369.685	5080
369.768	3349
369.851	3583
369.934	2293
370.018	4112
370.101	8814
370.184	8909
370.267	5909
370.350	10527
370.433	14240
370.516	27511
370.599	33246
370.682	11690
370.765	24614
370.848	28099
370.931	40866
371.014	18105
371.097	4630
371.180	5658
371.263	2592
371.346	2305
371.429	3892
371.511	4075
371.594	6314
371.677	9902
371.760	11560
371.843	10306
371.926	36058
372.009	75445
372.091	32650
372.174	19740
372.257	37776
372.340	17437
372.423	14524
372.505	17427
372.588	8270
372.671	15902
372.754	40529
372.836	23380
372.919	17438
373.002	34165
373.085	12674
373.167	9858
373.250	20515
373.332	40154
373.415	51198
373.498	94269
373.580	42192
373.663	48141
373.746	63949
373.828	18232
373.911	8629
373.993	8469
374.076	29480
374.159	29972
374.241	13345
374.324	36390
374.406	27734
374.489	31303
374.571	76867
374.654	35579
374.736	17985
374.819	48995
374.901	69733
374.983	69665
375.066	16477
375.148	7507
375.231	23625
375.313	49099
375.395	19805
375.478	5400
375.560	5033
375.643	5545
375.725	16745
375.807	57229
375.890	46873
375.972	18190
376.054	11753
376.136	14927
376.219	7775
376.301	19381
376.383	50082
376.465	22742
376.548	14229
376.630	17939
376.712	43431
376.794	22845
376.877	3523
376.959	3079
377.041	3165
377.123	7737
377.205	9485
377.287	2876
377.369	2565
377.452	2675
377.534	2566
377.616	2707
377.698	2503
377.780	2752
377.862	3293
377.944	3803
378.026	2232
378.108	2283
378.190	2782
378.272	3288
378.354	1649
378.436	1906
378.518	5162
378.600	14711
378.682	15027
378.764	27465
378.846	22867
378.928	7197
379.010	11257
379.091	6798
379.173	3825
379.255	2659
379.337	5121
379.419	13491
379.501	36163
379.583	15889
379.664	4853
379.746	9957
379.828	28657
379.910	38957
379.991	32172
380.073	6727
380.155	4681
380.237	3765
380.318	3353
380.400	3491
380.482	6792
380.564	9870
380.645	9371
380.727	10125
380.809	6505
380.890	4602
380.972	3373
381.053	3555
381.135	4804
381.217	11223
381.298	29495
381.380	17175
381.461	13287
381.543	45123
381.624	55311
381.706	12583
381.787	7538
381.869	9085
381.951	22363
382.032	70834
382.113	50871
382.195	13399
382.276	10068
382.358	18462
382.439	42287
382.521	48376
382.602	68238
382.684	36552
382.765	61373
382.846	79293
382.928	123607
383.009	75005
383.090	46283
383.172	151508
383.253	233311
383.334	86459
383.416	66685
383.497	38917
383.578	21088
383.659	39017
383.741	129923
383.822	302187
383.903	171527
383.984	59469
384.066	83689
384.147	55168
384.228	14329
384.309	10743
384.390	9041
384.471	6978
384.553	6968
384.634	9158
384.715	9740
384.796	5833
384.877	7641
384.958	25116
385.039	32995
385.120	14233
385.201	8082
385.282	7889
385.363	7170
385.444	7901
385.525	14157
385.606	34172
385.687	29023
385.768	9133
385.849	11927
385.930	38688
386.011	62077
386.092	21219
386.173	5986
386.254	5804
386.335	4960
386.416	5796
386.496	17363
386.577	29544
386.658	12204
386.739	7403
386.820	6751
386.901	4805
386.981	5377
387.062	4309
387.143	7604
387.224	27208
387.304	27799
387.385	11635
387.466	6981
387.547	9315
387.627	7154
387.708	12838
387.789	44519
387.869	53291
387.950	16857
388.031	4930
388.111	2210
388.192	8671
388.273	13072
388.353	8473
388.434	5459
388.514	10441
388.595	37566
388.676	52504
388.756	29941
388.837	27349
388.917	18158
388.998	3892
389.078	4801
389.159	3202
389.239	2198
389.320	7199
389.400	4096
389.480	11842
389.561	26553
389.641	15960
389.722	5704
389.802	10184
389.883	12650
389.963	30277
390.043	19499
390.124	6714
390.204	11781
390.284	31496
390.365	22040
390.445	21060
390.525	43275
390.605	40510
390.686	17881
390.766	8512
390.846	4829
390.927	2669
391.007	3313
391.087	5305
391.167	5873
391.247	4393
391.328	5213
391.408	8143
391.488	7163
391.568	2346
391.648	4627
391.728	7822
391.808	7354
391.888	7887
391.969	15087
392.049	25544
392.129	12177
392.209	12946
392.289	29824
392.369	18431
392.449	15462
392.529	10676
392.609	8698
392.689	11749
392.769	28310
392.849	26263
392.929	20991
393.009	43095
393.089	34827
393.169	32311
393.248	94295
393.328	302814
393.408	342725
393.488	113178
393.568	32567
393.648	16723
393.728	10318
393.807	6845
393.887	6863
393.967	6220
394.047	8129
394.127	8655
394.206	14777
394.286	45227
394.366	162334
394.446	182190
394.525	48803
394.605	13468
394.685	10227
394.764	21666
394.844	35497
394.924	28803
395.003	9269
395.083	6036
395.163	5483
395.242	5666
395.322	5788
395.402	3687
395.481	6781
395.561	14347
395.640	40237
395.720	39891
395.799	43033
395.879	35515
395.958	20622
396.038	65817
396.117	211638
396.197	240352
396.276	82677
396.356	28223
396.435	20220
396.515	14718
396.594	16248
396.673	30313
396.753	99000
396.832	282768
396.912	238147
396.991	64198
397.070	18311
397.150	8861
397.229	8448
397.308	13562
397.388	24169
397.467	14045
397.546	4163
397.625	2647
397.705	6244
397.784	5799
397.863	3594
397.942	3035
398.022	3413
398.101	11410
398.180	34855
398.259	20280
398.338	6438
398.417	3868
398.497	2833
398.576	3875
398.655	749
398.734	2825
398.813	2888
398.892	11239
398.971	36179
399.050	20238
399.129	2451
399.208	2240
399.287	2630
399.366	2041
399.445	1704
399.524	1857
399.603	604
399.682	4928
399.761	12901
399.840	39279
399.919	33303
399.998	4108
400.077	1569
400.156	964
400.235	3796
400.313	1672
400.392	2226
400.471	15213
400.550	25502
400.629	7525
400.708	4009
400.786	3147
400.865	7377
400.944	10470
401.023	6323
401.102	1077
401.180	1145
401.259	1478
401.338	2146
401.416	3825
401.495	2377
401.574	2932
401.652	1762
401.731	3480
401.810	1773
401.888	1882
401.967	1051
402.046	2938
402.124	3295
402.203	4164
402.281	3311
402.360	4454
402.438	11407
402.517	7350
402.596	3181
402.674	3604
402.753	1669
402.831	1583
402.910	3156
402.988	10544
403.066	33456
403.145	22349
403.223	12042
403.302	30609
403.380	25082
403.459	24008
403.537	10566
403.615	3933
403.694	750
403.772	1634
403.850	1642
403.929	872
404.007	882
404.085	5484
404.164	5072
404.242	2104
404.320	3032
404.398	4708
404.477	13822
404.555	55591
404.633	52073
404.711	9480
404.789	3548
404.868	2136
404.946	351
405.024	2028
405.102	814
405.180	409
405.258	12
405.336	2200
405.415	1423
405.493	4781
405.571	4308
405.649	929
405.727	433
405.805	3635
405.883	2367
405.961	3273
406.039	2727
406.117	461
406.195	3987
406.273	14448
406.351	49866
406.429	32591
406.507	5272
406.585	2022
406.663	2566
406.740	3717
406.818	2527
406.896	1265
406.974	2529
407.052	5177
407.130	30991
407.208	44944
407.285	9735
407.363	1723
407.441	1725
407.519	1284
407.596	2403
407.674	6259
407.752	14391
407.830	15631
407.907	6815
407.985	2044
408.063	1690
408.141	1491
408.218	3809
408.296	3281
408.373	1950
408.451	2666
408.529	2618
408.606	598
408.684	1967
408.762	1365
408.839	335
408.917	844
408.994	1623
409.072	803
409.149	1238
409.227	3908
409.304	5325
409.382	4541
409.459	4378
409.537	6953
409.614	5905
409.692	3918
409.769	3334
409.846	6981
409.924	10518
410.001	6302
410.079	4146
410.156	3496
410.233	2732
410.311	1745
410.388	1232
410.465	2992
410.543	2750
410.620	2614
410.697	2411
410.775	3023
410.852	177
410.929	3144
411.006	4325
411.083	2588
411.161	6815
411.238	7181
411.315	3503
411.392	1687
411.469	3748
411.547	4517
411.624	1081
411.701	2529
411.778	2476
411.855	4139
411.932	2691
412.009	934
412.086	1101
412.163	1991
412.240	2010
412.317	3203
412.394	2804
412.471	1638
412.548	1342
412.625	1112
412.702	1747
412.779	4424
412.856	4230
412.933	517
413.010	1658
413.087	3467
413.164	14676
413.241	22883
413.318	5571
413.395	4076
413.471	4806
413.548	1997
413.625	1553
413.702	2449
413.779	1231
413.855	633
413.932	303
414.009	31
414.086	406
414.162	1155
414.239	2382
414.316	14259
414.393	32370
414.469	12177
414.546	1131
414.623	735
414.699	761
414.776	2390
414.853	1070
414.929	1942
415.006	787
415.082	1997
415.159	1424
415.236	1323
415.312	1866
415.389	3544
415.465	3505
415.542	2753
415.618	951
415.695	2875
415.771	1948
415.848	1379
415.924	2086
416.000	1304
416.077	1128
416.153	-54
416.230	-269
416.306	10
416.383	-475
416.459	1474
416.535	960
416.612	892
416.688	482
416.764	1202
416.841	591
416.917	1463
416.993	1018
417.069	1815
417.146	2581
417.222	3544
417.298	1956
417.374	427
417.451	1828
417.527	2761
417.603	2564
417.679	1915
417.755	1912
417.831	373
417.908	128
417.984	679
418.060	834
418.136	3720
418.212	4603
418.288	2268
418.364	1449
418.440	741
418.516	2582
418.592	3588
418.668	6365
418.744	10369
418.820	8405
418.896	2197
418.972	-64
419.048	1129
419.124	5277
419.200	3236
419.276	916
419.352	96
419.428	1084
419.504	528
419.579	1942
419.655	1830
419.731	1112
419.807	6371
419.883	11505
419.959	7869
420.034	2950
420.110	5385
420.186	19631
420.262	16944
420.337	2929
420.413	2428
420.489	1668
420.565	2019
420.640	1374
420.716	3231
420.792	663
420.867	3149
420.943	1458
421.019	3766
421.094	2701
421.170	2043
421.245	953
421.321	2867
421.397	2099
421.472	4366
421.548	8686
421.623	9094
421.699	4400
421.774	4927
421.850	3693
421.925	6479
422.001	6981
422.076	6082
422.152	6867
422.227	11931
422.302	15387
422.378	22844
422.453	41173
422.529	90628
422.604	196712
422.679	253358
422.755	207747
422.830	109378
422.905	47300
422.981	26045
423.056	17193
423.131	13144
423.207	8982
423.282	8308
423.357	11365
423.432	8816
423.508	7716
423.583	12436
423.658	10323
423.733	5158
423.808	4595
423.883	5241
423.959	4500
424.034	4058
424.109	3895
424.184	2538
424.259	2307
424.334	2266
424.409	1480
424.484	1319
424.559	1515
424.634	1287
424.709	2288
424.784	3727
424.859	2402
424.934	3522
425.009	14048
425.084	24573
425.159	9815
425.234	2378
425.309	1252
425.384	5571
425.459	9416
425.534	3813
425.609	1179
425.683	406
425.758	383
425.833	1253
425.908	3638
425.983	8604
426.058	24147
426.132	10739
426.207	2238
426.282	3966
426.357	2290
426.431	1527
426.506	1762
426.581	937
426.655	1632
426.730	1602
426.805	-192
426.879	2449
426.954	1492
427.029	3923
427.103	21329
427.178	47992
427.253	22681
427.327	2895
427.402	3273
427.476	11009
427.551	5583
427.625	2332
427.700	2153
427.774	452
427.849	1827
427.923	610
427.998	778
428.072	1736
428.147	5049
428.221	20778
428.296	59506
428.370	34821
428.444	4678
428.519	4180
428.593	7789
428.667	7336
428.742	9035
428.816	10083
428.890	36595
428.965	63537
429.039	20302
429.113	10569
429.188	3647
429.262	1934
429.336	4065
429.410	12460
429.485	8348
429.559	6220
429.633	5595
429.707	2728
429.781	6646
429.855	38933
429.930	64959
430.004	29519
430.078	37237
430.152	38353
430.226	70171
430.300	78551
430.374	13202
430.448	4519
430.522	10908
430.596	33991
430.670	27080
430.744	58095
430.818	84299
430.892	18743
430.966	2571
431.040	1650
431.114	301
431.188	124
431.262	618
431.336	647
431.410	4315
431.484	10197
431.557	7926
431.631	1322
431.705	1913
431.779	10829
431.853	48519
431.927	40395
432.000	4518
432.074	1929
432.148	1158
432.222	1196
432.295	650
432.369	688
432.443	2249
432.516	17636
432.590	45633
432.664	18038
432.737	1927
432.811	658
432.885	-405
432.958	1273
433.032	220
433.106	412
433.179	-612
433.253	482
433.326	311
433.400	282
433.473	314
433.547	-623
433.620	198
433.694	2171
433.767	2098
433.841	61
433.914	698
433.988	917
434.061	1290
434.134	797
434.208	-132
434.281	-468
434.355	62
434.428	1478
434.501	-114
434.575	-283
434.648	259
434.721	-36
434.795	-176
434.868	405
434.941	46
435.014	-503
435.088	-269
435.161	1463
435.234	1807
435.307	4118
435.381	1592
435.454	1866
435.527	3376
435.600	2754
435.673	1834
435.746	1738
435.819	506
435.892	635
435.966	142
436.039	-349
436.112	235
436.185	-370
436.258	-478
436.331	-225
436.404	-592
436.477	-69
436.550	393
436.623	596
436.696	43
436.769	746
436.842	255
436.915	976
436.987	832
437.060	842
437.133	311
437.206	-313
437.279	19
437.352	739
437.425	359
437.498	1242
437.570	3507
437.643	4906
437.716	427
437.789	1193
437.861	2096
437.934	10033
438.007	4403
438.080	748
438.152	949
438.225	3367
438.298	22463
438.370	61696
438.443	29088
438.516	8578
438.588	1115
438.661	-300
438.734	328
438.806	606
438.879	1556
438.951	2441
439.024	4325
439.096	1840
439.169	-207
439.241	108
439.314	338
439.386	1201
439.459	2149
439.531	4325
439.604	2061
439.676	755
439.749	-17
439.821	-361
439.893	-428
439.966	226
440.038	812
440.110	1490
440.183	406
440.255	-701
440.327	1829
440.400	10254
440.472	40381
440.544	27394
440.617	2974
440.689	3477
440.761	4483
440.833	7506
440.905	4559
440.978	567
441.050	-584
441.122	912
441.194	-511
441.266	209
441.338	249
441.411	2553
441.483	14358
441.555	22694
441.627	4832
441.699	1837
441.771	1847
441.843	94
441.915	-118
441.987	-363
442.059	-61
442.131	1252
442.203	1653
442.275	3143
442.347	3158
442.419	4981
442.491	26875
442.563	72399
442.635	31517
442.706	12960
442.778	10271
442.850	1754
442.922	236
442.994	767
443.066	2086
443.137	2222
443.209	1566
443.281	2886
443.353	7258
443.425	31785
443.496	116488
443.568	122151
443.640	45632
443.711	7423
443.783	2995
443.855	1613
443.926	255
443.998	943
444.070	851
444.141	1084
444.213	2501
444.285	3944
444.356	1305
444.428	1830
444.499	613
444.571	-337
444.642	-433
444.714	739
444.785	2898
444.857	3437
444.928	5885
445.000	3638
445.071	4101
445.143	5308
445.214	4040
445.285	6940
445.357	20505
445.428	72146
445.500	163793
445.571	109669
445.642	62381
445.714	20514
445.785	13611
445.856	3796
445.928	3748
445.999	3844
446.070	2724
446.141	2467
446.213	3364
446.284	1757
446.355	1528
446.426	1201
446.497	105
446.569	1497
446.640	2921
446.711	1988
446.782	725
446.853	760
446.924	1098
446.995	1363
447.066	458
447.138	2225
447.209	1680
447.280	-440
447.351	-447
447.422	136
447.493	827
447.564	1388
447.635	1939
447.706	886
447.777	-549
447.847	578
447.918	-780
447.989	638
448.060	1143
448.131	5020
448.202	4139
448.273	2988
448.344	863
448.414	410
448.485	379
448.556	355
448.627	-1017
448.698	956
448.768	492
448.839	379
448.910	1371
448.981	2505
449.051	1132
449.122	520
449.193	-56
449.263	-2
449.334	-646
449.405	1546
449.475	4135
449.546	2216
449.616	2250
449.687	1745
449.758	1134
449.828	572
449.899	82
449.969	632
450.040	10
450.110	1455
450.181	754
450.251	-152
450.322	448
450.392	129
450.463	518
450.533	-380
450.604	-208
450.674	-202
450.744	340
450.815	-185
450.885	409
450.955	369
451.026	-224
451.096	-93
451.166	-461
451.237	2391
451.307	8047
451.377	2969
451.447	214
451.518	-35
451.588	-109
451.658	1364
451.728	683
451.799	7623
451.869	8994
451.939	1496
452.009	-219
452.079	79
452.149	690
452.219	2183
452.289	8733
452.360	7442
452.430	1322
452.500	1244
452.570	696
452.640	3451
452.710	9571
452.780	14092
452.850	8913
452.920	7331
452.990	1904
453.060	1257
453.129	1989
453.199	2155
453.269	9671
453.339	21219
453.409	32811
453.479	31172
453.549	47843
453.619	52152
453.688	20931
453.758	3089
453.828	873
453.898	761
453.968	350
454.037	392
454.087	-82
454.107	-292
454.168	564
454.177	667
454.247	258
454.249	253
454.316	-374
454.330	-160
454.386	515
454.411	1927
454.456	4069
454.492	5669
454.525	7124
454.574	4348
454.595	3144
454.655	1056
454.665	721
454.734	993
454.736	1065
454.804	2013
454.817	3280
454.873	7935
454.898	8534
454.943	9516
454.979	5842
455.013	2691
455.060	1592
455.082	1152
455.141	2039
455.152	2114
455.221	5499
455.222	5629
455.291	10325
455.303	9277
455.360	5047
455.384	4889
455.430	4450
455.465	4600
455.499	4534
455.546	6910
455.569	7732
455.627	5325
455.638	5003
455.707	1565
455.708	1576
455.777	345
455.789	468
455.846	935
455.869	850
455.916	633
455.950	798
455.985	1041
456.031	905
456.054	756
456.112	900
456.124	916
456.193	733
456.193	716
456.262	1352
456.274	1513
456.332	2379
456.355	2301
456.401	1682
456.436	1183
456.470	831
456.516	775
456.540	717
456.597	983
456.609	1039
456.678	1151
456.678	1138
456.747	702
456.759	762
456.817	1040
456.840	931
456.886	635
456.920	837
456.955	1165
457.001	1269
457.024	1173
457.082	1433
457.093	1564
457.162	2384
457.163	2404
457.232	2174
457.243	1970
457.301	1254
457.324	1324
457.370	1370
457.405	1082
457.439	969
457.485	1395
457.508	1528
457.566	2024
457.577	2200
457.646	2741
457.647	2770
457.715	4342
457.727	4721
457.784	7061
457.808	9109
457.853	11352
457.889	12907
457.922	13616
457.969	9790
457.991	9308
458.050	11084
458.060	11400
458.129	18348
458.130	18581
458.198	19221
458.211	16784
458.267	8855
458.292	6793
458.336	5046
458.372	4519
458.405	5664
458.453	8995
458.474	11016
458.533	18566
458.543	18972
458.611	30666
458.614	30712
458.680	19298
458.694	15191
458.749	6761
458.775	5310
458.818	3319
458.855	2858
458.887	2718
458.936	2516
458.955	2372
459.016	1951
459.024	1972
459.093	3053
459.097	3073
459.162	2745
459.177	2816
459.230	3318
459.257	3717
459.299	4078
459.338	4239
459.368	4273
459.418	4260
459.437	4020
459.499	3209
459.505	3209
459.574	2636
459.579	2664
459.643	2731
459.659	2657
459.711	2652
459.740	2603
459.780	2525
459.820	3321
459.849	3807
459.900	3222
459.917	3043
459.981	3712
459.986	3735
460.054	3387
460.061	3406
460.123	4203
460.141	4247
460.191	4926
460.222	5732
460.260	5931
460.302	6527
460.328	6333
460.382	4788
460.397	4656
460.462	3908
460.465	3986
460.534	7315
460.543	7652
460.602	15324
460.623	18427
460.671	26702
460.703	34723
460.739	30301
460.783	21592
460.808	18944
460.864	5999
460.876	4720
460.944	4204
460.945	4190
461.013	3664
461.024	3681
461.081	4110
461.104	4269
461.150	3835
461.184	3371
461.218	3192
461.264	2855
461.286	2909
461.345	3414
461.355	3431
461.423	3313
461.425	3312
461.491	3661
461.505	3819
461.559	6657
461.585	7921
461.628	11179
461.665	14462
461.696	14857
461.745	16579
461.764	14802
461.825	5850
461.832	5737
461.901	4036
461.905	4054
461.969	3308
461.985	3131
462.037	3958
462.065	4298
462.105	4374
462.145	4686
462.173	6183
462.225	8623
462.241	9239
462.305	12629
462.310	12290
462.378	6906
462.385	6100
462.446	4586
462.465	4336
462.514	4098
462.545	4119
462.582	4009
462.625	4047
462.650	4080
462.705	3686
462.718	3778
462.785	4682
462.786	4701
462.854	5439
462.865	5577
462.922	6334
462.945	6719
462.990	5393
463.025	4052
463.058	4058
463.104	4360
463.126	4190
463.184	3476
463.194	3665
463.262	4654
463.264	4712
463.330	4259
463.344	4077
463.398	4662
463.424	4902
463.466	4510
463.504	4512
463.533	5059
463.583	5370
463.601	5324
463.663	5494
463.669	5675
463.737	7630
463.743	7804
463.805	10533
463.823	11325
463.873	15199
463.903	17750
463.940	17456
463.982	17173
464.008	14127
464.062	6985
464.076	6655
464.142	4185
464.144	4181
464.211	4817
464.221	4911
464.279	4965
464.301	5063
464.347	5548
464.381	5776
464.414	5785
464.461	5964
464.482	6231
464.540	6946
464.550	6910
464.617	6299
464.620	6267
464.685	7905
464.699	8293
464.753	9462
464.779	10075
464.820	11095
464.859	12023
464.888	11317
464.938	9953
464.956	9988
465.018	9833
465.023	9754
465.091	8891
465.098	8761
465.158	8659
465.177	8675
465.226	8915
465.257	8978
465.293	9486
465.336	9987
465.361	10629
465.416	12258
465.428	12925
465.495	16317
465.496	16371
465.563	20615
465.575	21336
465.631	23782
465.654	25019
465.698	17459
465.734	10585
465.765	10126
465.813	9243
465.833	9009
465.893	8793
465.900	8815
465.968	8804
465.972	8795
466.035	9237
466.052	9311
466.102	9303
466.131	9284
466.170	9364
466.210	9394
466.237	9688
466.290	10214
466.304	10279
466.369	10494
466.372	10555
466.439	11773
466.449	11937
466.506	12985
466.528	13333
466.573	17577
466.607	20724
466.641	26259
466.687	33881
466.708	35872
466.766	41326
466.775	38666
466.842	18052
466.845	17037
466.909	14720
466.925	14195
466.977	13450
467.004	13050
467.044	13861
467.083	14624
467.111	15591
467.163	17336
467.178	17623
467.242	18664
467.245	18613
467.312	16849
467.321	16586
467.379	16027
467.400	15776
467.446	15960
467.480	16040
467.559	14474
467.638	13186
467.717	12741
467.796	13741
467.875	15676
467.955	14427
468.034	21834
468.113	36660
468.192	47928
468.271	15243
468.350	12948
468.429	15207
468.508	15129
468.588	12099
468.667	12989
468.746	12793
468.825	11067
468.904	10670
468.983	13398
469.062	16505
469.141	18294
469.220	10271
469.299	12010
469.378	12869
469.456	16424
469.535	14912
469.614	12949
469.693	13033
469.772	16556
469.851	19953
469.930	14752
470.009	12412
470.088	12849
470.166	15912
470.245	22303
470.324	23420
470.403	16179
470.482	12557
470.560	12863
470.639	12644
470.718	15502
470.797	12141
470.875	14245
470.954	16074
471.033	16696
471.111	10016
471.190	10288
471.269	9543
471.347	10147
471.426	11030
471.505	13099
471.583	13451
471.662	12684
471.740	11977
471.819	11441
471.898	11281
471.976	11914
472.055	10916
472.133	12780
472.212	14889
472.290	13198
472.369	11244
472.447	11326
472.526	10197
472.604	10768
472.683	11231
472.761	12556
472.839	10884
472.918	11069
472.996	9672
473.075	12270
473.153	11201
473.231	10629
473.310	12097
473.388	12297
473.466	11133
473.545	14307
473.623	17082
473.701	14726
473.780	10718
473.858	9720
473.936	11950
474.014	11507
474.093	12541
474.171	15456
474.249	18526
474.327	13427
474.405	9792
474.484	10922
474.562	9791
474.640	10563
474.718	11169
474.796	11285
474.874	10039
474.952	8578
475.030	8560
475.108	11243
475.187	12531
475.265	13347
475.343	15686
475.421	16686
475.499	9000
475.577	11683
475.655	12813
475.733	21748
475.811	30292
475.889	27571
475.966	16544
476.044	10135
476.122	12289
476.200	14271
476.278	11355
476.356	9618
476.434	10390
476.512	12017
476.590	14609
476.667	12726
476.745	9450
476.823	10239
476.901	9476
476.979	9026
477.056	9460
477.134	11134
477.212	9754
477.290	9536
477.367	8888
477.445	8899
477.523	8660
477.601	9001
477.678	9297
477.756	10940
477.834	10677
477.911	9110
477.989	9137
478.066	9622
478.144	9796
478.222	12465
478.299	17278
478.377	13819
478.454	8504
478.532	8943
478.609	8705
478.687	9911
478.764	8608
478.842	8965
478.919	10077
478.997	10035
479.074	7777
479.152	10666
479.229	11265
479.307	7578
479.384	7673
479.461	7751
479.539	7533
479.616	10290
479.694	7966
479.771	9776
479.848	9479
479.926	9919
480.003	12153
480.080	9064
480.157	7196
480.235	7050
480.312	7977
480.389	9044
480.467	11966
480.544	14845
480.621	8461
480.698	9560
480.775	10139
480.853	10048
480.930	8287
481.007	9714
481.084	10412
481.161	11017
481.238	8862
481.315	8026
481.392	7308
481.470	7786
481.547	7564
481.624	8638
481.701	7540
481.778	8326
481.855	9014
481.932	13256
482.009	17438
482.086	12143
482.163	9171
482.240	13891
482.317	19672
482.393	13505
482.470	9093
482.547	9186
482.624	7580
482.701	9230
482.778	7929
482.855	7951
482.932	7079
483.009	7735
483.085	8340
483.162	10549
483.239	9737
483.316	8859
483.393	8783
483.469	8619
483.546	9033
483.623	9691
483.699	7547
483.776	8570
483.853	9486
483.930	14936
484.006	28690
484.083	46263
484.160	33765
484.236	52737
484.313	38562
484.389	29188
484.466	26388
484.543	26274
484.619	25618
484.696	28709
484.772	26304
484.849	27139
484.925	23383
485.002	24788
485.078	24409
485.155	25643
485.231	22429
485.308	23459
485.384	22711
485.461	27606
485.537	36300
485.614	37926
485.690	21983
485.766	21280
485.843	24714
485.919	30262
485.995	30238
486.072	21102
486.148	20158
486.224	20531
486.301	20805
486.377	23700
486.453	22865
486.530	25194
486.606	31945
486.682	33887
486.758	35369
486.835	35667
486.911	30728
486.987	48251
487.063	53789
487.139	65648
487.215	44570
487.292	25358
487.368	22716
487.444	25095
487.520	29101
487.596	28304
487.672	45153
487.748	90307
487.824	114393
487.900	40430
487.976	24882
488.052	24407
488.128	27177
488.204	23630
488.280	21158
488.356	25777
488.432	38628
488.508	50189
488.584	22524
488.660	19869
488.736	19023
488.812	20875
488.888	27484
488.964	37574
489.039	69145
489.115	92326
489.191	46212
489.267	19873
489.343	18485
489.418	17619
489.494	17474
489.570	16240
489.646	18978
489.722	17459
489.797	18438
489.873	25167
489.949	40450
490.024	31103
490.100	16745
490.176	16576
490.251	20642
490.327	25676
490.403	16279
490.478	16468
490.554	14544
490.629	15000
490.705	14607
490.781	17041
490.856	15311
490.932	18841
491.007	17088
491.083	17052
491.158	15920
491.234	20370
491.309	32222
491.385	29414
491.460	14475
491.536	16038
491.611	15658
491.686	17492
491.762	22959
491.837	44485
491.913	67434
491.988	90848
492.063	100266
492.139	25685
492.214	17889
492.289	13468
492.365	12898
492.440	16340
492.515	14210
492.590	14237
492.666	12792
492.741	16730
492.816	18624
492.891	13033
492.967	12365
493.042	11033
493.117	10962
493.192	12061
493.267	15023
493.342	22866
493.418	20570
493.493	12718
493.568	10875
493.643	11958
493.718	14858
493.793	19932
493.868	21696
493.943	16503
494.018	12786
494.093	11622
494.168	11303
494.243	11092
494.318	11289
494.393	11115
494.468	10698
494.543	10980
494.618	14024
494.693	11634
494.768	10076
494.842	12097
494.917	11489
494.992	11629
495.067	10100
495.142	10364
495.217	10666
495.292	10683
495.366	13365
495.441	15402
495.516	19825
495.591	33206
495.665	99115
495.740	189591
495.815	56981
495.890	15149
495.964	12082
496.039	16285
496.114	13903
496.188	15238
496.263	14870
496.338	13163
496.412	14327
496.487	16124
496.561	17630
496.636	17568
496.710	13834
496.785	15830
496.860	16168
496.934	14770
497.009	14788
497.083	16449
497.158	15801
497.232	17726
497.307	19488
497.381	18739
497.455	21508
497.530	23225
497.604	18788
497.679	21329
497.753	30891
497.827	38829
497.902	38400
497.976	44923
498.050	96554
498.125	265301
498.199	216654
498.273	58154
498.348	48033
498.422	37429
498.496	33987
498.570	29729
498.645	21353
498.719	20486
498.793	22392
498.867	30293
498.941	44948
499.016	120711
499.090	253649
499.164	68224
499.238	14542
499.312	15248
499.386	19689
499.460	17542
499.534	15356
499.609	20303
499.683	22914
499.757	24260
499.831	59822
499.905	180787
499.979	131479
500.053	25516
500.127	27004
500.201	21341
500.275	14455
500.349	15030
500.422	16862
500.496	27813
500.570	56739
500.644	114492
500.718	166571
500.792	31721
500.866	13056
500.940	16902
501.013	12996
501.087	15765
501.161	27989
501.235	35239
501.309	68105
501.382	159451
501.456	113296
501.530	32304
501.603	46526
501.677	17683
501.751	10760
501.825	16389
501.898	27644
501.972	61647
502.046	33300
502.119	14731
502.193	34834
502.266	64121
502.340	29103
502.413	34353
502.487	53935
502.561	28618
502.634	11596
502.708	12590
502.781	11422
502.855	10168
502.928	7253
503.002	9777
503.075	8212
503.149	8904
503.222	9152
503.295	10718
503.369	11727
503.442	18982
503.516	51974
503.589	105138
503.662	59254
503.736	24852
503.809	52964
503.882	43384
503.956	68731
504.029	58800
504.102	55777
504.175	65276
504.249	22314
504.322	14702
504.395	12561
504.468	10123
504.542	8142
504.615	7664
504.688	8251
504.761	7466
504.834	11304
504.907	14989
504.980	19836
505.053	11543
505.127	14867
505.200	16998
505.273	12293
505.346	8141
505.419	6669
505.492	8515
505.565	5802
505.638	7165
505.711	6588
505.784	6910
505.857	5871
505.930	9360
506.003	6994
506.076	9780
506.149	9713
506.221	10444
506.294	12965
506.367	32001
506.440	84783
506.513	37177
506.586	11587
506.659	7912
506.731	8105
506.804	11015
506.877	13407
506.950	9319
507.022	7232
507.095	8821
507.168	10412
507.241	8787
507.313	6334
507.386	8097
507.459	11975
507.531	7877
507.604	6101
507.677	7616
507.749	6168
507.822	12077
507.894	21820
507.967	25431
508.040	14284
508.112	13497
508.185	12537
508.257	12774
508.330	18187
508.402	11153
508.475	11046
508.547	11667
508.620	12284
508.692	14713
508.765	11376
508.837	9298
508.909	8940
508.982	10150
509.054	11663
509.127	9248
509.199	8407
509.271	8758
509.344	8692
509.416	8665
509.488	9449
509.560	9602
509.633	9164
509.705	10992
509.777	10961
509.849	15875
509.922	9607
509.994	9353
510.066	10161
510.138	11731
510.210	23878
510.283	20224
510.355	15208
510.427	15263
510.499	14674
510.571	14309
510.643	14426
510.715	21501
510.787	16454
510.859	14310
510.931	15905
511.003	21619
511.076	17566
511.148	12021
511.219	11258
511.291	16182
511.363	17570
511.435	10452
511.507	9602
511.579	11211
511.651	11063
511.723	10555
511.795	9800
511.867	11090
511.939	13100
512.010	19920
512.082	15611
512.154	11240
512.226	12366
512.298	19872
512.369	25992
512.441	19449
512.513	19563
512.585	14820
512.656	15623
512.728	16365
512.800	12330
512.871	14035
512.943	13078
513.015	11653
513.086	13145
513.158	13682
513.230	14282
513.301	18770
513.373	20376
513.444	14354
513.516	11060
513.588	12627
513.659	13428
513.731	15549
513.802	14903
513.874	30278
513.945	40831
514.016	14976
514.088	12012
514.159	14053
514.231	18179
514.302	24147
514.374	17767
514.445	16021
514.516	24856
514.588	17676
514.659	15079
514.730	22465
514.802	19852
514.873	18888
514.944	19397
515.016	16919
515.087	17855
515.158	20692
515.229	23229
515.301	20422
515.372	23843
515.443	15853
515.514	12547
515.585	11980
515.656	12477
515.728	11775
515.799	10668
515.870	13436
515.941	12755
516.012	12985
516.083	17802
516.154	19802
516.225	23085
516.296	19816
516.367	18323
516.438	21302
516.509	27017
516.580	48946
516.651	148922
516.722	389546
516.793	130705
516.864	32706
516.935	30930
517.006	37227
517.077	58948
517.148	149708
517.219	466869
517.289	523213
517.360	121545
517.431	38468
517.502	18407
517.573	18918
517.643	18891
517.714	19790
517.785	20071
517.856	20507
517.926	23258
517.997	26406
518.068	32448
518.138	48372
518.209	94351
518.280	339972
518.350	865252
518.421	245545
518.492	32753
518.562	23805
518.633	22241
518.703	23717
518.774	41019
518.845	81864
518.915	71952
518.986	27114
519.056	25127
519.127	41040
519.197	60128
519.268	103786
519.338	51590
519.408	20785
519.479	25903
519.549	19348
519.620	15310
519.690	12237
519.760	13120
519.831	13495
519.901	12063
519.971	11669
520.042	12428
520.112	13438
520.182	16545
520.253	16923
520.323	12287
520.393	16562
520.463	22808
520.534	14914
520.604	26742
520.674	15961
520.744	16139
520.814	30866
520.885	29061
520.955	41964
521.025	106266
521.095	35199
521.165	12120
521.235	11229
521.305	9821
521.375	11234
521.445	12681
521.515	15072
521.585	19630
521.655	16228
521.725	14853
521.795	13884
521.865	9332
521.935	15800
522.005	11664
522.075	9726
522.145	10975
522.215	12242
522.285	15324
522.355	19621
522.424	30917
522.494	24766
522.564	20495
522.634	45091
522.704	100515
522.774	31852
522.843	12009
522.913	11427
522.983	14757
523.053	11662
523.122	12453
523.192	20130
523.262	57064
523.331	39885
523.401	11673
523.471	9056
523.540	10137
523.610	8203
523.680	8176
523.749	8701
523.819	11221
523.888	10115
523.958	9078
524.027	10607
524.097	10109
524.166	10525
524.236	9050
524.305	10736
524.375	8855
524.444	7785
524.514	11216
524.583	9456
524.653	11605
524.722	13606
524.791	8951
524.861	11047
524.930	8630
524.999	11105
525.069	14031
525.138	10227
525.207	11305
525.277	10801
525.346	9321
525.415	10162
525.484	11226
525.554	10883
525.623	9573
525.692	11424
525.761	11212
525.830	11416
525.900	13219
525.969	19610
526.038	31739
526.107	64072
526.176	157423
526.245	114071
526.314	45412
526.383	89425
526.452	111885
526.522	189461
526.591	164153
526.660	50294
526.729	28611
526.797	40443
526.867	97563
526.935	331330
527.004	432240
527.073	189723
527.142	18768
527.211	12657
527.280	14034
527.349	13398
527.418	8420
527.487	9801
527.555	8298
527.624	8218
527.693	5870
527.762	9331
527.831	7103
527.899	9101
527.968	7469
528.037	8876
528.106	11889
528.174	18094
528.243	14911
528.312	20613
528.380	21600
528.449	8674
528.518	8462
528.586	6629
528.655	8357
528.723	7690
528.792	6660
528.861	7529
528.929	5598
528.998	8180
529.066	7303
529.135	7213
529.203	7180
529.272	7300
529.340	8160
529.409	9270
529.477	7487
529.545	9120
529.614	10543
529.682	10998
529.751	10180
529.819	14217
529.887	10169
529.956	8258
530.024	8874
530.092	7650
530.161	10938
530.229	14661
530.297	8460
530.365	9047
530.434	8301
530.502	7459
530.570	8853
530.638	7138
530.707	10053
530.775	11118
530.843	7938
530.911	8349
530.979	8254
531.047	8535
531.115	9048
531.183	8646
531.252	8991
531.320	8735
531.388	7742
531.456	8907
531.524	7534
531.592	8886
531.660	10833
531.728	8286
531.796	7735
531.864	8516
531.932	8291
532.000	9204
532.067	9731
532.135	9954
532.203	11149
532.271	12332
532.339	20563
532.407	41969
532.475	21907
532.542	14714
532.610	17258
532.678	29249
532.746	104355
532.814	188980
532.881	40055
532.949	11281
533.017	10288
533.084	9235
533.152	9647
533.220	9899
533.287	10040
533.355	10096
533.423	10040
533.490	9062
533.558	9590
533.625	10184
533.693	10892
533.761	10156
533.828	11628
533.896	9699
533.963	17372
534.031	21142
534.098	28642
534.166	14095
534.233	9796
534.300	10989
534.368	10337
534.435	9785
534.503	10419
534.570	10765
534.637	11137
534.705	11872
534.772	14902
534.840	24522
534.907	80728
534.974	84049
535.041	14615
535.109	12153
535.176	8249
535.243	10463
535.310	10029
535.378	9314
535.445	8903
535.512	9885
535.579	10132
535.646	8972
535.714	10929
535.781	13190
535.848	11451
535.915	11296
535.982	10205
536.049	11027
536.116	11457
536.183	10138
536.250	10586
536.317	11260
536.384	12229
536.451	17690
536.518	15218
536.585	12936
536.652	16271
536.719	19969
536.786	14597
536.853	14614
536.920	20699
536.987	30355
537.053	34725
537.120	116982
537.187	78407
537.254	12671
537.321	10938
537.388	11114
537.454	10332
537.521	9787
537.588	9862
537.654	12868
537.721	13538
537.788	13286
537.855	11822
537.921	11721
537.988	12113
538.055	12876
538.121	11678
538.188	13146
538.254	17046
538.321	28158
538.388	16105
538.454	12311
538.521	11526
538.587	11554
538.654	11019
538.720	11943
538.787	12145
538.853	11454
538.920	13254
538.986	13512
539.053	12097
539.119	12511
539.185	12682
539.252	15305
539.318	19041
539.385	17686
539.451	15224
539.517	17643
539.583	21088
539.650	41996
539.716	79755
539.782	22211
539.849	12188
539.915	13060
539.981	12647
540.047	15482
540.114	13095
540.180	15344
540.246	13286
540.312	17650
540.378	29840
540.444	30232
540.510	43198
540.576	91560
540.643	27329
540.709	11349
540.775	12615
540.841	12775
540.907	15772
540.973	19877
541.039	18895
541.105	19357
541.171	13219
541.237	13960
541.303	14001
541.369	15472
541.435	19093
541.500	26541
541.566	16242
541.632	11630
541.698	11943
541.764	12948
541.830	11259
541.896	11113
541.961	12773
542.027	12173
542.093	12796
542.159	13688
542.224	14058
542.290	19863
542.356	26356
542.421	26651
542.487	15069
542.553	13514
542.618	14173
542.684	13170
542.750	13773
542.815	18984
542.881	30480
542.947	86557
543.012	51685
543.078	13520
543.143	12347
543.209	15395
543.274	14528
543.340	18407
543.405	37902
543.471	47909
543.536	14748
543.602	13634
543.667	11910
543.732	13288
543.798	11753
543.863	14226
543.928	11325
543.994	11055
544.059	11849
544.124	13290
544.190	13100
544.255	13738
544.320	14467
544.386	13849
544.451	18596
544.516	20423
544.581	23631
544.646	60887
544.712	72461
544.777	19593
544.842	15848
544.907	15596
544.972	14084
545.037	15053
545.102	16088
545.168	15827
545.233	15938
545.298	18347
545.363	19708
545.428	22653
545.493	37630
545.558	67520
545.623	26778
545.688	15982
545.753	16340
545.818	15956
545.883	17821
545.947	15957
546.012	18129
546.077	17338
546.142	18421
546.207	18731
546.272	21800
546.337	20938
546.401	19432
546.466	19246
546.531	18315
546.596	20452
546.661	20004
546.725	20544
546.790	20392
546.855	21596
546.919	19660
546.984	24189
547.049	24674
547.113	27655
547.178	27297
547.243	31769
547.307	35610
547.372	39460
547.436	39666
547.501	38216
547.565	40557
547.630	42225
547.695	38547
547.759	40554
547.823	37098
547.888	37769
547.952	37018
548.017	41101
548.081	42343
548.146	44524
548.210	41057
548.274	42283
548.339	40561
548.403	39964
548.468	36869
548.532	36410
548.596	37927
548.660	37360
548.725	42112
548.789	45536
548.853	44830
548.917	42335
548.982	43566
549.046	38962
549.110	34038
549.174	35542
549.238	39144
549.303	42859
549.367	43657
549.431	41562
549.495	39379
549.559	39757
549.623	45967
549.687	52557
549.751	56100
549.815	57674
549.879	56011
549.943	53176
550.007	56146
550.071	58014
550.135	56277
550.199	50496
550.263	47953
550.327	48268
550.391	50483
550.455	51463
550.519	53884
550.582	59143
550.646	70329
550.710	68506
550.774	62138
550.838	62537
550.901	64169
550.965	67925
551.029	68514
551.093	76627
551.156	82500
551.220	99698
551.284	104261
551.347	80579
551.411	88495
551.475	84382
551.538	67452
551.602	63789
551.666	59766
551.729	57086
551.793	55564
551.856	55079
551.920	53181
551.983	55861
552.047	54345
552.110	54209
552.174	55438
552.237	56675
552.301	51022
552.364	51210
552.428	49216
552.491	51287
552.554	52994
552.618	53127
552.681	54279
552.745	55492
552.808	68366
552.871	73836
552.934	58184
552.998	53061
553.061	52451
553.124	50257
553.187	50154
553.251	51966
553.314	52678
553.377	52324
553.440	55729
553.503	62999
553.567	65012
553.630	55407
553.693	54974
553.756	55465
553.819	54690
553.882	53032
553.945	52867
554.008	53632
554.071	52773
554.134	54581
554.197	50218
554.260	50462
554.323	53011
554.386	53430
554.449	53548
554.512	54152
554.575	51040
554.638	51466
554.701	50466
554.764	50321
554.827	48572
554.889	45910
554.952	44187
555.015	44115
555.078	44376
555.141	46618
555.203	43890
555.266	44559
555.329	44237
555.391	41263
555.454	42836
555.517	42069
555.580	39845
555.642	37786
555.705	38699
555.768	38603
555.830	37085
555.893	36534
555.955	35601
556.018	35715
556.080	34759
556.143	35900
556.206	34875
556.268	35591
556.330	34669
556.393	33796
556.455	32653
556.518	37024
556.580	34804
556.643	31080
556.705	30508
556.767	28938
556.830	30746
556.892	31261
556.955	36037
557.017	30153
557.079	28915
557.142	28293
557.204	30388
557.266	42158
557.328	33425
557.391	25563
557.453	24498
557.515	25932
557.577	27035
557.639	28033
557.701	24302
557.764	24662
557.826	24229
557.888	26690
557.950	26091
558.012	28518
558.074	35885
558.136	65583
558.198	123429
558.260	46946
558.322	26438
558.384	26304
558.446	28461
558.508	32363
558.570	38864
558.632	57538
558.694	76875
558.756	97506
558.818	256509
558.880	499726
558.942	147243
559.003	127984
559.065	59743
559.127	31086
559.189	33305
559.251	41663
559.312	58128
559.374	128890
559.436	347000
559.498	144351
559.559	32280
559.621	32000
559.683	41042
559.744	67040
559.806	182494
559.868	226744
559.929	47157
559.991	36762
560.052	54339
560.114	127407
560.176	75600
560.237	78936
560.299	108716
560.360	29794
560.422	19926
560.483	19612
560.545	19744
560.606	19019
560.667	18043
560.729	17484
560.790	17072
560.852	17600
560.913	17339
560.974	17173
561.036	16054
561.097	17615
561.158	17319
561.220	18131
561.281	16968
561.342	18367
561.403	20680
561.465	25069
561.526	43509
561.587	45764
561.648	19152
561.709	17375
561.771	16865
561.832	17187
561.893	16373
561.954	17318
562.015	16698
562.076	17057
562.137	17532
562.198	17680
562.259	18316
562.320	19120
562.381	19563
562.442	23223
562.503	18185
562.564	17108
562.625	17172
562.686	17155
562.747	17304
562.808	17708
562.869	17493
562.930	19499
562.991	19514
563.051	17911
563.112	17710
563.173	17258
563.234	15977
563.294	17694
563.355	16566
563.416	17075
563.477	16661
563.537	17487
563.598	17956
563.659	17595
563.720	17180
563.780	17526
563.841	17500
563.901	17430
563.962	16938
564.023	17257
564.083	17561
564.144	17987
564.204	17323
564.265	18280
564.325	19325
564.386	24875
564.446	21270
564.507	16443
564.567	16685
564.628	17541
564.688	16321
564.749	17217
564.809	18344
564.869	19124
564.930	16934
564.990	17331
565.050	17316
565.111	17959
565.171	15550
565.231	17205
565.292	17933
565.352	16416
565.412	18224
565.472	17066
565.532	17287
565.593	17664
565.653	17567
565.713	17613
565.773	17619
565.833	20555
565.893	21551
565.953	17582
566.013	17511
566.074	18181
566.134	20680
566.194	25418
566.254	24866
566.314	18822
566.374	18065
566.434	19602
566.494	17996
566.554	18794
566.614	19677
566.673	20247
566.733	21150
566.793	20068
566.853	21374
566.913	20479
566.973	20870
567.033	22461
567.092	21340
567.152	21055
567.212	21343
567.272	20470
567.331	22145
567.391	22311
567.451	24027
567.511	26758
567.570	25554
567.630	22055
567.690	21776
567.749	21341
567.809	22779
567.868	26060
567.928	26294
567.988	31170
568.047	34543
568.107	43818
568.166	60118
568.226	96492
568.285	125475
568.345	89528
568.404	64952
568.464	54992
568.523	50641
568.582	54507
568.642	63773
568.701	86773
568.761	136860
568.820	217264
568.879	181298
568.939	115535
568.998	77307
569.057	58332
569.116	46201
569.176	38219
569.235	32640
569.294	28632
569.353	25630
569.413	25147
569.472	23987
569.531	21132
569.590	21240
569.649	20473
569.708	19603
569.767	20192
569.827	22024
569.886	19116
569.945	18182
570.004	18295
570.063	17830
570.122	19786
570.181	19128
570.240	19076
570.299	19472
570.358	19871
570.417	16505
570.475	16461
570.534	17409
570.593	17962
570.652	17644
570.711	18006
570.770	16582
570.829	17503
570.887	16116
570.946	18037
571.005	15620
571.064	17517
571.122	16896
571.181	17142
571.240	14903
571.299	15944
571.357	15761
571.416	15465
571.475	16246
571.533	16577
571.592	14351
571.650	16022
571.709	15046
571.768	16356
571.826	15117
571.885	15310
571.943	15502
572.002	15466
572.060	14023
572.119	14682
572.177	14039
572.236	13938
572.294	14012
572.352	15560
572.411	14056
572.469	14667
572.528	13795
572.586	14957
572.644	14978
572.703	17815
572.761	14733
572.819	14881
572.877	13563
572.936	13835
572.994	12650
573.052	13712
573.110	14128
573.169	13523
573.227	13261
573.285	13474
573.343	13790
573.401	13169
573.459	13578
573.517	13326
573.576	12377
573.634	14188
573.692	12911
573.750	13460
573.808	13024
573.866	13732
573.924	14676
573.982	14569
574.040	13241
574.098	13352
574.155	13093
574.213	13453
574.271	13314
574.329	13032
574.387	13304
574.445	11668
574.503	11754
574.560	12597
574.618	12440
574.676	13303
574.734	11593
574.792	13485
574.849	12617
574.907	12335
574.965	11362
575.022	12284
575.080	12013
575.138	13010
575.195	12547
575.253	12522
575.311	13382
575.368	12199
575.426	11491
575.483	12591
575.541	11511
575.598	12018
575.656	12564
575.713	12755
575.771	11451
575.828	11986
575.886	11803
575.943	12772
576.001	12193
576.058	12432
576.115	13309
576.173	13699
576.230	14568
576.287	14930
576.345	13241
576.402	12585
576.459	12748
576.517	12830
576.574	13017
576.631	14371
576.688	12006
576.746	12506
576.803	11857
576.860	11644
576.917	11794
576.974	12747
577.031	12234
577.089	13249
577.146	12275
577.203	12432
577.260	13014
577.317	13002
577.374	12910
577.431	12395
577.488	13071
577.545	13100
577.602	12197
577.659	13232
577.716	10965
577.773	11836
577.830	11275
577.886	12200
577.943	11695
578.000	12280
578.057	11563
578.114	12809
578.171	11915
578.227	12783
578.284	11721
578.341	12212
578.398	11593
578.454	12875
578.511	12840
578.568	12984
578.625	12915
578.681	11812
578.738	11970
578.794	12911
578.851	12525
578.908	13278
578.964	14872
579.021	15776
579.077	13338
579.134	13978
579.190	12966
579.247	13250
579.303	12386
579.360	12365
579.416	13078
579.473	12655
579.529	11579
579.586	13106
579.642	12989
579.698	12927
579.755	13077
579.811	13874
579.867	12861
579.924	12969
579.980	12271
580.036	12883
580.093	13334
580.149	13917
580.205	12636
580.261	13574
580.317	13033
580.374	14135
580.430	14375
580.486	14019
580.542	13299
580.598	13408
580.619	13636
580.654	14049
580.692	13576
580.710	13361
580.765	13401
580.767	13416
580.823	14600
580.838	14392
580.879	13872
580.911	13596
580.935	13425
580.984	13395
580.991	13407
581.047	13414
581.057	13414
581.103	13446
581.130	13416
581.159	13424
581.203	13361
581.215	13353
581.270	13110
581.276	13133
581.326	13458
581.349	13613
581.382	13858
581.422	14319
581.438	14510
581.494	14250
581.494	14238
581.550	13996
581.567	13985
581.606	13966
581.640	14024
581.661	14071
581.713	15070
581.717	15153
581.773	14241
581.786	14442
581.829	15206
581.859	14812
581.885	14496
581.932	14834
581.940	14905
581.996	14840
582.004	14902
582.052	15099
582.077	14282
582.107	13445
582.150	15278
582.163	15819
582.219	14963
582.223	14910
582.274	14334
582.296	14500
582.330	14738
582.368	14601
582.386	14626
582.441	14946
582.441	14948
582.497	14989
582.514	14892
582.552	14993
582.587	15569
582.608	15846
582.659	14597
582.663	14490
582.719	15696
582.732	15551
582.774	15269
582.805	15564
582.830	15809
582.877	14934
582.885	14778
582.941	15840
582.950	15708
582.996	15226
583.023	15783
583.052	16407
583.095	15474
583.107	15154
583.162	15806
583.168	15748
583.218	15294
583.240	15543
583.273	15932
583.313	16029
583.328	16130
583.384	16014
583.385	15991
583.439	15000
583.458	15172
583.494	15575
583.531	15436
583.549	15438
583.603	16353
583.605	16366
583.660	15744
583.676	15723
583.715	16106
583.748	16406
583.770	16385
583.820	16882
583.825	16970
583.881	17131
583.893	17126
583.936	16916
583.965	16487
583.991	16067
584.038	16204
584.046	16223
584.101	16427
584.110	16398
584.156	16752
584.183	17141
584.211	17232
584.255	16931
584.266	16901
584.321	16193
584.328	16247
584.376	16707
584.400	17102
584.431	17506
584.472	17316
584.486	17339
584.541	17891
584.545	17928
584.596	18345
584.617	18555
584.651	19167
584.689	19383
584.706	19304
584.761	19002
584.762	19005
584.816	19384
584.834	19293
584.871	19410
584.906	20090
584.926	20383
584.978	20483
584.980	20494
585.035	21036
585.051	21590
585.090	23065
585.123	23213
585.145	23211
585.195	22799
585.200	22786
585.254	23523
585.267	23834
585.309	24823
585.340	25637
585.364	26568
585.412	28838
585.419	29099
585.473	31900
585.484	32612
585.528	37048
585.556	41952
585.583	50109
585.628	66821
585.637	73324
585.692	136777
585.700	146687
585.747	183822
585.772	156470
585.801	97875
585.845	45138
585.856	39670
585.910	31240
585.917	30381
585.965	28854
585.989	28329
586.019	28214
586.061	27977
586.074	27982
586.128	29170
586.133	29182
586.183	29577
586.205	29969
586.237	30188
586.277	30174
586.292	30366
586.346	31107
586.349	31124
586.401	31071
586.421	31407
586.455	32080
586.493	32470
586.509	33260
586.564	37143
586.565	37269
586.618	44035
586.637	44477
586.672	41832
586.709	39168
586.727	38549
586.781	39253
586.781	39265
586.835	38017
586.853	37955
586.889	38043
586.925	37504
586.944	37507
586.996	39630
586.998	39717
587.052	41078
587.068	41613
587.106	42357
587.140	42981
587.161	43733
587.212	45594
587.215	45676
587.269	47153
587.284	47594
587.323	49015
587.356	49679
587.377	50038
587.427	52021
587.431	52247
587.485	54776
587.499	55381
587.539	57435
587.571	59105
587.593	60357
587.643	64350
587.648	64755
587.702	67730
587.715	68836
587.755	72560
587.786	74241
587.810	75980
587.858	80857
587.864	81581
587.917	88787
587.930	90420
587.971	95767
588.001	100327
588.025	104640
588.073	112498
588.079	113726
588.133	125480
588.145	128257
588.187	139117
588.217	147164
588.241	155577
588.288	173372
588.295	176168
588.348	200945
588.360	206408
588.402	230467
588.431	248813
588.456	267612
588.503	308083
588.510	315147
588.564	376698
588.575	390944
588.617	462979
588.646	516610
588.671	577176
588.718	701821
588.725	727038
588.778	933394
588.789	976326
588.832	1146660
588.861	1246415
588.886	1246198
588.932	1153869
588.939	1132861
588.993	984938
589.004	982747
589.047	1199313
589.075	1294157
589.100	1233216
589.147	1066560
589.154	1040378
589.207	838825
589.218	801603
589.261	735434
589.290	700929
589.314	712992
589.361	751190
589.368	768476
589.421	927659
589.433	963470
589.475	1110331
589.504	1188132
589.528	1157401
589.576	1038410
589.582	1038466
589.635	1127885
589.647	1130922
589.689	984049
589.718	860631
589.742	747455
589.790	534812
589.795	520544
589.849	397077
589.861	370353
589.902	317699
589.932	279837
589.955	259150
590.004	217857
590.009	215284
590.062	188229
590.075	181770
590.115	166418
590.146	154520
590.168	148235
590.218	134769
590.222	134079
590.275	124115
590.289	121445
590.328	114485
590.360	108701
590.381	105887
590.431	99247
590.435	98977
590.488	92978
590.503	91331
590.541	87689
590.574	84400
590.594	83313
590.645	80209
590.647	80173
590.700	77020
590.716	75999
590.753	73454
590.787	71352
590.806	70832
590.859	68800
590.859	68836
590.912	66289
590.930	65506
590.965	64146
591.001	62638
591.018	62585
591.071	61969
591.072	61889
591.124	60066
591.143	59265
591.177	58636
591.214	57865
591.230	57782
591.283	57584
591.285	57492
591.336	56519
591.356	56142
591.389	54965
591.427	53262
591.442	52926
591.495	51508
591.498	51333
591.547	50447
591.569	50079
591.600	49522
591.640	48516
591.653	48560
591.706	48437
591.711	48373
591.759	48810
591.782	48968
591.811	49346
591.853	49656
591.864	49402
591.917	47750
591.924	47433
591.969	46750
591.995	46382
592.022	46699
592.066	46933
592.075	47153
592.127	48188
592.137	48311
592.180	48638
592.208	48723
592.233	47819
592.279	45863
592.285	45865
592.338	45407
592.350	45234
592.390	44614
592.421	44047
592.443	44029
592.491	43806
592.495	43828
592.548	43292
592.562	43092
592.600	42852
592.633	42529
592.653	42446
592.704	41855
592.705	42100
592.775	42333
592.846	43138
592.916	43452
592.987	42071
593.058	41794
593.128	40749
593.199	41399
593.270	41494
593.341	40909
593.411	39630
593.482	41148
593.553	40662
593.623	40063
593.694	40504
593.764	40790
593.835	39714
593.906	39654
593.976	40246
594.047	40972
594.117	43537
594.188	42502
594.258	41011
594.329	40217
594.399	41042
594.470	40659
594.540	40972
594.611	41562
594.681	40507
594.751	40736
594.822	42784
594.892	43530
594.963	43427
595.033	43452
595.103	43537
595.174	46023
595.244	49764
595.314	52748
595.384	44663
595.455	45448
595.525	46532
595.595	47884
595.665	48187
595.736	46244
595.806	47061
595.876	47312
595.946	46390
596.016	47644
596.087	48681
596.157	48866
596.227	49192
596.297	50842
596.367	52904
596.437	55273
596.507	57737
596.577	60048
596.647	55747
596.717	56988
596.787	56400
596.857	57059
596.927	55968
596.997	56712
597.067	57808
597.137	58391
597.207	58795
597.277	59464
597.347	57989
597.417	57205
597.487	57170
597.557	58423
597.626	57979
597.696	59258
597.766	60164
597.836	61601
597.906	55334
597.975	53809
598.045	53425
598.115	55272
598.185	58058
598.254	63085
598.324	65128
598.394	66592
598.464	65510
598.533	65178
598.603	62063
598.672	59383
598.742	59995
598.812	61138
598.881	61296
598.951	60842
599.020	62096
599.090	64012
599.159	65040
599.229	62172
599.299	60747
599.368	62444
599.437	61690
599.507	58525
599.576	56144
599.646	57034
599.715	55961
599.785	55234
599.854	55188
599.924	54824
599.993	54309
600.062	53970
600.132	55849
600.201	58559
600.270	65629
600.340	67803
600.409	65831
600.478	65433
600.547	66000
600.617	62582
600.686	53056
600.755	49430
600.824	48461
600.894	48068
600.963	46938
601.032	46610
601.101	45928
601.170	44758
601.239	43638
601.308	44186
601.378	43836
601.447	43909
601.516	43949
601.585	45802
601.654	45911
601.723	45634
601.792	46135
601.861	47348
601.930	49128
601.999	50660
602.068	47909
602.137	48943
602.206	50005
602.275	51062
602.343	51597
602.412	51392
602.481	50534
602.550	50857
602.619	51504
602.688	52418
602.756	52512
602.825	53464
602.894	52704
602.963	54227
603.032	55659
603.100	54444
603.169	54858
603.238	55057
603.307	54877
603.375	56537
603.444	56522
603.513	55861
603.581	56893
603.650	58845
603.719	54703
603.787	55627
603.856	57698
603.924	58803
603.993	60876
604.061	61782
604.130	63744
604.198	66008
604.267	65621
604.335	67064
604.404	67894
604.472	68337
604.541	68707
604.609	70324
604.678	70381
604.746	70750
604.815	72047
604.883	72965
604.951	70921
605.020	72880
605.088	73304
605.156	75551
605.225	74300
605.293	75994
605.361	75027
605.429	77430
605.498	78119
605.566	80430
605.634	83251
605.702	85222
605.771	87877
605.839	88298
605.907	86796
605.975	83728
606.043	81089
606.111	81946
606.180	81760
606.248	80059
606.316	79347
606.384	81488
606.452	81803
606.520	83425
606.588	82829
606.656	82050
606.724	80704
606.792	76902
606.860	69836
606.928	64578
606.996	60851
607.064	61387
607.132	61249
607.200	65777
607.267	67353
607.335	69003
607.403	69770
607.471	68635
607.539	67527
607.607	67158
607.674	59432
607.742	60726
607.810	60567
607.878	58972
607.946	60412
608.013	63326
608.081	65123
608.149	65011
608.216	66513
608.284	69189
608.352	68878
608.419	66966
608.487	70053
608.555	66587
608.622	66899
608.690	71194
608.757	77374
608.825	79960
608.893	77155
608.960	75738
609.028	74826
609.095	73824
609.163	70425
609.230	64749
609.298	60515
609.365	61788
609.432	66852
609.500	71781
609.567	81491
609.635	92301
609.702	96025
609.769	93812
609.837	74267
609.904	64521
609.971	65480
610.039	73231
610.106	91349
610.173	157715
610.241	339591
610.308	255397
610.375	131207
610.442	76262
610.509	67548
610.577	67469
610.644	67275
610.711	68865
610.778	70769
610.845	73233
610.912	75329
610.980	79108
611.047	80867
611.114	79113
611.181	76640
611.248	75323
611.315	79076
611.382	80632
611.449	83104
611.516	86154
611.583	84354
611.650	85873
611.717	85842
611.784	87408
611.851	89870
611.918	95985
611.984	108287
612.051	146432
612.118	264993
612.185	608581
612.252	406560
612.319	124946
612.386	106346
612.452	99313
612.519	97090
612.586	96016
612.653	96212
612.719	97466
612.786	94053
612.853	87896
612.919	86401
612.986	87996
613.053	83112
613.120	77837
613.186	74054
613.253	77256
613.319	76023
613.386	78081
613.453	77117
613.519	81054
613.586	81368
613.652	86250
613.719	82348
613.785	81563
613.852	78307
613.918	77683
613.985	79580
614.051	82458
614.118	80909
614.184	79096
614.250	78393
614.317	80022
614.383	78007
614.449	79925
614.516	79870
614.582	81270
614.648	78142
614.715	78166
614.781	76732
614.847	76955
614.914	76927
614.980	74641
615.046	74719
615.112	77451
615.179	77950
615.245	80827
615.311	85327
615.377	100359
615.443	102465
615.509	86569
615.575	83966
615.642	82140
615.708	85527
615.774	88859
615.840	95861
615.906	105558
615.972	132244
616.038	207913
616.104	353147
616.170	713292
616.236	622174
616.302	170659
616.368	127183
616.434	100911
616.500	94668
616.565	101562
616.631	119053
616.697	102888
616.763	104446
616.829	139417
616.895	228654
616.961	218674
617.026	107601
617.092	84379
617.158	81640
617.224	81967
617.289	76631
617.355	73761
617.421	72575
617.487	73824
617.552	68837
617.618	68942
617.684	68241
617.749	70834
617.815	66673
617.880	65151
617.946	66991
618.012	68773
618.077	69152
618.143	66826
618.208	65732
618.274	71366
618.339	72138
618.405	61478
618.470	62010
618.536	61765
618.601	61760
618.667	58388
618.732	56614
618.798	56557
618.863	55802
618.928	56047
618.994	57114
619.059	57185
619.124	62227
619.190	58149
619.255	54443
619.320	54608
619.386	54379
619.451	55408
619.516	53319
619.581	54921
619.647	54817
619.712	55494
619.777	54452
619.842	54604
619.907	56112
619.972	55185
620.038	55670
620.103	54542
620.168	53175
620.233	54529
620.298	55028
620.363	53621
620.428	55893
620.493	57231
620.558	57082
620.623	59157
620.688	58566
620.753	57871
620.818	57352
620.883	59655
620.948	58269
621.013	58426
621.078	56769
621.143	57793
621.207	60275
621.272	59743
621.337	57286
621.402	58111
621.467	60718
621.532	60836
621.596	59980
621.661	56617
621.726	55920
621.791	56456
621.855	57456
621.920	58137
621.985	57535
622.049	59624
622.114	57935
622.179	59299
622.243	60391
622.308	63277
622.373	65024
622.437	63134
622.502	59944
622.566	60200
622.631	57529
622.695	60928
622.760	59167
622.824	60220
622.889	60155
622.953	60852
623.018	69657
623.082	68709
623.147	62962
623.211	61458
623.276	61603
623.340	59119
623.404	58053
623.469	58708
623.533	57938
623.597	56804
623.662	56609
623.726	54396
623.790	52139
623.854	50623
623.919	51477
623.983	51652
624.047	51725
624.111	51172
624.176	53685
624.240	53589
624.304	56821
624.368	52547
624.432	52955
624.496	52900
624.560	57276
624.625	57293
624.689	56036
624.753	57159
624.817	55275
624.881	54379
624.945	49825
625.009	49375
625.073	49863
625.137	53972
625.201	55347
625.265	56342
625.329	50569
625.393	52957
625.456	51902
625.520	51629
625.584	55021
625.648	57114
625.712	62083
625.776	81178
625.839	83824
625.903	55181
625.967	45209
626.031	53330
626.095	65914
626.158	51401
626.222	39980
626.286	39253
626.349	37514
626.413	34650
626.477	37376
626.540	36629
626.604	34846
626.668	36133
626.731	34757
626.795	34836
626.858	34838
626.922	34414
626.986	34288
627.049	33350
627.113	35834
627.176	33751
627.240	33376
627.303	32746
627.366	32989
627.430	33518
627.493	32907
627.557	32460
627.620	34314
627.684	33887
627.747	33811
627.810	30876
627.874	30429
627.937	28141
628.000	30548
628.064	28981
628.127	25652
628.190	28566
628.253	25589
628.317	25841
628.380	25308
628.443	24918
628.506	25078
628.569	24557
628.632	22470
628.696	22914
628.759	22492
628.822	21776
628.885	21513
628.948	21877
629.011	21216
629.074	21200
629.137	20773
629.200	20408
629.263	22012
629.326	20476
629.389	19144
629.452	19706
629.515	20597
629.578	20124
629.641	21268
629.704	20223
629.767	19726
629.830	19629
629.892	19193
629.955	18469
630.018	20778
630.081	20424
630.144	21869
630.207	18384
630.269	20999
630.332	18513
630.395	18986
630.458	19097
630.520	17690
630.583	19300
630.646	18424
630.708	17983
630.771	17802
630.834	19242
630.896	18079
630.959	17408
631.021	17190
631.084	17882
631.146	18046
631.209	19743
631.272	17456
631.334	17393
631.397	18173
631.459	16753
631.522	18346
631.584	18076
631.646	19369
631.709	18920
631.771	20604
631.834	19250
631.896	17965
631.958	17102
632.021	17133
632.083	17359
632.145	17878
632.208	17352
632.270	17598
632.332	16178
632.395	16364
632.457	17321
632.519	16172
632.581	17827
632.643	15204
632.706	17391
632.768	15516
632.830	16357
632.892	15689
632.954	16407
633.016	17658
633.078	15366
633.141	15178
633.203	16195
633.265	16237
633.327	16178
633.389	15583
633.451	18026
633.513	17742
633.575	17849
633.637	16419
633.698	16082
633.760	17378
633.822	17243
633.884	16962
633.946	17027
634.008	15539
634.070	15891
634.132	16883
634.193	17579
634.255	18496
634.317	17619
634.379	18289
634.441	17213
634.502	16255
634.564	16997
634.626	15627
634.687	15548
634.749	14854
634.811	15483
634.873	13986
634.934	14308
634.996	14431
635.057	15066
635.119	13717
635.181	14284
635.242	15442
635.304	13173
635.365	16306
635.427	13981
635.488	14724
635.550	13830
635.611	15497
635.673	13754
635.734	16388
635.796	15933
635.857	16838
635.918	15518
635.980	17624
636.041	17547
636.102	18149
636.164	18102
636.225	17682
636.286	14772
636.348	15096
636.409	14746
636.470	13723
636.531	13633
636.593	14990
636.654	15058
636.715	13562
636.776	13775
636.838	12885
636.899	14650
636.960	12962
637.021	13200
637.082	12590
637.143	13042
637.204	11552
637.265	11590
637.326	12503
637.387	13471
637.448	11553
637.509	13412
637.570	13287
637.631	12925
637.692	12216
637.753	11214
637.814	12567
637.875	11413
637.936	12610
637.997	11699
638.058	12475
638.119	12213
638.179	11369
638.240	12434
638.301	12291
638.362	11487
638.423	10758
638.483	12848
638.544	10270
638.605	12296
638.666	10177
638.726	11997
638.787	12029
638.848	11521
638.908	11504
638.969	11446
639.030	11742
639.090	9629
639.151	10782
639.211	12125
639.272	13508
639.332	16172
639.393	11948
639.453	11053
639.514	10452
639.574	11511
639.635	11170
639.695	11862
639.756	9202
639.816	10767
639.877	11087
639.937	14576
639.997	16017
640.058	10111
640.118	8971
640.178	10590
640.239	9831
640.299	9853
640.359	9793
640.420	10749
640.480	10722
640.540	12623
640.600	11633
640.661	11642
640.721	9435
640.781	13231
640.841	10072
640.901	11067
640.961	9609
641.021	10268
641.082	10331
641.142	13151
641.202	11477
641.262	8710
641.322	10188
641.382	8420
641.442	10115
641.502	9521
641.562	10078
641.622	9724
641.682	10005
641.742	11042
641.802	10433
641.861	11520
641.921	8656
641.981	9918
642.041	9792
642.101	11454
642.161	8258
642.221	9358
642.280	8314
642.340	9342
642.400	7762
642.460	10130
642.519	8787
642.579	9537
642.639	10313
642.698	7519
642.758	11593
642.818	8965
642.877	9402
642.937	9921
642.997	10850
643.056	12100
643.116	9635
643.175	11055
643.235	9736
643.294	10245
643.354	10574
643.414	10794
643.473	12688
643.532	13618
643.592	17160
643.651	25684
643.711	43218
643.770	80770
643.830	183239
643.889	407953
643.948	108853
644.008	20782
644.067	14184
644.126	12492
644.186	10699
644.245	10294
644.304	8519
644.363	9856
644.423	7624
644.482	9641
644.541	9734
644.600	8098
644.659	11357
644.719	12374
644.778	16705
644.837	25878
644.896	48452
644.955	110380
645.014	41510
645.073	11808
645.132	10885
645.191	10481
645.250	8153
645.309	10433
645.368	9435
645.427	12187
645.486	15127
645.545	26248
645.604	11931
645.663	10077
645.722	8300
645.781	10466
645.840	10964
645.898	12100
645.957	17380
646.016	22568
646.075	40613
646.134	75225
646.192	191838
646.251	302571
646.310	49906
646.369	15722
646.427	12459
646.486	9635
646.545	9403
646.603	8646
646.662	9234
646.721	8678
646.779	7552
646.838	8235
646.896	9328
646.955	11516
647.014	17140
647.072	28487
647.131	72961
647.189	38768
647.248	8630
647.306	8394
647.365	8457
647.423	4687
647.481	8386
647.540	5954
647.598	7573
647.657	7266
647.715	7622
647.773	5953
647.832	7113
647.890	6055
647.948	5925
648.007	7097
648.065	5508
648.123	5989
648.181	7336
648.240	7012
648.298	4903
648.356	5621
648.414	6599
648.472	6784
648.531	6633
648.589	5793
648.647	5915
648.705	5831
648.763	5792
648.821	7137
648.879	6010
648.937	6396
648.995	7244
649.053	9126
649.111	12591
649.169	20009
649.227	32190
649.285	63388
649.343	181797
649.401	95916
649.459	19819
649.516	14050
649.574	7058
649.632	9353
649.690	8539
649.748	10495
649.806	10538
649.863	20588
649.921	49359
649.979	36352
650.037	7723
650.094	4438
650.152	5415
650.210	5602
650.268	5575
650.325	5200
650.383	5935
650.440	3909
650.498	4864
650.556	4445
650.613	3780
650.671	4732
650.728	4809
650.786	5157
650.843	5314
650.901	3980
650.958	5297
651.016	4209
651.073	4957
651.131	3981
651.188	3994
651.246	4974
651.303	3285
651.360	4555
651.418	3999
651.475	4393
651.532	3303
651.590	4827
651.647	3001
651.704	4552
651.762	3402
651.819	4612
651.876	3205
651.933	4420
651.990	4424
652.048	2397
652.105	3806
652.162	4727
652.219	3248
652.276	4465
652.333	3707
652.390	2842
652.448	4117
652.505	4761
652.562	3186
652.619	3001
652.676	3629
652.733	4946
652.790	3460
652.847	2964
652.904	3972
652.961	3823
653.017	2993
653.074	4285
653.131	3475
653.188	2784
653.245	3662
653.302	3700
653.359	2700
653.415	3789
653.472	3967
653.529	4405
653.586	2868
653.642	3828
653.699	3592
653.756	3274
653.813	2834
653.869	3636
653.926	3030
653.983	3004
654.039	4067
654.096	3659
654.152	4268
654.209	2801
654.266	3899
654.322	2975
654.379	3396
654.435	4349
654.492	3891
654.548	4947
654.605	5504
654.661	5381
654.717	3777
654.774	4387
654.830	4124
654.887	3895
654.943	3109
655.000	3170
655.056	4338
655.112	3564
655.168	2904
655.225	3324
655.281	3807
655.337	4105
655.394	5600
655.450	4496
655.506	3970
655.562	5689
655.618	6279
655.675	2774
655.731	3242
655.787	2933
655.843	4007
655.899	2602
655.955	3544
656.011	3713
656.067	1974
656.123	3602
656.179	2904
656.235	4365
656.291	1779
656.347	4347
656.403	2916
656.459	3320
656.515	3697
656.571	3833
656.627	3836
656.683	3339
656.739	4299
656.795	3343
656.850	3091
656.906	3894
656.962	4587
657.018	3178
657.074	3477
657.129	4626
657.185	6135
657.241	9532
657.297	6538
657.352	4588
657.408	2989
657.464	4721
657.519	3119
657.575	2929
657.630	2671
657.686	3919
657.742	2370
657.797	2935
657.853	2940
657.908	4544
657.964	1804
658.019	3769
658.075	3786
658.130	4037
658.186	1996
658.241	3597
658.297	2273
658.352	2201
658.407	4205
658.463	2785
658.518	4004
658.573	3271
658.629	2621
658.684	3043
658.739	3567
658.795	2052
658.850	3364
658.905	2570
658.960	3013
659.016	3164
659.071	2729
659.126	3976
659.181	2895
659.236	5647
659.291	6612
659.346	3279
659.401	4039
659.457	3607
659.512	2548
659.567	4381
659.622	2574
659.677	3506
659.732	1935
659.787	2846
659.842	2838
659.897	3489
659.952	3654
660.007	3059
660.061	2913
660.116	2619
660.171	2451
660.226	3476
660.281	4223
660.336	3001
660.391	2929
660.445	2600
660.500	3382
660.555	3130
660.610	2514
660.664	3423
660.719	2399
660.774	3560
660.828	3129
660.883	2492
660.938	3202
660.992	2534
661.047	2728
661.101	2352
661.156	3234
661.211	2385
661.265	2082
661.320	2657
661.374	3230
661.429	2377
661.483	2970
661.538	1744
661.592	3627
661.647	3011
661.701	3069
661.755	3393
661.810	3100
661.864	2719
661.919	2721
661.973	3114
662.027	2884
662.081	3113
662.136	2542
662.190	3067
662.244	2928
662.299	2380
662.353	3036
662.407	2397
662.461	2792
662.515	3527
662.569	2649
662.624	2769
662.678	2429
662.732	2476
662.786	2536
662.840	3617
662.894	2669
662.948	2400
663.002	2679
663.056	3294
663.110	2408
663.164	2646
663.218	2519
663.272	3788
663.326	2670
663.380	2141
663.434	3353
663.488	2054
663.542	2203
663.595	3005
663.649	2870
663.703	3671
663.757	2746
663.811	2813
663.864	1990
663.918	2995
663.972	2235
664.026	2300
664.079	2251
664.133	2378
664.187	2672
664.240	2367
664.294	2378
664.348	2559
664.401	3365
664.455	2038
664.508	2336
664.562	2826
664.615	2799
664.669	2890
664.722	2746
664.776	2248
664.829	3182
664.883	2278
664.936	2129
664.990	2439
665.043	2671
665.097	2565
665.150	3470
665.203	3042
665.257	3316
665.310	2727
665.363	2362
665.417	2920
665.470	3080
665.523	2193
665.576	2802
665.630	3384
665.683	2675
665.736	2375
665.789	3251
665.842	2428
665.895	2996
665.949	3221
666.002	3080
666.055	2648
666.108	2871
666.161	2779
666.214	3285
666.267	3456
666.320	3025
666.373	3533
666.426	2701
666.479	3311
666.532	2704
666.585	3850
666.638	2503
666.691	2663
666.744	3392
666.796	3076
666.849	2204
666.902	4099
666.955	2445
667.008	2611
667.060	2285
667.113	2018
667.166	2796
667.219	3474
667.271	2196
667.324	2541
667.377	3345
667.430	2879
667.482	2336
667.535	2812
667.587	4041
667.640	3132
667.693	3169
667.745	3605
667.798	4662
667.850	2365
667.903	2348
667.955	2881
668.008	3425
668.060	3227
668.113	3589
668.165	3013
668.218	2130
668.270	2969
668.322	3069
668.375	3103
668.427	3404
668.479	2069
668.532	2625
668.584	3441
668.636	2795
668.689	3833
668.741	2370
668.793	2936
668.845	1867
668.898	2916
668.950	2764
669.002	3134
669.054	2699
669.106	2165
669.158	3790
669.211	3079
669.263	2858
669.315	3028
669.367	2461
669.419	2500
669.471	4120
669.523	4137
669.575	4223
669.627	3770
669.679	2246
669.731	3357
669.783	2900
669.835	3850
669.886	3467
669.938	2953
669.990	2898
670.042	3416
670.094	3398
670.146	4737
670.197	4907
670.249	5979
670.301	6552
670.353	10244
670.404	12749
670.456	18712
670.508	28402
670.560	45130
670.611	75200
670.663	130608
670.715	281011
670.766	453932
670.818	186211
670.869	37058
670.921	16836
670.972	12532
671.024	8046
671.075	6949
671.127	6408
671.178	5017
671.230	4787
671.281	4711
671.333	4359
671.384	3869
671.436	4775
671.487	5515
671.538	5500
671.590	7722
671.641	11926
671.692	18539
671.744	33420
671.795	24158
671.846	7583
671.897	4422
671.949	4029
672.000	4013
672.051	3432
672.102	2859
672.153	3140
672.204	2799
672.256	3268
672.307	3089
672.358	2494
672.409	3077
672.460	3282
672.511	2468
672.562	2478
672.613	1954
672.664	2847
672.715	2967
672.766	2613
672.817	1739
672.868	2430
672.919	2568
672.970	2758
673.021	1492
673.071	1879
673.122	2304
673.173	3024
673.224	2714
673.275	2551
673.326	3083
673.376	2221
673.427	2805
673.478	3215
673.528	2535
673.579	1931
673.630	2844
673.680	2773
673.731	2606
673.782	2199
673.832	2523
673.883	2965
673.934	1690
673.984	1145
674.035	1521
674.085	2219
674.136	2360
674.186	2137
674.237	2984
674.287	2794
674.338	2839
674.388	2099
674.438	2405
674.489	1895
674.539	1996
674.589	2842
674.640	1956
674.690	2270
674.740	2293
674.791	2510
674.841	2989
674.891	2213
674.942	2490
674.992	2133
675.042	1955
675.092	1306
675.142	1900
675.193	1773
675.243	1523
675.293	2282
675.343	2385
675.393	2456
675.443	1826
675.493	1925
675.543	1501
675.593	2034
675.643	2005
675.693	2269
675.743	2165
675.793	1416
675.843	1671
675.893	1542
675.943	1709
675.993	2220
676.043	2166
676.093	2172
676.142	1838
676.192	1604
676.242	1635
676.292	1616
676.341	1931
676.391	2086
676.441	1618
676.491	1363
676.540	946
676.590	1494
676.640	1477
676.689	1332
676.739	1868
676.789	1538
676.838	1893
676.888	1599
676.937	1300
676.987	1669
677.037	1917
677.086	1051
677.136	1284
677.185	641
677.235	704
677.284	2010
677.333	1531
677.383	1424
677.432	847
677.482	1057
677.531	2114
677.580	1092
677.630	1420
677.679	1326
677.728	1286
677.778	1868
677.827	856
677.876	749
677.925	1045
677.975	1359
678.024	1244
678.073	806
678.122	1834
678.171	1301
678.220	1747
678.269	980
678.319	1971
678.368	1406
678.417	1894
678.466	1824
678.515	1901
678.564	1092
678.613	1720
678.662	1087
678.711	2135
678.760	814
678.809	1744
678.857	1854
678.906	1916
678.955	921
679.004	1781
679.053	1841
679.102	1221
679.151	937
679.199	1579
679.248	1207
679.297	1533
679.346	1290
679.394	1446
679.443	1601
679.492	1772
679.540	1663
679.589	917
679.638	1184
679.686	1036
679.735	1232
679.784	1785
679.832	1988
679.881	1313
679.929	1245
679.978	1610
680.026	1085
680.075	875
680.123	829
680.172	1600
680.220	1156
680.268	1260
680.317	894
680.365	966
680.414	1195
680.462	901
680.510	792
680.559	1258
680.607	1023
680.655	670
680.703	1268
680.752	1061
680.800	731
680.848	317
680.896	894
680.945	251
680.993	840
681.041	942
681.089	1208
681.137	870
681.185	53
681.233	1165
681.258	940
681.281	701
681.329	714
681.377	945
681.380	993
681.425	1378
681.473	1414
681.502	1141
681.521	899
681.569	1940
681.617	1597
681.624	1578
681.665	1281
681.713	1558
681.745	724
681.761	280
681.809	1422
681.857	1331
681.867	1332
681.904	1246
681.952	1413
681.989	1584
682.000	1598
682.048	1935
682.096	2231
682.111	1948
682.143	1272
682.191	2073
682.233	2593
682.239	2647
682.286	2184
682.334	1811
682.354	1903
682.382	1980
682.430	1753
682.476	2284
682.477	2270
682.525	1621
682.572	1485
682.598	1774
682.620	2007
682.667	2545
682.715	2148
682.720	2262
682.763	3091
682.810	1898
682.841	2132
682.857	2214
682.905	2197
682.952	2602
682.963	2577
683.000	2376
683.047	2487
683.085	3109
683.095	3266
683.142	3428
683.190	3077
683.206	3058
683.237	2927
683.284	3260
683.328	3423
683.332	3415
683.379	2789
683.426	2947
683.449	2554
683.473	2166
683.521	3282
683.568	3313
683.571	3329
683.615	3190
683.662	2821
683.693	3157
683.709	3335
683.757	2736
683.804	3305
683.814	3428
683.851	3777
683.898	4175
683.936	3907
683.945	3814
683.992	3817
684.039	3736
684.057	3628
684.086	3434
684.133	3666
684.179	3425
684.180	3400
684.227	3945
684.274	3978
684.300	4079
684.321	4132
684.368	4107
684.415	3873
684.422	3838
684.462	3562
684.509	4228
684.543	4500
684.556	4560
684.603	4503
684.649	4034
684.665	4176
684.696	4464
684.743	4205
684.786	4583
684.790	4603
684.837	4621
684.883	4692
684.908	5064
684.930	5375
684.977	4967
685.023	5359
685.029	5278
685.070	4540
685.117	5144
685.150	4933
685.164	4848
685.210	5622
685.257	5333
685.272	5493
685.303	5748
685.350	5420
685.393	5177
685.396	5159
685.443	5559
685.490	6044
685.514	6184
685.536	6196
685.583	6261
685.629	6151
685.636	6163
685.675	6205
685.722	6049
685.757	5992
685.768	5989
685.815	6063
685.861	6340
685.878	6344
685.908	6251
685.954	5693
686.000	6252
686.000	6258
686.047	6237
686.093	6306
686.121	6729
686.139	6921
686.185	6467
686.232	6886
686.242	6834
686.278	6656
686.324	6785
686.363	6443
686.370	6348
686.416	6286
686.463	5886
686.484	6064
686.509	6421
686.555	6434
686.601	6412
686.606	6481
686.647	6766
686.693	6645
686.727	6308
686.739	6285
686.785	6208
686.831	6137
686.848	6451
686.877	6847
686.923	6549
686.969	6758
686.969	6758
687.015	6500
687.061	6550
687.090	6656
687.107	6750
687.153	6748
687.199	6678
687.211	6740
687.245	6900
687.291	7195
687.332	7450
687.336	7473
687.382	7064
687.428	7402
687.453	7076
687.474	6762
687.520	7036
687.565	6761
687.574	6857
687.611	7329
687.657	6830
687.695	7259
687.702	7370
687.748	7632
687.794	7767
687.816	8067
687.839	8206
687.885	8151
687.931	7640
687.937	7595
687.976	7454
688.022	7575
688.058	8180
688.067	8336
688.113	7572
688.158	8004
688.179	7761
688.204	7522
688.249	8033
688.295	8213
688.300	8185
688.340	7990
688.386	8222
688.421	8149
688.431	8125
688.477	7759
688.522	8592
688.542	8466
688.567	8371
688.613	8622
688.658	8546
688.663	8562
688.703	8731
688.749	8638
688.784	8827
688.794	8850
688.839	8187
688.884	8435
688.905	8261
688.930	8116
688.975	8462
689.020	8667
689.026	8594
689.065	8220
689.110	8310
689.146	8610
689.155	8686
689.201	8036
689.246	8544
689.267	8455
689.291	8346
689.336	8624
689.381	8491
689.388	8502
689.426	8762
689.471	8677
689.509	8826
689.516	8819
689.561	8589
689.606	8387
689.630	8374
689.651	8617
689.696	8891
689.741	8789
689.750	8969
689.785	9362
689.830	8623
689.871	8672
689.875	8697
689.920	8928
689.965	9369
689.992	9080
690.010	8942
690.054	8905
690.099	9111
690.112	9232
690.144	9485
690.189	8943
690.233	8945
690.233	8957
690.278	8663
690.323	9175
690.354	8548
690.367	8345
690.412	8874
690.457	8915
690.474	8988
690.501	9027
690.546	8598
690.590	8895
690.595	8861
690.635	8975
690.680	9142
690.716	9151
690.724	9119
690.769	9452
690.813	9548
690.836	9332
690.857	9279
690.902	9376
690.946	9552
690.957	9637
690.991	9757
691.035	9519
691.077	9288
691.080	9310
691.124	9488
691.168	9817
691.198	9806
691.213	9723
691.257	9993
691.301	9502
691.318	9507
691.346	9648
691.390	9820
691.434	9985
691.439	9947
691.478	9864
691.522	10035
691.559	10051
691.567	10035
691.611	10238
691.655	10130
691.680	9932
691.699	10034
691.743	10691
691.787	10748
691.800	10841
691.831	10797
691.875	10966
691.919	10887
691.921	10861
691.964	10787
692.008	10798
692.041	10754
692.052	10795
692.096	10968
692.139	11152
692.162	11093
692.183	10844
692.227	10739
692.271	10391
692.282	10230
692.315	10264
692.359	10406
692.402	10688
692.403	10711
692.447	10573
692.490	11081
692.523	11065
692.534	11140
692.578	11154
692.622	10876
692.643	11174
692.666	11343
692.709	10921
692.753	10543
692.763	10521
692.797	10821
692.840	10670
692.884	10983
692.884	11010
692.928	11347
692.971	11382
693.004	11543
693.015	11574
693.059	11502
693.102	11417
693.124	11369
693.146	11281
693.189	11113
693.233	10833
693.245	10783
693.276	11192
693.320	11515
693.363	11696
693.365	11700
693.407	11957
693.450	11249
693.485	11061
693.493	11111
693.537	11276
693.580	11436
693.605	11400
693.624	11336
693.667	11374
693.710	11316
693.725	11258
693.753	11592
693.797	11839
693.840	12545
693.845	12555
693.883	12086
693.926	11783
693.966	11306
693.970	11303
694.013	10942
694.056	10935
694.086	10634
694.099	10664
694.142	10861
694.185	11118
694.206	11137
694.229	11080
694.272	11276
694.315	10975
694.326	10928
694.358	11226
694.401	11706
694.444	12093
694.446	12079
694.487	12247
694.530	12648
694.566	12561
694.573	12506
694.616	12195
694.659	12020
694.686	11829
694.702	11814
694.745	11617
694.787	11728
694.806	11515
694.830	11467
694.873	11805
694.916	11913
694.926	11926
694.959	11955
695.002	11791
695.044	11750
695.046	11725
695.087	11989
695.130	12063
695.166	12103
695.172	12142
695.215	12111
695.258	12247
695.286	12124
695.301	12109
695.343	12249
695.386	12380
695.406	12348
695.428	12314
695.471	12213
695.514	12336
695.526	12242
695.556	12311
695.599	12583
695.641	12763
695.646	12759
695.684	12940
695.726	12974
695.766	13009
695.769	13035
695.811	13040
695.854	12858
695.886	12737
695.896	12754
695.938	12678
695.981	12800
696.005	12637
696.023	12670
696.065	12838
696.108	12985
696.125	13079
696.150	13273
696.192	13280
696.235	13458
696.245	13456
696.277	13317
696.319	13048
696.361	12737
696.365	12683
696.404	12679
696.446	12574
696.485	12554
696.488	12639
696.530	13242
696.572	13766
696.604	14242
696.614	14170
696.656	13666
696.698	13068
696.724	12684
696.740	12691
696.783	12529
696.825	12631
696.844	12604
696.867	12804
696.909	12842
696.951	13177
696.964	13209
696.992	13101
697.034	12952
697.076	12808
697.083	12723
697.118	13098
697.160	13693
697.202	14163
697.203	14138
697.244	13745
697.286	13330
697.323	12836
697.327	12888
697.369	13101
697.411	13373
697.442	13453
697.453	13557
697.494	13843
697.536	14144
697.562	14317
697.578	14320
697.620	14180
697.661	14049
697.682	13933
697.703	13924
697.744	13808
697.786	13920
697.801	13843
697.828	14101
697.869	14452
697.911	14807
697.921	14873
697.952	14628
697.994	14195
698.035	13728
698.040	13638
698.077	13860
698.118	14047
698.160	14259
698.160	14221
698.201	13903
698.243	13561
698.279	13171
698.284	13253
698.325	13743
698.367	14165
698.399	14488
698.408	14472
698.449	14183
698.491	13920
698.518	13676
698.532	13835
698.573	14245
698.614	14657
698.638	14843
698.656	14932
698.697	15032
698.738	15150
698.757	15161
698.779	15298
698.820	15479
698.862	15659
698.877	15683
698.903	15697
698.944	15649
698.985	15609
698.996	15554
699.026	15613
699.067	15640
699.116	15629
699.235	14161
699.354	14644
699.474	13912
699.593	14899
699.713	15163
699.832	14730
699.951	14766
700.070	15469
700.190	14322
700.309	14124
700.428	14429
700.547	13811
700.667	14392
700.786	15299
700.905	13740
701.024	14276
701.143	13510
701.262	13518
701.381	13575
701.500	14384
701.619	13397
701.738	14160
701.857	12203
701.976	13630
702.095	12991
702.214	13069
702.333	13125
702.452	13069
702.571	13869
702.690	12871
702.809	12148
702.928	12191
703.047	12460
703.165	13184
703.284	12772
703.403	13313
703.522	12757
703.640	13327
703.759	12703
703.878	14575
703.997	12475
704.115	11711
704.234	12189
704.353	12158
704.471	11285
704.590	12116
704.708	12081
704.827	11437
704.946	11821
705.064	12187
705.183	11974
705.301	13875
705.420	16781
705.538	15651
705.656	13907
705.775	13815
705.893	13607
706.012	15014
706.130	14059
706.249	14734
706.367	14408
706.485	14775
706.604	13744
706.722	13143
706.840	15258
706.958	16120
707.077	14298
707.195	13674
707.313	13683
707.431	13001
707.549	12463
707.668	12577
707.786	13735
707.904	13245
708.022	13186
708.140	12512
708.258	12728
708.376	13637
708.494	12992
708.612	14024
708.730	17272
708.848	17128
708.966	15382
709.084	14263
709.202	15372
709.320	15500
709.438	15253
709.556	15531
709.674	14577
709.791	15335
709.909	13465
710.027	14816
710.145	14687
710.263	15061
710.380	14064
710.498	13881
710.616	12945
710.733	13646
710.851	13641
710.969	13664
711.086	12676
711.204	13405
711.322	13409
711.439	12873
711.557	13332
711.674	12904
711.792	12246
711.909	14137
712.027	12908
712.144	13134
712.262	12711
712.379	13595
712.497	18024
712.614	19214
712.732	15702
712.849	16445
712.966	15612
713.084	16249
713.201	15808
713.318	16211
713.436	14474
713.553	15100
713.670	15110
713.787	16409
713.905	16361
714.022	15670
714.139	14945
714.256	17150
714.373	17835
714.490	23768
714.608	42528
714.725	159295
714.842	191420
714.959	23088
715.076	16082
715.193	14994
715.310	14317
715.427	13864
715.544	14478
715.661	13622
715.778	13683
715.895	13924
716.011	14589
716.128	13359
716.245	13049
716.362	14410
716.479	13903
716.596	13443
716.713	12104
716.829	12768
716.946	12939
717.063	12642
717.180	12562
717.296	12885
717.413	11782
717.530	13021
717.646	11725
717.763	12483
717.880	12081
717.996	11663
718.113	11408
718.229	11676
718.346	11709
718.462	11333
718.579	12527
718.695	14643
718.812	14127
718.928	13668
719.045	11832
719.161	10499
719.277	10878
719.394	10804
719.510	11454
719.626	11537
719.743	13284
719.859	14375
719.975	18728
720.092	49686
720.208	116126
720.324	23000
720.440	11398
720.557	12107
720.673	14521
720.789	15530
720.905	24290
721.021	13488
721.137	10923
721.253	11177
721.369	11034
721.486	9690
721.602	11521
721.718	10451
721.834	8762
721.950	10491
722.066	9379
722.181	9702
722.297	9836
722.413	9182
722.529	9801
722.645	8797
722.761	9723
722.877	9267
722.993	8580
723.108	9756
723.224	9249
723.340	9017
723.456	9363
723.571	9004
723.687	8703
723.803	8628
723.918	8974
724.034	8818
724.150	8158
724.265	9040
724.381	12258
724.497	14147
724.612	7972
724.728	8495
724.843	8137
724.959	9052
725.074	11455
725.190	13152
725.305	8721
725.421	8699
725.536	7109
725.651	7600
725.767	8154
725.882	8652
725.997	8197
726.113	9104
726.228	7996
726.343	8612
726.459	6964
726.574	8380
726.689	6896
726.804	8237
726.920	8176
727.035	7836
727.150	7440
727.265	7396
727.380	8300
727.495	7871
727.610	7916
727.725	7026
727.841	6601
727.956	7461
728.071	8153
728.186	7790
728.301	6841
728.416	7598
728.531	7031
728.645	6725
728.760	6980
728.875	6916
728.990	6654
729.105	6743
729.220	6582
729.335	7170
729.449	6942
729.564	6953
729.679	6059
729.794	7047
729.908	7110
730.023	6928
730.138	6214
730.253	6857
730.367	6374
730.482	7426
730.596	5703
730.711	6618
730.826	6882
730.940	6546
731.055	6689
731.169	6281
731.284	5684
731.398	7144
731.513	7193
731.627	6956
731.742	7404
731.856	7573
731.970	6961
732.085	7352
732.199	8341
732.313	10546
732.428	21053
732.542	58808
732.656	41617
732.771	10272
732.885	7782
732.999	8311
733.113	8036
733.227	7555
733.342	7816
733.456	8072
733.570	8023
733.684	7200
733.798	7024
733.912	7128
734.026	5872
734.140	7113
734.254	7064
734.368	8555
734.482	9969
734.596	7177
734.710	7020
734.824	6432
734.938	6735
735.052	7698
735.166	6757
735.280	7608
735.393	6514
735.507	6259
735.621	6346
735.735	9010
735.849	7245
735.962	6987
736.076	6648
736.190	6433
736.303	6788
736.417	8240
736.531	5588
736.644	6804
736.758	5992
736.872	4996
736.985	5140
737.099	6152
737.212	5507
737.326	6606
737.439	5350
737.553	4989
737.666	5817
737.780	6110
737.893	5620
738.007	5407
738.120	5538
738.233	6071
738.347	5164
738.460	6390
738.573	6290
738.687	5759
738.800	5993
738.913	5803
739.026	5603
739.140	5829
739.253	4668
739.366	6151
739.479	5422
739.592	5525
739.705	5941
739.818	6161
739.932	5786
740.045	5397
740.158	6009
740.271	5119
740.384	5117
740.497	5329
740.610	4400
740.723	5222
740.836	5073
740.949	5047
741.062	5845
741.174	5672
741.287	5185
741.400	4724
741.513	4772
741.626	5397
741.739	4747
741.851	5545
741.964	4549
742.077	4478
742.189	5190
742.302	4752
742.415	4205
742.527	4517
742.640	5372
742.753	5046
742.865	5076
742.978	5697
743.090	3969
743.203	5036
743.316	4442
743.428	4264
743.541	5355
743.653	4250
743.766	5206
743.878	4338
743.990	5034
744.103	6497
744.215	4445
744.327	5432
744.440	5174
744.552	5658
744.664	4553
744.777	4744
744.889	3945
745.001	5082
745.113	4168
745.226	5054
745.338	3983
745.450	4568
745.562	4085
745.674	4397
745.786	4561
745.898	4126
746.010	3147
746.122	4245
746.234	4162
746.347	5402
746.459	4282
746.570	3822
746.682	4339
746.794	5395
746.906	3577
747.018	4886
747.130	4715
747.242	4553
747.354	4677
747.466	4822
747.577	4150
747.689	4406
747.801	4203
747.913	4763
748.024	3183
748.136	4359
748.248	3915
748.359	4074
748.471	4230
748.583	4121
748.694	3520
748.806	4878
748.918	4137
749.029	3967
749.141	4391
749.252	4064
749.364	4183
749.475	5446
749.587	4172
749.698	3481
749.809	4357
749.921	3692
750.032	3689
750.144	4238
750.255	3301
750.366	3348
750.478	4107
750.589	4217
750.700	3352
750.811	3762
750.923	4341
751.034	5789
751.145	4696
751.256	3531
751.367	3686
751.479	3748
751.590	2921
751.701	3278
751.812	2944
751.923	3836
752.034	3354
752.145	3889
752.256	3421
752.367	3533
752.478	3448
752.589	3598
752.700	3689
752.811	3230
752.922	3305
753.032	3027
753.143	4460
753.254	3874
753.365	4500
753.476	3068
753.586	3644
753.697	3655
753.808	3413
753.919	3831
754.029	2820
754.140	3627
754.251	2928
754.361	3650
754.472	2874
754.582	2960
754.693	3057
754.804	3878
754.914	3071
755.025	3912
755.135	2812
755.246	4241
755.356	3133
755.466	4013
755.577	3226
755.687	3908
755.798	3643
755.908	3617
756.018	3534
756.129	3524
756.239	3039
756.349	3362
756.460	2415
756.570	3229
756.680	2957
756.790	2937
756.900	4003
757.011	2945
757.121	2459
757.231	3161
757.341	2979
757.451	2984
757.561	3324
757.671	4169
757.781	2965
757.891	3450
758.001	3671
758.111	3604
758.221	3444
758.331	3694
758.441	3102
758.551	4030
758.661	3332
758.771	2995
758.880	1745
758.990	3709
759.100	2387
759.210	2691
759.320	3476
759.429	3223
759.539	3008
759.649	3631
759.758	4112
759.868	4254
759.978	3403
760.087	2663
760.197	3785
760.307	3687
760.416	3206
760.526	2900
760.635	3990
760.745	3700
760.854	2988
760.964	3865
761.073	3542
761.182	4180
761.292	3461
761.401	3290
761.511	2794
761.620	4181
761.729	2787
761.839	3337
761.948	2971
762.057	2538
762.166	2187
762.276	1695
762.385	3858
762.494	3588
762.603	3077
762.712	3105
762.822	1889
762.931	3394
763.040	2033
763.149	3193
763.258	2860
763.367	3006
763.476	3272
763.585	3191
763.694	3040
763.803	3193
763.912	3050
764.021	3135
764.130	3189
764.238	2794
764.347	2824
764.456	3348
764.565	2866
764.674	2605
764.783	2878
764.891	2230
765.000	3852
765.109	2702
765.217	2987
765.326	3702
765.435	3496
765.543	4579
765.652	3200
765.761	4074
765.869	5811
765.978	7986
766.086	12356
766.195	23328
766.303	66185
766.412	235954
766.520	209810
766.629	31541
766.737	11415
766.846	7156
766.954	6734
767.062	6664
767.171	4520
767.279	4717
767.387	3961
767.496	3949
767.604	3269
767.712	3831
767.820	3926
767.928	3425
768.037	3350
768.145	3067
768.253	3376
768.361	2945
768.469	3528
768.577	4116
768.685	3665
768.793	2747
768.901	3342
769.009	4297
769.117	3711
769.225	3713
769.333	5033
769.441	7678
769.549	11120
769.657	25438
769.765	85729
769.873	215338
769.981	58846
770.088	9913
770.196	5639
770.304	5471
770.412	5069
770.519	3836
770.627	3795
770.735	4260
770.842	3333
770.950	3427
771.058	2874
771.165	3540
771.273	3574
771.380	4175
771.488	3652
771.595	4188
771.703	4030
771.810	4476
771.918	3323
772.025	4790
772.133	3835
772.240	3931
772.348	5108
772.455	4607
772.562	4027
772.670	3646
772.777	3564
772.884	4146
772.991	4218
773.099	3990
773.206	3381
773.313	4149
773.420	4052
773.528	3690
773.635	4059
773.742	4620
773.849	2948
773.956	3301
774.063	3757
774.170	3555
774.277	3963
774.384	3275
774.491	3437
774.598	3889
774.705	3474
774.812	4145
774.919	3792
775.026	3419
775.133	3145
775.239	2890
775.346	2716
775.453	3479
775.560	3589
775.667	3298
775.773	3162
775.880	4018
775.987	3974
776.093	3907
776.200	3378
776.307	3601
776.413	4057
776.520	3666
776.627	3128
776.733	3517
776.840	2146
776.946	4731
777.053	3097
777.159	3193
777.266	1467
777.372	4240
777.478	3724
777.585	3719
777.691	3071
777.798	3163
777.904	3135
778.010	3395
778.117	3889
778.223	3102
778.329	2806
778.435	2720
778.542	3450
778.648	2618
778.754	2052
778.860	3267
778.966	3567
779.072	2921
779.178	3680
779.284	3142
779.391	2688
779.497	2452
779.603	4650
779.708	2472
779.815	3505
779.920	4027
780.026	4463
780.132	3392
780.238	2568
780.344	2957
780.450	3012
780.556	2494
780.661	2233
780.767	2976
780.873	2214
780.979	2937
781.085	2946
781.190	2152
781.296	2477
781.402	2148
781.507	3039
781.613	3016
781.719	1881
781.824	2695
781.930	3112
782.035	3101
782.141	2759
782.246	3160
782.352	2425
782.457	2856
782.563	2367
782.668	3093
782.773	2778
782.879	2251
782.984	2452
783.090	3735
783.195	2800
783.300	3117
783.405	2408
783.511	3189
783.616	3414
783.721	2897
783.826	2159
783.932	3238
784.037	3039
784.142	2651
784.247	1958
784.352	2669
784.457	1690
784.562	2261
784.667	1840
784.772	2860
784.877	1599
784.982	2363
785.087	2596
785.192	3797
785.297	2357
785.402	2110
785.507	2843
785.611	2616
785.716	2171
785.821	2308
785.926	2555
786.031	2750
786.135	2600
786.240	3011
786.345	958
786.450	2443
786.554	2232
786.659	1765
786.763	1819
786.868	2572
786.973	3365
787.077	2193
787.182	1354
787.286	2922
787.391	1366
787.495	1997
787.600	1872
787.704	1625
787.809	2390
787.913	1518
788.017	1955
788.122	2348
788.226	1607
788.330	1602
788.435	2020
788.539	3107
788.643	1756
788.747	1680
788.852	1651
788.956	1500
789.060	1926
789.164	1341
789.268	938
789.372	2511
789.476	2110
789.580	2264
789.684	1607
789.788	2364
789.892	2052
789.996	2498
790.100	1817
790.204	1379
790.308	1872
790.412	1917
790.516	2007
790.620	1892
790.724	1864
790.828	2269
790.931	1034
791.035	2901
791.139	1546
791.242	1157
791.346	2430
791.450	1513
791.554	1786
791.657	1132
791.761	2707
791.864	1817
791.968	2076
792.072	1697
792.175	1114
792.279	1808
792.382	1401
792.486	1790
792.589	696
792.693	2137
792.796	800
792.899	1979
793.003	2003
793.106	815
793.209	760
793.313	3004
793.416	199
793.519	1818
793.623	2637
793.726	2550
793.829	1821
793.932	2777
794.035	920
794.138	1948
794.242	2208
794.345	1093
794.448	1551
794.551	1495
794.654	2888
794.757	3021
794.860	2000
794.963	2099
795.066	232
795.169	2878
795.272	954
795.375	1424
795.477	1343
795.580	1384
795.683	1088
795.786	1303
795.889	501
795.991	1842
796.094	1855
796.197	501
796.300	1592
796.402	1812
796.505	587
796.608	1148
796.710	2219
796.813	1072
796.915	1485
797.018	1985
797.120	825
797.223	1000
797.326	2001
797.428	1223
797.530	1243
797.633	993
797.735	1819
797.838	1559
797.940	1814
798.042	919
798.145	991
798.247	1793
798.349	816
798.452	1565
798.554	654
798.656	256
798.758	1910
798.860	1323
798.962	1377
799.065	1932
799.167	549
799.269	2065
799.371	2257
799.473	1846
799.575	948
799.677	1117
799.779	2309
799.881	967
799.983	1634
800.085	1493
800.187	1161
800.289	365
800.390	1218
800.492	1124
800.594	1813
800.696	643
800.798	1547
800.899	945
801.001	305
801.103	1404
801.205	1275
801.306	1717
801.408	424
801.509	575
801.611	1597
801.713	2116
801.814	575
801.916	763
802.017	1063
802.119	200
802.220	1395
802.322	167
802.423	2664
802.525	774
802.626	813
802.727	1848
802.829	1744
802.930	-372
803.031	2749
803.133	603
803.234	1262
803.335	738
803.436	402
803.538	1385
803.639	-326
803.740	1443
803.841	628
803.942	1507
804.043	1332
804.144	961
804.245	849
804.346	-100
804.447	170
804.548	1239
804.649	1258
804.750	1264
804.851	-48
804.952	673
805.053	1110
805.154	176
805.255	1237
805.355	532
805.456	284
805.557	736
805.658	319
805.758	1394
805.859	1264
805.960	1062
806.061	909
806.161	922
806.262	963
806.362	586
806.463	666
806.564	1411
806.664	291
806.765	1423
806.865	616
806.966	1201
807.066	-267
807.166	798
807.267	470
807.367	1119
807.468	1242
807.568	831
807.668	1674
807.769	1402
807.869	-281
807.969	881
808.069	170
808.170	1522
808.270	929
808.370	859
808.470	597
808.570	400
808.670	1266
808.770	1167
808.870	381
808.970	1124
809.070	463
809.170	553
809.271	964
809.370	907
809.470	1287
809.570	747
809.670	-174
809.770	690
809.870	831
809.970	261
810.070	56
810.169	1696
810.269	-1282
810.369	1832
810.469	318
810.568	548
810.668	167
810.768	1612
810.867	467
810.967	523
811.066	427
811.166	955
811.265	828
811.365	405
811.464	448
811.564	1429
811.663	534
811.763	-336
811.862	-249
811.962	1508
812.061	1430
812.160	510
812.260	914
812.359	1310
812.458	843
812.557	3855
812.657	5158
812.756	1665
812.855	973
812.954	133
813.053	573
813.153	1067
813.252	179
813.351	1611
813.450	555
813.549	961
813.648	597
813.747	1134
813.846	-43
813.945	9
814.044	554
814.143	1843
814.242	1752
814.341	516
814.439	250
814.538	1141
814.637	347
814.736	976
814.835	1560
814.933	569
815.032	908
815.131	1372
815.229	852
815.328	1697
815.427	816
815.525	1309
815.624	1008
815.722	1177
815.821	1312
815.919	1820
816.018	1286
816.116	2573
816.215	728
816.313	1981
816.412	1787
816.510	2107
816.609	3091
816.707	2060
816.805	1793
816.904	2383
817.002	2481
817.100	3147
817.198	3260
817.296	2431
817.395	3141
817.493	4724
817.591	3262
817.689	5954
817.787	6667
817.885	12120
817.983	20727
818.081	44665
818.179	102209
818.277	239768
818.375	205472
818.473	58058
818.571	22338
818.669	15584
818.767	13000
818.865	12658
818.963	15034
819.061	22581
819.158	38853
819.256	81479
819.354	176469
819.452	338055
819.549	226240
819.647	74233
819.745	30501
819.842	18990
819.940	12663
820.038	9097
820.135	7205
820.233	6705
820.330	4327
820.428	4064
820.525	4195
820.623	4112
820.720	3044
820.818	3575
820.915	2574
821.012	2839
821.110	1588
821.207	2836
821.304	1419
821.402	1994
821.499	2282
821.596	2465
821.693	907
821.791	2899
821.888	1706
821.985	3327
822.082	1268
822.179	2373
822.276	803
822.373	2123
822.470	698
822.567	1920
822.664	1164
822.761	1274
822.858	1134
822.955	969
823.052	1824
823.149	1124
823.246	1149
823.343	673
823.440	1296
823.536	1329
823.633	1296
823.730	781
823.827	1309
823.923	186
824.020	1185
824.117	1321
824.213	201
824.310	750
824.407	692
824.503	1460
824.600	1031
824.696	560
824.793	1579
824.889	587
824.986	422
825.082	-46
825.179	1204
825.275	1281
825.371	294
825.468	764
825.564	-262
825.660	1615
825.757	835
825.853	832
825.949	138
826.045	1407
826.142	182
826.238	1227
826.334	927
826.430	324
826.526	1371
826.622	274
826.718	501
826.814	447
826.910	1913
827.006	607
827.102	212
827.198	1846
827.294	651
827.390	1172
827.486	1444
827.582	67
827.678	-181
827.774	1110
827.869	-419
827.965	1735
828.061	-411
828.157	1259
828.252	358
828.348	-174
828.444	664
828.539	179
828.635	656
828.731	1694
828.826	-261
828.922	1423
829.017	437
829.113	823
829.208	-111
829.304	-318
829.399	1630
829.495	311
829.590	786
829.685	-13
829.781	875
829.876	-113
829.971	-44
830.066	247
830.162	537
830.257	737
830.352	127
830.447	1090
830.543	891
830.638	-292
830.733	690
830.828	795
830.923	1332
831.018	586
831.113	-101
831.208	897
831.303	362
831.398	1024
831.493	251
831.588	1015
831.683	-1484
831.778	-22
831.873	106
831.967	972
832.062	-113
832.157	193
832.252	658
832.346	864
832.441	1094
832.536	974
832.631	2346
832.725	2356
832.820	850
832.914	151
833.009	-8
833.104	35
833.198	614
833.293	262
833.387	120
833.482	508
833.576	-194
833.670	542
833.765	266
833.859	168
833.954	211
834.048	27
834.142	297
834.237	-180
834.331	424
834.425	722
834.519	-205
834.613	635
834.708	-232
834.802	529
834.896	-336
834.990	1046
835.084	404
835.178	332
835.272	-491
835.366	647
835.460	549
835.554	-203
835.648	-56
835.742	-231
835.836	210
835.930	-1005
836.024	197
836.117	572
836.211	-39
836.305	1342
836.399	775
836.493	-1228
836.586	417
836.680	-700
836.774	-1506
836.867	799
836.961	-443
837.055	187
837.148	-603
837.242	255
837.335	-651
837.429	268
837.522	-263
837.616	-321
837.709	459
837.803	95
837.896	419
837.989	-314
838.083	994
838.176	1797
838.269	-260
838.363	954
838.456	-621
838.549	1360
838.642	639
838.735	2980
838.829	1016
838.922	-825
839.015	-395
839.108	-594
839.201	346
839.294	-221
839.387	-74
839.480	-506
839.573	88
839.666	291
839.759	-233
839.852	-425
839.945	-534
840.038	-226
840.131	-87
840.223	691
840.316	958
840.409	195
840.502	-894
840.594	865
840.687	-1105
840.780	622
840.873	-174
840.965	301
841.058	9
841.150	1017
841.243	211
841.336	219
841.428	286
841.521	317
841.613	-275
841.706	90
841.798	101
841.890	-166
841.983	-633
842.075	510
842.167	-460
842.260	-456
842.352	570
842.444	209
842.537	609
842.629	2564
842.721	334
842.813	87
842.905	-845
842.997	-223
843.090	-275
843.182	392
843.274	732
843.366	2771
843.458	5369
843.550	4233
843.642	-178
843.734	49
843.826	-1168
843.918	774
844.009	675
844.101	-716
844.193	-230
844.285	-734
844.377	-606
844.469	22
844.560	-649
844.652	217
844.744	-45
844.835	-113
844.927	-229
845.019	50
845.110	-294
845.202	342
845.293	-991
845.385	-541
845.476	517
845.568	662
845.659	-503
845.751	237
845.842	-1241
845.934	-351
846.025	-206
846.116	447
846.208	-558
846.299	-478
846.390	68
846.482	-345
846.573	87
846.664	946
846.755	33
846.846	297
846.937	-1712
847.029	-98
847.120	-313
847.211	-538
847.302	1021
847.393	-784
847.484	-1275
847.575	-644
847.666	-636
847.757	181
847.847	-559
847.938	1297
848.029	-77
848.120	-325
848.211	-203
848.302	-657
848.392	-517
848.483	100
848.574	-839
848.664	-549
848.755	180
848.846	683
848.936	-862
849.027	684
849.118	-234
849.208	-547
849.299	-623
849.389	684
849.480	859
849.570	1998
849.661	3116
849.751	6869
849.841	3149
849.932	866
850.022	-942
850.112	531
850.203	-738
850.293	-537
850.383	-664
850.474	-160
850.564	-680
850.654	-425
850.744	-920
850.834	-733
850.924	-317
851.014	473
851.104	-385
851.194	-600
851.284	-67
851.374	415
851.464	-326
851.554	830
851.644	-322
851.734	297
851.824	389
851.914	-911
852.004	-867
852.094	-533
852.183	-568
852.273	-184
852.363	-379
852.452	137
852.542	-463
852.632	328
852.721	244
852.811	18
852.901	-444
852.990	42
853.080	362
853.169	-352
853.259	218
853.348	-101
853.438	-830
853.527	622
853.617	-559
853.706	1402
853.795	2997
853.885	8210
853.974	15334
854.063	26359
854.152	47491
854.242	18114
854.331	2472
854.420	244
854.509	79
854.598	1036
854.687	35
854.777	346
854.866	-56
854.955	-113
855.044	-600
855.133	-113
855.222	-380
855.311	48
855.400	-184
855.488	-1051
855.577	-732
855.666	-275
855.755	273
855.844	-86
855.933	-230
856.021	-253
856.110	-409
856.199	-93
856.288	-945
856.376	-54
856.465	-1083
856.554	-355
856.642	-429
856.731	348
856.819	-548
856.908	-1043
856.996	-652
857.085	102
857.173	-371
857.262	-375
857.350	-351
857.438	306
857.527	318
857.615	-224
857.703	-346
857.792	-589
857.880	-309
857.968	-979
858.056	-759
858.145	-220
858.233	-920
858.321	-624
858.409	-394
858.497	-825
858.585	-827
858.673	60
858.761	-945
858.849	-479
858.937	-914
859.025	307
859.113	-524
859.201	-1202
859.289	435
859.377	52
859.465	-749
859.552	-698
859.640	-672
859.728	-230
859.816	401
859.903	312
859.991	-390
860.079	356
860.166	23
860.254	-778
860.342	-146
860.429	-696
860.517	-519
860.604	-39
860.692	516
860.779	-395
860.867	-652
860.954	-219
861.042	-595
861.129	195
861.216	692
861.304	-473
861.391	-29
861.478	-28
861.565	186
861.653	544
861.740	-857
861.827	-501
861.914	-964
862.001	-64
862.089	-967
862.176	-763
862.263	-674
862.350	-436
862.437	-943
862.524	-182
862.611	-116
862.698	47
862.785	-1379
862.871	-110
862.958	-86
863.045	-78
863.132	489
863.219	-541
863.306	-2230
863.392	-317
863.479	-697
863.566	-272
863.652	-779
863.739	-362
863.826	-686
863.912	-48
863.999	-1606
864.086	-458
864.172	-806
864.259	-472
864.345	-450
864.432	-111
864.518	-710
864.604	195
864.691	-785
864.777	233
864.863	687
864.950	-68
865.036	-241
865.122	1602
865.209	1076
865.295	517
865.381	-134
865.467	911
865.553	916
865.639	996
865.726	1166
865.812	4900
865.898	7602
865.984	11083
866.070	20786
866.156	25555
866.242	6900
866.328	1882
866.414	278
866.499	544
866.585	582
866.671	212
866.757	244
866.843	330
866.928	-308
867.014	784
867.100	1174
867.186	-251
867.271	528
867.357	348
867.442	-443
867.528	267
867.614	281
867.699	351
867.785	-18
867.870	230
867.956	-680
868.041	920
868.127	627
868.212	-563
868.297	-261
868.383	665
868.468	1044
868.553	1171
868.639	2022
868.724	2505
868.809	3182
868.894	617
868.979	-276
869.065	440
869.150	-376
869.235	403
869.320	-78
869.405	-78
869.490	-415
869.575	-307
869.660	-125
869.745	-412
869.830	-741
869.915	21
870.000	-537
870.085	40
870.169	33
870.254	559
870.339	-931
870.424	43
870.509	163
870.593	840
870.678	-231
870.763	188
870.847	-363
870.932	147
871.016	-543
871.101	-508
871.186	302
871.270	369
871.355	-114
871.439	-322
871.523	341
871.608	78
871.692	50
871.777	507
871.861	145
871.945	-152
872.030	80
872.114	87
872.198	-375
872.282	-201
872.367	-110
872.451	-508
872.535	680
872.619	686
872.703	-531
872.787	-685
872.871	-13
872.955	-336
873.039	-993
873.123	635
873.207	410
873.291	-343
873.375	-634
873.459	-495
873.543	-512
873.627	33
873.711	-971
873.794	163
873.878	-1007
873.962	-403
874.045	353
874.129	322
874.137	222
874.213	-772
874.245	-326
874.296	392
874.352	-196
874.380	-485
874.460	-408
874.464	-406
874.547	-1335
874.568	-1011
874.631	-65
874.676	125
874.714	297
874.784	585
874.798	633
874.881	552
874.892	430
874.965	-323
874.999	-187
875.048	-53
875.107	-581
875.131	-797
875.215	-396
875.215	-396
875.298	-259
875.323	-497
875.381	-1051
875.430	-95
875.465	559
875.538	-372
875.548	-497
875.631	-328
875.646	-407
875.714	-829
875.753	-583
875.798	-241
875.861	38
875.881	84
875.964	-175
875.968	-195
876.047	-390
876.076	-91
876.130	436
876.183	-196
876.213	-555
876.291	520
876.296	598
876.379	-186
876.398	-52
876.462	285
876.506	-146
876.545	-481
876.613	-263
876.628	-226
876.711	-1
876.721	-7
876.794	49
876.828	-0
876.877	-172
876.935	-515
876.960	-595
877.043	-160
877.043	-158
877.125	290
877.150	225
877.208	125
877.258	264
877.291	385
877.365	392
877.374	379
877.456	-63
877.472	-179
877.539	-427
877.579	32
877.622	332
877.687	-118
877.704	-173
877.787	336
877.794	355
877.869	224
877.901	13
877.952	-126
878.008	31
878.034	13
878.115	7
878.117	15
878.199	28
878.222	271
878.282	744
878.329	340
878.364	5
878.437	106
878.447	158
878.529	-531
878.544	-281
878.611	741
878.651	513
878.694	230
878.758	188
878.776	203
878.858	372
878.865	400
878.941	638
878.972	403
879.023	174
879.078	358
879.105	396
879.185	175
879.187	175
879.269	419
879.292	216
879.351	-406
879.399	-95
879.433	166
879.506	208
879.516	211
879.598	260
879.613	208
879.680	194
879.720	388
879.762	387
879.827	394
879.844	458
879.926	469
879.933	455
880.007	131
880.040	-8
880.089	33
880.147	342
880.171	550
880.253	1934
880.254	1934
880.335	2114
880.360	2215
880.417	3110
880.467	4089
880.499	5251
880.574	7911
880.580	7717
880.662	3107
880.680	2310
880.744	1353
880.787	870
880.825	684
880.893	240
880.907	199
880.989	1220
881.000	1132
881.070	756
881.106	634
881.152	326
881.213	83
881.233	-22
881.315	-179
881.319	-187
881.396	415
881.426	457
881.478	57
881.532	335
881.559	581
881.639	429
881.641	429
881.722	472
881.745	539
881.803	888
881.852	1082
881.885	1022
881.958	618
881.966	595
882.047	719
882.064	675
882.129	795
882.171	1028
882.210	1350
882.277	1692
882.291	1603
882.372	1333
882.383	1222
882.454	863
882.489	816
882.535	687
882.596	321
882.616	221
882.697	452
882.702	440
882.778	682
882.808	624
882.859	434
882.914	442
882.940	451
883.020	821
883.021	827
883.102	512
883.127	521
883.183	805
883.233	1008
883.264	980
883.339	841
883.345	827
883.426	400
883.445	376
883.507	934
883.551	1010
883.587	691
883.657	663
883.668	741
883.749	733
883.763	733
883.830	496
883.869	603
883.910	750
883.975	644
883.991	670
884.072	807
884.081	817
884.152	772
884.187	831
884.233	973
884.292	1022
884.314	870
884.394	41
884.398	7
884.475	472
884.504	645
884.555	502
884.610	480
884.636	599
884.716	481
884.716	488
884.797	1310
884.821	1363
884.877	860
884.927	545
884.958	600
885.033	893
885.038	886
885.118	404
885.139	328
885.199	448
885.244	530
885.279	839
885.350	1381
885.359	1367
885.439	1306
885.456	1197
885.520	1016
885.561	1196
885.600	1086
885.667	670
885.680	688
885.760	595
885.773	637
885.840	708
885.878	586
885.920	443
885.984	280
886.000	356
886.080	637
886.089	675
886.160	862
886.195	937
886.240	859
886.300	661
886.320	760
886.400	1471
886.406	1484
886.480	1218
886.511	1243
886.560	1491
886.616	1557
886.640	1473
886.720	1252
886.722	1237
886.800	1223
886.827	1323
886.879	1545
886.932	1494
886.959	1459
887.038	1539
887.039	1543
887.119	1099
887.143	984
887.198	1385
887.248	1622
887.278	1559
887.354	1357
887.358	1387
887.437	1868
887.459	2044
887.517	1911
887.564	1683
887.596	1713
887.669	1591
887.676	1515
887.755	747
887.774	489
887.835	993
887.880	1523
887.914	1592
887.985	1615
887.994	1598
888.073	1370
888.090	1327
888.153	1102
888.195	828
888.232	900
888.300	1282
888.311	1305
888.391	1196
888.405	1183
888.470	745
888.510	480
888.549	1057
888.615	2010
888.628	1876
888.708	1041
888.720	901
888.787	951
888.825	960
888.866	790
888.930	531
888.945	723
889.024	1732
889.035	1859
889.103	1652
889.140	1520
889.182	1509
889.245	1539
889.261	1416
889.340	715
889.349	639
889.419	1513
889.454	1926
889.498	1407
889.559	702
889.577	865
889.656	1552
889.664	1618
889.735	1631
889.768	1628
889.814	1892
889.873	2232
889.978	1233
890.083	1457
890.187	1180
890.292	2319
890.397	1254
890.501	1367
890.606	1304
890.710	1865
890.815	1675
890.919	1420
891.024	1047
891.128	1594
891.233	1620
891.337	1807
891.442	1070
891.546	1598
891.650	677
891.755	852
891.859	2348
891.963	2377
892.068	1314
892.172	900
892.276	1198
892.380	1054
892.484	1315
892.589	979
892.693	1078
892.797	1622
892.901	1210
893.005	2096
893.109	1131
893.213	2245
893.317	1089
893.421	1750
893.525	689
893.629	933
893.733	1081
893.837	1725
893.941	897
894.045	1491
894.148	671
894.252	983
894.356	1315
894.460	1247
894.564	1284
894.667	1587
894.771	528
894.875	708
894.978	863
895.082	1718
895.186	2088
895.289	1581
895.393	1176
895.496	1156
895.600	834
895.703	1728
895.807	1315
895.910	991
896.014	302
896.117	1023
896.221	1493
896.324	755
896.427	1539
896.531	1595
896.634	917
896.737	1341
896.840	1562
896.944	991
897.047	1478
897.150	1403
897.253	393
897.356	1267
897.460	297
897.563	727
897.666	1389
897.769	1661
897.872	1214
897.975	465
898.078	1164
898.181	1122
898.284	1341
898.387	1605
898.490	915
898.593	1160
898.695	693
898.798	729
898.901	1071
899.004	1597
899.107	892
899.209	1569
899.312	1228
899.415	1014
899.518	1283
899.620	1088
899.723	1389
899.826	2049
899.928	3087
900.031	933
900.133	1184
900.236	519
900.338	1056
900.441	1057
900.543	1073
900.646	652
900.748	592
900.851	1282
900.953	785
901.055	1855
901.158	1046
901.260	929
901.362	1182
901.465	1555
901.567	974
901.669	1395
901.771	187
901.873	851
901.976	1300
902.078	1245
902.180	544
902.282	969
902.384	1046
902.486	603
902.588	358
902.690	400
902.792	1329
902.894	1779
902.996	974
903.098	1162
903.200	1146
903.302	1664
903.404	841
903.505	1045
903.607	1326
903.709	2064
903.811	1272
903.913	816
904.014	1293
904.116	1138
904.218	1262
904.319	1741
904.421	2072
904.523	1222
904.624	1112
904.726	2116
904.827	348
904.929	657
905.030	1137
905.132	1160
905.233	1033
905.335	1476
905.436	742
905.537	1035
905.639	800
905.740	1008
905.841	1077
905.943	1018
906.044	902
906.145	635
906.247	454
906.348	1227
906.449	1147
906.550	909
906.651	849
906.752	923
906.854	570
906.955	1073
907.056	323
907.157	292
907.258	624
907.359	359
907.460	785
907.561	296
907.662	1081
907.762	1205
907.863	857
907.964	311
908.065	2035
908.166	649
908.267	1207
908.367	1169
908.468	879
908.569	1194
908.670	1201
908.770	1628
908.871	1387
908.971	871
909.072	1112
909.173	1085
909.273	1101
909.374	857
909.474	794
909.575	853
909.675	404
909.776	1101
909.876	825
909.977	1199
910.077	1718
910.177	839
910.278	1229
910.378	709
910.478	629
910.579	1423
910.679	1213
910.779	1280
910.879	1475
910.980	2146
911.080	892
911.180	1383
911.280	1009
911.380	849
911.480	1283
911.580	1222
911.680	1064
911.780	607
911.880	1540
911.980	320
912.080	1519
912.180	1016
912.280	940
912.380	787
912.480	789
912.580	1220
912.679	845
912.779	1581
912.879	1305
912.979	946
913.078	507
913.178	910
913.278	1041
913.377	1459
913.477	1070
913.577	1238
913.676	1121
913.776	1382
913.875	1746
913.975	1417
914.074	849
914.174	1515
914.273	925
914.373	1691
914.472	1403
914.572	511
914.671	1734
914.770	967
914.870	1037
914.969	643
915.068	850
915.167	1274
915.267	371
915.366	2010
915.465	572
915.564	1241
915.663	1611
915.763	914
915.862	1063
915.961	1063
916.060	787
916.159	1021
916.258	1330
916.357	1056
916.456	1043
916.555	869
916.654	1363
916.752	429
916.851	986
916.950	945
917.049	749
917.148	878
917.247	1178
917.345	1392
917.444	1629
917.543	1551
917.642	907
917.740	873
917.839	972
917.937	879
918.036	1085
918.135	1075
918.233	1672
918.332	1197
918.430	882
918.529	1250
918.627	395
918.726	2504
918.824	1020
918.923	917
919.021	1144
919.119	1697
919.218	817
919.316	1377
919.414	1274
919.512	964
919.611	938
919.709	776
919.807	1472
919.905	1231
920.003	2104
920.102	1547
920.200	1413
920.298	1778
920.396	440
920.494	1231
920.592	528
920.690	1387
920.788	663
920.886	1199
920.984	1145
921.082	1141
921.180	1593
921.277	1468
921.375	1425
921.473	2176
921.571	1708
921.669	1560
921.766	1932
921.864	1169
921.962	1133
922.060	1256
922.157	2625
922.255	1708
922.352	769
922.450	1475
922.548	920
922.645	1633
922.743	1063
922.840	2576
922.938	2777
923.035	2584
923.133	1941
923.230	2957
923.327	3657
923.425	3260
923.522	2781
923.619	3112
923.717	2881
923.814	3240
923.911	2299
924.008	3144
924.106	3172
924.203	2135
924.300	2475
924.397	2732
924.494	3146
924.591	2653
924.688	1975
924.786	3089
924.883	2797
924.979	1999
925.077	2219
925.173	2058
925.270	2232
925.367	3321
925.464	3042
925.561	2668
925.658	2655
925.755	2618
925.852	2940
925.948	3172
926.045	2878
926.142	2778
926.239	2417
926.335	2195
926.432	2360
926.529	2125
926.625	2910
926.722	2431
926.818	2396
926.915	1922
927.011	2371
927.108	2367
927.204	2731
927.301	2344
927.397	1896
927.494	2137
927.590	2139
927.687	2481
927.783	2155
927.879	2213
927.976	2355
928.072	2754
928.168	2425
928.264	2841
928.361	2494
928.457	2234
928.553	1985
928.649	2465
928.745	2396
928.841	2214
928.937	2228
929.033	2145
929.129	1777
929.225	1666
929.321	1670
929.417	1646
929.513	2632
929.609	1793
929.705	1990
929.801	1718
929.897	1917
929.993	1663
930.089	2539
930.184	2822
930.280	2125
930.376	2755
930.471	1615
930.567	1486
930.663	1673
930.758	1308
930.854	1321
930.950	1882
931.045	2014
931.141	2180
931.236	2262
931.332	2027
931.427	1168
931.523	2478
931.618	2739
931.714	1266
931.809	2457
931.905	2017
932.000	2055
932.095	1472
932.191	2408
932.286	1740
932.381	1701
932.476	1937
932.572	1864
932.667	1308
932.762	1353
932.857	2002
932.952	1518
933.047	1698
933.142	1419
933.237	1220
933.332	1543
933.427	1244
933.522	1377
933.617	2399
933.712	1715
933.807	1893
933.902	2298
933.997	1621
934.092	1604
934.187	1346
934.282	1890
934.376	2372
934.471	1310
934.566	1362
934.661	2059
934.755	2376
934.850	1941
934.945	2155
935.039	797
935.134	2176
935.228	2164
935.323	2039
935.417	1062
935.512	2190
935.606	520
935.701	1899
935.795	2124
935.890	1985
935.984	1308
936.079	1775
936.173	1584
936.267	2085
936.362	1370
936.456	1829
936.550	1095
936.644	1923
936.738	864
936.833	1965
936.927	796
937.021	1143
937.115	1572
937.209	906
937.303	1836
937.397	1699
937.491	1135
937.585	1817
937.679	1816
937.773	1354
937.867	1513
937.961	1956
938.055	1792
938.149	1814
938.243	1612
938.337	1228
938.430	1326
938.524	1500
938.618	1599
938.712	1232
938.805	1554
938.899	1255
938.993	2270
939.086	986
939.180	622
939.274	1337
939.367	1862
939.461	1682
939.554	1314
939.648	2012
939.741	644
939.835	946
939.928	1783
940.022	2083
940.115	803
940.208	1232
940.302	1279
940.395	2171
940.488	1497
940.582	1553
940.675	518
940.768	1231
940.861	1789
940.954	1775
941.048	763
941.141	885
941.234	910
941.327	710
941.420	2173
941.513	1797
941.606	848
941.699	1459
941.792	1731
941.885	1397
941.978	1366
942.071	1668
942.164	-60
942.257	1190
942.349	979
942.442	1009
942.535	1116
942.628	1613
942.721	1502
942.813	313
942.906	1521
942.999	1068
943.091	655
943.184	1143
943.277	928
943.369	1076
943.462	711
943.554	1570
943.647	565
943.739	917
943.832	1633
943.924	204
944.017	1496
944.109	1312
944.201	1020
944.294	1267
944.386	230
944.478	1338
944.571	-125
944.663	291
944.755	1316
944.847	498
944.940	927
945.032	1043
945.124	899
945.216	1265
945.308	1145
945.400	1560
945.492	379
945.584	71
945.676	462
945.768	1119
945.860	1630
945.952	858
946.044	824
946.136	394
946.228	1327
946.320	1390
946.412	707
946.503	741
946.595	1505
946.687	770
946.779	617
946.870	266
946.962	715
947.054	1150
947.145	898
947.237	563
947.329	711
947.420	792
947.512	1099
947.603	805
947.695	653
947.786	245
947.878	-260
947.969	-11
948.061	298
948.152	315
948.243	920
948.335	1273
948.426	580
948.517	167
948.609	392
948.700	566
948.791	643
948.882	556
948.973	546
949.065	946
949.156	-213
949.247	65
949.338	616
949.429	-379
949.520	325
949.611	243
949.702	498
949.793	725
949.884	700
949.975	371
950.066	544
950.157	200
950.247	718
950.338	30
950.429	480
950.520	336
950.611	404
950.701	229
950.792	945
950.883	1231
950.973	955
951.064	870
951.155	748
951.245	1250
951.336	485
951.427	53
951.517	963
951.608	1302
951.698	-470
951.788	-239
951.879	-138
951.969	-86
952.060	156
952.150	287
952.240	466
952.331	-189
952.421	1369
952.511	-295
952.602	39
952.692	8
952.782	238
952.872	-244
952.962	-149
953.052	-184
953.143	570
953.233	-314
953.323	196
953.413	676
953.503	326
953.593	768
953.683	240
953.773	-603
953.863	23
953.953	-299
954.042	532
954.132	120
954.222	603
954.312	-332
954.402	453
954.492	-62
954.581	-371
954.671	592
954.761	-310
954.850	632
954.940	106
955.030	53
955.119	237
955.209	-218
955.298	193
955.388	61
955.477	677
955.567	-143
955.656	241
955.746	-224
955.835	-26
955.925	-388
956.014	46
956.103	1078
956.193	43
956.282	515
956.371	424
956.461	576
956.550	-1408
956.639	-320
956.728	277
956.817	-164
956.906	327
956.995	676
957.085	60
957.174	795
957.263	119
957.352	317
957.441	612
957.530	979
957.619	597
957.708	-20
957.796	-170
957.885	152
957.974	-353
958.063	873
958.152	-654
958.241	548
958.329	-109
958.418	-108
958.507	-224
958.596	1165
958.684	-484
958.773	677
958.861	-258
958.950	22
959.039	-499
959.127	55
959.216	756
959.304	-420
959.393	-8
959.481	617
959.570	-157
959.658	-335
959.746	26
959.835	80
959.923	672
960.011	22
960.100	123
960.188	-612
960.276	149
960.365	-425
960.453	47
960.541	-127
960.629	-485
960.717	-766
960.805	-136
960.893	-629
960.981	-661
961.069	918
961.158	-273
961.245	972
961.333	-466
961.421	-38
961.509	-76
961.597	-234
961.685	-630
961.773	228
961.861	-236
961.949	775
962.036	120
962.124	231
962.212	828
962.299	-327
962.387	-424
962.475	257
962.562	-1033
962.650	808
962.738	-42
962.825	73
962.913	264
963.000	-417
963.088	-81
963.175	-826
963.263	163
963.350	406
963.438	591
963.525	121
963.612	957
963.700	1031
963.787	5639
963.874	2820
963.962	589
964.049	540
964.136	222
964.223	42
964.310	14
964.398	496
964.485	489
964.572	-143
964.659	942
964.746	253
964.833	489
964.920	196
965.007	71
965.094	369
965.181	-767
965.268	-158
965.355	-236
965.441	-621
965.528	-878
965.615	51
965.702	-251
965.789	-46
965.875	-891
965.962	-100
966.049	-245
966.136	158
966.222	-593
966.309	767
966.395	270
966.482	482
966.569	-17
966.655	-39
966.742	-467
966.828	-11
966.915	-147
967.001	-855
967.087	-668
967.174	-356
967.260	-142
967.347	251
967.433	1463
967.519	4388
967.605	1209
967.692	-703
967.778	-133
967.864	820
967.950	-152
968.036	80
968.123	580
968.209	-229
968.295	-1151
968.381	1056
968.467	285
968.553	-1564
968.639	422
968.725	-771
968.811	193
968.897	613
968.983	434
969.069	-324
969.154	352
969.240	572
969.326	-1064
969.412	-555
969.497	33
969.583	-797
969.669	106
969.755	344
969.840	-664
969.926	-434
970.012	-573
970.097	36
970.183	-480
970.268	53
970.354	51
970.439	-402
970.525	2613
970.610	299
970.696	322
970.781	138
970.866	-348
970.952	-1090
971.037	-750
971.122	-705
971.208	-475
971.293	-500
971.378	-1478
971.463	-464
971.549	154
971.634	-468
971.719	-574
971.804	521
971.889	-186
971.974	-491
972.059	-1339
972.144	-111
972.229	302
972.314	-997
972.399	-133
972.484	-135
972.569	-285
972.654	-986
972.739	524
972.824	233
972.908	-7
972.993	-204
973.078	-996
973.163	-613
973.247	-186
973.332	-1838
973.417	613
973.501	-1131
973.586	-247
973.671	-1106
973.755	-1609
973.840	88
973.924	673
974.009	-614
974.093	-838
974.178	555
974.262	-599
974.346	438
974.431	-37
974.515	-48
974.600	-848
974.684	-941
974.768	-798
974.852	-389
974.937	-1662
975.021	-925
975.105	-457
975.189	-1273
975.273	189
975.358	-410
975.442	-1432
975.526	632
975.610	-1825
975.694	-940
975.778	-472
975.862	-682
975.946	-2389
976.030	345
976.114	-960
976.198	9
976.281	-633
976.365	-288
976.449	-385
976.533	-23
976.617	-1593
976.700	-1288
976.784	32
976.868	-888
976.951	-1109
977.035	-694
977.119	-399
977.202	-172
977.286	-958
977.369	-1004
977.453	78
977.536	-615
977.620	-721
977.703	-984
977.787	-1004
977.870	88
977.953	-633
978.037	-1189
978.120	-447
978.203	-1057
978.287	477
978.370	71
978.453	-1126
978.536	-126
978.620	46
978.703	-238
978.786	-778
978.869	-1415
978.952	-1816
979.035	428
979.118	-829
979.201	-1882
979.284	-63
979.367	-1478
979.450	-732
979.533	-655
979.616	-1274
979.699	-1288
979.782	-630
979.865	-854
979.948	-824
980.030	-1269
980.113	-567
980.196	-1003
980.279	-46
980.361	-1078
980.444	-1172
980.526	-463
980.609	31
980.692	-556
980.774	37
980.857	-2049
980.939	139
981.022	-1471
981.104	-1322
981.187	-980
981.269	-591
981.352	-631
981.434	-1521
981.516	-999
981.599	508
981.681	-943
981.763	-637
981.846	-952
981.928	-1400
982.010	-1166
982.092	-1202
982.174	-448
982.256	-1696
982.339	-1092
982.421	-1122
982.503	-469
982.585	-1703
982.667	-269
982.749	-470
982.831	-1149
982.913	-1436
982.995	574
983.077	-1883
983.158	278
983.240	-1336
983.322	-1607
983.404	-330
983.486	-2167
983.568	-633
983.649	-695
983.731	-872
983.813	-1688
983.894	-733
983.976	-543
984.058	-1621
984.139	-377
984.221	-1243
984.302	296
984.384	-784
984.465	-1128
984.547	-284
984.628	-1617
984.710	-264
984.791	-1117
984.872	-905
984.954	-1833
985.035	-673
985.116	-1161
985.198	-2003
985.279	166
985.360	-1673
985.441	-1294
985.522	-998
985.604	-1004
985.685	-2697
985.766	-52
985.847	126
985.928	-2641
986.009	-795
986.090	-614
986.171	-990
986.252	-1168
986.333	-923
986.414	-790
986.495	-1261
986.576	-1292
986.656	-1075
986.737	-1438
986.818	-1067
986.899	-2113
986.980	-317
987.060	-792
987.141	-1905
987.222	-770
987.302	-1145
987.383	-494
987.464	-840
987.544	-791
987.625	-1151
987.705	-171
987.786	-1322
987.866	-1319
987.947	-856
988.027	-440
988.108	-1024
988.188	-419
988.268	-950
988.349	-978
988.429	-838
988.509	-504
988.589	-724
988.670	-2479
988.750	-196
988.830	-1114
988.910	-811
988.990	-1436
989.070	-1020
989.151	-746
989.231	-1159
989.311	-79
989.391	-692
989.471	-1506
989.551	-1326
989.631	-1433
989.711	-984
989.791	-1389
989.870	-1960
989.950	-894
990.030	-2087
990.110	-915
990.190	-2042
990.269	-2221
990.349	-1227
990.429	-232
990.509	-79
990.588	-1613
990.668	-533
990.747	-1209
990.827	-565
990.907	-620
990.986	-1188
991.066	-700
991.145	-1297
991.225	-940
991.304	-1208
991.383	-876
991.463	-1117
991.542	-1116
991.622	-1506
991.701	-991
991.780	-1461
991.859	-1608
991.939	-1123
992.018	-1083
992.097	-939
992.176	-1469
992.256	-727
992.335	-1487
992.414	-1112
992.493	-1383
992.572	-1279
992.651	-1650
992.730	-1576
992.809	-1034
992.888	-1112
992.967	-1735
993.046	-1511
993.125	-1740
993.203	-424
993.282	-451
993.361	-1727
993.440	-891
993.519	-1832
993.597	-1377
993.676	-1247
993.755	-1971
993.834	-862
993.912	-2245
993.991	-669
994.069	-2339
994.148	-1432
994.226	-1495
994.305	-1275
994.384	-1669
994.462	-166
994.540	-2194
994.619	-2239
994.697	-1166
994.776	-1940
994.854	-983
994.932	-1624
995.011	-719
995.089	-1424
995.167	-1634
995.245	-1262
995.324	-1975
995.402	-1269
995.480	-1666
995.558	-1004
995.636	-1811
995.714	-1947
995.792	-920
995.870	-2056
995.948	-1803
996.026	-1015
996.104	-2250
996.182	-888
996.260	-1726
996.338	-1867
996.416	-2005
996.494	-2249
996.572	-911
996.649	-1915
996.727	-1870
996.805	-1616
996.883	-1793
996.960	-2064
997.038	-1096
997.116	-1180
997.193	-1975
997.271	-1036
997.348	-1037
997.426	-1812
997.504	-1679
997.581	-1212
997.658	-677
997.736	-2196
997.813	-2663
997.891	-1582
997.968	-1972
998.046	-1834
998.123	-1830
998.200	-1010
998.277	-2057
998.355	-1013
998.432	-2068
998.509	-1544
998.586	-2081
998.663	-1063
998.741	-1819
998.818	-2194
998.895	-1574
998.972	-1107
999.049	-1270
999.126	-1632
999.203	-1524
999.280	-984
999.357	-2126
999.434	-1884
999.511	-1910
999.587	-956
999.664	-1937
999.741	-1454
999.818	-715
999.895	-2333
999.971	-2082
1000.048	-1454
1000.125	-1135
1000.202	-2954
1000.278	-1497
1000.355	-2202
1000.431	-1276
1000.508	-2640
1000.584	-1316
1000.661	-1161
1000.738	-2603
1000.814	-1513
1000.890	-2200
1000.967	-1885
1001.043	-1571
1001.120	-1851
1001.196	-1775
1001.272	-2251
1001.349	-1044
1001.425	-1383
1001.501	-2230
1001.577	-2629
1001.654	-1485
1001.730	-1938
1001.806	-1873
1001.882	-2339
1001.958	-1424
1002.034	-1488
1002.110	-2219
1002.186	-2906
1002.262	-1239
1002.338	-2156
1002.414	-1328
1002.490	-1818
1002.566	-408
1002.642	-2427
1002.718	-1195
1002.794	-1584
1002.870	-1575
1002.945	-2327
1003.021	-1774
1003.097	-1787
1003.173	-1194
1003.248	-2774
1003.324	-2155
1003.400	-2125
1003.475	-2119
1003.551	-1703
1003.626	-2507
1003.702	-1602
1003.777	-1991
1003.853	-1779
1003.928	-1928
1004.004	-1302
1004.079	-1507
1004.155	-1092
1004.230	-2883
1004.305	-1522
1004.381	-1574
1004.456	-1751
1004.531	-1219
1004.607	-1677
1004.682	-1405
1004.757	-1977
1004.832	-1860
1004.907	-2135
1004.982	-1747
1005.057	-1378
1005.133	-2116
1005.208	-2973
1005.283	-1697
1005.358	-1698
1005.433	-2263
1005.508	-1445
1005.583	-2807
1005.657	-1948
1005.732	-1007
1005.807	-2507
1005.882	-1732
1005.957	-2110
1006.032	-1485
1006.106	-2145
1006.181	-2192
1006.256	-1358
1006.331	-2619
1006.405	-2269
1006.480	-2142
1006.554	-1599
1006.629	-3235
1006.704	-1631
1006.778	-1946
1006.853	-1195
1006.927	-2076
1007.002	-2613
1007.076	-1345
1007.150	-2221
1007.225	-1886
1007.299	-1842
1007.373	-2391
1007.448	-1303
1007.522	-1207
1007.596	-2142
1007.671	-2515
1007.745	-1610
1007.819	-2741
1007.893	-2108
1007.967	-1913
1008.041	-2558
1008.115	-1717
1008.190	-2769
1008.264	-2497
1008.338	-3172
1008.412	-2106
1008.486	-1777
1008.560	-1660
1008.633	-1918
1008.707	-2709
1008.781	-1546
1008.855	-2308
1008.929	-2694
1009.003	-2237
1009.076	-2234
1009.150	-2132
1009.224	-1824
1009.298	-2279
1009.371	-2418
1009.445	-1736
1009.519	-1856
1009.592	-2780
1009.666	-1942
1009.739	-2322
1009.813	-2571
1009.886	-978
1009.960	-2898
1010.033	-2782
1010.107	-1853
1010.180	-2615
1010.253	-2013
1010.327	-2041
1010.400	-2803
1010.473	-2337
1010.547	-870
1010.620	-2576
1010.693	-1841
1010.766	-2607
1010.840	-2318
1010.913	-2114
1010.986	-3127
1011.059	-2007
1011.132	-2738
1011.205	-1157
1011.278	-2545
1011.351	-2635
1011.424	-1790
1011.497	-3075
1011.570	-3123
1011.643	-2206
1011.716	-2742
1011.789	-1934
1011.862	-1926
1011.934	-1597
1012.007	-3127
1012.080	-1321
1012.153	-1632
1012.225	-1286
1012.298	-2709
1012.371	-2588
1012.443	-1585
1012.516	-3656
1012.588	-2755
1012.661	-1312
1012.733	-2453
1012.806	-1193
1012.879	-2891
1012.951	-2370
1013.023	-2150
1013.096	-2439
1013.168	-2357
1013.241	-1285
1013.313	-2452
1013.385	-1950
1013.458	-3143
1013.530	-1874
1013.602	-2094
1013.674	-1600
1013.746	-1990
1013.819	-1908
1013.891	-2693
1013.963	-2311
1014.035	-2046
1014.107	-2494
1014.179	-1516
1014.251	-2368
1014.323	-2104
1014.395	-2191
1014.467	-2268
1014.539	-2286
1014.611	-2278
1014.683	-2525
1014.754	-2058
1014.826	-2734
1014.898	-2408
1014.970	-3918
1015.042	-2461
1015.113	-1741
1015.185	-1707
1015.257	-2956
1015.328	-1433
1015.400	-1497
1015.471	-2856
1015.543	-3108
1015.615	-2375
1015.686	-2608
1015.757	-2268
1015.829	-2749
1015.901	-2615
1015.972	-2210
1016.043	-2363
1016.115	-1891
1016.186	-2264
1016.257	-2894
1016.328	-2767
1016.400	-2027
1016.471	-2988
1016.542	-3087
1016.613	-2748
1016.685	-2608
1016.756	-1920
1016.827	-2376
1016.898	-2609
1016.969	-1655
1017.040	-3105
1017.111	-2266
1017.182	-3065
1017.253	-1743
1017.324	-2013
1017.395	-2515
1017.466	-1952
1017.537	-2521
1017.608	-2061
1017.678	-2247
1017.749	-3245
1017.820	-1632
1017.891	-2657
1017.961	-3018
1018.032	-2483
1018.103	-2303
1018.173	-2398
1018.244	-2147
1018.315	-2648
1018.385	-1901
1018.456	-2592
1018.526	-2594
1018.597	-2232
1018.667	-2198
1018.738	-2381
1018.808	-2895
1018.878	-2676
1018.949	-2505
1019.019	-2630
1019.089	-2717
1019.160	-2567
1019.230	-3040
1019.300	-2543
1019.371	-2776
1019.441	-1915
1019.511	-2576
1019.581	-2616
1019.651	-3029
1019.721	-2189
1019.791	-2661
1019.861	-2672
1019.931	-1824
1020.001	-3804
1020.071	-1913
1020.141	-2950
1020.211	-3123
1020.281	-3924
1020.351	-2450
1020.421	-2743
1020.491	-2005
1020.560	-2826
1020.630	-2512
1020.700	-2379
1020.770	-2707
1020.839	-2723
1020.909	-2424
1020.979	-2382
1021.048	-2040
1021.118	-2483
1021.187	-2649
1021.257	-2384
1021.326	-1924
1021.396	-2978
1021.465	-2468
1021.535	-2664
1021.604	-2572
1021.674	-2229
1021.743	-1904
1021.812	-2024
1021.882	-2585
1021.951	-1807
1022.020	-2400
1022.089	-2477
1022.159	-2548
1022.228	-2921
1022.297	-2522
1022.366	-3140
1022.435	-3004
1022.504	-2196
1022.573	-2448
1022.642	-3288
1022.711	-2236
1022.781	-1985
1022.849	-1960
1022.918	-2828
1022.987	-2463
1023.056	-2869
1023.125	-2463
1023.194	-2488
1023.263	-2523
1023.331	-1809
1023.400	-2951
1023.469	-3040
1023.538	-2927
1023.606	-2817
1023.675	-2598
1023.744	-3606
1023.812	-2992
1023.881	-2765
1023.949	-2426
1024.018	-3389
1024.086	-2751
1024.155	-2933
1024.223	-3377
1024.292	-2506
1024.360	-2081
1024.429	-2873
1024.497	-2779
1024.565	-2342
1024.634	-2122
1024.702	-2292
1024.770	-2063
1024.838	-3345
1024.907	-2042
1024.975	-2942
1025.043	-2573
1025.111	-3125
1025.179	-1969
1025.247	-3014
1025.315	-3170
1025.383	-3274
1025.451	-2719
1025.519	-2038
1025.587	-3033
1025.655	-3138
1025.723	-2277
1025.791	-2564
1025.859	-2437
1025.927	-3631
1025.995	-2960
1026.062	-2486
1026.130	-2528
1026.198	-2558
1026.266	-2918
1026.333	-2696
1026.401	-2291
1026.469	-2570
1026.536	-2295
1026.604	-2862
1026.671	-2964
1026.739	-3352
1026.806	-2672
1026.874	-2980
1026.941	-2924
1027.009	-2667
1027.076	-3454
1027.144	-2302
1027.211	-3704
1027.278	-3536
1027.345	-2510
1027.413	-3165
1027.480	-2375
1027.547	-2322
1027.614	-2350
1027.682	-2905
1027.749	-2839
1027.816	-2421
1027.883	-2990
1027.950	-2611
1028.017	-3016
1028.084	-2686
1028.151	-3319
1028.218	-2608
1028.285	-2989
1028.352	-3411
1028.419	-2941
1028.486	-3402
1028.553	-2655
1028.619	-3229
1028.686	-1718
1028.753	-3133
1028.820	-3175
1028.886	-3246
1028.953	-3916
1029.020	-3119
1029.086	-2600
1029.153	-3653
1029.220	-2674
1029.286	-3102
1029.353	-2552
1029.419	-2619
1029.486	-3108
1029.552	-2653
1029.619	-3329
1029.685	-3025
1029.751	-2974
1029.818	-2515
1029.884	-3042
1029.951	-1694
1030.017	-3389
1030.083	-2585
1030.149	-3117
1030.216	-3199
1030.282	-2493
1030.348	-2665
1030.414	-3524
1030.480	-2803
1030.546	-2635
1030.612	-2124
1030.678	-3660
1030.744	-2507
1030.810	-2242
1030.876	-2654
1030.942	-2635
1031.008	-2310
1031.074	-2833
1031.140	-2488
1031.206	-2294
1031.272	-2877
1031.337	-2672
1031.403	-1839
1031.469	-2535
1031.534	-2296
1031.600	-2020
1031.666	-3607
1031.731	-2913
1031.797	-3365
1031.863	-3378
1031.928	-2893
1031.994	-3491
1032.059	-2333
1032.125	-2390
1032.190	-2957
1032.256	-3073
1032.321	-2911
1032.386	-3165
1032.452	-2429
1032.517	-3040
1032.582	-2938
1032.647	-2391
1032.713	-3239
1032.778	-2631
1032.843	-2990
1032.908	-3335
1032.974	-3199
1033.039	-2064
1033.104	-2543
1033.169	-2618
1033.234	-3480
1033.299	-2304
1033.364	-2587
1033.429	-2609
1033.494	-2832
1033.559	-2902
1033.624	-2883
1033.688	-1857
1033.753	-2588
1033.818	-2877
1033.883	-1803
1033.948	-2726
1034.013	-3084
1034.077	-2331
1034.142	-2190
1034.207	-2532
1034.271	-1902
1034.336	-1217
1034.400	-2261
1034.465	-1885
1034.530	-2833
1034.594	-2388
1034.658	-2815
1034.723	-2730
1034.787	-2860
1034.852	-2134
1034.916	-3185
1034.981	-2572
1035.045	-2917
1035.109	-3078
1035.173	-2473
1035.238	-2965
1035.302	-2815
1035.366	-3229
1035.430	-2812
1035.495	-3013
1035.559	-2319
1035.623	-3261
1035.687	-2370
1035.751	-3756
1035.815	-2650
1035.879	-2804
1035.943	-2655
1036.007	-3214
1036.071	-2883
1036.135	-3186
1036.198	-3207
1036.262	-2324
1036.326	-2866
1036.390	-2555
1036.454	-2972
1036.517	-2074
1036.581	-2810
1036.645	-1837
1036.709	-1416
1036.772	-2123
1036.836	-3114
1036.900	-2629
1036.963	-2971
1037.026	-2708
1037.090	-3214
1037.154	-3174
1037.217	-2900
1037.280	-2543
1037.344	-3484
1037.407	-2551
1037.471	-3226
1037.534	-3734
1037.597	-2890
1037.661	-2224
1037.724	-2961
1037.787	-3241
1037.850	-3003
1037.913	-2835
1037.977	-2948
1038.040	-3044
1038.103	-3097
1038.166	-2626
1038.229	-2620
1038.292	-2616
1038.355	-2777
1038.418	-3275
1038.481	-2538
1038.544	-3034
1038.607	-3531
1038.670	-3684
1038.732	-2987
1038.795	-3570
1038.858	-2146
1038.921	-2817
1038.984	-2402
1039.046	-3281
1039.109	-3122
1039.172	-3232
1039.234	-3024
1039.297	-3327
1039.360	-2252
1039.422	-3548
1039.485	-3059
1039.547	-3773
1039.610	-3063
1039.672	-1926
1039.734	-2666
1039.797	-2792
1039.859	-3601
1039.922	-3178
1039.984	-2459
1040.046	-2443
1040.109	-3146
1040.171	-3500
1040.233	-3311
1040.295	-2833
1040.358	-4049
1040.420	-3024
1040.482	-2872
1040.544	-2879
1040.606	-2070
1040.668	-3228
1040.730	-3155
1040.792	-3301
1040.854	-2831
1040.916	-3292
1040.978	-3148
1041.040	-2476
1041.102	-2580
1041.164	-3254
1041.225	-3290
1041.287	-3407
1041.349	-2796
1041.411	-2903
1041.472	-2901
1041.534	-2894
1041.596	-2737
1041.657	-2628
1041.719	-3362
1041.781	-2390
1041.842	-3012
1041.904	-2955
1041.965	-3253
1042.027	-3087
1042.088	-3243
1042.150	-3206
1042.211	-3064
1042.272	-2502
1042.334	-2930
1042.395	-3232
1042.456	-3585
1042.518	-2785
1042.579	-2745
1042.640	-3022
1042.701	-3387
1042.763	-3298
1042.824	-3035
1042.885	-3173
1042.946	-2373
1043.007	-2672
1043.068	-3423
1043.129	-2262
1043.190	-3025
1043.251	-2416
1043.312	-2964
1043.373	-2064
1043.434	-2865
1043.495	-3076
1043.556	-2632
1043.616	-2988
1043.677	-3137
1043.738	-2885
1043.799	-2732
1043.859	-2666
1043.920	-2506
1043.981	-2734
1044.041	-2285
1044.102	-2868
1044.162	-2534
1044.223	-2501
1044.284	-2546
1044.344	-2670
1044.405	-3531
1044.465	-3158
1044.525	-2680
1044.586	-2338
1044.646	-2697
1044.707	-2554
1044.767	-2026
1044.827	-3759
1044.887	-2537
1044.948	-2692
1045.008	-2538
1045.068	-2604
1045.128	-2451
1045.188	-3086
1045.249	-2040
1045.309	-2231
1045.369	-2738
1045.429	-2595
1045.489	-2589
1045.549	-3223
1045.609	-2465
1045.669	-3135
1045.729	-3015
1045.789	-2861
1045.848	-1877
1045.908	-2670
1045.968	-2582
1046.028	-2563
1046.088	-1721
1046.147	-2653
1046.207	-1984
1046.267	-2515
1046.326	-3002
1046.386	-2458
1046.446	-2616
1046.505	-2297
1046.565	-2001
1046.624	-2277
1046.684	-2233
1046.743	-1680
1046.803	-1797
1046.862	-1700
1046.922	0
