'Start Wavelength	183.907
'End Wavelength	1046.922
'Gate Delay	5.000
'Gate Width (ms)	1.050
'Laser Output Level	0.000
'X Position	0.000
'Y Position	0.000
'Z Position	0.000
'Grid Point Number	1.000
'Shot Number	100.000
183.907	553.000
183.977	-476.000
184.047	-676
184.116	-123
184.186	652
184.256	-668
184.325	-140
184.395	-955
184.465	17
184.534	230
184.604	-204
184.674	244
184.743	-419
184.813	-194
184.883	52
184.952	209
185.022	-324
185.092	-294
185.161	382
185.231	-47
185.301	362
185.370	-169
185.440	-2
185.509	-540
185.579	263
185.649	-83
185.718	392
185.788	-133
185.857	-545
185.927	-82
185.996	-557
186.066	-483
186.136	-49
186.205	-262
186.275	379
186.344	71
186.414	252
186.483	-177
186.553	268
186.622	139
186.692	-169
186.761	-92
186.831	690
186.900	-466
186.970	521
187.039	617
187.109	452
187.178	-500
187.248	-12
187.317	-157
187.387	30
187.456	-509
187.526	508
187.595	9
187.664	-133
187.734	42
187.803	556
187.873	-519
187.942	658
188.012	241
188.081	161
188.150	136
188.220	-292
188.289	773
188.358	-313
188.428	226
188.497	-573
188.567	-248
188.636	-174
188.705	200
188.775	251
188.844	-260
188.913	26
188.983	-266
189.052	-463
189.121	48
189.191	-354
189.260	-537
189.329	777
189.399	-463
189.468	-158
189.537	138
189.606	632
189.676	-25
189.745	73
189.814	499
189.883	-423
189.953	-179
190.022	-438
190.091	512
190.161	478
190.230	654
190.299	573
190.368	-373
190.437	812
190.507	-254
190.576	-83
190.645	55
190.714	46
190.783	-453
190.853	55
190.922	-384
190.991	243
191.060	-28
191.129	-689
191.198	174
191.268	-695
191.337	216
191.406	200
191.475	215
191.544	183
191.613	0
191.682	5
191.752	149
191.821	237
191.890	442
191.959	-740
192.028	-236
192.097	-120
192.166	464
192.235	-412
192.304	107
192.373	-752
192.442	-857
192.511	-70
192.580	416
192.650	219
192.719	524
192.788	631
192.857	160
192.926	-230
192.995	267
193.064	427
193.133	-229
193.202	-386
193.271	-201
193.340	247
193.409	178
193.478	175
193.547	140
193.615	220
193.684	-785
193.753	742
193.822	844
193.891	-156
193.960	276
194.029	-23
194.098	321
194.167	-544
194.236	395
194.305	-39
194.374	-752
194.443	226
194.512	519
194.580	165
194.649	58
194.718	269
194.787	-239
194.856	-630
194.925	7
194.994	274
195.062	598
195.131	-418
195.200	-95
195.269	52
195.338	-269
195.407	243
195.475	301
195.544	407
195.613	-56
195.682	-178
195.751	175
195.819	60
195.888	-203
195.957	677
196.026	-293
196.094	-51
196.163	531
196.232	230
196.301	211
196.369	86
196.438	77
196.507	647
196.576	-681
196.644	29
196.713	-386
196.782	268
196.850	242
196.919	126
196.988	-108
197.056	-268
197.125	-4
197.194	97
197.262	-47
197.331	-160
197.400	-384
197.468	-358
197.537	256
197.606	666
197.674	227
197.743	447
197.812	-177
197.880	397
197.949	-312
198.017	232
198.086	-716
198.155	1048
198.223	786
198.292	-541
198.360	-422
198.429	-128
198.497	-9
198.566	182
198.635	997
198.703	147
198.772	290
198.840	106
198.909	160
198.977	605
199.046	-475
199.114	438
199.183	698
199.251	257
199.320	36
199.388	492
199.457	302
199.525	579
199.594	-490
199.662	-700
199.731	-121
199.799	163
199.867	455
199.936	-294
200.004	387
200.073	1028
200.141	-158
200.210	328
200.278	-227
200.346	-155
200.415	14
200.483	125
200.552	-36
200.620	-258
200.688	-804
200.757	664
200.825	955
200.893	-8
200.962	212
201.030	-985
201.098	-579
201.167	236
201.235	999
201.303	-303
201.372	354
201.440	-37
201.508	193
201.577	623
201.645	-37
201.713	265
201.781	-786
201.850	487
201.918	203
201.986	208
202.055	-84
202.123	-128
202.191	-28
202.259	-382
202.327	-30
202.396	360
202.464	685
202.532	84
202.600	910
202.669	894
202.737	13
202.805	192
202.873	-377
202.941	144
203.009	187
203.078	71
203.146	73
203.214	146
203.282	-452
203.350	838
203.418	-9
203.487	-72
203.555	-340
203.623	125
203.691	43
203.759	-176
203.827	-189
203.895	656
203.963	308
204.031	-76
204.099	305
204.168	43
204.236	-194
204.304	58
204.372	572
204.440	201
204.508	104
204.576	-256
204.644	144
204.712	-357
204.780	490
204.848	469
204.916	-450
204.984	-422
205.052	137
205.120	2
205.188	54
205.256	800
205.324	-173
205.392	47
205.460	485
205.528	-169
205.596	-578
205.664	-307
205.732	-205
205.799	657
205.867	358
205.935	231
206.003	1429
206.071	-150
206.139	180
206.207	-539
206.275	-639
206.343	721
206.411	-448
206.478	634
206.546	169
206.614	288
206.682	-747
206.750	-11
206.818	416
206.885	675
206.953	-838
207.021	1034
207.089	552
207.157	-952
207.225	171
207.292	-331
207.360	376
207.428	410
207.496	-739
207.563	228
207.631	64
207.699	100
207.767	808
207.834	-129
207.902	-280
207.970	33
208.038	-257
208.105	436
208.173	-214
208.241	-52
208.309	-159
208.376	-18
208.444	640
208.512	-326
208.579	438
208.647	320
208.715	-274
208.782	135
208.850	481
208.918	-163
208.985	159
209.053	528
209.120	459
209.188	21
209.256	329
209.323	25
209.391	-39
209.459	253
209.526	139
209.594	304
209.661	-468
209.729	17
209.796	470
209.864	-40
209.932	-529
209.999	779
210.067	3
210.134	-76
210.202	77
210.269	265
210.337	428
210.404	253
210.472	63
210.539	63
210.607	-313
210.674	576
210.742	900
210.809	-252
210.877	205
210.944	980
211.012	-659
211.079	1373
211.146	386
211.214	-48
211.281	645
211.349	-246
211.416	831
211.484	521
211.551	106
211.618	265
211.686	483
211.753	-600
211.821	77
211.888	652
211.955	91
212.023	957
212.090	-483
212.157	-407
212.225	500
212.292	723
212.359	476
212.427	2332
212.494	600
212.561	798
212.629	229
212.696	-75
212.763	-335
212.831	80
212.898	1062
212.965	322
213.032	939
213.100	550
213.167	99
213.234	1166
213.301	393
213.369	333
213.436	820
213.503	532
213.570	4
213.638	66
213.705	86
213.772	8
213.839	310
213.906	4
213.973	232
214.041	778
214.108	1286
214.175	955
214.242	172
214.309	245
214.376	766
214.444	665
214.511	1278
214.578	766
214.645	566
214.712	371
214.779	690
214.846	196
214.913	683
214.980	1075
215.048	832
215.115	1686
215.182	379
215.249	560
215.316	1037
215.383	998
215.450	643
215.517	-54
215.584	381
215.651	379
215.718	77
215.785	183
215.852	242
215.919	233
215.986	264
216.053	152
216.120	404
216.187	699
216.254	631
216.321	146
216.388	1181
216.455	973
216.522	319
216.589	433
216.656	885
216.722	1304
216.789	1112
216.856	1229
216.923	580
216.990	1027
217.057	596
217.124	780
217.191	1264
217.258	1584
217.324	1174
217.391	2176
217.458	1626
217.525	1482
217.592	116
217.659	-227
217.725	960
217.792	750
217.859	753
217.926	-648
217.993	1030
218.059	354
218.126	69
218.193	747
218.260	-378
218.327	-318
218.393	-417
218.460	-331
218.527	-198
218.594	252
218.660	648
218.727	554
218.794	-193
218.860	-340
218.927	245
218.994	496
219.061	197
219.127	-61
219.194	411
219.261	732
219.327	453
219.394	454
219.461	-1097
219.527	513
219.594	340
219.661	307
219.727	71
219.794	407
219.860	-857
219.927	105
219.994	-27
220.060	1061
220.127	960
220.193	4
220.260	344
220.326	1226
220.393	1966
220.460	3449
220.526	1166
220.593	938
220.659	1496
220.726	1601
220.792	1771
220.859	1541
220.925	3370
220.992	4148
221.058	3191
221.125	2162
221.191	1549
221.258	171
221.324	187
221.391	88
221.457	-255
221.524	164
221.590	830
221.657	2099
221.723	960
221.789	1652
221.856	1209
221.922	313
221.989	945
222.055	324
222.121	-960
222.188	1687
222.254	260
222.321	-105
222.387	-254
222.453	101
222.520	-317
222.586	-414
222.652	274
222.719	-84
222.785	-58
222.851	-407
222.918	-129
222.984	-349
223.050	531
223.116	-386
223.183	639
223.249	-162
223.315	-67
223.382	737
223.448	-84
223.514	-201
223.580	-258
223.647	238
223.713	167
223.779	73
223.845	-312
223.911	891
223.978	-39
224.044	10
224.110	-476
224.176	263
224.242	63
224.309	-803
224.375	160
224.441	485
224.507	-605
224.573	-537
224.639	97
224.705	453
224.772	416
224.838	1048
224.904	675
224.970	116
225.036	-536
225.102	-570
225.168	-53
225.234	505
225.300	79
225.366	-110
225.432	459
225.499	310
225.565	102
225.631	196
225.697	608
225.763	413
225.829	474
225.895	766
225.961	571
226.027	1021
226.093	65
226.159	1090
226.225	2204
226.291	3869
226.357	5247
226.423	3600
226.489	2177
226.554	793
226.620	1398
226.686	1027
226.752	2996
226.818	3295
226.884	6355
226.950	6189
227.016	2639
227.082	1857
227.148	641
227.214	671
227.279	433
227.345	84
227.411	535
227.477	111
227.543	2104
227.609	1715
227.674	696
227.740	628
227.806	-124
227.872	-554
227.938	-341
228.003	1036
228.069	107
228.135	190
228.201	234
228.267	565
228.332	309
228.398	105
228.464	827
228.530	-346
228.595	-115
228.661	656
228.727	261
228.792	871
228.858	-481
228.924	-542
228.990	699
229.055	170
229.121	1198
229.187	220
229.252	290
229.318	212
229.384	-476
229.449	472
229.515	-356
229.581	-729
229.646	1187
229.712	584
229.777	176
229.843	423
229.909	1531
229.974	1769
230.040	1341
230.105	-225
230.171	-64
230.236	950
230.302	1170
230.368	803
230.433	153
230.499	481
230.564	1241
230.630	-101
230.695	1095
230.761	880
230.826	-707
230.892	1316
230.957	415
231.023	-61
231.088	-168
231.154	446
231.219	996
231.284	324
231.350	488
231.415	-133
231.481	611
231.546	250
231.612	70
231.677	-71
231.742	-802
231.808	199
231.873	-480
231.939	-809
232.004	1005
232.069	718
232.135	635
232.200	111
232.265	-187
232.331	293
232.396	32
232.461	-386
232.527	-277
232.592	-151
232.657	84
232.723	358
232.788	-81
232.853	757
232.918	218
232.984	-756
233.049	-240
233.114	274
233.179	253
233.245	1569
233.310	120
233.375	-295
233.440	485
233.506	-306
233.571	-411
233.636	-168
233.701	-392
233.766	50
233.832	1048
233.897	145
233.962	-217
234.027	1169
234.092	453
234.157	411
234.222	415
234.288	627
234.353	1677
234.418	2135
234.483	1668
234.548	1740
234.613	1164
234.678	1003
234.743	689
234.808	3368
234.873	735
234.938	1544
235.004	685
235.069	729
235.134	187
235.199	1189
235.264	-155
235.329	-747
235.394	436
235.459	689
235.524	257
235.589	672
235.654	409
235.719	-672
235.784	989
235.849	112
235.913	464
235.978	909
236.043	996
236.108	811
236.173	190
236.238	106
236.303	-57
236.368	211
236.433	1484
236.498	1596
236.563	1244
236.627	2768
236.692	8907
236.757	7340
236.822	2832
236.887	2136
236.952	2169
237.017	610
237.081	1421
237.146	1489
237.211	5582
237.276	8733
237.341	12217
237.405	5784
237.470	2785
237.535	2135
237.600	1494
237.664	1834
237.729	787
237.794	1177
237.859	4033
237.923	1099
237.988	738
238.053	1194
238.118	880
238.182	2980
238.247	3507
238.312	713
238.376	1638
238.441	-612
238.506	1538
238.570	-356
238.635	835
238.700	568
238.764	-223
238.829	1716
238.893	483
238.958	1688
239.023	841
239.087	21
239.152	631
239.216	421
239.281	626
239.346	500
239.410	254
239.475	-103
239.539	2734
239.604	852
239.668	1752
239.733	591
239.797	967
239.862	2837
239.926	2180
239.991	778
240.055	620
240.120	848
240.184	210
240.249	-75
240.313	594
240.378	1317
240.442	1762
240.507	2166
240.571	740
240.635	812
240.700	1068
240.764	321
240.829	534
240.893	-23
240.957	169
241.022	1940
241.086	2536
241.151	533
241.215	-870
241.279	809
241.344	802
241.408	661
241.472	-246
241.537	1332
241.601	1147
241.665	-79
241.730	781
241.794	1357
241.858	462
241.922	1204
241.987	1004
242.051	244
242.115	-103
242.179	815
242.244	-713
242.308	1753
242.372	449
242.436	870
242.501	766
242.565	258
242.629	-15
242.693	907
242.757	-174
242.822	-73
242.886	1292
242.950	1046
243.014	223
243.078	837
243.142	756
243.206	-132
243.271	1768
243.335	-243
243.399	962
243.463	3016
243.527	8366
243.591	2875
243.655	1812
243.719	440
243.783	1735
243.847	1379
243.911	2006
243.975	3383
244.040	1112
244.104	2083
244.168	949
244.232	1428
244.296	1682
244.360	2316
244.424	85
244.488	561
244.552	603
244.615	249
244.679	1212
244.743	493
244.807	-13
244.871	176
244.935	810
244.999	-219
245.063	417
245.127	830
245.191	1171
245.255	1327
245.319	1687
245.383	-54
245.446	1704
245.510	-389
245.574	131
245.638	1114
245.702	-34
245.766	1707
245.829	1470
245.893	387
245.957	70
246.021	1410
246.085	1270
246.149	1592
246.212	2839
246.276	3634
246.340	1974
246.404	1758
246.467	1194
246.531	678
246.595	2343
246.659	1198
246.722	1288
246.786	1995
246.850	1372
246.913	1964
246.977	92
247.041	1494
247.104	1318
247.168	1440
247.232	3473
247.295	4863
247.359	1964
247.423	1490
247.486	1914
247.550	1928
247.614	1558
247.677	2038
247.741	1233
247.804	607
247.868	785
247.932	2386
247.995	5180
248.059	2038
248.122	555
248.186	1690
248.249	2811
248.313	8134
248.376	9296
248.440	5470
248.503	1175
248.567	3210
248.630	1932
248.694	4437
248.757	6261
248.821	8773
248.884	7398
248.948	6366
249.011	8645
249.075	11022
249.138	8970
249.202	4305
249.265	2142
249.328	3721
249.392	1632
249.455	2659
249.519	1184
249.582	2174
249.645	3284
249.709	2785
249.772	1745
249.835	1671
249.899	1174
249.962	1852
250.025	1025
250.089	3492
250.152	5646
250.215	3279
250.279	1200
250.342	1739
250.405	2075
250.468	778
250.532	2249
250.595	3576
250.658	9815
250.721	14911
250.785	5416
250.848	4127
250.911	1466
250.974	1926
251.038	2642
251.101	6381
251.164	2694
251.227	3347
251.290	2430
251.354	4191
251.417	13693
251.480	11802
251.543	8499
251.606	23078
251.669	17233
251.732	7381
251.795	7767
251.859	8642
251.922	14683
251.985	9125
252.048	4344
252.111	3036
252.174	2861
252.237	6224
252.300	10866
252.363	12018
252.426	19606
252.489	8659
252.552	4169
252.615	2657
252.678	3472
252.741	7679
252.804	8931
252.867	19826
252.930	13261
252.993	7199
253.056	5048
253.119	3490
253.182	2022
253.245	3581
253.308	3859
253.371	3184
253.434	3663
253.497	3275
253.559	5575
253.622	3592
253.685	6279
253.748	6983
253.811	2411
253.874	3911
253.937	2748
254.000	2531
254.062	4768
254.125	6862
254.188	6173
254.251	4184
254.314	2635
254.376	4836
254.439	6265
254.502	5205
254.565	4056
254.628	8231
254.690	5214
254.753	1756
254.816	2259
254.878	2216
254.941	3866
255.004	3853
255.067	2105
255.129	2856
255.192	996
255.255	120
255.317	1328
255.380	928
255.443	392
255.505	960
255.568	117
255.631	902
255.693	924
255.756	585
255.819	1104
255.881	548
255.944	1157
256.006	-100
256.069	480
256.132	276
256.194	1035
256.257	3226
256.319	1539
256.382	1400
256.444	1556
256.507	1298
256.569	534
256.632	1063
256.694	985
256.757	6716
256.819	14637
256.882	5174
256.944	2818
257.007	2644
257.069	2475
257.132	1508
257.194	1477
257.257	1278
257.319	573
257.381	718
257.444	5247
257.506	18547
257.569	19874
257.631	9544
257.693	3750
257.756	1679
257.818	1221
257.880	819
257.943	1961
258.005	113
258.067	712
258.130	664
258.192	615
258.254	3249
258.317	1253
258.379	1333
258.441	2710
258.503	2694
258.566	2950
258.628	4965
258.690	58
258.753	2207
258.815	3768
258.877	1702
258.939	945
259.001	1693
259.064	1228
259.126	363
259.188	1634
259.250	1583
259.312	1337
259.375	3602
259.437	2386
259.499	763
259.561	823
259.623	1441
259.685	860
259.747	1040
259.809	3080
259.872	5083
259.934	9174
259.996	8905
260.058	1893
260.120	507
260.182	596
260.244	824
260.306	187
260.368	1297
260.430	-117
260.492	2372
260.554	4302
260.616	2155
260.678	5287
260.740	5110
260.802	1064
260.864	1654
260.926	192
260.988	2555
261.050	990
261.112	3255
261.174	7130
261.236	4739
261.298	1839
261.359	2487
261.421	4017
261.483	571
261.545	2110
261.607	-417
261.669	1389
261.731	1663
261.793	4276
261.854	1921
261.916	2014
261.978	938
262.040	1618
262.102	224
262.164	758
262.225	1307
262.287	1057
262.349	2359
262.411	1737
262.472	1297
262.534	1652
262.596	3699
262.658	1397
262.719	95
262.781	875
262.843	3522
262.904	1126
262.966	1548
263.028	1387
263.090	6227
263.151	15434
263.213	6242
263.275	3490
263.336	1004
263.398	1500
263.459	580
263.521	205
263.583	3003
263.644	1470
263.706	535
263.767	-321
263.829	302
263.891	138
263.952	-674
264.014	-605
264.075	1547
264.137	3213
264.198	1833
264.260	10
264.321	299
264.383	1902
264.444	5383
264.506	689
264.567	143
264.629	2662
264.690	2694
264.752	1765
264.813	1344
264.875	-508
264.936	-17
264.998	-151
265.059	-50
265.120	173
265.182	540
265.243	9648
265.305	8021
265.366	1706
265.427	1241
265.489	756
265.550	-286
265.611	126
265.673	492
265.734	142
265.795	185
265.857	-301
265.918	797
265.979	2538
266.040	14597
266.102	10565
266.163	3948
266.224	2073
266.286	1334
266.347	-328
266.408	836
266.469	293
266.530	617
266.592	825
266.653	2566
266.714	3529
266.775	1319
266.836	522
266.898	668
266.959	1626
267.020	686
267.081	1045
267.142	1369
267.203	166
267.264	11
267.326	1292
267.387	458
267.448	-241
267.509	978
267.570	-375
267.631	701
267.692	159
267.753	503
267.814	-740
267.875	1761
267.936	3126
267.997	929
268.058	1863
268.119	294
268.180	987
268.241	-313
268.302	274
268.363	-272
268.424	292
268.485	727
268.546	-455
268.607	-450
268.668	14
268.729	-234
268.790	-247
268.851	94
268.912	1832
268.972	3578
269.033	1014
269.094	638
269.155	64
269.216	56
269.277	206
269.338	345
269.398	147
269.459	292
269.520	1597
269.581	1566
269.642	3527
269.702	1751
269.763	856
269.824	1201
269.885	902
269.945	2386
270.006	124
270.067	15
270.128	-96
270.188	426
270.249	-131
270.310	-567
270.370	53
270.431	248
270.492	-295
270.553	756
270.613	2517
270.674	4535
270.734	854
270.795	594
270.856	1149
270.916	901
270.977	756
271.038	1748
271.098	1403
271.159	2066
271.219	1734
271.280	1360
271.340	388
271.401	45
271.462	2481
271.522	1376
271.583	169
271.643	1331
271.704	-136
271.764	705
271.825	3399
271.885	11393
271.946	12284
272.006	4904
272.066	6929
272.127	9561
272.187	3195
272.248	1993
272.308	1523
272.369	6997
272.429	3305
272.489	3070
272.550	2645
272.610	3855
272.671	2513
272.731	1835
272.791	2366
272.852	2370
272.912	1775
272.972	1052
273.033	941
273.093	1546
273.153	1987
273.214	1859
273.274	1388
273.334	5157
273.394	10095
273.455	5521
273.515	4576
273.575	8782
273.635	3665
273.696	6054
273.756	9721
273.816	4149
273.876	2591
273.936	4536
273.997	5424
274.057	1630
274.117	1278
274.177	2811
274.237	12339
274.297	9628
274.358	6888
274.418	7843
274.478	6000
274.538	1870
274.598	285
274.658	5492
274.718	6337
274.778	2651
274.838	1050
274.898	2325
274.958	7207
275.018	8528
275.078	5946
275.138	2496
275.198	1092
275.258	747
275.318	890
275.378	4335
275.438	4429
275.498	2313
275.558	4456
275.618	9444
275.678	5456
275.738	4390
275.798	3831
275.858	1200
275.918	319
275.978	1608
276.038	1242
276.098	1184
276.157	2363
276.217	7896
276.277	2723
276.337	2424
276.397	984
276.457	1839
276.517	847
276.576	-27
276.636	-275
276.696	1227
276.756	5245
276.815	2293
276.875	1574
276.935	1649
276.995	1804
277.055	570
277.114	164
277.174	974
277.234	5808
277.293	2089
277.353	1749
277.413	721
277.472	586
277.532	812
277.592	1514
277.651	6431
277.711	10401
277.771	2318
277.830	14196
277.890	9513
277.950	7019
278.009	19378
278.069	6229
278.128	9592
278.188	12110
278.248	4982
278.307	13378
278.367	7112
278.426	2194
278.486	1042
278.545	1061
278.605	165
278.664	338
278.724	391
278.783	4160
278.843	8879
278.902	2494
278.962	2147
279.021	1784
279.081	2358
279.140	2100
279.199	3120
279.259	2078
279.318	2010
279.378	3295
279.437	5375
279.496	17943
279.556	47447
279.615	34035
279.675	10864
279.734	6171
279.793	8492
279.853	12962
279.912	4885
279.971	2513
280.031	2830
280.090	5202
280.149	7499
280.208	6306
280.268	32451
280.327	29874
280.386	7096
280.445	6922
280.505	5304
280.564	2015
280.623	1428
280.682	3216
280.742	5561
280.801	1496
280.860	994
280.919	267
280.978	741
281.037	-143
281.097	871
281.156	1835
281.215	844
281.274	900
281.333	5926
281.392	3278
281.451	618
281.510	889
281.569	499
281.628	-340
281.688	270
281.747	1306
281.806	132
281.865	752
281.924	512
281.983	687
282.042	-290
282.101	279
282.160	458
282.219	-259
282.278	-451
282.337	4198
282.396	1882
282.454	673
282.513	1059
282.572	6122
282.631	3055
282.690	317
282.749	282
282.808	1736
282.867	1083
282.926	1065
282.985	479
283.043	586
283.102	1898
283.161	951
283.220	2954
283.279	5516
283.338	1208
283.396	636
283.455	915
283.514	930
283.573	3096
283.631	2151
283.690	1293
283.749	1495
283.808	3689
283.866	3641
283.925	796
283.984	1751
284.043	3038
284.101	2172
284.160	1470
284.219	1492
284.277	2591
284.336	3626
284.395	10865
284.453	7583
284.512	3962
284.570	6917
284.629	5443
284.688	4961
284.746	5833
284.805	8013
284.863	11836
284.922	13955
284.981	16979
285.039	23480
285.098	34808
285.156	45915
285.215	30887
285.273	34073
285.332	47093
285.390	38103
285.449	26119
285.507	18535
285.566	13063
285.624	9943
285.683	7035
285.741	6263
285.799	5658
285.858	4757
285.916	3794
285.975	2716
286.033	2694
286.091	2477
286.150	1371
286.208	2553
286.267	1590
286.325	1759
286.383	4247
286.442	2479
286.500	2159
286.558	940
286.616	404
286.675	1769
286.733	1836
286.791	881
286.850	1604
286.908	1573
286.966	4704
287.024	841
287.083	877
287.141	583
287.199	317
287.257	2113
287.315	1289
287.374	612
287.432	4597
287.490	2666
287.548	1169
287.606	717
287.664	1400
287.723	1332
287.781	2208
287.839	1422
287.897	875
287.955	1079
288.013	444
288.071	2748
288.129	21777
288.187	53374
288.245	21179
288.303	6984
288.361	4226
288.419	1986
288.477	1612
288.535	333
288.593	272
288.651	570
288.709	-32
288.767	-92
288.825	-231
288.883	271
288.941	454
288.999	52
289.057	147
289.115	-95
289.173	-131
289.231	70
289.289	268
289.346	204
289.404	1092
289.462	2699
289.520	2559
289.578	972
289.636	786
289.694	-170
289.751	-624
289.809	-250
289.867	274
289.925	1351
289.983	771
290.040	167
290.098	31
290.156	160
290.214	582
290.271	-342
290.329	14
290.387	-48
290.444	-305
290.502	-1160
290.560	-671
290.617	518
290.675	502
290.733	192
290.790	345
290.848	227
290.906	169
290.963	-172
291.021	106
291.078	487
291.136	390
291.194	2648
291.251	7047
291.309	1166
291.366	-50
291.424	376
291.481	655
291.539	610
291.596	428
291.654	-1205
291.711	165
291.769	687
291.826	2739
291.884	1086
291.941	-156
291.999	-188
292.056	213
292.114	354
292.171	11
292.228	-140
292.286	305
292.343	2357
292.401	2308
292.458	257
292.515	-154
292.573	1005
292.630	950
292.687	-42
292.745	151
292.802	627
292.859	3394
292.917	7055
292.974	3573
293.031	992
293.089	870
293.146	190
293.203	-1007
293.260	-788
293.318	263
293.375	1305
293.432	-529
293.489	156
293.546	181
293.604	461
293.661	4480
293.718	10919
293.775	5717
293.832	2916
293.889	2323
293.947	1407
294.004	836
294.061	730
294.118	3130
294.175	7229
294.232	8464
294.289	3113
294.346	1135
294.403	1986
294.460	941
294.517	829
294.574	-419
294.631	-303
294.688	383
294.745	2428
294.802	13120
294.859	12507
294.916	5350
294.973	2349
295.030	3034
295.087	1133
295.144	564
295.201	1355
295.258	-96
295.315	346
295.372	5313
295.429	7690
295.486	3234
295.542	1546
295.599	5532
295.656	8977
295.713	6812
295.770	7351
295.827	2159
295.883	1391
295.940	1300
295.997	3720
296.054	2775
296.111	611
296.167	746
296.224	166
296.281	355
296.338	138
296.394	139
296.451	330
296.508	3521
296.564	5927
296.621	3706
296.678	11761
296.734	14256
296.791	4766
296.848	2436
296.904	2688
296.961	8332
297.018	10080
297.074	6484
297.131	1668
297.187	1121
297.244	1998
297.301	9802
297.357	14354
297.414	5242
297.470	2038
297.527	720
297.583	1673
297.640	1519
297.696	622
297.753	213
297.809	-29
297.866	-836
297.922	455
297.979	-207
298.035	349
298.092	1715
298.148	5799
298.204	5532
298.261	1773
298.317	4646
298.374	12235
298.430	5863
298.486	1997
298.543	1264
298.599	1382
298.656	2046
298.712	4891
298.768	10364
298.824	5356
298.881	2127
298.937	1061
298.993	396
299.050	1769
299.106	1330
299.162	-147
299.218	998
299.275	56
299.331	476
299.387	2803
299.443	12497
299.500	11655
299.556	4619
299.612	1306
299.668	2104
299.724	2942
299.780	2875
299.837	510
299.893	2607
299.949	10210
300.005	9936
300.061	11091
300.117	15228
300.173	6294
300.229	3396
300.285	5347
300.341	5807
300.397	2708
300.453	751
300.510	771
300.566	1055
300.622	524
300.678	6971
300.734	12764
300.790	10284
300.845	10568
300.901	7355
300.957	12536
301.013	7553
301.069	2425
301.125	2341
301.181	2442
301.237	1008
301.293	615
301.349	22
301.405	375
301.461	675
301.516	1642
301.572	1517
301.628	3621
301.684	2372
301.740	4013
301.796	7057
301.851	4700
301.907	8402
301.963	6606
302.019	12264
302.074	29602
302.130	28389
302.186	13525
302.242	5911
302.297	3229
302.353	2489
302.409	6332
302.464	4179
302.520	4399
302.576	12686
302.631	13802
302.687	7618
302.743	3125
302.798	1588
302.854	639
302.910	1032
302.965	1859
303.021	4828
303.076	4045
303.132	5789
303.187	7040
303.243	3240
303.299	1757
303.354	1349
303.410	256
303.465	485
303.521	-35
303.576	706
303.632	1290
303.687	3306
303.743	10835
303.798	8174
303.853	3588
303.909	1239
303.964	1604
304.020	3314
304.075	5360
304.130	5553
304.186	10564
304.241	10109
304.297	6964
304.352	3016
304.358	2850
304.407	1507
304.449	1967
304.463	2124
304.518	2268
304.539	1800
304.573	1041
304.629	929
304.630	963
304.684	2542
304.720	6533
304.739	8552
304.794	11143
304.811	9498
304.850	5482
304.902	2507
304.905	2325
304.960	1189
304.992	1149
305.015	1095
305.071	1528
305.083	1457
305.126	1167
305.173	804
305.181	748
305.236	552
305.264	745
305.292	970
305.347	1550
305.354	1606
305.402	1949
305.445	1718
305.457	1671
305.512	2528
305.535	2386
305.567	2043
305.622	1416
305.626	1525
305.678	3989
305.716	8980
305.733	10851
305.788	10607
305.807	9308
305.843	7085
305.897	10823
305.898	10867
305.953	8982
305.988	6034
306.008	4449
306.063	2983
306.078	2579
306.118	1592
306.168	906
306.173	845
306.228	443
306.259	515
306.283	713
306.338	654
306.349	754
306.393	1042
306.440	1397
306.448	1452
306.503	863
306.530	1047
306.558	1578
306.613	4682
306.620	4979
306.668	7120
306.711	10798
306.723	11389
306.778	8335
306.801	6601
306.833	4468
306.888	2417
306.892	2351
306.943	2137
306.982	1375
306.997	1119
307.052	1338
307.072	1145
307.107	878
307.162	1437
307.163	1441
307.217	2171
307.253	2649
307.272	2809
307.327	3116
307.343	2891
307.381	2420
307.434	2093
307.436	2145
307.491	5027
307.524	7854
307.546	8948
307.600	8736
307.614	7823
307.655	4728
307.704	2633
307.710	2536
307.765	2591
307.795	3107
307.819	3782
307.874	6446
307.885	6383
307.929	5025
307.975	4279
307.984	4428
308.038	5790
308.065	7361
308.093	12284
308.148	27191
308.156	30841
308.202	51432
308.246	59048
308.257	56771
308.312	31676
308.336	22864
308.366	18012
308.421	11721
308.426	11156
308.475	7244
308.517	5027
308.530	4633
308.585	3939
308.607	3599
308.639	3287
308.694	3203
308.697	3246
308.748	5383
308.787	7668
308.803	7840
308.857	6339
308.877	5614
308.912	5554
308.967	6409
308.967	6415
309.021	8479
309.058	11307
309.076	14502
309.130	25506
309.148	29621
309.185	44227
309.238	70597
309.239	70874
309.293	79678
309.328	76482
309.348	67069
309.402	35787
309.418	27845
309.457	19857
309.508	13283
309.511	13179
309.566	12459
309.598	13669
309.620	17663
309.674	30541
309.688	33444
309.729	31512
309.778	24156
309.783	23384
309.837	14465
309.868	10255
309.892	10738
309.946	14209
309.959	15442
310.001	19927
310.049	22757
310.055	21968
310.109	13511
310.139	8869
310.163	7221
310.218	4342
310.229	3902
310.272	3340
310.319	2704
310.326	2640
310.381	2526
310.409	2395
310.435	2373
310.489	2330
310.499	2362
310.543	2338
310.589	2121
310.598	2111
310.652	2076
310.679	2093
310.706	2089
310.760	1871
310.769	1863
310.814	1874
310.859	1932
310.868	1987
310.923	1974
310.948	2019
310.977	2093
311.031	2313
311.038	2317
311.085	2197
311.128	2120
311.139	2121
311.193	2105
311.218	2088
311.247	2226
311.301	2452
311.308	2472
311.356	2293
311.398	2048
311.410	2076
311.464	2247
311.488	2309
311.518	2223
311.572	2062
311.578	2041
311.626	2721
311.668	3349
311.680	3324
311.734	3006
311.758	2901
311.788	2727
311.842	2392
311.847	2352
311.896	3142
311.937	3844
311.950	3778
312.004	3439
312.027	3281
312.058	3038
312.112	2596
312.117	2549
312.165	2724
312.207	2868
312.297	3389
312.386	3054
312.476	2238
312.566	5492
312.656	2605
312.745	2355
312.835	2033
312.925	2488
313.015	2916
313.104	2580
313.194	2715
313.284	2910
313.374	4111
313.463	3208
313.553	2186
313.643	1829
313.732	2758
313.822	2617
313.912	2478
314.001	3432
314.091	2655
314.180	3532
314.270	4114
314.360	3412
314.449	3962
314.539	2408
314.628	2457
314.718	2818
314.808	3169
314.897	3060
314.987	2583
315.076	3394
315.166	3727
315.255	3575
315.345	3491
315.434	2712
315.524	3278
315.613	3503
315.703	3870
315.792	4930
315.881	6655
315.971	3357
316.060	5702
316.150	5047
316.239	4236
316.328	2420
316.418	1212
316.507	2979
316.597	3611
316.686	3159
316.775	3443
316.865	5108
316.954	2845
317.043	1906
317.133	1519
317.222	2253
317.311	2215
317.400	1906
317.490	3865
317.579	3415
317.668	2298
317.757	3727
317.847	6270
317.936	11806
318.025	9454
318.114	5529
318.203	3853
318.293	6133
318.382	10577
318.471	8660
318.560	11089
318.649	17140
318.738	4124
318.828	3100
318.917	3460
319.006	3360
319.095	8095
319.184	21937
319.273	13599
319.362	8346
319.451	2388
319.540	3365
319.629	6600
319.718	10485
319.807	3565
319.896	8807
319.985	27599
320.074	11744
320.163	3133
320.252	3336
320.341	3874
320.430	4322
320.519	5692
320.608	4148
320.697	2924
320.786	3212
320.875	3546
320.964	4803
321.053	6925
321.142	10528
321.230	10603
321.319	7988
321.408	18527
321.497	8175
321.586	7394
321.675	7006
321.764	6512
321.852	4940
321.941	10848
322.030	7104
322.119	6284
322.207	18242
322.296	9364
322.385	5786
322.474	6894
322.562	21165
322.651	11680
322.740	8431
322.829	11540
322.917	8244
323.006	5657
323.095	6495
323.183	3500
323.272	6788
323.361	8753
323.449	18515
323.538	6828
323.626	14260
323.715	8553
323.804	4365
323.892	12190
323.981	9473
324.069	2682
324.158	6237
324.246	6120
324.335	4573
324.424	7334
324.512	3040
324.601	4024
324.689	5324
324.778	7913
324.866	6751
324.954	2076
325.043	2258
325.131	3362
325.220	6082
325.308	5766
325.397	4996
325.485	4202
325.574	2406
325.662	2928
325.750	2864
325.839	2706
325.927	2401
326.015	2591
326.104	2614
326.192	2705
326.280	1964
326.369	2021
326.457	4291
326.545	6955
326.634	3567
326.722	2221
326.810	2464
326.898	1986
326.987	3108
327.075	4889
327.163	5687
327.251	2344
327.340	4213
327.428	4856
327.516	2719
327.604	1584
327.692	2515
327.781	1764
327.869	3180
327.957	1973
328.045	3151
328.133	2398
328.221	2104
328.309	2337
328.397	2145
328.485	2289
328.574	3443
328.662	12158
328.750	6216
328.838	1509
328.926	2086
329.014	1667
329.102	3014
329.190	6498
329.278	5153
329.366	1511
329.454	1448
329.542	1327
329.630	1554
329.718	1921
329.806	1843
329.893	2662
329.981	2096
330.069	2694
330.157	8690
330.245	28454
330.333	16766
330.421	3005
330.509	3673
330.597	14519
330.684	9848
330.772	3238
330.860	3401
330.948	4607
331.036	3786
331.123	1598
331.211	2477
331.299	1593
331.387	3257
331.475	7294
331.562	2958
331.650	1647
331.738	1667
331.825	1994
331.913	1522
332.001	1639
332.089	2227
332.176	3026
332.264	5629
332.352	5299
332.439	2960
332.527	2227
332.614	1432
332.702	2151
332.790	1991
332.877	3741
332.965	7353
333.052	3837
333.140	3759
333.228	10999
333.315	3802
333.403	2341
333.490	4590
333.578	5304
333.665	14858
333.753	6384
333.840	2450
333.928	2482
334.015	3424
334.103	6578
334.190	23417
334.278	7014
334.365	4057
334.452	3802
334.540	2222
334.627	2413
334.715	3157
334.802	4253
334.889	18915
334.977	23916
335.064	6147
335.151	2244
335.239	3630
335.326	2470
335.413	13738
335.501	18810
335.588	3076
335.675	1776
335.762	2515
335.850	4352
335.937	3709
336.024	6928
336.111	26086
336.199	16304
336.286	4556
336.373	2625
336.460	1859
336.547	1220
336.635	2264
336.722	2345
336.809	2681
336.896	2575
336.983	8501
337.070	19595
337.157	26811
337.245	13761
337.332	9417
337.419	1898
337.506	1159
337.593	2260
337.680	5042
337.767	19738
337.854	6522
337.941	5627
338.028	5993
338.115	2525
338.202	3097
338.289	4225
338.376	13506
338.463	5012
338.550	10686
338.637	13012
338.724	3120
338.811	4463
338.898	2737
338.984	1594
339.071	2103
339.158	2602
339.245	7773
339.332	5519
339.419	3681
339.506	3705
339.593	911
339.679	1947
339.766	1703
339.853	2397
339.940	5654
340.027	2245
340.113	2321
340.200	3854
340.287	1830
340.374	2289
340.460	5966
340.547	2938
340.634	3667
340.720	12777
340.807	8676
340.894	2024
340.980	2193
341.067	1571
341.154	2750
341.240	3280
341.327	8334
341.414	3624
341.500	4227
341.587	2852
341.674	3063
341.760	5512
341.847	6050
341.933	2046
342.020	415
342.106	728
342.193	2374
342.279	4710
342.366	3025
342.452	5706
342.539	2685
342.625	6307
342.712	14335
342.798	7027
342.885	3617
342.971	1403
343.058	1887
343.144	1737
343.230	1640
343.317	1868
343.403	2220
343.490	944
343.576	1378
343.662	909
343.749	2001
343.835	2009
343.921	3202
344.008	17246
344.094	42673
344.180	11001
344.267	4686
344.353	11144
344.439	13398
344.525	7094
344.612	4166
344.698	2680
344.784	1717
344.870	2330
344.957	1717
345.043	3850
345.129	2724
345.215	5599
345.301	4226
345.387	2722
345.474	1487
345.560	815
345.646	1556
345.732	2001
345.818	2908
345.904	2443
345.990	1959
346.076	2299
346.162	3341
346.249	2409
346.335	1484
346.421	1474
346.507	4697
346.593	17278
346.679	4758
346.765	2232
346.851	2254
346.937	1839
347.023	2165
347.108	2294
347.194	1741
347.280	1666
347.366	1705
347.452	6009
347.538	19773
347.624	16428
347.710	13620
347.796	2577
347.882	2291
347.967	1879
348.053	2689
348.139	1756
348.225	1018
348.311	1283
348.397	2047
348.482	2256
348.568	3529
348.654	1491
348.740	2827
348.825	1349
348.911	4632
348.997	9178
349.083	18795
349.168	3845
349.254	2228
349.340	2720
349.425	1600
349.511	1719
349.597	3612
349.682	4602
349.768	13276
349.854	7339
349.939	2405
350.025	1741
350.110	1870
350.196	2044
350.282	1166
350.367	2288
350.453	2989
350.538	1644
350.624	2760
350.709	2848
350.795	1048
350.880	1113
350.966	2329
351.051	2513
351.137	1475
351.222	2201
351.308	5488
351.393	14217
351.479	5285
351.564	2686
351.649	2080
351.735	1379
351.820	1686
351.906	1291
351.991	2126
352.076	7819
352.162	13876
352.247	3916
352.332	3314
352.418	4782
352.503	6539
352.588	19365
352.673	20263
352.759	4753
352.844	2066
352.929	2813
353.014	4443
353.100	2826
353.185	5148
353.270	6202
353.355	6965
353.441	2070
353.526	1692
353.611	4120
353.696	6869
353.781	4491
353.866	1740
353.952	2499
354.037	5106
354.122	11854
354.207	11252
354.292	4220
354.377	2134
354.462	2687
354.547	2878
354.632	2828
354.717	3780
354.802	5294
354.887	3159
354.972	2012
355.057	1776
355.142	2079
355.227	3002
355.312	4126
355.397	7097
355.482	17429
355.567	9444
355.652	6335
355.737	6469
355.822	13748
355.907	13846
355.991	3544
356.076	1850
356.161	2214
356.246	2941
356.331	2271
356.416	3665
356.501	20254
356.585	25314
356.670	4826
356.755	4098
356.840	4512
356.924	16777
357.009	55258
357.094	27009
357.179	6930
357.263	5265
357.348	4271
357.433	4241
357.517	4474
357.602	3655
357.687	3136
357.771	4908
357.856	14819
357.941	10215
358.025	11574
358.110	50736
358.195	30411
358.279	6462
358.364	4331
358.448	11758
358.533	32279
358.617	26071
358.702	21922
358.787	9542
358.871	6376
358.956	6736
359.040	2217
359.125	2220
359.209	2576
359.294	6956
359.378	13049
359.462	6185
359.547	3083
359.631	2707
359.716	1892
359.800	2248
359.885	3174
359.969	1984
360.053	2494
360.138	2039
360.222	3457
360.306	5744
360.391	5159
360.475	8197
360.559	19494
360.644	13514
360.728	9367
360.812	11791
360.896	33169
360.981	17551
361.065	10916
361.149	3614
361.233	3305
361.318	2510
361.402	3285
361.486	2929
361.570	2403
361.654	3226
361.739	5003
361.823	21181
361.907	35796
361.991	9418
362.075	4343
362.159	10185
362.243	8842
362.327	7133
362.411	12966
362.495	6140
362.580	3550
362.664	2414
362.748	2651
362.832	3325
362.916	4139
363.000	15364
363.084	38696
363.168	45511
363.252	13195
363.336	4929
363.420	6209
363.503	17392
363.587	24358
363.671	5209
363.755	3370
363.839	6348
363.923	3326
364.007	6446
364.091	6488
364.175	6335
364.258	30783
364.342	26759
364.426	38761
364.510	23795
364.594	9097
364.677	8988
364.761	26401
364.845	23756
364.929	10115
365.013	9153
365.096	6717
365.180	7500
365.264	7566
365.347	28540
365.431	15255
365.515	4833
365.598	3258
365.682	3665
365.766	3685
365.849	5257
365.933	2864
366.017	4602
366.100	2817
366.184	1836
366.267	2868
366.351	2101
366.435	2094
366.518	1732
366.602	1930
366.685	2556
366.769	2479
366.852	4791
366.936	7515
367.019	4770
367.103	2379
367.186	5936
367.270	2429
367.353	1950
367.436	2456
367.520	1775
367.603	2700
367.687	3176
367.770	6077
367.853	5248
367.937	9530
368.020	17173
368.104	4040
368.187	5497
368.270	8970
368.353	7631
368.437	6451
368.520	9857
368.603	8453
368.687	11042
368.770	22593
368.853	7114
368.936	6418
369.020	7228
369.103	3397
369.186	1718
369.269	2354
369.352	4695
369.436	6298
369.519	5071
369.602	2424
369.685	3943
369.768	3238
369.851	3483
369.934	2290
370.018	2196
370.101	5099
370.184	6014
370.267	4482
370.350	6552
370.433	8492
370.516	15830
370.599	20924
370.682	8390
370.765	16404
370.848	17758
370.931	25015
371.014	13261
371.097	3932
371.180	4051
371.263	2958
371.346	1746
371.429	3789
371.511	3988
371.594	5763
371.677	8102
371.760	8749
371.843	8341
371.926	22510
372.009	48837
372.091	26336
372.174	14356
372.257	24018
372.340	15157
372.423	10766
372.505	13753
372.588	7172
372.671	9805
372.754	26235
372.836	16886
372.919	11132
373.002	20531
373.085	10079
373.167	8249
373.250	14270
373.332	24695
373.415	30795
373.498	59134
373.580	29031
373.663	27237
373.746	41666
373.828	12953
373.911	7005
373.993	5299
374.076	16339
374.159	18416
374.241	8602
374.324	21882
374.406	17493
374.489	16868
374.571	47388
374.654	24545
374.736	10791
374.819	28933
374.901	42591
374.983	46488
375.066	11467
375.148	4563
375.231	12828
375.313	27935
375.395	12690
375.478	3269
375.560	3088
375.643	4265
375.725	9282
375.807	33762
375.890	30602
375.972	10262
376.054	7749
376.136	8694
376.219	5167
376.301	9823
376.383	30442
376.465	15637
376.548	9329
376.630	10556
376.712	25726
376.794	16918
376.877	2760
376.959	2421
377.041	2530
377.123	3831
377.205	5683
377.287	1416
377.369	2027
377.452	2414
377.534	2507
377.616	2855
377.698	1971
377.780	1471
377.862	1931
377.944	2063
378.026	1275
378.108	2205
378.190	1538
378.272	2279
378.354	1400
378.436	1037
378.518	1991
378.600	8734
378.682	8968
378.764	15794
378.846	15120
378.928	5534
379.010	7186
379.091	5375
379.173	3194
379.255	1708
379.337	1807
379.419	7877
379.501	22527
379.583	11563
379.664	2788
379.746	5913
379.828	17048
379.910	22717
379.991	20171
380.073	5473
380.155	2737
380.237	2942
380.318	1438
380.400	2355
380.482	5571
380.564	7600
380.645	6530
380.727	7919
380.809	5672
380.890	3922
380.972	2880
381.053	3053
381.135	3980
381.217	6344
381.298	18585
381.380	11211
381.461	7763
381.543	25063
381.624	36429
381.706	9076
381.787	5348
381.869	5942
381.951	12814
382.032	43206
382.113	37679
382.195	9663
382.276	7925
382.358	11177
382.439	26525
382.521	30187
382.602	44114
382.684	24619
382.765	38865
382.846	54626
382.928	97184
383.009	64183
383.090	34208
383.172	97956
383.253	163063
383.334	65601
383.416	43520
383.497	29380
383.578	16345
383.659	28940
383.741	81474
383.822	193081
383.903	126273
383.984	43438
384.066	53557
384.147	38001
384.228	10932
384.309	8271
384.390	7243
384.471	5537
384.553	6132
384.634	6847
384.715	7599
384.796	5687
384.877	5302
384.958	14215
385.039	20362
385.120	10074
385.201	5442
385.282	5928
385.363	6176
385.444	4723
385.525	7628
385.606	19157
385.687	19793
385.768	6643
385.849	6458
385.930	22239
386.011	41134
386.092	14469
386.173	4956
386.254	2610
386.335	4115
386.416	3553
386.496	9846
386.577	19184
386.658	7597
386.739	4293
386.820	4009
386.901	3125
386.981	3187
387.062	2185
387.143	4058
387.224	15870
387.304	18572
387.385	8114
387.466	3266
387.547	6002
387.627	3359
387.708	7147
387.789	25297
387.869	32936
387.950	10449
388.031	2823
388.111	-544
388.192	4626
388.273	7358
388.353	3964
388.434	3082
388.514	5484
388.595	21511
388.676	34097
388.756	19458
388.837	17337
388.917	13057
388.998	1634
389.078	2393
389.159	2417
389.239	1236
389.320	4285
389.400	3163
389.480	6292
389.561	14643
389.641	10180
389.722	3672
389.802	5387
389.883	7618
389.963	17002
390.043	12567
390.124	3733
390.204	6144
390.284	19023
390.365	13715
390.445	10576
390.525	22658
390.605	22993
390.686	11440
390.766	5759
390.846	2528
390.927	1923
391.007	1058
391.087	2773
391.167	2414
391.247	1737
391.328	2926
391.408	4256
391.488	4750
391.568	1353
391.648	3086
391.728	6087
391.808	3700
391.888	4762
391.969	9094
392.049	14989
392.129	8960
392.209	6407
392.289	17315
392.369	12125
392.449	8446
392.529	6014
392.609	5145
392.689	5718
392.769	15139
392.849	16300
392.929	10403
393.009	23634
393.089	20587
393.169	15699
393.248	40119
393.328	148918
393.408	189272
393.488	60472
393.568	15409
393.648	8697
393.728	5129
393.807	3472
393.887	4554
393.967	3406
394.047	4800
394.127	5822
394.206	8565
394.286	25886
394.366	100526
394.446	130269
394.525	39723
394.605	9816
394.685	7417
394.764	12748
394.844	19559
394.924	16741
395.003	6401
395.083	4402
395.163	3505
395.242	3756
395.322	3759
395.402	2012
395.481	3865
395.561	7276
395.640	23083
395.720	22866
395.799	22936
395.879	21949
395.958	13517
396.038	39109
396.117	133852
396.197	167155
396.276	62511
396.356	19723
396.435	12280
396.515	9970
396.594	9289
396.673	15763
396.753	43353
396.832	145318
396.912	133940
396.991	36572
397.070	9835
397.150	5260
397.229	5011
397.308	6072
397.388	11431
397.467	6788
397.546	2280
397.625	-39
397.705	3885
397.784	4186
397.863	2127
397.942	1509
398.022	1950
398.101	4666
398.180	18323
398.259	11532
398.338	3564
398.417	2600
398.497	1229
398.576	2306
398.655	-129
398.734	888
398.813	2051
398.892	5301
398.971	19455
399.050	11908
399.129	1109
399.208	814
399.287	1638
399.366	525
399.445	481
399.524	2249
399.603	430
399.682	2591
399.761	6554
399.840	21770
399.919	20644
399.998	3397
400.077	314
400.156	214
400.235	2631
400.313	847
400.392	1005
400.471	8744
400.550	17057
400.629	5105
400.708	2021
400.786	1250
400.865	3570
400.944	4496
401.023	4094
401.102	779
401.180	621
401.259	588
401.338	615
401.416	2179
401.495	1719
401.574	1231
401.652	47
401.731	2508
401.810	1004
401.888	1125
401.967	438
402.046	1234
402.124	2067
402.203	2264
402.281	2180
402.360	2109
402.438	5821
402.517	4514
402.596	1373
402.674	964
402.753	64
402.831	1370
402.910	1981
402.988	4993
403.066	19596
403.145	15365
403.223	7119
403.302	18677
403.380	16414
403.459	16162
403.537	7185
403.615	2341
403.694	54
403.772	1107
403.850	782
403.929	233
404.007	-550
404.085	2973
404.164	3007
404.242	1603
404.320	1324
404.398	4672
404.477	6902
404.555	31462
404.633	34335
404.711	7106
404.789	1794
404.868	1305
404.946	522
405.024	212
405.102	-73
405.180	822
405.258	-1058
405.336	1200
405.415	488
405.493	2925
405.571	2721
405.649	300
405.727	37
405.805	1788
405.883	2048
405.961	1374
406.039	851
406.117	936
406.195	1749
406.273	7057
406.351	28779
406.429	23253
406.507	3046
406.585	409
406.663	2138
406.740	2355
406.818	204
406.896	481
406.974	1528
407.052	1396
407.130	15418
407.208	28152
407.285	7241
407.363	195
407.441	566
407.519	346
407.596	892
407.674	3012
407.752	9253
407.830	12691
407.907	4459
407.985	743
408.063	1571
408.141	43
408.218	1973
408.296	1707
408.373	1535
408.451	2050
408.529	953
408.606	620
408.684	391
408.762	395
408.839	-241
408.917	203
408.994	505
409.072	96
409.149	652
409.227	2200
409.304	2343
409.382	1893
409.459	1297
409.537	3856
409.614	3243
409.692	1359
409.769	910
409.846	3349
409.924	4534
410.001	2079
410.079	1708
410.156	1180
410.233	1436
410.311	548
410.388	437
410.465	1329
410.543	583
410.620	1891
410.697	908
410.775	1528
410.852	-151
410.929	2382
411.006	2385
411.083	1392
411.161	2507
411.238	3656
411.315	1394
411.392	597
411.469	2328
411.547	2635
411.624	245
411.701	968
411.778	1369
411.855	2981
411.932	1305
412.009	681
412.086	1119
412.163	1368
412.240	1295
412.317	1397
412.394	1359
412.471	906
412.548	892
412.625	411
412.702	869
412.779	2160
412.856	2119
412.933	382
413.010	192
413.087	2417
413.164	7334
413.241	15208
413.318	3608
413.395	2885
413.471	2654
413.548	1475
413.625	969
413.702	303
413.779	670
413.855	632
413.932	-452
414.009	-231
414.086	-225
414.162	560
414.239	899
414.316	7669
414.393	21011
414.469	8931
414.546	1030
414.623	1232
414.699	670
414.776	1381
414.853	-192
414.929	861
415.006	1043
415.082	466
415.159	440
415.236	838
415.312	1240
415.389	1772
415.465	2727
415.542	1758
415.618	-259
415.695	2552
415.771	441
415.848	947
415.924	736
416.000	-415
416.077	485
416.153	-685
416.230	-809
416.306	-208
416.383	-383
416.459	332
416.535	-736
416.612	-278
416.688	796
416.764	529
416.841	169
416.917	-54
416.993	472
417.069	1283
417.146	1365
417.222	2837
417.298	1539
417.374	-8
417.451	1255
417.527	1011
417.603	1138
417.679	1549
417.755	962
417.831	-120
417.908	538
417.984	288
418.060	-544
418.136	2816
418.212	2688
418.288	1368
418.364	548
418.440	226
418.516	1543
418.592	2367
418.668	3781
418.744	7311
418.820	5301
418.896	1400
418.972	-174
419.048	918
419.124	2926
419.200	1927
419.276	664
419.352	-1053
419.428	659
419.504	-245
419.579	1303
419.655	1255
419.731	690
419.807	4263
419.883	7124
419.959	5407
420.034	1514
420.110	2557
420.186	11631
420.262	12304
420.337	2069
420.413	1631
420.489	776
420.565	1052
420.640	-47
420.716	676
420.792	90
420.867	1020
420.943	-122
421.019	1272
421.094	1774
421.170	1020
421.245	166
421.321	1485
421.397	765
421.472	2653
421.548	6155
421.623	6940
421.699	2899
421.774	2582
421.850	494
421.925	3537
422.001	3610
422.076	2861
422.152	3288
422.227	6142
422.302	7604
422.378	10459
422.453	18870
422.529	42756
422.604	102812
422.679	152827
422.755	127348
422.830	61077
422.905	25668
422.981	12922
423.056	7847
423.131	6188
423.207	5142
423.282	4560
423.357	6814
423.432	4056
423.508	3878
423.583	7505
423.658	6052
423.733	2806
423.808	2711
423.883	2903
423.959	2237
424.034	2090
424.109	2364
424.184	281
424.259	1605
424.334	1056
424.409	284
424.484	1144
424.559	1333
424.634	977
424.709	744
424.784	2163
424.859	864
424.934	1666
425.009	8920
425.084	17711
425.159	7218
425.234	1608
425.309	60
425.384	4071
425.459	7684
425.534	2836
425.609	725
425.683	200
425.758	305
425.833	1841
425.908	2069
425.983	4717
426.058	15465
426.132	8952
426.207	715
426.282	1774
426.357	1060
426.431	399
426.506	999
426.581	437
426.655	923
426.730	870
426.805	440
426.879	1139
426.954	377
427.029	2468
427.103	11272
427.178	29773
427.253	14888
427.327	2437
427.402	2341
427.476	7807
427.551	5141
427.625	1019
427.700	556
427.774	-202
427.849	1188
427.923	-100
427.998	-362
428.072	117
428.147	2859
428.221	10140
428.296	31130
428.370	21368
428.444	2383
428.519	1891
428.593	3529
428.667	4629
428.742	4107
428.816	5329
428.890	17704
428.965	36124
429.039	14072
429.113	5710
429.188	1920
429.262	1071
429.336	2145
429.410	7622
429.485	5895
429.559	3371
429.633	3824
429.707	1872
429.781	2667
429.855	18611
429.930	36907
430.004	16910
430.078	19251
430.152	20712
430.226	34161
430.300	45447
430.374	8348
430.448	2427
430.522	4887
430.596	17790
430.670	14441
430.744	27909
430.818	51082
430.892	13376
430.966	1481
431.040	767
431.114	-114
431.188	487
431.262	628
431.336	36
431.410	1604
431.484	4512
431.557	4767
431.631	1008
431.705	738
431.779	4094
431.853	24405
431.927	23483
432.000	2802
432.074	523
432.148	108
432.222	725
432.295	238
432.369	371
432.443	1096
432.516	9498
432.590	27930
432.664	14434
432.737	1296
432.811	-3
432.885	-475
432.958	563
433.032	-631
433.106	71
433.179	-635
433.253	189
433.326	-356
433.400	-174
433.473	389
433.547	720
433.620	-574
433.694	1897
433.767	1421
433.841	208
433.914	-285
433.988	344
434.061	195
434.134	615
434.208	-79
434.281	-483
434.355	-402
434.428	400
434.501	-221
434.575	-352
434.648	-284
434.721	-217
434.795	-290
434.868	-237
434.941	-773
435.014	294
435.088	-216
435.161	1263
435.234	2188
435.307	2879
435.381	1485
435.454	1177
435.527	1204
435.600	1716
435.673	885
435.746	633
435.819	487
435.892	289
435.966	-361
436.039	30
436.112	622
436.185	69
436.258	-212
436.331	-159
436.404	-40
436.477	-340
436.550	-56
436.623	765
436.696	-423
436.769	201
436.842	282
436.915	430
436.987	524
437.060	454
437.133	-501
437.206	-128
437.279	824
437.352	430
437.425	9
437.498	419
437.570	2786
437.643	3432
437.716	245
437.789	457
437.861	1408
437.934	4712
438.007	2485
438.080	9
438.152	533
438.225	1386
438.298	11339
438.370	38362
438.443	21475
438.516	5328
438.588	1313
438.661	119
438.734	-107
438.806	231
438.879	604
438.951	514
439.024	1855
439.096	490
439.169	134
439.241	-800
439.314	178
439.386	146
439.459	538
439.531	1936
439.604	966
439.676	842
439.749	-633
439.821	-42
439.893	-818
439.966	-180
440.038	29
440.110	918
440.183	-1
440.255	133
440.327	1139
440.400	5305
440.472	23891
440.544	21968
440.617	2220
440.689	1951
440.761	1688
440.833	4006
440.905	3236
440.978	937
441.050	408
441.122	535
441.194	-292
441.266	699
441.338	179
441.411	1103
441.483	8000
441.555	17194
441.627	4341
441.699	699
441.771	105
441.843	179
441.915	35
441.987	-147
442.059	-78
442.131	1148
442.203	873
442.275	1321
442.347	1938
442.419	2475
442.491	11845
442.563	37546
442.635	20696
442.706	7586
442.778	7621
442.850	1706
442.922	-468
442.994	574
443.066	1663
443.137	1894
443.209	774
443.281	556
443.353	3407
443.425	15245
443.496	58866
443.568	72995
443.640	30111
443.711	5096
443.783	1318
443.855	340
443.926	406
443.998	437
444.070	758
444.141	53
444.213	1571
444.285	2776
444.356	1105
444.428	1413
444.499	468
444.571	-146
444.642	-13
444.714	817
444.785	2008
444.857	1014
444.928	3937
445.000	2990
445.071	2454
445.143	3709
445.214	2260
445.285	3765
445.357	9479
445.428	34010
445.500	93364
445.571	70524
445.642	38722
445.714	12138
445.785	8562
445.856	2485
445.928	2628
445.999	2181
446.070	998
446.141	1714
446.213	3166
446.284	1106
446.355	806
446.426	782
446.497	-54
446.569	585
446.640	1254
446.711	2643
446.782	14
446.853	390
446.924	880
446.995	99
447.066	369
447.138	1298
447.209	1250
447.280	-187
447.351	-756
447.422	-364
447.493	644
447.564	642
447.635	1129
447.706	501
447.777	33
447.847	-319
447.918	398
447.989	451
448.060	1048
448.131	1820
448.202	3030
448.273	2762
448.344	245
448.414	973
448.485	449
448.556	208
448.627	-275
448.698	1307
448.768	-501
448.839	-65
448.910	482
448.981	1775
449.051	495
449.122	649
449.193	-453
449.263	700
449.334	-253
449.405	785
449.475	3329
449.546	2721
449.616	1429
449.687	1677
449.758	917
449.828	-733
449.899	-175
449.969	-204
450.040	-295
450.110	408
450.181	20
450.251	-265
450.322	-453
450.392	507
450.463	543
450.533	-163
450.604	48
450.674	-170
450.744	-98
450.815	154
450.885	858
450.955	449
451.026	-21
451.096	-401
451.166	126
451.237	1009
451.307	4952
451.377	2193
451.447	142
451.518	68
451.588	400
451.658	992
451.728	522
451.799	3645
451.869	6983
451.939	2084
452.009	614
452.079	-117
452.149	545
452.219	1290
452.289	4365
452.360	4707
452.430	672
452.500	908
452.570	999
452.640	2132
452.710	5345
452.780	9397
452.850	6203
452.920	5544
452.990	1951
453.060	437
453.129	1363
453.199	2125
453.269	4932
453.339	15130
453.409	25377
453.479	18599
453.549	30245
453.619	34633
453.688	17575
453.758	2575
453.828	1136
453.898	897
453.968	658
454.037	130
454.087	65
454.107	31
454.168	428
454.177	481
454.247	571
454.249	553
454.316	-98
454.330	19
454.386	423
454.411	1217
454.456	2468
454.492	3391
454.525	4252
454.574	3046
454.595	2526
454.655	866
454.665	591
454.734	954
454.736	970
454.804	849
454.817	1650
454.873	4810
454.898	5582
454.943	7025
454.979	4367
455.013	1958
455.060	972
455.082	569
455.141	878
455.152	887
455.221	2909
455.222	2970
455.291	6389
455.303	5894
455.360	3789
455.384	3766
455.430	3814
455.465	3236
455.499	2583
455.546	3552
455.569	3912
455.627	4068
455.638	4129
455.707	715
455.708	719
455.777	586
455.789	685
455.846	922
455.869	931
455.916	936
455.950	839
455.985	713
456.031	585
456.054	558
456.112	559
456.124	567
456.193	300
456.193	291
456.262	1147
456.274	1177
456.332	1206
456.355	1164
456.401	984
456.436	711
456.470	467
456.516	390
456.540	376
456.597	307
456.609	291
456.678	79
456.678	70
456.747	395
456.759	318
456.817	317
456.840	414
456.886	247
456.920	579
456.955	980
457.001	620
457.024	442
457.082	762
457.093	835
457.162	562
457.163	571
457.232	697
457.243	828
457.301	1212
457.324	837
457.370	320
457.405	605
457.439	956
457.485	1034
457.508	989
457.566	731
457.577	731
457.646	1622
457.647	1635
457.715	2494
457.727	2688
457.784	3772
457.808	4607
457.853	5466
457.889	7471
457.922	8713
457.969	5795
457.991	5350
458.050	6011
458.060	6096
458.129	9733
458.130	9882
458.198	11081
458.211	9759
458.267	5656
458.292	4049
458.336	2525
458.372	2662
458.405	3389
458.453	4610
458.474	5456
458.533	9916
458.543	10224
458.611	16236
458.614	16351
458.680	12760
458.694	10157
458.749	3820
458.775	2765
458.818	1675
458.855	1627
458.887	1469
458.936	1246
458.955	1187
459.016	1096
459.024	1090
459.093	1152
459.097	1147
459.162	1070
459.177	1208
459.230	1802
459.257	2089
459.299	2117
459.338	1743
459.368	1769
459.418	2289
459.437	2282
459.499	1678
459.505	1635
459.574	1513
459.579	1507
459.643	1186
459.659	1081
459.711	1132
459.740	1383
459.780	1526
459.820	1358
459.849	1393
459.900	1733
459.917	1752
459.981	1819
459.986	1832
460.054	1883
460.061	1934
460.123	2376
460.141	2317
460.191	2531
460.222	2903
460.260	3164
460.302	3609
460.328	3572
460.382	3430
460.397	3390
460.462	1886
460.465	1922
460.534	3969
460.543	4152
460.602	6903
460.623	8235
460.671	12229
460.703	16827
460.739	16203
460.783	14350
460.808	13660
460.864	4406
460.876	3247
460.944	1928
460.945	1912
461.013	1606
461.024	1622
461.081	1615
461.104	1833
461.150	2077
461.184	2001
461.218	2105
461.264	1971
461.286	1748
461.345	1344
461.355	1381
461.423	1761
461.425	1766
461.491	1615
461.505	1673
461.559	2766
461.585	3278
461.628	4663
461.665	5871
461.696	6026
461.745	7307
461.764	6981
461.825	4130
461.832	4091
461.901	2495
461.905	2500
461.969	1815
461.985	1603
462.037	2203
462.065	2411
462.105	2140
462.145	2332
462.173	2909
462.225	3454
462.241	3507
462.305	4690
462.310	4615
462.378	3210
462.385	2934
462.446	2281
462.465	2079
462.514	1796
462.545	1887
462.582	1589
462.625	1348
462.650	1649
462.705	2165
462.718	2097
462.785	1529
462.786	1534
462.854	2315
462.865	2348
462.922	2637
462.945	3020
462.990	2752
463.025	2164
463.058	2029
463.104	1684
463.126	1538
463.184	1553
463.194	1634
463.262	2147
463.264	2159
463.330	2052
463.344	2115
463.398	2785
463.424	2825
463.466	2146
463.504	1926
463.533	1944
463.583	1473
463.601	1673
463.663	2750
463.669	2741
463.737	2573
463.743	2589
463.805	4377
463.823	4761
463.873	5859
463.903	6661
463.940	6628
463.982	6919
464.008	5985
464.062	3266
464.076	3105
464.142	1804
464.144	1803
464.211	2260
464.221	2343
464.279	2173
464.301	2201
464.347	2387
464.381	2369
464.414	2487
464.461	2852
464.482	2968
464.540	2940
464.550	2854
464.617	2507
464.620	2491
464.685	3309
464.699	3487
464.753	4633
464.779	5183
464.820	5691
464.859	6309
464.888	5967
464.938	5057
464.956	5060
465.018	5037
465.023	5018
465.091	4840
465.098	4811
465.158	3502
465.177	3070
465.226	3737
465.257	4251
465.293	4020
465.336	3633
465.361	3983
465.416	4792
465.428	5161
465.495	7186
465.496	7205
465.563	8566
465.575	8815
465.631	10139
465.654	10872
465.698	7577
465.734	4433
465.765	4382
465.813	4160
465.833	3975
465.893	3775
465.900	3810
465.968	4038
465.972	4046
466.035	3659
466.052	3565
466.102	3646
466.131	3692
466.170	3869
466.210	4046
466.237	4093
466.290	4156
466.304	4106
466.369	3862
466.372	3886
466.439	4396
466.449	4464
466.506	5056
466.528	5311
466.573	6325
466.607	7026
466.641	9183
466.687	12207
466.708	12819
466.766	14461
466.775	13510
466.842	6305
466.845	5952
466.909	4795
466.925	4537
466.977	5068
467.004	5389
467.044	5156
467.083	4894
467.111	5865
467.163	7707
467.178	7804
467.242	8158
467.245	8096
467.312	6618
467.321	6417
467.379	6709
467.400	6801
467.446	6492
467.480	6254
467.559	7095
467.638	6285
467.717	5617
467.796	7079
467.875	6201
467.955	5935
468.034	10343
468.113	15746
468.192	19556
468.271	6484
468.350	6828
468.429	7298
468.508	7415
468.588	6932
468.667	5006
468.746	4919
468.825	5405
468.904	5536
468.983	5820
469.062	7813
469.141	7598
469.220	4747
469.299	5354
469.378	5402
469.456	7951
469.535	7402
469.614	6246
469.693	6652
469.772	7514
469.851	8839
469.930	6929
470.009	6219
470.088	5868
470.166	8316
470.245	10089
470.324	10624
470.403	6882
470.482	5862
470.560	5597
470.639	5902
470.718	6651
470.797	5554
470.875	6708
470.954	6593
471.033	7543
471.111	5572
471.190	4674
471.269	5242
471.347	4666
471.426	5161
471.505	5836
471.583	5997
471.662	6749
471.740	5983
471.819	5775
471.898	5841
471.976	5638
472.055	4890
472.133	5178
472.212	6499
472.290	6017
472.369	5074
472.447	5503
472.526	4925
472.604	5128
472.683	4778
472.761	5305
472.839	5578
472.918	4911
472.996	5503
473.075	5448
473.153	4977
473.231	4890
473.310	5807
473.388	5268
473.466	5415
473.545	6312
473.623	7324
473.701	6751
473.780	4937
473.858	4483
473.936	5887
474.014	5043
474.093	5290
474.171	6664
474.249	7444
474.327	6128
474.405	4713
474.484	4310
474.562	4626
474.640	3853
474.718	5420
474.796	4236
474.874	4450
474.952	4281
475.030	4673
475.108	4675
475.187	5267
475.265	5667
475.343	7388
475.421	7760
475.499	4995
475.577	5647
475.655	6038
475.733	8340
475.811	12139
475.889	10947
475.966	6697
476.044	4696
476.122	6413
476.200	6054
476.278	5260
476.356	4192
476.434	4810
476.512	5608
476.590	6661
476.667	6321
476.745	3687
476.823	4445
476.901	5502
476.979	4154
477.056	4279
477.134	3947
477.212	4670
477.290	4235
477.367	4476
477.445	4039
477.523	3608
477.601	3551
477.678	3641
477.756	4891
477.834	4666
477.911	4379
477.989	4236
478.066	3931
478.144	4608
478.222	5156
478.299	7787
478.377	5541
478.454	4345
478.532	3436
478.609	3249
478.687	5355
478.764	3682
478.842	4303
478.919	3866
478.997	3474
479.074	2671
479.152	4211
479.229	4897
479.307	3005
479.384	2452
479.461	3597
479.539	2647
479.616	3720
479.694	3887
479.771	4513
479.848	4069
479.926	4278
480.003	5422
480.080	3095
480.157	4117
480.235	2737
480.312	3300
480.389	3902
480.467	4746
480.544	5872
480.621	3829
480.698	3796
480.775	4536
480.853	3837
480.930	3165
481.007	4290
481.084	3901
481.161	4628
481.238	4726
481.315	3452
481.392	3082
481.470	3152
481.547	3607
481.624	3213
481.701	3945
481.778	3946
481.855	3655
481.932	5077
482.009	7667
482.086	4925
482.163	4705
482.240	5604
482.317	7649
482.393	6288
482.470	3372
482.547	3788
482.624	3019
482.701	3690
482.778	3540
482.855	3385
482.932	3240
483.009	2517
483.085	3524
483.162	3906
483.239	3603
483.316	3689
483.393	3359
483.469	3155
483.546	3672
483.623	3670
483.699	2627
483.776	3342
483.853	4168
483.930	5513
484.006	11322
484.083	18581
484.160	16802
484.236	27567
484.313	19815
484.389	14932
484.466	13942
484.543	13074
484.619	12260
484.696	14003
484.772	13367
484.849	13350
484.925	12128
485.002	12867
485.078	12175
485.155	12404
485.231	10867
485.308	11645
485.384	11162
485.461	12912
485.537	15204
485.614	16460
485.690	11648
485.766	10213
485.843	10797
485.919	12707
485.995	13126
486.072	9864
486.148	10027
486.224	10189
486.301	9706
486.377	10417
486.453	10359
486.530	11990
486.606	16069
486.682	16500
486.758	15703
486.835	16318
486.911	14300
486.987	19482
487.063	20936
487.139	25187
487.215	19417
487.292	11940
487.368	11468
487.444	12901
487.520	13977
487.596	14257
487.672	22331
487.748	46531
487.824	57488
487.900	17729
487.976	11764
488.052	10146
488.128	12922
488.204	10210
488.280	10174
488.356	11195
488.432	16233
488.508	21013
488.584	10254
488.660	8977
488.736	10084
488.812	9905
488.888	12443
488.964	15518
489.039	24113
489.115	32788
489.191	18101
489.267	9689
489.343	9294
489.418	8552
489.494	8827
489.570	6968
489.646	8585
489.722	8958
489.797	8237
489.873	10536
489.949	15930
490.024	13585
490.100	7537
490.176	7915
490.251	9193
490.327	10736
490.403	7613
490.478	7245
490.554	7028
490.629	7168
490.705	7236
490.781	7561
490.856	5325
490.932	7918
491.007	7462
491.083	7289
491.158	6244
491.234	9048
491.309	12599
491.385	11673
491.460	6651
491.536	7651
491.611	7090
491.686	7722
491.762	8951
491.837	15671
491.913	24482
491.988	31043
492.063	35802
492.139	10364
492.214	7342
492.289	7011
492.365	5731
492.440	6997
492.515	6111
492.590	6704
492.666	5331
492.741	7566
492.816	7510
492.891	5668
492.967	6410
493.042	5057
493.117	5249
493.192	5174
493.267	6065
493.342	7479
493.418	9402
493.493	5911
493.568	5086
493.643	5022
493.718	6073
493.793	8058
493.868	8799
493.943	6227
494.018	6157
494.093	4905
494.168	4614
494.243	3741
494.318	4534
494.393	5225
494.468	4212
494.543	4431
494.618	6064
494.693	5637
494.768	5125
494.842	5378
494.917	5392
494.992	4570
495.067	3926
495.142	4290
495.217	3911
495.292	4290
495.366	5432
495.441	5012
495.516	7875
495.591	11642
495.665	31307
495.740	61898
495.815	21251
495.890	5972
495.964	4251
496.039	7393
496.114	5883
496.188	6671
496.263	6841
496.338	6373
496.412	5604
496.487	6176
496.561	6615
496.636	6669
496.710	5384
496.785	5796
496.860	7017
496.934	5854
497.009	6274
497.083	6011
497.158	6311
497.232	6920
497.307	8355
497.381	6877
497.455	8367
497.530	8015
497.604	6601
497.679	6598
497.753	9463
497.827	10716
497.902	9928
497.976	13642
498.050	33635
498.125	95655
498.199	82460
498.273	15751
498.348	11226
498.422	10427
498.496	10222
498.570	9842
498.645	6482
498.719	5370
498.793	7611
498.867	10882
498.941	15248
499.016	44628
499.090	96535
499.164	29150
499.238	5864
499.312	6535
499.386	7560
499.460	6723
499.534	7110
499.609	8707
499.683	10043
499.757	8891
499.831	21556
499.905	66966
499.979	51611
500.053	9373
500.127	9321
500.201	8078
500.275	6547
500.349	6332
500.422	6633
500.496	11636
500.570	21086
500.644	43841
500.718	62651
500.792	12660
500.866	6272
500.940	7080
501.013	4502
501.087	5511
501.161	10379
501.235	12367
501.309	24524
501.382	56801
501.456	45081
501.530	11145
501.603	17160
501.677	7761
501.751	4163
501.825	5883
501.898	10234
501.972	23713
502.046	13551
502.119	5383
502.193	11880
502.266	24364
502.340	11301
502.413	12674
502.487	20179
502.561	10497
502.634	4864
502.708	4479
502.781	3927
502.855	3535
502.928	3183
503.002	3142
503.075	2806
503.149	3429
503.222	3667
503.295	2998
503.369	4680
503.442	6309
503.516	18817
503.589	37322
503.662	21696
503.736	9627
503.809	19435
503.882	15697
503.956	26152
504.029	23608
504.102	26735
504.175	32210
504.249	8652
504.322	5440
504.395	4698
504.468	3979
504.542	3228
504.615	2949
504.688	3597
504.761	2656
504.834	4129
504.907	5626
504.980	7081
505.053	4594
505.127	4139
505.200	7136
505.273	4469
505.346	3438
505.419	2587
505.492	3539
505.565	1637
505.638	2851
505.711	2738
505.784	2442
505.857	2408
505.930	3831
506.003	2040
506.076	4055
506.149	2898
506.221	3967
506.294	6336
506.367	11098
506.440	31344
506.513	15223
506.586	4593
506.659	2515
506.731	3807
506.804	4303
506.877	4011
506.950	4001
507.022	3809
507.095	2336
507.168	4199
507.241	3736
507.313	1993
507.386	2857
507.459	4565
507.531	2707
507.604	2610
507.677	3599
507.749	2495
507.822	5083
507.894	9909
507.967	11844
508.040	6893
508.112	6701
508.185	5537
508.257	4739
508.330	8116
508.402	4992
508.475	4382
508.547	4632
508.620	4818
508.692	6125
508.765	4954
508.837	3731
508.909	4569
508.982	3880
509.054	4953
509.127	4120
509.199	3969
509.271	4356
509.344	3546
509.416	3465
509.488	4928
509.560	4949
509.633	4380
509.705	4288
509.777	4681
509.849	5292
509.922	4215
509.994	3703
510.066	5029
510.138	4512
510.210	11592
510.283	8851
510.355	7948
510.427	6729
510.499	6162
510.571	6334
510.643	5472
510.715	8865
510.787	6485
510.859	6731
510.931	6350
511.003	9118
511.076	8494
511.148	4815
511.219	5657
511.291	6516
511.363	6828
511.435	4966
511.507	4859
511.579	5988
511.651	5611
511.723	4787
511.795	4971
511.867	4934
511.939	5510
512.010	7417
512.082	6423
512.154	4994
512.226	5623
512.298	9501
512.369	12027
512.441	9497
512.513	8567
512.585	5433
512.656	7885
512.728	7385
512.800	5893
512.871	6108
512.943	5997
513.015	5185
513.086	6103
513.158	6346
513.230	5941
513.301	7120
513.373	9269
513.444	5559
513.516	5537
513.588	5324
513.659	5885
513.731	6788
513.802	5708
513.874	11974
513.945	14307
514.016	6248
514.088	5702
514.159	5900
514.231	8342
514.302	10524
514.374	7218
514.445	6587
514.516	10740
514.588	6808
514.659	6375
514.730	8621
514.802	8216
514.873	5339
514.944	7699
515.016	6586
515.087	6593
515.158	7143
515.229	8902
515.301	5989
515.372	6354
515.443	5377
515.514	5587
515.585	3786
515.656	5718
515.728	5587
515.799	4848
515.870	5816
515.941	5194
516.012	6299
516.083	8160
516.154	7768
516.225	10008
516.296	8319
516.367	7624
516.438	8632
516.509	11972
516.580	20712
516.651	62064
516.722	168714
516.793	59058
516.864	13310
516.935	13275
517.006	16241
517.077	24752
517.148	62778
517.219	203077
517.289	240718
517.360	51224
517.431	16452
517.502	8785
517.573	8589
517.643	8010
517.714	8810
517.785	8965
517.856	8845
517.926	11336
517.997	11014
518.068	13793
518.138	22844
518.209	41250
518.280	146672
518.350	394180
518.421	116922
518.492	15133
518.562	9253
518.633	9848
518.703	8763
518.774	17734
518.845	39556
518.915	35106
518.986	11179
519.056	9413
519.127	15153
519.197	21896
519.268	38665
519.338	21680
519.408	8693
519.479	10280
519.549	7425
519.620	6458
519.690	5304
519.760	6118
519.831	6067
519.901	5276
519.971	5304
520.042	5433
520.112	4839
520.182	7540
520.253	6958
520.323	4907
520.393	7012
520.463	10663
520.534	5185
520.604	13307
520.674	7025
520.744	6509
520.814	12846
520.885	13701
520.955	15045
521.025	40445
521.095	15391
521.165	5251
521.235	4942
521.305	4449
521.375	4451
521.445	5370
521.515	5644
521.585	7940
521.655	6101
521.725	6614
521.795	5141
521.865	3470
521.935	7298
522.005	4813
522.075	4038
522.145	5129
522.215	4308
522.285	6556
522.355	6679
522.424	11782
522.494	9268
522.564	7405
522.634	15618
522.704	35696
522.774	12355
522.843	5164
522.913	5098
522.983	4892
523.053	4679
523.122	5283
523.192	6741
523.262	19060
523.331	13691
523.401	5465
523.471	3542
523.540	4842
523.610	3300
523.680	4459
523.749	4719
523.819	4374
523.888	3876
523.958	3198
524.027	4278
524.097	3822
524.166	4754
524.236	3910
524.305	4710
524.375	3244
524.444	3746
524.514	5009
524.583	3659
524.653	3283
524.722	5217
524.791	3147
524.861	4460
524.930	3616
524.999	5024
525.069	5493
525.138	4883
525.207	5271
525.277	4261
525.346	4462
525.415	4213
525.484	4279
525.554	4048
525.623	4954
525.692	3572
525.761	4140
525.830	4930
525.900	5848
525.969	8466
526.038	13735
526.107	28635
526.176	74119
526.245	52126
526.314	20310
526.383	41281
526.452	50943
526.522	88313
526.591	74801
526.660	18225
526.729	10773
526.797	16538
526.867	37149
526.935	128366
527.004	197420
527.073	88268
527.142	7735
527.211	4945
527.280	5560
527.349	5082
527.418	3344
527.487	3864
527.555	2637
527.624	3363
527.693	2645
527.762	4243
527.831	2049
527.899	3324
527.968	3251
528.037	2653
528.106	4886
528.174	6272
528.243	4602
528.312	6399
528.380	7190
528.449	3259
528.518	4380
528.586	1459
528.655	3791
528.723	3359
528.792	2224
528.861	1929
528.929	2909
528.998	3676
529.066	2999
529.135	3315
529.203	2821
529.272	1840
529.340	2944
529.409	3875
529.477	2978
529.545	2480
529.614	5272
529.682	2927
529.751	4433
529.819	5795
529.887	3638
529.956	3043
530.024	3891
530.092	1725
530.161	4238
530.229	5997
530.297	2325
530.365	4156
530.434	2246
530.502	3006
530.570	2510
530.638	1192
530.707	4631
530.775	4793
530.843	2921
530.911	2972
530.979	3994
531.047	3146
531.115	3629
531.183	3019
531.252	3641
531.320	2951
531.388	3081
531.456	3580
531.524	1688
531.592	4647
531.660	5107
531.728	2470
531.796	2340
531.864	3704
531.932	2487
532.000	2389
532.067	3192
532.135	4556
532.203	4351
532.271	3641
532.339	6967
532.407	13511
532.475	8349
532.542	5397
532.610	6679
532.678	9873
532.746	36267
532.814	69832
532.881	16910
532.949	3795
533.017	4799
533.084	3282
533.152	3439
533.220	4248
533.287	3307
533.355	3805
533.423	3905
533.490	2947
533.558	4034
533.625	4325
533.693	4176
533.761	3387
533.828	4481
533.896	3484
533.963	6508
534.031	7342
534.098	10762
534.166	5342
534.233	3892
534.300	4165
534.368	4117
534.435	3954
534.503	4483
534.570	4374
534.637	4180
534.705	4859
534.772	6755
534.840	10050
534.907	37297
534.974	39024
535.041	6563
535.109	4964
535.176	3951
535.243	4841
535.310	5130
535.378	4118
535.445	4809
535.512	3843
535.579	4426
535.646	4014
535.714	4880
535.781	6073
535.848	5449
535.915	5380
535.982	3286
536.049	4133
536.116	6216
536.183	3862
536.250	4631
536.317	4302
536.384	5218
536.451	6775
536.518	6659
536.585	4345
536.652	7053
536.719	7670
536.786	4850
536.853	5395
536.920	8458
536.987	11125
537.053	12366
537.120	40901
537.187	31659
537.254	4801
537.321	4047
537.388	6290
537.454	4493
537.521	4360
537.588	4774
537.654	6176
537.721	6212
537.788	5816
537.855	5038
537.921	5144
537.988	5111
538.055	5233
538.121	4754
538.188	5343
538.254	6635
538.321	9878
538.388	7544
538.454	5783
538.521	4733
538.587	4697
538.654	5234
538.720	5247
538.787	5182
538.853	5027
538.920	6250
538.986	4943
539.053	5426
539.119	5953
539.185	6086
539.252	7210
539.318	7248
539.385	7724
539.451	6145
539.517	7369
539.583	9006
539.650	15182
539.716	29806
539.782	9084
539.849	4947
539.915	5756
539.981	4855
540.047	5421
540.114	5427
540.180	6176
540.246	5245
540.312	7641
540.378	10739
540.444	12821
540.510	15791
540.576	34997
540.643	11381
540.709	4850
540.775	5781
540.841	5762
540.907	7565
540.973	9487
541.039	8568
541.105	8117
541.171	6461
541.237	5874
541.303	7311
541.369	7732
541.435	7631
541.500	10086
541.566	6093
541.632	5805
541.698	5392
541.764	6884
541.830	5135
541.896	4118
541.961	6302
542.027	5538
542.093	5348
542.159	6683
542.224	6052
542.290	8449
542.356	10019
542.421	11480
542.487	6252
542.553	6124
542.618	6678
542.684	6374
542.750	6872
542.815	8707
542.881	11021
542.947	32371
543.012	22449
543.078	5904
543.143	5628
543.209	7115
543.274	6364
543.340	8832
543.405	14150
543.471	19863
543.536	7730
543.602	7057
543.667	4712
543.732	7701
543.798	5308
543.863	6592
543.928	5559
543.994	5147
544.059	6252
544.124	5636
544.190	6392
544.255	5903
544.320	6499
544.386	6031
544.451	7762
544.516	9091
544.581	9951
544.646	22842
544.712	29976
544.777	9228
544.842	7895
544.907	6699
544.972	7382
545.037	6765
545.102	7085
545.168	7253
545.233	7583
545.298	7458
545.363	8678
545.428	9615
545.493	15036
545.558	26169
545.623	12123
545.688	6895
545.753	7779
545.818	7433
545.883	8117
545.947	7472
546.012	8624
546.077	7746
546.142	8783
546.207	9503
546.272	9927
546.337	8831
546.401	9828
546.466	8994
546.531	8306
546.596	10273
546.661	8764
546.725	9847
546.790	9231
546.855	9806
546.919	10070
546.984	11397
547.049	11516
547.113	13525
547.178	12920
547.243	15544
547.307	18000
547.372	19299
547.436	18269
547.501	18395
547.565	20099
547.630	19833
547.695	18691
547.759	18008
547.823	18801
547.888	18903
547.952	18909
548.017	20545
548.081	20626
548.146	20817
548.210	20318
548.274	21410
548.339	21479
548.403	19352
548.468	19190
548.532	18309
548.596	19443
548.660	18268
548.725	20935
548.789	21953
548.853	22749
548.917	20749
548.982	21012
549.046	20060
549.110	17878
549.174	17701
549.238	20088
549.303	20912
549.367	23715
549.431	20698
549.495	20963
549.559	20536
549.623	22909
549.687	25724
549.751	27882
549.815	28144
549.879	29542
549.943	26728
550.007	29879
550.071	28594
550.135	29162
550.199	24382
550.263	25695
550.327	25474
550.391	25347
550.455	26847
550.519	28453
550.582	31059
550.646	34894
550.710	35372
550.774	33256
550.838	33692
550.901	32721
550.965	35747
551.029	36239
551.093	39521
551.156	41794
551.220	48325
551.284	53990
551.347	42502
551.411	43391
551.475	41554
551.538	36892
551.602	34409
551.666	31403
551.729	30534
551.793	31471
551.856	31518
551.920	30097
551.983	30914
552.047	30945
552.110	30209
552.174	30941
552.237	31406
552.301	29153
552.364	29243
552.428	27961
552.491	28470
552.554	30051
552.618	29938
552.681	31403
552.745	30244
552.808	37418
552.871	39548
552.934	32474
552.998	29524
553.061	28673
553.124	28534
553.187	29926
553.251	27961
553.314	28847
553.377	29463
553.440	31641
553.503	34158
553.567	36421
553.630	32465
553.693	31632
553.756	32224
553.819	31411
553.882	31355
553.945	30822
554.008	31337
554.071	31015
554.134	32657
554.197	31034
554.260	30387
554.323	31964
554.386	30560
554.449	32191
554.512	33566
554.575	31312
554.638	31404
554.701	30827
554.764	30279
554.827	29974
554.889	28037
554.952	27950
555.015	26612
555.078	26660
555.141	26867
555.203	26156
555.266	26225
555.329	27194
555.391	25282
555.454	25890
555.517	25195
555.580	23257
555.642	22274
555.705	22097
555.768	23224
555.830	22682
555.893	20908
555.955	21844
556.018	20769
556.080	19877
556.143	20697
556.206	20488
556.268	20454
556.330	19457
556.393	19968
556.455	18529
556.518	20053
556.580	19640
556.643	17739
556.705	16585
556.767	16540
556.830	18133
556.892	18429
556.955	18579
557.017	17274
557.079	16934
557.142	15375
557.204	15848
557.266	19951
557.328	17152
557.391	14479
557.453	13935
557.515	14029
557.577	14707
557.639	14553
557.701	12854
557.764	12594
557.826	14149
557.888	13732
557.950	13654
558.012	15484
558.074	18444
558.136	31580
558.198	59298
558.260	24156
558.322	13645
558.384	14435
558.446	14883
558.508	15448
558.570	18622
558.632	26579
558.694	35597
558.756	49745
558.818	117804
558.880	239839
558.942	71898
559.003	60520
559.065	29225
559.127	15585
559.189	16544
559.251	20768
559.312	29700
559.374	60267
559.436	163582
559.498	70640
559.559	16528
559.621	16386
559.683	21695
559.744	32553
559.806	82803
559.868	107373
559.929	23297
559.991	17404
560.052	25453
560.114	59941
560.176	38027
560.237	36422
560.299	51639
560.360	14038
560.422	10094
560.483	9333
560.545	9356
560.606	9735
560.667	9365
560.729	8889
560.790	7948
560.852	8256
560.913	8137
560.974	7794
561.036	8921
561.097	9057
561.158	8505
561.220	9680
561.281	8492
561.342	8593
561.403	10580
561.465	10934
561.526	18515
561.587	20171
561.648	9366
561.709	8831
561.771	9504
561.832	8926
561.893	8510
561.954	9025
562.015	8906
562.076	8787
562.137	9531
562.198	8371
562.259	9164
562.320	9888
562.381	9697
562.442	9682
562.503	9263
562.564	9273
562.625	8113
562.686	9354
562.747	7890
562.808	9096
562.869	9136
562.930	9815
562.991	8934
563.051	9466
563.112	9471
563.173	8996
563.234	7519
563.294	8645
563.355	8696
563.416	8813
563.477	8474
563.537	8141
563.598	9055
563.659	8381
563.720	8854
563.780	8366
563.841	8221
563.901	8830
563.962	8723
564.023	8559
564.083	9037
564.144	8683
564.204	8524
564.265	8915
564.325	9036
564.386	11346
564.446	10434
564.507	8400
564.567	8783
564.628	9388
564.688	8798
564.749	8438
564.809	9009
564.869	9657
564.930	8220
564.990	9275
565.050	8001
565.111	8525
565.171	7754
565.231	8772
565.292	8735
565.352	8784
565.412	8805
565.472	9040
565.532	8791
565.593	8578
565.653	8297
565.713	8308
565.773	9607
565.833	8684
565.893	10063
565.953	7884
566.013	9294
566.074	8715
566.134	9577
566.194	10245
566.254	11406
566.314	9542
566.374	7800
566.434	9035
566.494	8019
566.554	8563
566.614	9382
566.673	9122
566.733	8751
566.793	9031
566.853	9143
566.913	8869
566.973	9469
567.033	9629
567.092	8433
567.152	9095
567.212	8939
567.272	8945
567.331	9694
567.391	8714
567.451	9963
567.511	10555
567.570	10823
567.630	9267
567.690	9311
567.749	8623
567.809	9297
567.868	10431
567.928	9411
567.988	9801
568.047	10972
568.107	12253
568.166	14865
568.226	21950
568.285	27806
568.345	19162
568.404	14428
568.464	12718
568.523	11806
568.582	13302
568.642	14971
568.701	19267
568.761	27438
568.820	43791
568.879	34817
568.939	21328
568.998	16090
569.057	12846
569.116	10736
569.176	10090
569.235	8414
569.294	9772
569.353	7983
569.413	8466
569.472	8696
569.531	8796
569.590	7645
569.649	7699
569.708	7628
569.767	8358
569.827	9760
569.886	8100
569.945	7479
570.004	8425
570.063	8088
570.122	9194
570.181	8738
570.240	8594
570.299	8313
570.358	8865
570.417	8634
570.475	7446
570.534	8628
570.593	8248
570.652	8041
570.711	8214
570.770	7376
570.829	8673
570.887	8017
570.946	9023
571.005	7574
571.064	7851
571.122	7791
571.181	7368
571.240	7071
571.299	7183
571.357	8390
571.416	6475
571.475	7905
571.533	6986
571.592	7439
571.650	8069
571.709	7202
571.768	7699
571.826	7683
571.885	7854
571.943	6959
572.002	7380
572.060	6984
572.119	6874
572.177	6889
572.236	6661
572.294	7347
572.352	7312
572.411	6370
572.469	6424
572.528	6412
572.586	6990
572.644	7634
572.703	8468
572.761	6824
572.819	6832
572.877	7240
572.936	7382
572.994	6204
573.052	6324
573.110	5970
573.169	7400
573.227	6388
573.285	6629
573.343	6530
573.401	6919
573.459	7295
573.517	6009
573.576	6659
573.634	6531
573.692	6607
573.750	7117
573.808	6330
573.866	6338
573.924	6732
573.982	7284
574.040	6764
574.098	6432
574.155	5592
574.213	6780
574.271	5340
574.329	6462
574.387	6796
574.445	6248
574.503	5324
574.560	5393
574.618	6054
574.676	4629
574.734	6068
574.792	5703
574.849	6614
574.907	5228
574.965	5242
575.022	5350
575.080	5561
575.138	5443
575.195	5929
575.253	5590
575.311	6148
575.368	6282
575.426	5288
575.483	5636
575.541	5064
575.598	5686
575.656	5780
575.713	5776
575.771	5290
575.828	5359
575.886	5590
575.943	6693
576.001	5827
576.058	6025
576.115	5791
576.173	5810
576.230	6309
576.287	7132
576.345	6331
576.402	5769
576.459	5803
576.517	5785
576.574	6119
576.631	6051
576.688	5980
576.746	5892
576.803	6728
576.860	6390
576.917	6098
576.974	6362
577.031	5774
577.089	4705
577.146	5714
577.203	6181
577.260	6206
577.317	6051
577.374	5886
577.431	6801
577.488	5852
577.545	5763
577.602	6105
577.659	5356
577.716	6081
577.773	5234
577.830	5616
577.886	5524
577.943	5461
578.000	5227
578.057	5947
578.114	6102
578.171	5754
578.227	5240
578.284	5224
578.341	6049
578.398	5168
578.454	5789
578.511	6275
578.568	5849
578.625	5617
578.681	5483
578.738	5763
578.794	6157
578.851	6454
578.908	6090
578.964	7700
579.021	7381
579.077	6860
579.134	6385
579.190	5779
579.247	5819
579.303	5315
579.360	6369
579.416	5089
579.473	5613
579.529	5944
579.586	6075
579.642	5958
579.698	5479
579.755	6368
579.811	5475
579.867	6396
579.924	5288
579.980	5258
580.036	5906
580.093	5847
580.149	6167
580.205	6405
580.261	5607
580.317	7254
580.374	6473
580.430	6660
580.486	6051
580.542	6140
580.598	5692
580.619	5930
580.654	6347
580.692	6178
580.710	6096
580.765	7288
580.767	7328
580.823	6928
580.838	6815
580.879	6512
580.911	6362
580.935	6262
580.984	5804
580.991	5741
581.047	6818
581.057	6622
581.103	5794
581.130	6387
581.159	6986
581.203	6250
581.215	6057
581.270	6265
581.276	6211
581.326	5688
581.349	5971
581.382	6368
581.422	6872
581.438	7086
581.494	6315
581.494	6323
581.550	7208
581.567	7130
581.606	6996
581.640	6780
581.661	6642
581.713	6812
581.717	6822
581.773	6977
581.786	6792
581.829	6208
581.859	6864
581.885	7451
581.932	6962
581.940	6853
581.996	7406
582.004	7539
582.052	8299
582.077	7582
582.107	6745
582.150	7637
582.163	7927
582.219	7929
582.223	7917
582.274	7534
582.296	7107
582.330	6495
582.368	7057
582.386	7340
582.441	8308
582.441	8307
582.497	7303
582.514	7317
582.552	7535
582.587	7699
582.608	7768
582.659	7488
582.663	7456
582.719	7665
582.732	7781
582.774	8235
582.805	7975
582.830	7756
582.877	8147
582.885	8189
582.941	8026
582.950	8052
582.996	8335
583.023	8182
583.052	8048
583.095	8251
583.107	8242
583.162	8149
583.168	8161
583.218	8511
583.240	8396
583.273	8183
583.313	8173
583.328	8175
583.384	8527
583.385	8513
583.439	7943
583.458	8258
583.494	8944
583.531	8459
583.549	8287
583.603	8209
583.605	8201
583.660	9088
583.676	9147
583.715	9129
583.748	8392
583.770	7956
583.820	8790
583.825	8887
583.881	8688
583.893	8788
583.936	9148
583.965	9049
583.991	8899
584.038	8928
584.046	8957
584.101	8973
584.110	8995
584.156	9164
584.183	9382
584.211	9549
584.255	9826
584.266	9873
584.321	8658
584.328	8699
584.376	9302
584.400	9646
584.431	10021
584.472	9619
584.486	9527
584.541	10846
584.545	10823
584.596	10575
584.617	10533
584.651	10544
584.689	10859
584.706	10933
584.761	10976
584.762	10968
584.816	11128
584.834	11215
584.871	11139
584.906	11021
584.926	11176
584.978	11969
584.980	11995
585.035	12261
585.051	12339
585.090	13141
585.123	13469
585.145	13518
585.195	13990
585.200	14037
585.254	14035
585.267	14183
585.309	15013
585.340	15722
585.364	16282
585.412	17569
585.419	17794
585.473	19961
585.484	20532
585.528	23768
585.556	26461
585.583	31900
585.628	43392
585.637	48639
585.692	92304
585.700	99528
585.747	128694
585.772	116649
585.801	74577
585.845	30490
585.856	26624
585.910	19515
585.917	18585
585.965	17339
585.989	17040
586.019	16809
586.061	16198
586.074	16206
586.128	16945
586.133	17023
586.183	17748
586.205	17442
586.237	17335
586.277	17768
586.292	17918
586.346	18200
586.349	18206
586.401	18741
586.421	18719
586.455	19073
586.493	19790
586.509	20469
586.564	22417
586.565	22462
586.618	26981
586.637	27490
586.672	25652
586.709	23468
586.727	23078
586.781	23662
586.781	23704
586.835	22241
586.853	22276
586.889	22302
586.925	21958
586.944	22146
586.996	22237
586.998	22312
587.052	24547
587.068	24905
587.106	25293
587.140	25606
587.161	25869
587.212	25898
587.215	25953
587.269	27181
587.284	27115
587.323	27171
587.356	27387
587.377	27905
587.427	29622
587.431	29782
587.485	30608
587.499	30707
587.539	31330
587.571	31983
587.593	32841
587.643	34161
587.648	34352
587.702	36210
587.715	36488
587.755	37843
587.786	38786
587.810	39602
587.858	40890
587.864	41281
587.917	45190
587.930	45752
587.971	47944
588.001	49885
588.025	51894
588.073	54997
588.079	55674
588.133	60762
588.145	62000
588.187	67939
588.217	71520
588.241	75337
588.288	82688
588.295	84118
588.348	95343
588.360	97434
588.402	108290
588.431	116005
588.456	124778
588.503	141915
588.510	145488
588.564	173894
588.575	179713
588.617	213351
588.646	237431
588.671	270680
588.718	336556
588.725	352245
588.778	475013
588.789	500579
588.832	634836
588.861	728858
588.886	767636
588.932	816502
588.939	810594
588.993	715845
589.004	701129
589.047	781451
589.075	811606
589.100	738745
589.147	594988
589.154	577500
589.207	443051
589.218	415845
589.261	378751
589.290	355267
589.314	363841
589.361	383187
589.368	395809
589.421	498165
589.433	520821
589.475	650927
589.504	741870
589.528	759210
589.576	756429
589.582	756807
589.635	741674
589.647	731244
589.689	591726
589.718	493436
589.742	420731
589.790	281428
589.795	274812
589.849	208991
589.861	193697
589.902	167905
589.932	147673
589.955	136835
590.004	113850
590.009	113018
590.062	100746
590.075	97423
590.115	90221
590.146	84263
590.168	81728
590.218	75085
590.222	74980
590.275	71010
590.289	69646
590.328	67038
590.360	64693
590.381	63270
590.431	59177
590.435	59280
590.488	57583
590.503	57100
590.541	55894
590.574	54261
590.594	53636
590.645	51543
590.647	51656
590.700	50149
590.716	49538
590.753	48834
590.787	47984
590.806	47998
590.859	47279
590.859	47415
590.912	46067
590.930	45482
590.965	45811
591.001	45995
591.018	46007
591.071	45242
591.072	45082
591.124	44292
591.143	43786
591.177	43792
591.214	43507
591.230	43960
591.283	45079
591.285	44962
591.336	43891
591.356	43344
591.389	43372
591.427	42957
591.442	42717
591.495	41306
591.498	41064
591.547	40432
591.569	39973
591.600	40248
591.640	40130
591.653	40476
591.706	41594
591.711	41566
591.759	41694
591.782	41498
591.811	42168
591.853	42836
591.864	42793
591.917	41802
591.924	41515
591.969	40890
591.995	40274
592.022	40688
592.066	41079
592.075	41352
592.127	42092
592.137	42094
592.180	42694
592.208	42803
592.233	42514
592.279	41547
592.285	41623
592.338	41035
592.350	40760
592.390	40586
592.421	40220
592.443	40753
592.491	41458
592.495	41576
592.548	41208
592.562	40963
592.600	40508
592.633	39859
592.653	40078
592.704	40063
592.705	40265
592.775	38702
592.846	40748
592.916	40499
592.987	40457
593.058	40702
593.128	39166
593.199	39121
593.270	39037
593.341	39057
593.411	39052
593.482	38849
593.553	40025
593.623	39471
593.694	40124
593.764	41474
593.835	40582
593.906	40670
593.976	39339
594.047	40680
594.117	42135
594.188	43084
594.258	41173
594.329	40358
594.399	41812
594.470	40711
594.540	41857
594.611	41605
594.681	42657
594.751	40353
594.822	43831
594.892	42582
594.963	43287
595.033	44061
595.103	45604
595.174	45616
595.244	48599
595.314	52588
595.384	46089
595.455	45691
595.525	48415
595.595	48653
595.665	49447
595.736	46944
595.806	48461
595.876	48220
595.946	48284
596.016	48799
596.087	49765
596.157	50546
596.227	50134
596.297	53567
596.367	55220
596.437	57576
596.507	59242
596.577	60415
596.647	58598
596.717	59340
596.787	60138
596.857	58419
596.927	59803
596.997	59655
597.067	59509
597.137	61977
597.207	62748
597.277	62048
597.347	60084
597.417	60178
597.487	60490
597.557	61687
597.626	61047
597.696	63221
597.766	63163
597.836	63967
597.906	58320
597.975	56765
598.045	56719
598.115	58200
598.185	60550
598.254	65407
598.324	69823
598.394	70206
598.464	68795
598.533	68858
598.603	64082
598.672	64217
598.742	64537
598.812	63028
598.881	63771
598.951	63167
599.020	64156
599.090	65966
599.159	67647
599.229	66436
599.299	63668
599.368	66081
599.437	66323
599.507	61077
599.576	60664
599.646	58537
599.715	58953
599.785	57487
599.854	57239
599.924	57077
599.993	57264
600.062	57054
600.132	57650
600.201	59285
600.270	67761
600.340	71821
600.409	69600
600.478	68215
600.547	70640
600.617	66980
600.686	58076
600.755	52653
600.824	50452
600.894	49761
600.963	49677
601.032	47910
601.101	47491
601.170	46363
601.239	46276
601.308	45800
601.378	46520
601.447	47539
601.516	45255
601.585	47200
601.654	47505
601.723	47452
601.792	48287
601.861	47300
601.930	49643
601.999	51913
602.068	49475
602.137	50895
602.206	50841
602.275	51812
602.343	53564
602.412	53396
602.481	51870
602.550	52183
602.619	54380
602.688	54009
602.756	52178
602.825	54010
602.894	55127
602.963	55656
603.032	55589
603.100	55907
603.169	56364
603.238	56294
603.307	57059
603.375	56550
603.444	56185
603.513	57903
603.581	57241
603.650	58917
603.719	56814
603.787	57458
603.856	59953
603.924	60972
603.993	62446
604.061	62946
604.130	65114
604.198	66748
604.267	68525
604.335	68409
604.404	70170
604.472	69641
604.541	70657
604.609	69921
604.678	71486
604.746	71370
604.815	73962
604.883	74747
604.951	75545
605.020	74575
605.088	75543
605.156	77745
605.225	79017
605.293	77294
605.361	79532
605.429	79585
605.498	79126
605.566	82364
605.634	85746
605.702	87461
605.771	90843
605.839	90332
605.907	89708
605.975	86629
606.043	85380
606.111	85776
606.180	84881
606.248	83450
606.316	83355
606.384	83744
606.452	86101
606.520	89100
606.588	88156
606.656	87635
606.724	86196
606.792	80654
606.860	74719
606.928	67821
606.996	67082
607.064	66127
607.132	66295
607.200	69946
607.267	72867
607.335	73077
607.403	74885
607.471	72343
607.539	71260
607.607	71901
607.674	64282
607.742	64311
607.810	64809
607.878	65100
607.946	65225
608.013	67300
608.081	69178
608.149	70783
608.216	71602
608.284	74133
608.352	72770
608.419	73252
608.487	75022
608.555	70961
608.622	72544
608.690	75937
608.757	82150
608.825	84727
608.893	83869
608.960	81649
609.028	77753
609.095	78497
609.163	76669
609.230	71600
609.298	64788
609.365	66677
609.432	72510
609.500	77150
609.567	88340
609.635	98081
609.702	103666
609.769	100680
609.837	82749
609.904	70753
609.971	71897
610.039	79918
610.106	94706
610.173	157894
610.241	339657
610.308	340772
610.375	215648
610.442	95074
610.509	75772
610.577	73865
610.644	73232
610.711	75558
610.778	79471
610.845	80615
610.912	83454
610.980	85519
611.047	88109
611.114	84450
611.181	82826
611.248	82145
611.315	86076
611.382	86976
611.449	91211
611.516	94244
611.583	91755
611.650	90622
611.717	92617
611.784	92207
611.851	97258
611.918	100198
611.984	111978
612.051	140410
612.118	242254
612.185	543719
612.252	424120
612.319	134218
612.386	113804
612.452	108419
612.519	102458
612.586	104663
612.653	105481
612.719	105227
612.786	101572
612.853	96447
612.919	93954
612.986	96793
613.053	91165
613.120	87860
613.186	83485
613.253	85481
613.319	84868
613.386	84932
613.453	86145
613.519	88349
613.586	88972
613.652	95690
613.719	92576
613.785	90581
613.852	88093
613.918	86718
613.985	87286
614.051	91300
614.118	93292
614.184	93062
614.250	86973
614.317	89733
614.383	87761
614.449	88610
614.516	88012
614.582	88613
614.648	87086
614.715	86795
614.781	85072
614.847	85772
614.914	86214
614.980	83646
615.046	84084
615.112	86136
615.179	86985
615.245	89482
615.311	89871
615.377	98411
615.443	99715
615.509	91566
615.575	91716
615.642	90123
615.708	92861
615.774	96692
615.840	101835
615.906	106838
615.972	125051
616.038	177559
616.104	300806
616.170	623908
616.236	631861
616.302	177577
616.368	134561
616.434	107919
616.500	102714
616.565	107433
616.631	124679
616.697	110741
616.763	110957
616.829	137841
616.895	219145
616.961	225790
617.026	118241
617.092	93305
617.158	91575
617.224	90111
617.289	86512
617.355	82210
617.421	82407
617.487	83877
617.552	79890
617.618	78116
617.684	78848
617.749	81630
617.815	78253
617.880	75499
617.946	76333
618.012	79557
618.077	80016
618.143	78274
618.208	76676
618.274	82383
618.339	84622
618.405	73060
618.470	73202
618.536	73385
618.601	73413
618.667	70677
618.732	67009
618.798	67240
618.863	66220
618.928	65068
618.994	67234
619.059	66876
619.124	72485
619.190	68009
619.255	65605
619.320	65808
619.386	66901
619.451	64515
619.516	63667
619.581	65168
619.647	67615
619.712	67482
619.777	65808
619.842	66879
619.907	66999
619.972	67038
620.038	66589
620.103	64654
620.168	65152
620.233	65232
620.298	66105
620.363	66298
620.428	68084
620.493	70083
620.558	68861
620.623	70310
620.688	69543
620.753	68726
620.818	69352
620.883	71689
620.948	70289
621.013	70558
621.078	70210
621.143	68938
621.207	72014
621.272	70563
621.337	70135
621.402	69935
621.467	72146
621.532	73422
621.596	71794
621.661	69610
621.726	68335
621.791	68361
621.855	69760
621.920	70569
621.985	70173
622.049	71913
622.114	71506
622.179	70594
622.243	72762
622.308	74765
622.373	76725
622.437	75309
622.502	72361
622.566	71936
622.631	71102
622.695	73174
622.760	72701
622.824	71726
622.889	71275
622.953	72944
623.018	81213
623.082	82999
623.147	76401
623.211	74122
623.276	73460
623.340	71223
623.404	70262
623.469	68568
623.533	70101
623.597	68084
623.662	69541
623.726	67066
623.790	64441
623.854	61912
623.919	62842
623.983	62072
624.047	63603
624.111	63508
624.176	64395
624.240	64899
624.304	67697
624.368	65024
624.432	64805
624.496	65205
624.560	67327
624.625	69776
624.689	66789
624.753	67885
624.817	67390
624.881	64893
624.945	61772
625.009	58821
625.073	60357
625.137	61878
625.201	65477
625.265	66786
625.329	61818
625.393	61952
625.456	61391
625.520	62735
625.584	64353
625.648	66037
625.712	68963
625.776	83858
625.839	90494
625.903	64469
625.967	53059
626.031	60126
626.095	72660
626.158	59947
626.222	49508
626.286	46583
626.349	45177
626.413	42840
626.477	43938
626.540	43701
626.604	42056
626.668	43924
626.731	41016
626.795	41968
626.858	42125
626.922	41236
626.986	40983
627.049	39721
627.113	40046
627.176	40722
627.240	39281
627.303	39419
627.366	38523
627.430	39237
627.493	39831
627.557	38395
627.620	38758
627.684	38864
627.747	40082
627.810	36013
627.874	34179
627.937	34007
628.000	35948
628.064	34703
628.127	31529
628.190	31611
628.253	31159
628.317	30341
628.380	29413
628.443	28353
628.506	28704
628.569	28490
628.632	26788
628.696	26632
628.759	27495
628.822	25527
628.885	24600
628.948	26051
629.011	26673
629.074	25212
629.137	24573
629.200	23746
629.263	25389
629.326	22806
629.389	23341
629.452	23069
629.515	23776
629.578	24018
629.641	23870
629.704	23515
629.767	23362
629.830	22347
629.892	22861
629.955	21906
630.018	22845
630.081	23105
630.144	24801
630.207	21538
630.269	23350
630.332	21951
630.395	20650
630.458	20719
630.520	19900
630.583	21074
630.646	20749
630.708	20538
630.771	19823
630.834	21957
630.896	20798
630.959	20054
631.021	19297
631.084	20162
631.146	20072
631.209	21190
631.272	19638
631.334	20473
631.397	19484
631.459	19229
631.522	20055
631.584	20472
631.646	21367
631.709	21035
631.771	23298
631.834	20914
631.896	20431
631.958	18529
632.021	20170
632.083	17987
632.145	19381
632.208	18797
632.270	20066
632.332	17960
632.395	17852
632.457	18161
632.519	18566
632.581	19682
632.643	18194
632.706	17986
632.768	17302
632.830	18330
632.892	16964
632.954	17695
633.016	18988
633.078	17579
633.141	17598
633.203	17824
633.265	18104
633.327	17548
633.389	17694
633.451	19275
633.513	19620
633.575	18924
633.637	19343
633.698	19970
633.760	18359
633.822	18284
633.884	19044
633.946	18389
634.008	18733
634.070	18603
634.132	18648
634.193	18611
634.255	19888
634.317	19430
634.379	19886
634.441	18452
634.502	17393
634.564	17461
634.626	16377
634.687	17101
634.749	17488
634.811	16648
634.873	15910
634.934	15789
634.996	16406
635.057	15763
635.119	16241
635.181	16364
635.242	17748
635.304	15627
635.365	17773
635.427	15202
635.488	16101
635.550	15117
635.611	16193
635.673	16155
635.734	17871
635.796	17047
635.857	18337
635.918	17708
635.980	19561
636.041	17517
636.102	19919
636.164	20072
636.225	19859
636.286	16058
636.348	17240
636.409	17032
636.470	15820
636.531	15931
636.593	15725
636.654	16547
636.715	15663
636.776	15217
636.838	14778
636.899	15923
636.960	14849
637.021	14623
637.082	14056
637.143	14545
637.204	14074
637.265	12636
637.326	14602
637.387	14609
637.448	13791
637.509	13962
637.570	14026
637.631	14636
637.692	13334
637.753	12148
637.814	14202
637.875	14362
637.936	14423
637.997	13394
638.058	13990
638.119	14763
638.179	12939
638.240	12949
638.301	13778
638.362	12908
638.423	13339
638.483	12737
638.544	12231
638.605	12921
638.666	12909
638.726	13598
638.787	13469
638.848	12917
638.908	12783
638.969	12386
639.030	12906
639.090	11655
639.151	12736
639.211	12853
639.272	14813
639.332	18459
639.393	15100
639.453	11711
639.514	13707
639.574	12984
639.635	11969
639.695	13176
639.756	11884
639.816	12282
639.877	13179
639.937	15971
639.997	18304
640.058	12692
640.118	12242
640.178	12089
640.239	11557
640.299	11498
640.359	12013
640.420	12143
640.480	11940
640.540	12610
640.600	13470
640.661	12612
640.721	11537
640.781	15183
640.841	12736
640.901	12949
640.961	12742
641.021	12792
641.082	12508
641.142	14952
641.202	13383
641.262	10402
641.322	11558
641.382	10974
641.442	11643
641.502	11918
641.562	11857
641.622	10783
641.682	11238
641.742	11891
641.802	12070
641.861	12248
641.921	11099
641.981	12099
642.041	11783
642.101	12996
642.161	10844
642.221	10995
642.280	10469
642.340	10923
642.400	9825
642.460	11277
642.519	10659
642.579	11057
642.639	12190
642.698	9108
642.758	12341
642.818	11703
642.877	10859
642.937	11085
642.997	11826
643.056	14431
643.116	11623
643.175	12051
643.235	11482
643.294	11730
643.354	11797
643.414	11216
643.473	13551
643.532	14553
643.592	17417
643.651	24078
643.711	39184
643.770	68775
643.830	151930
643.889	377469
643.948	121847
644.008	22472
644.067	15886
644.126	12046
644.186	11125
644.245	12019
644.304	9739
644.363	12509
644.423	10284
644.482	10450
644.541	10623
644.600	9844
644.659	12724
644.719	12383
644.778	16887
644.837	23393
644.896	42929
644.955	102120
645.014	46817
645.073	12475
645.132	11226
645.191	11784
645.250	10662
645.309	11599
645.368	10741
645.427	12320
645.486	15779
645.545	26860
645.604	12331
645.663	10699
645.722	10073
645.781	10642
645.840	11462
645.898	13107
645.957	16006
646.016	21521
646.075	35523
646.134	65322
646.192	155472
646.251	293636
646.310	56800
646.369	15869
646.427	13964
646.486	11180
646.545	10817
646.603	10324
646.662	9421
646.721	9161
646.779	9272
646.838	8468
646.896	10565
646.955	12261
647.014	16257
647.072	25252
647.131	64209
647.189	42837
647.248	10088
647.306	8856
647.365	9068
647.423	6893
647.481	9375
647.540	7436
647.598	7710
647.657	7312
647.715	7808
647.773	6619
647.832	8008
647.890	6051
647.948	7271
648.007	8265
648.065	6268
648.123	6816
648.181	8606
648.240	7950
648.298	6801
648.356	6558
648.414	7586
648.472	7149
648.531	7296
648.589	6504
648.647	7203
648.705	6622
648.763	6771
648.821	6969
648.879	7613
648.937	7132
648.995	8436
649.053	8772
649.111	12080
649.169	17956
649.227	29198
649.285	52696
649.343	160073
649.401	105022
649.459	22003
649.516	16157
649.574	8825
649.632	10503
649.690	11194
649.748	10267
649.806	11034
649.863	18689
649.921	44102
649.979	38427
650.037	8715
650.094	5697
650.152	6597
650.210	5300
650.268	6897
650.325	5422
650.383	6464
650.440	4947
650.498	5472
650.556	4769
650.613	5039
650.671	6125
650.728	4945
650.786	6129
650.843	5427
650.901	4411
650.958	5123
651.016	5069
651.073	5271
651.131	4834
651.188	4287
651.246	4780
651.303	4806
651.360	5914
651.418	4496
651.475	5268
651.532	3514
651.590	5062
651.647	4498
651.704	4595
651.762	4120
651.819	5304
651.876	3878
651.933	4752
651.990	5254
652.048	3783
652.105	4086
652.162	4901
652.219	3836
652.276	3625
652.333	5524
652.390	3184
652.448	5140
652.505	4476
652.562	4514
652.619	4132
652.676	5022
652.733	6145
652.790	4664
652.847	3409
652.904	4702
652.961	3204
653.017	3000
653.074	4923
653.131	4179
653.188	3449
653.245	4272
653.302	3982
653.359	3484
653.415	4572
653.472	4623
653.529	4520
653.586	3505
653.642	3337
653.699	4403
653.756	3441
653.813	3120
653.869	3987
653.926	3658
653.983	3310
654.039	4248
654.096	3800
654.152	4251
654.209	2661
654.266	4155
654.322	3246
654.379	4583
654.435	4414
654.492	4117
654.548	4528
654.605	6805
654.661	5493
654.717	4197
654.774	4629
654.830	4381
654.887	4173
654.943	4003
655.000	4129
655.056	3973
655.112	4013
655.168	3459
655.225	3887
655.281	3845
655.337	3749
655.394	5987
655.450	4462
655.506	4521
655.562	5678
655.618	6028
655.675	3434
655.731	3813
655.787	3072
655.843	4375
655.899	2913
655.955	4077
656.011	4595
656.067	2826
656.123	3979
656.179	3842
656.235	4761
656.291	3096
656.347	4275
656.403	3326
656.459	3231
656.515	4808
656.571	4607
656.627	4324
656.683	4016
656.739	4360
656.795	3766
656.850	3778
656.906	4508
656.962	4637
657.018	3121
657.074	3725
657.129	4935
657.185	5337
657.241	9431
657.297	6801
657.352	4741
657.408	3677
657.464	4396
657.519	3949
657.575	3384
657.630	3613
657.686	4320
657.742	3577
657.797	4104
657.853	2661
657.908	4177
657.964	3151
658.019	3647
658.075	3828
658.130	3959
658.186	2385
658.241	3414
658.297	3127
658.352	3753
658.407	3680
658.463	3041
658.518	3764
658.573	3629
658.629	2800
658.684	3136
658.739	4006
658.795	2788
658.850	3237
658.905	2896
658.960	3519
659.016	2618
659.071	2849
659.126	3621
659.181	3921
659.236	5695
659.291	6767
659.346	3553
659.401	4184
659.457	4211
659.512	3302
659.567	4311
659.622	4374
659.677	2935
659.732	2599
659.787	3854
659.842	4121
659.897	4179
659.952	4031
660.007	4125
660.061	3377
660.116	3295
660.171	3059
660.226	3730
660.281	4267
660.336	2687
660.391	4689
660.445	3185
660.500	3490
660.555	2871
660.610	2547
660.664	3249
660.719	3707
660.774	4368
660.828	3825
660.883	3976
660.938	4544
660.992	2481
661.047	3880
661.101	2933
661.156	3595
661.211	2973
661.265	3132
661.320	2319
661.374	3672
661.429	3516
661.483	3606
661.538	2481
661.592	3633
661.647	3595
661.701	4195
661.755	2971
661.810	3502
661.864	2402
661.919	2144
661.973	4198
662.027	3652
662.081	2954
662.136	3012
662.190	3053
662.244	3594
662.299	3048
662.353	2754
662.407	2946
662.461	2549
662.515	4167
662.569	2975
662.624	3483
662.678	2339
662.732	3596
662.786	2521
662.840	2950
662.894	3068
662.948	3915
663.002	2911
663.056	3200
663.110	2705
663.164	2805
663.218	3460
663.272	3115
663.326	3634
663.380	3346
663.434	2976
663.488	2225
663.542	3033
663.595	3237
663.649	2845
663.703	2814
663.757	3569
663.811	2929
663.864	3240
663.918	3044
663.972	2918
664.026	3340
664.079	3188
664.133	3361
664.187	2951
664.240	3077
664.294	3480
664.348	2721
664.401	3192
664.455	2703
664.508	2803
664.562	3213
664.615	3079
664.669	2296
664.722	2495
664.776	3436
664.829	3582
664.883	3434
664.936	2060
664.990	3217
665.043	3216
665.097	2368
665.150	4637
665.203	3211
665.257	3006
665.310	3074
665.363	2153
665.417	3814
665.470	2985
665.523	3319
665.576	3199
665.630	2800
665.683	3456
665.736	3350
665.789	2620
665.842	2798
665.895	3812
665.949	3516
666.002	3280
666.055	3384
666.108	3326
666.161	2854
666.214	2948
666.267	3313
666.320	4220
666.373	3386
666.426	3106
666.479	2508
666.532	2810
666.585	2663
666.638	4315
666.691	3337
666.744	3737
666.796	3744
666.849	3157
666.902	4096
666.955	3220
667.008	3669
667.060	1850
667.113	2433
667.166	2412
667.219	3735
667.271	2496
667.324	2407
667.377	3114
667.430	2830
667.482	2664
667.535	3369
667.587	3639
667.640	2527
667.693	3182
667.745	3886
667.798	5513
667.850	3536
667.903	3252
667.955	2768
668.008	2752
668.060	4194
668.113	3104
668.165	3365
668.218	3254
668.270	3184
668.322	3429
668.375	3338
668.427	3507
668.479	2254
668.532	3513
668.584	3427
668.636	3555
668.689	2756
668.741	2977
668.793	3476
668.845	3123
668.898	3340
668.950	3116
669.002	3523
669.054	2906
669.106	3524
669.158	4390
669.211	2841
669.263	3066
669.315	3598
669.367	3846
669.419	3937
669.471	4354
669.523	4395
669.575	4549
669.627	4814
669.679	3701
669.731	3573
669.783	4217
669.835	4400
669.886	4210
669.938	3832
669.990	3991
670.042	4382
670.094	5064
670.146	5335
670.197	5798
670.249	7505
670.301	8351
670.353	11630
670.404	16092
670.456	21729
670.508	33107
670.560	53572
670.611	84628
670.663	138646
670.715	265326
670.766	360793
670.818	219844
670.869	65285
670.921	28939
670.972	18412
671.024	13039
671.075	9840
671.127	9511
671.178	7037
671.230	6852
671.281	5571
671.333	4970
671.384	5472
671.436	5072
671.487	6445
671.538	6029
671.590	7747
671.641	10587
671.692	16637
671.744	30857
671.795	22680
671.846	7408
671.897	4760
671.949	3904
672.000	4246
672.051	3516
672.102	3775
672.153	2204
672.204	2736
672.256	3817
672.307	3701
672.358	2756
672.409	3221
672.460	3013
672.511	2807
672.562	3371
672.613	2982
672.664	2025
672.715	2948
672.766	3040
672.817	2761
672.868	1978
672.919	2478
672.970	2997
673.021	2634
673.071	1894
673.122	2227
673.173	2298
673.224	2424
673.275	2132
673.326	2637
673.376	2898
673.427	2136
673.478	2436
673.528	3011
673.579	1950
673.630	2168
673.680	3068
673.731	1868
673.782	1720
673.832	2354
673.883	3330
673.934	1997
673.984	2120
674.035	2105
674.085	1708
674.136	1717
674.186	2358
674.237	2553
674.287	3250
674.338	3127
674.388	2561
674.438	1620
674.489	2682
674.539	2297
674.589	2939
674.640	2838
674.690	2646
674.740	2295
674.791	2625
674.841	2871
674.891	2662
674.942	2229
674.992	2908
675.042	1820
675.092	1602
675.142	2192
675.193	1733
675.243	1240
675.293	2283
675.343	1720
675.393	2101
675.443	2450
675.493	1858
675.543	2243
675.593	1651
675.643	2331
675.693	2255
675.743	2173
675.793	2219
675.843	1605
675.893	2175
675.943	2284
675.993	1373
676.043	2037
676.093	2753
676.142	1301
676.192	2435
676.242	2123
676.292	1697
676.341	1927
676.391	1263
676.441	1646
676.491	1649
676.540	1810
676.590	2078
676.640	1409
676.689	1625
676.739	1534
676.789	2280
676.838	969
676.888	1228
676.937	1471
676.987	1916
677.037	1364
677.086	1478
677.136	1517
677.185	1131
677.235	1565
677.284	2252
677.333	1379
677.383	1798
677.432	1443
677.482	1116
677.531	2236
677.580	1276
677.630	1004
677.679	1596
677.728	867
677.778	1499
677.827	1739
677.876	1293
677.925	387
677.975	1760
678.024	1728
678.073	1733
678.122	2001
678.171	2089
678.220	1132
678.269	2465
678.319	2290
678.368	1727
678.417	1647
678.466	1881
678.515	2292
678.564	1439
678.613	1825
678.662	1533
678.711	1789
678.760	1962
678.809	1170
678.857	1959
678.906	1230
678.955	1342
679.004	1869
679.053	1455
679.102	1850
679.151	1028
679.199	1004
679.248	851
679.297	728
679.346	1422
679.394	728
679.443	1473
679.492	1219
679.540	1889
679.589	1780
679.638	1358
679.686	1415
679.735	1397
679.784	1607
679.832	1339
679.881	1038
679.929	1408
679.978	1225
680.026	1440
680.075	1513
680.123	1003
680.172	565
680.220	943
680.268	1184
680.317	1359
680.365	975
680.414	1176
680.462	1376
680.510	1215
680.559	722
680.607	1089
680.655	1334
680.703	1061
680.752	1081
680.800	1277
680.848	1348
680.896	1608
680.945	590
680.993	751
681.041	803
681.089	714
681.137	1432
681.185	658
681.233	218
681.258	840
681.281	1403
681.329	402
681.377	987
681.380	1021
681.425	1159
681.473	1917
681.502	1260
681.521	759
681.569	2125
681.617	1191
681.624	1211
681.665	1137
681.713	1404
681.745	1460
681.761	1452
681.809	1302
681.857	2777
681.867	2446
681.904	1186
681.952	1607
681.989	1317
682.000	1198
682.048	914
682.096	2590
682.111	2241
682.143	1424
682.191	2056
682.233	2401
682.239	2426
682.286	2812
682.334	2589
682.354	2533
682.382	2411
682.430	1913
682.476	2470
682.477	2460
682.525	2132
682.572	1683
682.598	1769
682.620	1813
682.667	2363
682.715	2302
682.720	2386
682.763	2944
682.810	2209
682.841	2664
682.857	2864
682.905	2032
682.952	3043
682.963	3102
683.000	3228
683.047	3167
683.085	3887
683.095	4053
683.142	3059
683.190	3151
683.206	2991
683.237	2652
683.284	3037
683.328	3114
683.332	3099
683.379	2596
683.426	3455
683.449	3320
683.473	3199
683.521	2966
683.568	3452
683.571	3451
683.615	3031
683.662	3494
683.693	3355
683.709	3276
683.757	2949
683.804	3706
683.814	3538
683.851	2901
683.898	3740
683.936	3306
683.945	3179
683.992	3888
684.039	4284
684.057	4284
684.086	4291
684.133	4343
684.179	4096
684.180	4066
684.227	3952
684.274	4761
684.300	4512
684.321	4327
684.368	3809
684.415	4068
684.422	4121
684.462	4330
684.509	4206
684.543	4174
684.556	4144
684.603	4194
684.649	3934
684.665	4059
684.696	4311
684.743	4467
684.786	4918
684.790	4947
684.837	4581
684.883	4883
684.908	4995
684.930	5104
684.977	5551
685.023	5091
685.029	5100
685.070	4788
685.117	4862
685.150	4866
685.164	4919
685.210	5635
685.257	5833
685.272	5776
685.303	5590
685.350	5591
685.393	5170
685.396	5134
685.443	5312
685.490	6091
685.514	6186
685.536	6198
685.583	5956
685.629	5833
685.636	5838
685.675	5737
685.722	5756
685.757	5467
685.768	5398
685.815	6034
685.861	6268
685.878	6131
685.908	5827
685.954	5720
686.000	5653
686.000	5648
686.047	6235
686.093	6687
686.121	6370
686.139	6142
686.185	6548
686.232	6605
686.242	6600
686.278	6409
686.324	6107
686.363	6212
686.370	6244
686.416	6245
686.463	6252
686.484	6192
686.509	6142
686.555	6055
686.601	6628
686.606	6652
686.647	6708
686.693	6240
686.727	6231
686.739	6253
686.785	6106
686.831	6301
686.848	6432
686.877	6772
686.923	6651
686.969	6827
686.969	6825
687.015	7008
687.061	6793
687.090	6512
687.107	6350
687.153	7282
687.199	6358
687.211	6193
687.245	5860
687.291	6633
687.332	6784
687.336	6818
687.382	7281
687.428	7508
687.453	7686
687.474	7634
687.520	7087
687.565	6616
687.574	6732
687.611	7316
687.657	7195
687.695	6721
687.702	6692
687.748	7456
687.794	8036
687.816	8151
687.839	8027
687.885	7747
687.931	7784
687.937	7629
687.976	6862
688.022	7960
688.058	7702
688.067	7638
688.113	7340
688.158	7286
688.179	7556
688.204	7902
688.249	7152
688.295	7397
688.300	7331
688.340	7174
688.386	8116
688.421	8167
688.431	8118
688.477	8357
688.522	8345
688.542	8327
688.567	8329
688.613	7677
688.658	8348
688.663	8359
688.703	8564
688.749	7687
688.784	8341
688.794	8505
688.839	8595
688.884	8057
688.905	8042
688.930	8119
688.975	8657
689.020	8582
689.026	8566
689.065	8482
689.110	8327
689.146	8651
689.155	8717
689.201	8424
689.246	8383
689.267	8160
689.291	7885
689.336	7709
689.381	7811
689.388	7788
689.426	8070
689.471	8079
689.509	8376
689.516	8417
689.561	8622
689.606	8809
689.630	8550
689.651	8270
689.696	8921
689.741	8539
689.750	8527
689.785	8708
689.830	8497
689.871	8732
689.875	8743
689.920	8625
689.965	8791
689.992	8458
690.010	8333
690.054	8300
690.099	8826
690.112	8820
690.144	8896
690.189	8873
690.233	8658
690.233	8669
690.278	9007
690.323	8773
690.354	8994
690.367	9194
690.412	9449
690.457	8965
690.474	9194
690.501	9336
690.546	9036
690.590	8964
690.595	8912
690.635	8843
690.680	8890
690.716	8903
690.724	8899
690.769	8650
690.813	9014
690.836	8733
690.857	8700
690.902	9109
690.946	9797
690.957	9849
690.991	9999
691.035	10080
691.077	10431
691.080	10444
691.124	10017
691.168	10156
691.198	9940
691.213	9887
691.257	9560
691.301	9346
691.318	9222
691.346	9157
691.390	9689
691.434	9324
691.439	9337
691.478	9484
691.522	9455
691.559	9052
691.567	9060
691.611	9623
691.655	9959
691.680	10072
691.699	10089
691.743	10305
691.787	10172
691.800	10259
691.831	10546
691.875	10347
691.919	10590
691.921	10566
691.964	10319
692.008	10467
692.041	10010
692.052	9912
692.096	10430
692.139	10386
692.162	10254
692.183	10169
692.227	10499
692.271	10024
692.282	10123
692.315	10506
692.359	10588
692.402	10394
692.403	10415
692.447	10772
692.490	10879
692.523	10722
692.534	10643
692.578	11076
692.622	11009
692.643	10864
692.666	10709
692.709	10574
692.753	10471
692.763	10438
692.797	10516
692.840	10873
692.884	10473
692.884	10493
692.928	10469
692.971	10700
693.004	10696
693.015	10645
693.059	10518
693.102	10411
693.124	10148
693.146	10062
693.189	10180
693.233	10137
693.245	10111
693.276	10216
693.320	10450
693.363	10635
693.365	10615
693.407	10755
693.450	11105
693.485	11216
693.493	11267
693.537	11459
693.580	11323
693.605	11453
693.624	11458
693.667	11398
693.710	11292
693.725	11154
693.753	11547
693.797	12308
693.840	13136
693.845	13226
693.883	13296
693.926	12919
693.966	12529
693.970	12475
694.013	11903
694.056	11467
694.086	10922
694.099	10971
694.142	11354
694.185	11335
694.206	11359
694.229	11297
694.272	11207
694.315	11043
694.326	10987
694.358	11134
694.401	11410
694.444	11482
694.446	11471
694.487	11898
694.530	12116
694.566	12258
694.573	12226
694.616	11686
694.659	11467
694.686	11301
694.702	11291
694.745	11034
694.787	10618
694.806	10506
694.830	10595
694.873	10674
694.916	10857
694.926	10824
694.959	10971
695.002	11213
695.044	11602
695.046	11581
695.087	11511
695.130	11575
695.166	11504
695.172	11565
695.215	11741
695.258	12188
695.286	12265
695.301	12152
695.343	11953
695.386	11455
695.406	11263
695.428	11372
695.471	11711
695.514	11782
695.526	11787
695.556	11957
695.599	12362
695.641	12434
695.646	12439
695.684	12353
695.726	12089
695.766	11879
695.769	11908
695.811	11998
695.854	11972
695.886	11777
695.896	11787
695.938	11930
695.981	11860
696.005	11993
696.023	12182
696.065	12416
696.108	12542
696.125	12600
696.150	12686
696.192	12808
696.235	12855
696.245	12840
696.277	12856
696.319	12737
696.361	12722
696.365	12690
696.404	12923
696.446	13021
696.485	13170
696.488	13205
696.530	13159
696.572	13153
696.604	13075
696.614	13043
696.656	12852
696.698	12589
696.724	12376
696.740	12383
696.783	12407
696.825	12434
696.844	12346
696.867	12397
696.909	12555
696.951	12593
696.964	12633
696.992	12678
697.034	12457
697.076	12344
697.083	12302
697.118	12586
697.160	12898
697.202	13052
697.203	13022
697.244	12833
697.286	12728
697.323	12487
697.327	12560
697.369	12957
697.411	13330
697.442	13608
697.453	13650
697.494	13578
697.536	13649
697.562	13548
697.578	13556
697.620	13641
697.661	13562
697.682	13570
697.703	13743
697.744	13937
697.786	14175
697.801	14182
697.828	14380
697.869	14692
697.911	14975
697.921	15029
697.952	14559
697.994	13846
698.035	13045
698.040	12921
698.077	13025
698.118	13092
698.160	13146
698.160	13111
698.201	13348
698.243	13587
698.279	13748
698.284	13786
698.325	13803
698.367	13826
698.399	13788
698.408	13822
698.449	13808
698.491	13809
698.518	13769
698.532	13837
698.573	13925
698.614	14022
698.638	14013
698.656	14131
698.697	14380
698.738	14589
698.757	14649
698.779	14677
698.820	14656
698.862	14640
698.877	14590
698.903	14752
698.944	14961
698.985	15161
698.996	15178
699.026	15041
699.067	14799
699.116	14474
699.235	14233
699.354	14591
699.474	13969
699.593	15524
699.713	15140
699.832	12972
699.951	15380
700.070	14112
700.190	13598
700.309	13414
700.428	13277
700.547	12746
700.667	12776
700.786	13416
700.905	12839
701.024	12711
701.143	13106
701.262	12469
701.381	12874
701.500	13279
701.619	14039
701.738	13064
701.857	13237
701.976	12602
702.095	12825
702.214	12885
702.333	12861
702.452	12729
702.571	12854
702.690	12926
702.809	11364
702.928	11486
703.047	12589
703.165	12628
703.284	11826
703.403	11763
703.522	12043
703.640	12393
703.759	12694
703.878	13990
703.997	11443
704.115	11547
704.234	11010
704.353	11896
704.471	10448
704.590	10401
704.708	10257
704.827	10574
704.946	11467
705.064	11404
705.183	11227
705.301	12001
705.420	15429
705.538	15994
705.656	13893
705.775	11986
705.893	13370
706.012	14596
706.130	14095
706.249	13455
706.367	12929
706.485	13829
706.604	13480
706.722	13071
706.840	13630
706.958	15255
707.077	13859
707.195	11725
707.313	12437
707.431	12374
707.549	11926
707.668	11039
707.786	12801
707.904	11806
708.022	11919
708.140	11289
708.258	11670
708.376	12047
708.494	11550
708.612	12277
708.730	15207
708.848	15691
708.966	14179
709.084	13942
709.202	13779
709.320	13148
709.438	13073
709.556	14277
709.674	13832
709.791	13893
709.909	13238
710.027	13045
710.145	12755
710.263	13866
710.380	12997
710.498	12858
710.616	12894
710.733	11748
710.851	12110
710.969	12754
711.086	12531
711.204	12807
711.322	12300
711.439	12175
711.557	11422
711.674	12701
711.792	11836
711.909	11635
712.027	11579
712.144	11266
712.262	12304
712.379	12546
712.497	15671
712.614	17199
712.732	15148
712.849	14048
712.966	13538
713.084	15753
713.201	14522
713.318	15341
713.436	14006
713.553	14310
713.670	14557
713.787	14223
713.905	14664
714.022	14260
714.139	13095
714.256	15397
714.373	16347
714.490	23109
714.608	37758
714.725	146740
714.842	255253
714.959	27015
715.076	14993
715.193	13519
715.310	12348
715.427	12281
715.544	11413
715.661	12319
715.778	11852
715.895	12789
716.011	12637
716.128	12784
716.245	12562
716.362	13053
716.479	13504
716.596	12547
716.713	12622
716.829	11633
716.946	11663
717.063	10966
717.180	11703
717.296	10693
717.413	11436
717.530	10201
717.646	10383
717.763	11514
717.880	10811
717.996	10108
718.113	11160
718.229	9743
718.346	9219
718.462	9764
718.579	11116
718.695	14672
718.812	12389
718.928	11564
719.045	10750
719.161	9453
719.277	8849
719.394	9919
719.510	9788
719.626	10020
719.743	11942
719.859	12606
719.975	17710
720.092	43890
720.208	135868
720.324	30708
720.440	10942
720.557	11119
720.673	12290
720.789	15496
720.905	22079
721.021	14358
721.137	8195
721.253	9177
721.369	9135
721.486	10104
721.602	11084
721.718	9972
721.834	8885
721.950	9263
722.066	8559
722.181	8567
722.297	8093
722.413	8800
722.529	8690
722.645	8724
722.761	8436
722.877	8422
722.993	8050
723.108	8637
723.224	8332
723.340	8620
723.456	8382
723.571	7872
723.687	7789
723.803	7668
723.918	7811
724.034	7343
724.150	7475
724.265	7795
724.381	9987
724.497	14169
724.612	7283
724.728	6910
724.843	7494
724.959	7681
725.074	9461
725.190	13239
725.305	7446
725.421	7288
725.536	7230
725.651	7417
725.767	6252
725.882	6852
725.997	6091
726.113	7604
726.228	6609
726.343	8188
726.459	5857
726.574	6736
726.689	6709
726.804	5936
726.920	7132
727.035	6970
727.150	6800
727.265	7061
727.380	6885
727.495	6732
727.610	6377
727.725	6301
727.841	6393
727.956	6133
728.071	7903
728.186	6655
728.301	5454
728.416	6166
728.531	6748
728.645	5642
728.760	6237
728.875	6277
728.990	5975
729.105	5693
729.220	6779
729.335	6745
729.449	5124
729.564	6313
729.679	5306
729.794	6027
729.908	5891
730.023	6060
730.138	4774
730.253	5750
730.367	6199
730.482	6142
730.596	6046
730.711	5798
730.826	6051
730.940	6047
731.055	6145
731.169	5732
731.284	4931
731.398	5255
731.513	5579
731.627	5858
731.742	6216
731.856	8224
731.970	5925
732.085	6452
732.199	7649
732.313	10001
732.428	19322
732.542	59576
732.656	58231
732.771	10885
732.885	7193
732.999	7068
733.113	7256
733.227	7337
733.342	6829
733.456	7029
733.570	6159
733.684	5807
733.798	6698
733.912	6796
734.026	5745
734.140	6141
734.254	5373
734.368	7105
734.482	9713
734.596	6404
734.710	6315
734.824	5908
734.938	6484
735.052	5801
735.166	6356
735.280	6589
735.393	6339
735.507	5621
735.621	6621
735.735	7296
735.849	6999
735.962	5967
736.076	6190
736.190	6278
736.303	6101
736.417	7403
736.531	5604
736.644	5801
736.758	5329
736.872	5474
736.985	5046
737.099	5569
737.212	4464
737.326	5049
737.439	5184
737.553	5712
737.666	4856
737.780	5543
737.893	5212
738.007	4617
738.120	4764
738.233	4711
738.347	5804
738.460	4878
738.573	4808
738.687	5543
738.800	5420
738.913	5613
739.026	4806
739.140	5116
739.253	4764
739.366	5108
739.479	4249
739.592	4636
739.705	5562
739.818	5207
739.932	4531
740.045	5004
740.158	4581
740.271	5129
740.384	4656
740.497	4441
740.610	4417
740.723	4051
740.836	4113
740.949	5156
741.062	5359
741.174	5557
741.287	4652
741.400	4845
741.513	4775
741.626	4046
741.739	4859
741.851	4208
741.964	4587
742.077	4322
742.189	4664
742.302	4424
742.415	4759
742.527	4282
742.640	3864
742.753	4254
742.865	3980
742.978	4306
743.090	4252
743.203	3809
743.316	4232
743.428	3901
743.541	4730
743.653	4072
743.766	3856
743.878	4016
743.990	3912
744.103	4904
744.215	4628
744.327	3267
744.440	5487
744.552	5921
744.664	4728
744.777	3753
744.889	4131
745.001	3992
745.113	3966
745.226	3679
745.338	3802
745.450	4500
745.562	4028
745.674	3683
745.786	2980
745.898	4689
746.010	4231
746.122	3666
746.234	3855
746.347	3856
746.459	4386
746.570	3712
746.682	4046
746.794	3729
746.906	3127
747.018	3519
747.130	3271
747.242	3814
747.354	3896
747.466	4280
747.577	4157
747.689	4014
747.801	4758
747.913	3010
748.024	3183
748.136	3819
748.248	2600
748.359	3799
748.471	3806
748.583	3248
748.694	3094
748.806	4071
748.918	4320
749.029	3835
749.141	3948
749.252	3609
749.364	3165
749.475	5801
749.587	5394
749.698	3249
749.809	3725
749.921	3545
750.032	3353
750.144	3484
750.255	3428
750.366	4003
750.478	2583
750.589	3099
750.700	3308
750.811	3292
750.923	4119
751.034	5644
751.145	7567
751.256	3109
751.367	3642
751.479	3003
751.590	2685
751.701	3275
751.812	2262
751.923	3591
752.034	2895
752.145	3498
752.256	3008
752.367	4229
752.478	3120
752.589	3733
752.700	2669
752.811	2840
752.922	2303
753.032	2993
753.143	3971
753.254	2805
753.365	3902
753.476	2790
753.586	3395
753.697	2650
753.808	3300
753.919	2872
754.029	3760
754.140	2501
754.251	2649
754.361	2944
754.472	2580
754.582	2800
754.693	2155
754.804	3186
754.914	3130
755.025	2973
755.135	2116
755.246	3394
755.356	2378
755.466	3684
755.577	3465
755.687	3088
755.798	2225
755.908	3293
756.018	2538
756.129	2842
756.239	2266
756.349	2799
756.460	2754
756.570	3017
756.680	2623
756.790	2770
756.900	3549
757.011	2063
757.121	2969
757.231	2994
757.341	2058
757.451	3080
757.561	2248
757.671	2302
757.781	1787
757.891	3060
758.001	2877
758.111	2986
758.221	3211
758.331	2054
758.441	3666
758.551	3049
758.661	3775
758.771	3505
758.880	2568
758.990	3401
759.100	1824
759.210	2912
759.320	3190
759.429	3096
759.539	3445
759.649	2683
759.758	3393
759.868	2565
759.978	1732
760.087	3258
760.197	2365
760.307	2666
760.416	2325
760.526	2487
760.635	3779
760.745	3119
760.854	2092
760.964	3456
761.073	3697
761.182	3681
761.292	2743
761.401	3050
761.511	3091
761.620	2808
761.729	2339
761.839	2474
761.948	2375
762.057	2403
762.166	2683
762.276	2568
762.385	3521
762.494	2575
762.603	2900
762.712	2674
762.822	3023
762.931	3170
763.040	2205
763.149	2344
763.258	1649
763.367	3407
763.476	2954
763.585	2727
763.694	2813
763.803	2525
763.912	2992
764.021	2943
764.130	2883
764.238	2903
764.347	2839
764.456	2034
764.565	2949
764.674	2577
764.783	2710
764.891	3040
765.000	3420
765.109	2849
765.217	3338
765.326	3540
765.435	4073
765.543	4587
765.652	4571
765.761	5308
765.869	6786
765.978	9252
766.086	15248
766.195	29349
766.303	74143
766.412	224798
766.520	260040
766.629	70667
766.737	20902
766.846	12505
766.954	8518
767.062	6944
767.171	5784
767.279	6079
767.387	4209
767.496	3697
767.604	4286
767.712	4300
767.820	3858
767.928	3191
768.037	3321
768.145	3307
768.253	3501
768.361	3459
768.469	3296
768.577	3049
768.685	3311
768.793	3420
768.901	3391
769.009	4060
769.117	3896
769.225	4607
769.333	5233
769.441	7832
769.549	12663
769.657	27215
769.765	84531
769.873	224017
769.981	105271
770.088	19643
770.196	8563
770.304	6659
770.412	5145
770.519	5219
770.627	4484
770.735	3684
770.842	3581
770.950	3602
771.058	3202
771.165	3582
771.273	3696
771.380	3675
771.488	4654
771.595	4022
771.703	3431
771.810	3938
771.918	3604
772.025	3986
772.133	4309
772.240	3640
772.348	4542
772.455	4170
772.562	3718
772.670	3820
772.777	3668
772.884	3716
772.991	3201
773.099	3001
773.206	3816
773.313	4604
773.420	3172
773.528	3315
773.635	2364
773.742	3959
773.849	3344
773.956	2636
774.063	3896
774.170	3110
774.277	3334
774.384	3049
774.491	3251
774.598	3060
774.705	2952
774.812	4021
774.919	3666
775.026	3936
775.133	2894
775.239	3522
775.346	2593
775.453	3177
775.560	2566
775.667	2615
775.773	3275
775.880	3315
775.987	2428
776.093	3403
776.200	3347
776.307	2838
776.413	2457
776.520	3132
776.627	4380
776.733	2909
776.840	1957
776.946	3912
777.053	3045
777.159	2976
777.266	3044
777.372	2584
777.478	3557
777.585	3408
777.691	2455
777.798	3009
777.904	3370
778.010	3442
778.117	3486
778.223	2823
778.329	3133
778.435	3326
778.542	3202
778.648	2594
778.754	2482
778.860	2737
778.966	1784
779.072	2564
779.178	3091
779.284	2156
779.391	2282
779.497	1909
779.603	3472
779.708	2351
779.815	2721
779.920	4410
780.026	9607
780.132	3024
780.238	2220
780.344	2375
780.450	2433
780.556	1975
780.661	2355
780.767	2514
780.873	2433
780.979	2769
781.085	2342
781.190	1211
781.296	2014
781.402	2218
781.507	2580
781.613	1182
781.719	1164
781.824	2594
781.930	2676
782.035	2107
782.141	2250
782.246	1790
782.352	2002
782.457	2359
782.563	1290
782.668	2400
782.773	2511
782.879	2499
782.984	3330
783.090	2971
783.195	2786
783.300	2974
783.405	2588
783.511	1926
783.616	2813
783.721	2516
783.826	1991
783.932	2022
784.037	2588
784.142	2226
784.247	2072
784.352	2901
784.457	2022
784.562	2110
784.667	2323
784.772	2351
784.877	2238
784.982	2970
785.087	1744
785.192	2175
785.297	2414
785.402	1958
785.507	2303
785.611	1894
785.716	2143
785.821	1884
785.926	2473
786.031	1844
786.135	1481
786.240	2179
786.345	1258
786.450	2449
786.554	1250
786.659	1539
786.763	666
786.868	2150
786.973	2856
787.077	1971
787.182	1706
787.286	1945
787.391	1503
787.495	1727
787.600	830
787.704	1370
787.809	2114
787.913	1468
788.017	2081
788.122	2507
788.226	2103
788.330	1241
788.435	2269
788.539	2130
788.643	1606
788.747	1424
788.852	1723
788.956	1065
789.060	2319
789.164	1588
789.268	983
789.372	2777
789.476	1916
789.580	2003
789.684	1134
789.788	1823
789.892	1305
789.996	1569
790.100	969
790.204	1374
790.308	1045
790.412	1315
790.516	1431
790.620	1152
790.724	1838
790.828	1647
790.931	1019
791.035	2309
791.139	1875
791.242	733
791.346	1729
791.450	1757
791.554	1706
791.657	982
791.761	2180
791.864	2170
791.968	1301
792.072	1253
792.175	1068
792.279	1145
792.382	1530
792.486	1279
792.589	1146
792.693	1936
792.796	1097
792.899	1663
793.003	1077
793.106	432
793.209	1787
793.313	1639
793.416	450
793.519	2354
793.623	2344
793.726	2760
793.829	1753
793.932	1421
794.035	1029
794.138	1960
794.242	1171
794.345	1117
794.448	1636
794.551	1266
794.654	3859
794.757	5675
794.860	2527
794.963	2532
795.066	898
795.169	1725
795.272	451
795.375	1661
795.477	1162
795.580	2126
795.683	476
795.786	2133
795.889	809
795.991	2094
796.094	1691
796.197	681
796.300	1281
796.402	857
796.505	846
796.608	890
796.710	1880
796.813	1533
796.915	1492
797.018	991
797.120	813
797.223	435
797.326	2387
797.428	1052
797.530	1653
797.633	1217
797.735	2481
797.838	1111
797.940	2591
798.042	613
798.145	931
798.247	1942
798.349	122
798.452	1340
798.554	915
798.656	418
798.758	2309
798.860	1355
798.962	625
799.065	823
799.167	1298
799.269	1479
799.371	1416
799.473	1601
799.575	1098
799.677	1755
799.779	2516
799.881	1898
799.983	2475
800.085	694
800.187	980
800.289	738
800.390	1380
800.492	1369
800.594	1377
800.696	355
800.798	967
800.899	908
801.001	1551
801.103	1082
801.205	417
801.306	2
801.408	687
801.509	994
801.611	893
801.713	807
801.814	313
801.916	821
802.017	865
802.119	232
802.220	830
802.322	-124
802.423	862
802.525	499
802.626	622
802.727	545
802.829	1487
802.930	-325
803.031	1296
803.133	1443
803.234	584
803.335	1331
803.436	211
803.538	529
803.639	-325
803.740	885
803.841	141
803.942	1294
804.043	1153
804.144	446
804.245	990
804.346	1039
804.447	927
804.548	1321
804.649	2098
804.750	871
804.851	492
804.952	493
805.053	464
805.154	129
805.255	1243
805.355	768
805.456	975
805.557	-23
805.658	16
805.758	531
805.859	820
805.960	360
806.061	206
806.161	379
806.262	1238
806.362	65
806.463	430
806.564	1136
806.664	283
806.765	385
806.865	1281
806.966	84
807.066	67
807.166	945
807.267	455
807.367	519
807.468	792
807.568	362
807.668	282
807.769	760
807.869	324
807.969	708
808.069	507
808.170	1036
808.270	647
808.370	793
808.470	1310
808.570	-465
808.670	965
808.770	1114
808.870	374
808.970	595
809.070	725
809.170	461
809.271	858
809.370	-250
809.470	873
809.570	400
809.670	431
809.770	-137
809.870	381
809.970	900
810.070	1030
810.169	906
810.269	-775
810.369	1422
810.469	731
810.568	-120
810.668	180
810.768	584
810.867	634
810.967	774
811.066	699
811.166	-94
811.265	863
811.365	343
811.464	25
811.564	1177
811.663	1390
811.763	-286
811.862	1065
811.962	1774
812.061	515
812.160	319
812.260	723
812.359	1419
812.458	2085
812.557	5660
812.657	11927
812.756	3461
812.855	832
812.954	771
813.053	896
813.153	746
813.252	359
813.351	260
813.450	1161
813.549	700
813.648	619
813.747	882
813.846	1597
813.945	195
814.044	578
814.143	574
814.242	1079
814.341	748
814.439	527
814.538	1234
814.637	8
814.736	701
814.835	460
814.933	392
815.032	1420
815.131	534
815.229	741
815.328	1258
815.427	1514
815.525	1876
815.624	1041
815.722	757
815.821	1777
815.919	1307
816.018	1239
816.116	1258
816.215	702
816.313	1683
816.412	1044
816.510	1954
816.609	2825
816.707	1329
816.805	1026
816.904	1718
817.002	2064
817.100	2342
817.198	2585
817.296	2534
817.395	2617
817.493	3012
817.591	2296
817.689	3985
817.787	4347
817.885	6019
817.983	10387
818.081	22056
818.179	53288
818.277	135971
818.375	153469
818.473	39058
818.571	11968
818.669	8536
818.767	6826
818.865	7871
818.963	7312
819.061	10903
819.158	19263
819.256	41904
819.354	93841
819.452	214726
819.549	177533
819.647	49373
819.745	17620
819.842	9918
819.940	7149
820.038	4621
820.135	4126
820.233	4261
820.330	3355
820.428	2782
820.525	2719
820.623	2020
820.720	1539
820.818	2223
820.915	1300
821.012	2227
821.110	428
821.207	2399
821.304	1030
821.402	1300
821.499	1280
821.596	1809
821.693	1939
821.791	1806
821.888	1118
821.985	3005
822.082	2648
822.179	2369
822.276	850
822.373	1130
822.470	636
822.567	1512
822.664	368
822.761	1749
822.858	675
822.955	478
823.052	1022
823.149	1050
823.246	1475
823.343	711
823.440	1841
823.536	238
823.633	999
823.730	39
823.827	1471
823.923	480
824.020	1985
824.117	1444
824.213	182
824.310	2231
824.407	379
824.503	726
824.600	943
824.696	836
824.793	1670
824.889	725
824.986	1037
825.082	686
825.179	1161
825.275	181
825.371	671
825.468	1513
825.564	-3
825.660	879
825.757	1358
825.853	942
825.949	-233
826.045	835
826.142	250
826.238	1233
826.334	844
826.430	402
826.526	1101
826.622	354
826.718	856
826.814	125
826.910	1696
827.006	-442
827.102	175
827.198	976
827.294	374
827.390	700
827.486	399
827.582	-214
827.678	-756
827.774	1360
827.869	-301
827.965	687
828.061	502
828.157	845
828.252	1042
828.348	-4
828.444	633
828.539	584
828.635	1478
828.731	1346
828.826	174
828.922	1210
829.017	-212
829.113	1628
829.208	-430
829.304	-236
829.399	1952
829.495	-67
829.590	785
829.685	-860
829.781	880
829.876	877
829.971	-41
830.066	83
830.162	-210
830.257	1062
830.352	553
830.447	936
830.543	488
830.638	-296
830.733	1070
830.828	49
830.923	276
831.018	784
831.113	172
831.208	334
831.303	246
831.398	460
831.493	10
831.588	985
831.683	-141
831.778	90
831.873	223
831.967	996
832.062	697
832.157	-413
832.252	941
832.346	781
832.441	1296
832.536	652
832.631	2652
832.725	3099
832.820	498
832.914	35
833.009	-274
833.104	260
833.198	1021
833.293	10
833.387	268
833.482	636
833.576	-344
833.670	143
833.765	537
833.859	-12
833.954	1086
834.048	565
834.142	675
834.237	318
834.331	675
834.425	708
834.519	-435
834.613	687
834.708	377
834.802	493
834.896	152
834.990	-485
835.084	519
835.178	-64
835.272	-572
835.366	246
835.460	580
835.554	313
835.648	640
835.742	-337
835.836	-31
835.930	-792
836.024	803
836.117	1304
836.211	125
836.305	616
836.399	832
836.493	-361
836.586	1129
836.680	-74
836.774	-1205
836.867	890
836.961	-307
837.055	56
837.148	-42
837.242	-566
837.335	-63
837.429	-7
837.522	246
837.616	647
837.709	1588
837.803	305
837.896	598
837.989	58
838.083	684
838.176	787
838.269	3
838.363	977
838.456	44
838.549	562
838.642	765
838.735	2304
838.829	1488
838.922	-197
839.015	13
839.108	297
839.201	-732
839.294	115
839.387	515
839.480	-385
839.573	44
839.666	278
839.759	227
839.852	-631
839.945	63
840.038	296
840.131	-57
840.223	15
840.316	327
840.409	195
840.502	-399
840.594	1291
840.687	-646
840.780	-508
840.873	-618
840.965	470
841.058	499
841.150	-5
841.243	517
841.336	266
841.428	-874
841.521	-881
841.613	-1035
841.706	831
841.798	722
841.890	393
841.983	-521
842.075	913
842.167	-1112
842.260	-112
842.352	-193
842.444	-336
842.537	1176
842.629	2360
842.721	817
842.813	-247
842.905	-925
842.997	192
843.090	151
843.182	1275
843.274	421
843.366	2349
843.458	4965
843.550	5046
843.642	-137
843.734	475
843.826	-375
843.918	358
844.009	-148
844.101	199
844.193	-197
844.285	659
844.377	400
844.469	-176
844.560	-86
844.652	199
844.744	645
844.835	-85
844.927	195
845.019	-31
845.110	454
845.202	-54
845.293	545
845.385	-238
845.476	-30
845.568	423
845.659	476
845.751	88
845.842	-163
845.934	-1331
846.025	-357
846.116	4
846.208	-589
846.299	-525
846.390	-275
846.482	-465
846.573	419
846.664	123
846.755	733
846.846	585
846.937	-726
847.029	148
847.120	-385
847.211	-253
847.302	516
847.393	-756
847.484	368
847.575	-408
847.666	104
847.757	474
847.847	-920
847.938	581
848.029	-67
848.120	-303
848.211	-830
848.302	-434
848.392	-585
848.483	304
848.574	-550
848.664	-490
848.755	-152
848.846	108
848.936	-827
849.027	-287
849.118	-194
849.208	203
849.299	-276
849.389	599
849.480	1349
849.570	2478
849.661	5352
849.751	10544
849.841	5154
849.932	1211
850.022	-179
850.112	449
850.203	-241
850.293	-433
850.383	226
850.474	-8
850.564	-618
850.654	49
850.744	140
850.834	-6
850.924	301
851.014	353
851.104	496
851.194	-338
851.284	201
851.374	169
851.464	-4
851.554	104
851.644	-1103
851.734	1109
851.824	500
851.914	-79
852.004	-113
852.094	-571
852.183	-86
852.273	-376
852.363	223
852.452	-763
852.542	-25
852.632	45
852.721	-426
852.811	-14
852.901	-692
852.990	145
853.080	360
853.169	-525
853.259	378
853.348	-1033
853.438	-528
853.527	855
853.617	662
853.706	1559
853.795	3724
853.885	7578
853.974	16788
854.063	29125
854.152	58597
854.242	32109
854.331	4802
854.420	1147
854.509	71
854.598	-46
854.687	-99
854.777	105
854.866	1169
854.955	217
855.044	54
855.133	-553
855.222	-27
855.311	-171
855.400	-345
855.488	-555
855.577	-433
855.666	-17
855.755	-219
855.844	404
855.933	-171
856.021	615
856.110	-37
856.199	-527
856.288	-187
856.376	-960
856.465	-624
856.554	-152
856.642	-338
856.731	-218
856.819	53
856.908	-346
856.996	-643
857.085	302
857.173	-590
857.262	-147
857.350	70
857.438	146
857.527	50
857.615	18
857.703	-68
857.792	-197
857.880	-530
857.968	-228
858.056	-251
858.145	148
858.233	-102
858.321	-1349
858.409	-313
858.497	-401
858.585	-470
858.673	-232
858.761	213
858.849	-374
858.937	-849
859.025	-341
859.113	-526
859.201	-28
859.289	-392
859.377	-150
859.465	-1087
859.552	-168
859.640	-830
859.728	-361
859.816	74
859.903	-666
859.991	-722
860.079	-670
860.166	-1140
860.254	-220
860.342	-193
860.429	-861
860.517	-519
860.604	-651
860.692	-426
860.779	50
860.867	-1059
860.954	-168
861.042	-214
861.129	-37
861.216	-201
861.304	-798
861.391	565
861.478	-4
861.565	132
861.653	100
861.740	-64
861.827	26
861.914	903
862.001	114
862.089	348
862.176	-248
862.263	-237
862.350	-269
862.437	-81
862.524	-618
862.611	-883
862.698	713
862.785	-28
862.871	-34
862.958	-522
863.045	-98
863.132	-5
863.219	-216
863.306	-1474
863.392	469
863.479	-840
863.566	-379
863.652	-8
863.739	-514
863.826	-887
863.912	130
863.999	-678
864.086	323
864.172	-815
864.259	-769
864.345	-351
864.432	-669
864.518	-554
864.604	-174
864.691	-1078
864.777	-13
864.863	223
864.950	794
865.036	-177
865.122	600
865.209	1340
865.295	1006
865.381	1050
865.467	491
865.553	1139
865.639	256
865.726	1706
865.812	4012
865.898	8710
865.984	13260
866.070	22165
866.156	37403
866.242	13270
866.328	3050
866.414	541
866.499	681
866.585	881
866.671	203
866.757	663
866.843	656
866.928	402
867.014	157
867.100	1306
867.186	397
867.271	414
867.357	905
867.442	1093
867.528	882
867.614	411
867.699	433
867.785	256
867.870	650
867.956	595
868.041	1355
868.127	774
868.212	-57
868.297	1412
868.383	555
868.468	175
868.553	1600
868.639	1666
868.724	2289
868.809	3919
868.894	1202
868.979	238
869.065	913
869.150	-125
869.235	-173
869.320	324
869.405	-82
869.490	262
869.575	-100
869.660	-528
869.745	1071
869.830	-44
869.915	479
870.000	102
870.085	114
870.169	-5
870.254	233
870.339	-128
870.424	-534
870.509	481
870.593	408
870.678	675
870.763	162
870.847	207
870.932	-368
871.016	989
871.101	35
871.186	331
871.270	871
871.355	-107
871.439	260
871.523	24
871.608	295
871.692	190
871.777	-189
871.861	71
871.945	-414
872.030	332
872.114	447
872.198	-540
872.282	245
872.367	-460
872.451	-324
872.535	-141
872.619	173
872.703	137
872.787	259
872.871	-93
872.955	-574
873.039	-247
873.123	-390
873.207	-368
873.291	-385
873.375	289
873.459	-112
873.543	-56
873.627	-261
873.711	464
873.794	468
873.878	-595
873.962	-776
874.045	-178
874.129	181
874.137	155
874.213	-102
874.245	-240
874.296	-459
874.352	-175
874.380	-39
874.460	23
874.464	26
874.547	-180
874.568	-149
874.631	-85
874.676	34
874.714	158
874.784	-25
874.798	-66
874.881	1666
874.892	1479
874.965	200
874.999	128
875.048	12
875.107	31
875.131	41
875.215	179
875.215	179
875.298	-234
875.323	-262
875.381	-276
875.430	225
875.465	557
875.538	239
875.548	203
875.631	-290
875.646	-325
875.714	-615
875.753	-592
875.798	-493
875.861	-691
875.881	-756
875.964	-954
875.968	-903
876.047	-2
876.076	-150
876.130	-516
876.183	-15
876.213	362
876.291	639
876.296	644
876.379	-502
876.398	-365
876.462	81
876.506	136
876.545	184
876.613	93
876.628	105
876.711	-47
876.721	-60
876.794	-190
876.828	48
876.877	242
876.935	-149
876.960	-207
877.043	711
877.043	708
877.125	-124
877.150	138
877.208	758
877.258	491
877.291	355
877.365	242
877.374	222
877.456	180
877.472	49
877.539	-448
877.579	-116
877.622	160
877.687	436
877.704	555
877.787	617
877.794	542
877.869	-410
877.901	-23
877.952	611
878.008	203
878.034	-25
878.115	-307
878.117	-308
878.199	-701
878.222	-436
878.282	166
878.329	-29
878.364	-103
878.437	-104
878.447	-119
878.529	-210
878.544	-194
878.611	-109
878.651	-255
878.694	-405
878.758	32
878.776	165
878.858	-71
878.865	-13
878.941	492
878.972	101
879.023	-460
879.078	-331
879.105	-274
879.185	210
879.187	226
879.269	-32
879.292	-16
879.351	-309
879.399	-95
879.433	217
879.506	489
879.516	482
879.598	-50
879.613	-94
879.680	-240
879.720	-120
879.762	179
879.827	218
879.844	122
879.926	-750
879.933	-724
880.007	-27
880.040	24
880.089	196
880.147	688
880.171	826
880.253	1298
880.254	1299
880.335	1318
880.360	1454
880.417	2383
880.467	3537
880.499	4373
880.574	7248
880.580	7325
880.662	2356
880.680	1717
880.744	124
880.787	-28
880.825	48
880.893	166
880.907	186
880.989	81
881.000	27
881.070	-289
881.106	-213
881.152	-134
881.213	17
881.233	65
881.315	291
881.319	293
881.396	421
881.426	345
881.478	83
881.532	396
881.559	693
881.639	512
881.641	498
881.722	350
881.745	194
881.803	168
881.852	128
881.885	-140
881.958	35
881.966	90
882.047	59
882.064	76
882.129	361
882.171	563
882.210	608
882.277	956
882.291	1060
882.372	1107
882.383	1014
882.454	-132
882.489	-218
882.535	111
882.596	413
882.616	406
882.697	-15
882.702	-37
882.778	12
882.808	133
882.859	212
882.914	57
882.940	-14
883.020	281
883.021	285
883.102	254
883.127	202
883.183	275
883.233	350
883.264	158
883.339	-54
883.345	-14
883.426	-0
883.445	97
883.507	320
883.551	362
883.587	149
883.657	200
883.668	241
883.749	-504
883.763	-482
883.830	-357
883.869	-598
883.910	-658
883.975	-281
883.991	-165
884.072	299
884.081	348
884.152	293
884.187	115
884.233	-137
884.292	-237
884.314	-86
884.394	167
884.398	196
884.475	-94
884.504	-283
884.555	149
884.610	440
884.636	232
884.716	-238
884.716	-232
884.797	221
884.821	353
884.877	517
884.927	402
884.958	180
885.033	-319
885.038	-285
885.118	518
885.139	669
885.199	412
885.244	203
885.279	229
885.350	445
885.359	446
885.439	311
885.456	196
885.520	37
885.561	258
885.600	290
885.667	55
885.680	45
885.760	97
885.773	85
885.840	245
885.878	305
885.920	198
885.984	56
886.000	56
886.080	67
886.089	65
886.160	4
886.195	95
886.240	283
886.300	369
886.320	466
886.400	738
886.406	748
886.480	163
886.511	-46
886.560	297
886.616	715
886.640	563
886.720	-45
886.722	-61
886.800	390
886.827	527
886.879	379
886.932	313
886.959	290
887.038	129
887.039	130
887.119	48
887.143	8
887.198	482
887.248	952
887.278	761
887.354	242
887.358	252
887.437	278
887.459	354
887.517	709
887.564	865
887.596	704
887.669	475
887.676	534
887.755	1056
887.774	1189
887.835	620
887.880	260
887.914	464
887.985	774
887.994	742
888.073	483
888.090	405
888.153	447
888.195	461
888.232	381
888.300	320
888.311	327
888.391	301
888.405	301
888.470	104
888.510	-79
888.549	153
888.615	653
888.628	613
888.708	288
888.720	232
888.787	563
888.825	769
888.866	796
888.930	798
888.945	728
889.024	332
889.035	281
889.103	165
889.140	102
889.182	303
889.245	562
889.261	590
889.340	736
889.349	752
889.419	456
889.454	284
889.498	70
889.559	-205
889.577	-13
889.656	834
889.664	916
889.735	334
889.768	56
889.814	327
889.873	688
889.978	961
890.083	561
890.187	257
890.292	754
890.397	748
890.501	242
890.606	631
890.710	415
890.815	1201
890.919	-90
891.024	265
891.128	514
891.233	514
891.337	425
891.442	-106
891.546	916
891.650	849
891.755	497
891.859	1141
891.963	993
892.068	603
892.172	790
892.276	804
892.380	921
892.484	708
892.589	-108
892.693	312
892.797	-82
892.901	-350
893.005	1138
893.109	624
893.213	1096
893.317	589
893.421	94
893.525	7
893.629	-41
893.733	459
893.837	-261
893.941	243
894.045	772
894.148	-622
894.252	589
894.356	629
894.460	558
894.564	928
894.667	529
894.771	-59
894.875	497
894.978	-428
895.082	229
895.186	349
895.289	967
895.393	793
895.496	659
895.600	34
895.703	193
895.807	432
895.910	165
896.014	-360
896.117	779
896.221	215
896.324	374
896.427	306
896.531	867
896.634	134
896.737	757
896.840	-648
896.944	-165
897.047	530
897.150	160
897.253	-298
897.356	-131
897.460	161
897.563	-68
897.666	-295
897.769	177
897.872	-138
897.975	-59
898.078	948
898.181	276
898.284	356
898.387	918
898.490	355
898.593	543
898.695	20
898.798	287
898.901	751
899.004	758
899.107	598
899.209	264
899.312	906
899.415	323
899.518	-228
899.620	320
899.723	522
899.826	1061
899.928	711
900.031	767
900.133	-341
900.236	643
900.338	-658
900.441	569
900.543	-64
900.646	97
900.748	134
900.851	316
900.953	-133
901.055	57
901.158	-15
901.260	-261
901.362	438
901.465	318
901.567	943
901.669	928
901.771	403
901.873	415
901.976	498
902.078	-154
902.180	-76
902.282	-378
902.384	183
902.486	655
902.588	242
902.690	19
902.792	50
902.894	-120
902.996	-64
903.098	821
903.200	-81
903.302	1044
903.404	462
903.505	-501
903.607	384
903.709	728
903.811	71
903.913	507
904.014	-614
904.116	257
904.218	843
904.319	22
904.421	896
904.523	563
904.624	-278
904.726	508
904.827	269
904.929	147
905.030	-72
905.132	211
905.233	280
905.335	-782
905.436	286
905.537	-441
905.639	360
905.740	57
905.841	205
905.943	77
906.044	-627
906.145	-106
906.247	253
906.348	-1
906.449	35
906.550	-1255
906.651	564
906.752	365
906.854	277
906.955	27
907.056	21
907.157	492
907.258	535
907.359	191
907.460	-234
907.561	-371
907.662	-282
907.762	444
907.863	-593
907.964	412
908.065	417
908.166	354
908.267	-167
908.367	332
908.468	759
908.569	255
908.670	-146
908.770	397
908.871	1042
908.971	123
909.072	-207
909.173	-86
909.273	-469
909.374	188
909.474	135
909.575	-295
909.675	-21
909.776	243
909.876	742
909.977	-143
910.077	445
910.177	675
910.278	396
910.378	-150
910.478	458
910.579	-306
910.679	24
910.779	-137
910.879	163
910.980	159
911.080	414
911.180	-62
911.280	395
911.380	-371
911.480	-253
911.580	-324
911.680	154
911.780	-253
911.880	408
911.980	473
912.080	66
912.180	685
912.280	773
912.380	-240
912.480	318
912.580	-156
912.679	-396
912.779	319
912.879	697
912.979	402
913.078	238
913.178	482
913.278	576
913.377	458
913.477	1023
913.577	288
913.676	942
913.776	-686
913.875	-266
913.975	767
914.074	-223
914.174	552
914.273	-612
914.373	932
914.472	205
914.572	707
914.671	220
914.770	-1020
914.870	337
914.969	-418
915.068	-410
915.167	-5
915.267	-300
915.366	410
915.465	535
915.564	-513
915.663	138
915.763	-473
915.862	7
915.961	360
916.060	-189
916.159	310
916.258	-102
916.357	-219
916.456	366
916.555	-108
916.654	-20
916.752	-232
916.851	-379
916.950	112
917.049	-627
917.148	149
917.247	503
917.345	177
917.444	-491
917.543	237
917.642	67
917.740	130
917.839	45
917.937	7
918.036	1117
918.135	211
918.233	-75
918.332	-116
918.430	-149
918.529	401
918.627	-553
918.726	-159
918.824	-8
918.923	85
919.021	-98
919.119	-137
919.218	-792
919.316	-887
919.414	-340
919.512	-319
919.611	665
919.709	-453
919.807	-313
919.905	856
920.003	395
920.102	31
920.200	-592
920.298	657
920.396	-41
920.494	-56
920.592	-1097
920.690	771
920.788	-360
920.886	693
920.984	148
921.082	-741
921.180	910
921.277	246
921.375	-100
921.473	-88
921.571	642
921.669	694
921.766	-325
921.864	342
921.962	31
922.060	308
922.157	895
922.255	87
922.352	-13
922.450	397
922.548	47
922.645	1143
922.743	371
922.840	761
922.938	793
923.035	443
923.133	650
923.230	1214
923.327	632
923.425	1193
923.522	370
923.619	827
923.717	377
923.814	1337
923.911	1110
924.008	1537
924.106	1312
924.203	810
924.300	918
924.397	857
924.494	614
924.591	1501
924.688	739
924.786	967
924.883	1023
924.979	537
925.077	1047
925.173	647
925.270	-12
925.367	1134
925.464	1228
925.561	942
925.658	1765
925.755	854
925.852	729
925.948	1128
926.045	1518
926.142	497
926.239	1454
926.335	13
926.432	532
926.529	1626
926.625	815
926.722	262
926.818	555
926.915	1240
927.011	875
927.108	221
927.204	285
927.301	947
927.397	610
927.494	856
927.590	144
927.687	485
927.783	14
927.879	849
927.976	1280
928.072	1396
928.168	675
928.264	697
928.361	847
928.457	304
928.553	672
928.649	815
928.745	611
928.841	679
928.937	812
929.033	838
929.129	804
929.225	1181
929.321	512
929.417	1039
929.513	94
929.609	330
929.705	-770
929.801	166
929.897	-519
929.993	278
930.089	786
930.184	1295
930.280	1255
930.376	902
930.471	-42
930.567	562
930.663	546
930.758	361
930.854	-230
930.950	-210
931.045	-122
931.141	368
931.236	502
931.332	122
931.427	447
931.523	704
931.618	628
931.714	123
931.809	612
931.905	573
932.000	-64
932.095	521
932.191	523
932.286	1097
932.381	-188
932.476	97
932.572	220
932.667	-370
932.762	23
932.857	814
932.952	113
933.047	277
933.142	-104
933.237	837
933.332	-45
933.427	599
933.522	468
933.617	69
933.712	247
933.807	541
933.902	193
933.997	1352
934.092	282
934.187	1152
934.282	679
934.376	-108
934.471	56
934.566	543
934.661	-230
934.755	415
934.850	179
934.945	635
935.039	-144
935.134	705
935.228	19
935.323	453
935.417	-153
935.512	578
935.606	-940
935.701	467
935.795	-307
935.890	-234
935.984	75
936.079	-48
936.173	456
936.267	438
936.362	-330
936.456	1267
936.550	-785
936.644	-79
936.738	-253
936.833	694
936.927	319
937.021	644
937.115	-600
937.209	749
937.303	773
937.397	90
937.491	365
937.585	360
937.679	-68
937.773	25
937.867	28
937.961	43
938.055	-87
938.149	-332
938.243	499
938.337	48
938.430	393
938.524	-478
938.618	-662
938.712	386
938.805	129
938.899	-254
938.993	169
939.086	-524
939.180	-37
939.274	517
939.367	256
939.461	75
939.554	-947
939.648	-178
939.741	73
939.835	143
939.928	-103
940.022	-258
940.115	-279
940.208	297
940.302	369
940.395	-64
940.488	-546
940.582	476
940.675	271
940.768	-122
940.861	-118
940.954	-3
941.048	-612
941.141	-62
941.234	202
941.327	205
941.420	-669
941.513	-287
941.606	-79
941.699	375
941.792	-361
941.885	71
941.978	500
942.071	-492
942.164	-461
942.257	-161
942.349	-410
942.442	-366
942.535	-450
942.628	-256
942.721	280
942.813	-581
942.906	1057
942.999	65
943.091	85
943.184	161
943.277	288
943.369	228
943.462	-902
943.554	-114
943.647	-61
943.739	175
943.832	353
943.924	-1033
944.017	-336
944.109	-490
944.201	-631
944.294	-106
944.386	-73
944.478	-544
944.571	-424
944.663	-713
944.755	-273
944.847	-440
944.940	-426
945.032	-448
945.124	-937
945.216	343
945.308	136
945.400	632
945.492	396
945.584	-453
945.676	-358
945.768	-190
945.860	428
945.952	-281
946.044	44
946.136	-550
946.228	-139
946.320	-961
946.412	-360
946.503	-262
946.595	527
946.687	-375
946.779	-396
946.870	-539
946.962	-610
947.054	8
947.145	-182
947.237	84
947.329	-607
947.420	-362
947.512	-258
947.603	2
947.695	-207
947.786	-1253
947.878	-670
947.969	-112
948.061	-847
948.152	-631
948.243	-1059
948.335	-256
948.426	-787
948.517	366
948.609	-285
948.700	-26
948.791	-1149
948.882	-521
948.973	-826
949.065	-915
949.156	-316
949.247	-815
949.338	-316
949.429	-357
949.520	-743
949.611	-258
949.702	-458
949.793	72
949.884	-1009
949.975	-866
950.066	-681
950.157	-424
950.247	-346
950.338	-352
950.429	-711
950.520	-392
950.611	-1172
950.701	-372
950.792	-412
950.883	405
950.973	-601
951.064	-629
951.155	-198
951.245	188
951.336	-230
951.427	-1464
951.517	293
951.608	-179
951.698	-248
951.788	-832
951.879	-908
951.969	75
952.060	-1320
952.150	54
952.240	-767
952.331	-1280
952.421	410
952.511	-563
952.602	-677
952.692	-534
952.782	-757
952.872	-482
952.962	-1032
953.052	-614
953.143	-1402
953.233	-874
953.323	-218
953.413	-385
953.503	-282
953.593	-666
953.683	-417
953.773	-858
953.863	-622
953.953	-1006
954.042	-755
954.132	-1059
954.222	-123
954.312	37
954.402	-723
954.492	-759
954.581	-210
954.671	-145
954.761	-1611
954.850	-464
954.940	-451
955.030	-446
955.119	-845
955.209	-371
955.298	-1187
955.388	-116
955.477	45
955.567	-1187
955.656	-451
955.746	-357
955.835	-685
955.925	-730
956.014	-622
956.103	-204
956.193	-64
956.282	-603
956.371	-715
956.461	-925
956.550	-884
956.639	-975
956.728	-941
956.817	-871
956.906	-913
956.995	-334
957.085	-1036
957.174	-353
957.263	-1726
957.352	-836
957.441	-295
957.530	-1057
957.619	-1596
957.708	-395
957.796	-937
957.885	-420
957.974	-916
958.063	-798
958.152	-909
958.241	-1096
958.329	-482
958.418	-990
958.507	-1862
958.596	9
958.684	-683
958.773	-190
958.861	-723
958.950	-154
959.039	-578
959.127	-267
959.216	-91
959.304	-1395
959.393	-1031
959.481	-1230
959.570	-805
959.658	-1113
959.746	-405
959.835	-729
959.923	-940
960.011	-1264
960.100	-644
960.188	-805
960.276	-403
960.365	-590
960.453	-897
960.541	-1120
960.629	-418
960.717	-687
960.805	-1713
960.893	-1240
960.981	-1619
961.069	37
961.158	-976
961.245	-730
961.333	-305
961.421	-734
961.509	-1273
961.597	-81
961.685	-966
961.773	-1435
961.861	-1168
961.949	-130
962.036	-822
962.124	-1002
962.212	-942
962.299	-871
962.387	59
962.475	-1010
962.562	-1095
962.650	-451
962.738	-1310
962.825	-747
962.913	-1003
963.000	-663
963.088	-615
963.175	-1024
963.263	-847
963.350	-1147
963.438	-1310
963.525	-1429
963.612	-595
963.700	-871
963.787	98
963.874	491
963.962	-150
964.049	-391
964.136	-969
964.223	-886
964.310	-288
964.398	-1343
964.485	-573
964.572	-919
964.659	-1109
964.746	-557
964.833	-239
964.920	-792
965.007	-1121
965.094	-1308
965.181	-909
965.268	-609
965.355	-1143
965.441	-679
965.528	-1369
965.615	-1124
965.702	-1150
965.789	-1913
965.875	-198
965.962	-710
966.049	-685
966.136	-1135
966.222	-1028
966.309	-49
966.395	-984
966.482	-352
966.569	-887
966.655	-1085
966.742	-1481
966.828	-970
966.915	-2013
967.001	-1170
967.087	-1346
967.174	-779
967.260	-482
967.347	-1141
967.433	269
967.519	172
967.605	-478
967.692	-1255
967.778	-1091
967.864	-817
967.950	-1023
968.036	-970
968.123	-631
968.209	-703
968.295	-1452
968.381	-25
968.467	-1215
968.553	-1146
968.639	-346
968.725	-1372
968.811	-257
968.897	-534
968.983	-243
969.069	-2109
969.154	-953
969.240	-884
969.326	-569
969.412	-801
969.497	-1072
969.583	-1639
969.669	-636
969.755	-1216
969.840	-1903
969.926	-1096
970.012	-1575
970.097	-807
970.183	-1459
970.268	-817
970.354	-1107
970.439	-1613
970.525	-354
970.610	-1122
970.696	-934
970.781	-189
970.866	-1766
970.952	-391
971.037	-972
971.122	-466
971.208	-1171
971.293	-797
971.378	-1757
971.463	-1261
971.549	-872
971.634	-1077
971.719	-1525
971.804	-675
971.889	-284
971.974	-813
972.059	-880
972.144	-1195
972.229	-1359
972.314	-903
972.399	-872
972.484	-1114
972.569	-994
972.654	-1240
972.739	-179
972.824	-968
972.908	-1330
972.993	-1431
973.078	-701
973.163	-1058
973.247	-634
973.332	-1405
973.417	-108
973.501	-1059
973.586	-623
973.671	-622
973.755	-1284
973.840	461
973.924	-886
974.009	-716
974.093	-1721
974.178	-466
974.262	-1124
974.346	-460
974.431	-1398
974.515	-1199
974.600	-962
974.684	-1085
974.768	-1433
974.852	-269
974.937	-1216
975.021	-439
975.105	-1388
975.189	-1153
975.273	-1377
975.358	-790
975.442	-1739
975.526	-1063
975.610	-1050
975.694	-1345
975.778	-639
975.862	-1081
975.946	-1785
976.030	387
976.114	-1701
976.198	-1604
976.281	-1589
976.365	-506
976.449	-1161
976.533	-280
976.617	-1327
976.700	-916
976.784	-90
976.868	-1735
976.951	-1024
977.035	-1082
977.119	-1367
977.202	-383
977.286	-1501
977.369	-1163
977.453	-1115
977.536	-981
977.620	-1559
977.703	-652
977.787	-1675
977.870	-503
977.953	43
978.037	-2186
978.120	-665
978.203	-192
978.287	-1186
978.370	-384
978.453	-1750
978.536	-562
978.620	-461
978.703	-1575
978.786	-721
978.869	-1385
978.952	-1541
979.035	100
979.118	-1100
979.201	-1535
979.284	-659
979.367	-1185
979.450	-925
979.533	-1708
979.616	-1235
979.699	-873
979.782	-796
979.865	-922
979.948	-1141
980.030	-1388
980.113	-1025
980.196	-1328
980.279	-1253
980.361	-945
980.444	-1248
980.526	-1052
980.609	-1074
980.692	-715
980.774	-1583
980.857	-1634
980.939	-498
981.022	-837
981.104	-1526
981.187	-1190
981.269	-753
981.352	-1082
981.434	-1545
981.516	-325
981.599	297
981.681	-680
981.763	-1503
981.846	-1353
981.928	-980
982.010	-1366
982.092	-1402
982.174	-1121
982.256	-1239
982.339	-1250
982.421	-948
982.503	-1100
982.585	-1940
982.667	-851
982.749	-1828
982.831	-1015
982.913	-1827
982.995	-21
983.077	-1381
983.158	-235
983.240	-1808
983.322	-1233
983.404	-564
983.486	-1662
983.568	-669
983.649	-1247
983.731	-1553
983.813	-488
983.894	-1440
983.976	-1312
984.058	-1302
984.139	-449
984.221	-2006
984.302	-1114
984.384	-1109
984.465	-1248
984.547	-937
984.628	-1404
984.710	-793
984.791	-1338
984.872	-1585
984.954	-871
985.035	-852
985.116	-1303
985.198	-1220
985.279	-111
985.360	-1473
985.441	-992
985.522	-758
985.604	-904
985.685	-2476
985.766	-1070
985.847	-695
985.928	-920
986.009	-1869
986.090	-1679
986.171	-863
986.252	-1221
986.333	-1440
986.414	-1096
986.495	-1610
986.576	-766
986.656	-958
986.737	93
986.818	-1377
986.899	-1519
986.980	-692
987.060	-1224
987.141	-1345
987.222	-1391
987.302	-1820
987.383	-1276
987.464	-1667
987.544	-453
987.625	-580
987.705	-479
987.786	-1026
987.866	-1353
987.947	-1338
988.027	-1621
988.108	-1400
988.188	-1068
988.268	-1440
988.349	-637
988.429	-1157
988.509	-1080
988.589	-1226
988.670	-1936
988.750	-180
988.830	-786
988.910	-1087
988.990	-1262
989.070	-1497
989.151	-1492
989.231	-2093
989.311	-466
989.391	-1513
989.471	-913
989.551	-1746
989.631	-1022
989.711	-1242
989.791	-1630
989.870	-1212
989.950	-283
990.030	-2016
990.110	-1184
990.190	-1308
990.269	-1355
990.349	-1248
990.429	-1124
990.509	-1469
990.588	-2351
990.668	-1236
990.747	-1609
990.827	-1406
990.907	-1282
990.986	-936
991.066	-610
991.145	-1630
991.225	-1025
991.304	-2023
991.383	-726
991.463	-1484
991.542	-1211
991.622	-2077
991.701	-1382
991.780	-1019
991.859	-1855
991.939	-972
992.018	-1538
992.097	-963
992.176	-1335
992.256	-1671
992.335	-1762
992.414	135
992.493	-2185
992.572	-2012
992.651	-1413
992.730	-1900
992.809	-1731
992.888	-2045
992.967	-1668
993.046	-606
993.125	-1483
993.203	-1270
993.282	-1759
993.361	-1308
993.440	-1739
993.519	-1851
993.597	-1175
993.676	-2263
993.755	-828
993.834	-2151
993.912	-2074
993.991	-198
994.069	-1698
994.148	-1699
994.226	-1891
994.305	-1761
994.384	-865
994.462	-1060
994.540	-2494
994.619	-1691
994.697	-875
994.776	-1682
994.854	-1605
994.932	-2083
995.011	-1232
995.089	-1416
995.167	-920
995.245	-1269
995.324	-1942
995.402	-975
995.480	-1688
995.558	-2113
995.636	-1974
995.714	-2139
995.792	-984
995.870	-1498
995.948	-1830
996.026	-1672
996.104	-2461
996.182	-1556
996.260	-1774
996.338	-1979
996.416	-2014
996.494	-2239
996.572	-803
996.649	-1467
996.727	-1713
996.805	-1520
996.883	-862
996.960	-1466
997.038	-1255
997.116	-1366
997.193	-2404
997.271	-1526
997.348	-1884
997.426	-1590
997.504	-2120
997.581	-1715
997.658	-1258
997.736	-2201
997.813	-2240
997.891	-1063
997.968	-1923
998.046	-1921
998.123	-1753
998.200	-1020
998.277	-2709
998.355	-1020
998.432	-2481
998.509	-1982
998.586	-1496
998.663	-1590
998.741	-1512
998.818	-1767
998.895	-2311
998.972	-1578
999.049	-2109
999.126	-2163
999.203	-1433
999.280	-2116
999.357	-2063
999.434	-2444
999.511	-1360
999.587	-1350
999.664	-1955
999.741	-1954
999.818	-1511
999.895	-1694
999.971	-1891
1000.048	-1810
1000.125	-2130
1000.202	-1914
1000.278	-1557
1000.355	-1246
1000.431	-2019
1000.508	-1912
1000.584	-1570
1000.661	-1631
1000.738	-1645
1000.814	-2247
1000.890	-1110
1000.967	-1764
1001.043	-627
1001.120	-2416
1001.196	-2231
1001.272	-1600
1001.349	-1186
1001.425	-1663
1001.501	-1620
1001.577	-2040
1001.654	-1402
1001.730	-2060
1001.806	-1909
1001.882	-2044
1001.958	-1182
1002.034	-1525
1002.110	-1828
1002.186	-2588
1002.262	-2209
1002.338	-2133
1002.414	-1552
1002.490	-1886
1002.566	-2282
1002.642	-2314
1002.718	-667
1002.794	-2171
1002.870	-2018
1002.945	-2168
1003.021	-1869
1003.097	-3079
1003.173	-1609
1003.248	-2381
1003.324	-2114
1003.400	-2407
1003.475	-2528
1003.551	-2197
1003.626	-1849
1003.702	-2383
1003.777	-1583
1003.853	-1863
1003.928	-1953
1004.004	-1594
1004.079	-2149
1004.155	-2420
1004.230	-2558
1004.305	-1359
1004.381	-2118
1004.456	-2146
1004.531	-1723
1004.607	-2054
1004.682	-2165
1004.757	-1464
1004.832	-2178
1004.907	-2411
1004.982	-1876
1005.057	-1623
1005.133	-1902
1005.208	-2500
1005.283	-2251
1005.358	-1246
1005.433	-2211
1005.508	-2109
1005.583	-2471
1005.657	-3128
1005.732	-2321
1005.807	-2226
1005.882	-1943
1005.957	-2517
1006.032	-2135
1006.106	-1991
1006.181	-2265
1006.256	-1921
1006.331	-2648
1006.405	-2128
1006.480	-1139
1006.554	-2199
1006.629	-1477
1006.704	-2586
1006.778	-1810
1006.853	-2251
1006.927	-2211
1007.002	-2359
1007.076	-2054
1007.150	-1711
1007.225	-1672
1007.299	-1920
1007.373	-2259
1007.448	-1976
1007.522	-1656
1007.596	-1121
1007.671	-2648
1007.745	-1525
1007.819	-2417
1007.893	-1841
1007.967	-1356
1008.041	-2650
1008.115	-1241
1008.190	-2402
1008.264	-1766
1008.338	-2418
1008.412	-1944
1008.486	-1931
1008.560	-1862
1008.633	-2008
1008.707	-1570
1008.781	-2241
1008.855	-2736
1008.929	-2065
1009.003	-1849
1009.076	-2429
1009.150	-1421
1009.224	-3073
1009.298	-1827
1009.371	-2704
1009.445	-2289
1009.519	-1454
1009.592	-2068
1009.666	-2218
1009.739	-1237
1009.813	-2977
1009.886	-1481
1009.960	-3302
1010.033	-1405
1010.107	-2348
1010.180	-2583
1010.253	-2169
1010.327	-2878
1010.400	-2032
1010.473	-1957
1010.547	-1480
1010.620	-2169
1010.693	-2442
1010.766	-2571
1010.840	-2013
1010.913	-1275
1010.986	-2060
1011.059	-2257
1011.132	-2636
1011.205	-2013
1011.278	-2174
1011.351	-1782
1011.424	-1896
1011.497	-2922
1011.570	-1776
1011.643	-2033
1011.716	-2330
1011.789	-2454
1011.862	-1721
1011.934	-1761
1012.007	-2456
1012.080	-1453
1012.153	-2095
1012.225	-1252
1012.298	-2448
1012.371	-2132
1012.443	-1741
1012.516	-2984
1012.588	-2554
1012.661	-2571
1012.733	-2520
1012.806	-1964
1012.879	-2304
1012.951	-1935
1013.023	-2554
1013.096	-1631
1013.168	-2239
1013.241	-1836
1013.313	-1699
1013.385	-2667
1013.458	-3085
1013.530	-1464
1013.602	-2055
1013.674	-2087
1013.746	-3551
1013.819	-2953
1013.891	-2144
1013.963	-2150
1014.035	-2504
1014.107	-987
1014.179	-2205
1014.251	-2737
1014.323	-1509
1014.395	-2659
1014.467	-2596
1014.539	-2308
1014.611	-3309
1014.683	-1864
1014.754	-2133
1014.826	-2611
1014.898	-1899
1014.970	-2333
1015.042	-2046
1015.113	-2220
1015.185	-1795
1015.257	-2985
1015.328	-1618
1015.400	-2641
1015.471	-2862
1015.543	-2998
1015.615	-1794
1015.686	-2582
1015.757	-2212
1015.829	-1822
1015.901	-2493
1015.972	-2459
1016.043	-2878
1016.115	-1468
1016.186	-2645
1016.257	-3007
1016.328	-1684
1016.400	-2113
1016.471	-1946
1016.542	-2213
1016.613	-2218
1016.685	-1370
1016.756	-2293
1016.827	-2124
1016.898	-2325
1016.969	-2221
1017.040	-2406
1017.111	-2111
1017.182	-2296
1017.253	-1507
1017.324	-1823
1017.395	-1719
1017.466	-2128
1017.537	-2396
1017.608	-2553
1017.678	-2704
1017.749	-2343
1017.820	-1460
1017.891	-2913
1017.961	-2989
1018.032	-2544
1018.103	-1970
1018.173	-2522
1018.244	-3151
1018.315	-1837
1018.385	-2079
1018.456	-1714
1018.526	-2769
1018.597	-2767
1018.667	-2081
1018.738	-2678
1018.808	-2608
1018.878	-2201
1018.949	-2614
1019.019	-1366
1019.089	-2342
1019.160	-2335
1019.230	-2855
1019.300	-2236
1019.371	-2386
1019.441	-2332
1019.511	-1799
1019.581	-2287
1019.651	-1908
1019.721	-1758
1019.791	-2016
1019.861	-2312
1019.931	-2084
1020.001	-2804
1020.071	-1915
1020.141	-2107
1020.211	-2644
1020.281	-2916
1020.351	-2228
1020.421	-2029
1020.491	-1733
1020.560	-2839
1020.630	-2402
1020.700	-2654
1020.770	-2202
1020.839	-3149
1020.909	-2408
1020.979	-2474
1021.048	-2444
1021.118	-2442
1021.187	-2173
1021.257	-2070
1021.326	-1880
1021.396	-2087
1021.465	-2923
1021.535	-2075
1021.604	-2674
1021.674	-2080
1021.743	-1853
1021.812	-2120
1021.882	-2220
1021.951	-2726
1022.020	-1810
1022.089	-2226
1022.159	-2514
1022.228	-2158
1022.297	-1960
1022.366	-1734
1022.435	-1725
1022.504	-2787
1022.573	-1954
1022.642	-1421
1022.711	-2552
1022.781	-2741
1022.849	-2809
1022.918	-3245
1022.987	-2522
1023.056	-2684
1023.125	-1974
1023.194	-2654
1023.263	-2089
1023.331	-1335
1023.400	-2943
1023.469	-2166
1023.538	-1735
1023.606	-2487
1023.675	-3297
1023.744	-3149
1023.812	-2611
1023.881	-2505
1023.949	-1848
1024.018	-3148
1024.086	-2263
1024.155	-3007
1024.223	-2110
1024.292	-2808
1024.360	-1951
1024.429	-2552
1024.497	-2600
1024.565	-1654
1024.634	-2360
1024.702	-1881
1024.770	-2114
1024.838	-2324
1024.907	-2118
1024.975	-2392
1025.043	-1809
1025.111	-2929
1025.179	-2372
1025.247	-2711
1025.315	-1885
1025.383	-1667
1025.451	-2586
1025.519	-2600
1025.587	-2483
1025.655	-2090
1025.723	-1845
1025.791	-2130
1025.859	-2433
1025.927	-2063
1025.995	-3073
1026.062	-2098
1026.130	-2013
1026.198	-2616
1026.266	-2625
1026.333	-1725
1026.401	-2596
1026.469	-2063
1026.536	-2912
1026.604	-2450
1026.671	-1425
1026.739	-2089
1026.806	-2493
1026.874	-2048
1026.941	-2316
1027.009	-2264
1027.076	-2391
1027.144	-1567
1027.211	-3096
1027.278	-3280
1027.345	-2176
1027.413	-2059
1027.480	-2384
1027.547	-1800
1027.614	-2243
1027.682	-1570
1027.749	-2084
1027.816	-2061
1027.883	-1919
1027.950	-2715
1028.017	-1938
1028.084	-2197
1028.151	-2221
1028.218	-1536
1028.285	-2562
1028.352	-2138
1028.419	-2430
1028.486	-2740
1028.553	-1514
1028.619	-2520
1028.686	-1833
1028.753	-2570
1028.820	-2846
1028.886	-1882
1028.953	-2885
1029.020	-2033
1029.086	-2499
1029.153	-2213
1029.220	-2687
1029.286	-2219
1029.353	-2368
1029.419	-2664
1029.486	-1950
1029.552	-1835
1029.619	-2095
1029.685	-2641
1029.751	-2578
1029.818	-1498
1029.884	-2015
1029.951	-1315
1030.017	-1927
1030.083	-1863
1030.149	-2560
1030.216	-2029
1030.282	-2519
1030.348	-1886
1030.414	-1794
1030.480	-2420
1030.546	-2124
1030.612	-2277
1030.678	-1993
1030.744	-2353
1030.810	-1982
1030.876	-2076
1030.942	-2410
1031.008	-1786
1031.074	-1994
1031.140	-2230
1031.206	-1724
1031.272	-3416
1031.337	-1633
1031.403	-698
1031.469	-2566
1031.534	-2619
1031.600	-1940
1031.666	-2693
1031.731	-2477
1031.797	-2621
1031.863	-2742
1031.928	-1906
1031.994	-1903
1032.059	-1666
1032.125	-2496
1032.190	-1828
1032.256	-1964
1032.321	-1868
1032.386	-2122
1032.452	-1747
1032.517	-1679
1032.582	-2011
1032.647	-2353
1032.713	-1831
1032.778	-1612
1032.843	-2185
1032.908	-1955
1032.974	-1881
1033.039	-2289
1033.104	-1636
1033.169	-2285
1033.234	-3044
1033.299	-1394
1033.364	-2398
1033.429	-1941
1033.494	-1359
1033.559	-2347
1033.624	-1952
1033.688	-1935
1033.753	-2299
1033.818	-2429
1033.883	-2026
1033.948	-2638
1034.013	-2818
1034.077	-1855
1034.142	-1705
1034.207	-1152
1034.271	-1841
1034.336	-2097
1034.400	-1902
1034.465	-2245
1034.530	-1736
1034.594	-1749
1034.658	-1888
1034.723	-2177
1034.787	-1604
1034.852	-1982
1034.916	-1802
1034.981	-1984
1035.045	-1816
1035.109	-2141
1035.173	-1993
1035.238	-3040
1035.302	-2086
1035.366	-1612
1035.430	-1754
1035.495	-1804
1035.559	-2760
1035.623	-1653
1035.687	-2365
1035.751	-2383
1035.815	-1731
1035.879	-2123
1035.943	-2048
1036.007	-2084
1036.071	-1978
1036.135	-1066
1036.198	-1622
1036.262	-2021
1036.326	-2338
1036.390	-1603
1036.454	-2079
1036.517	-2344
1036.581	-2650
1036.645	-1535
1036.709	-1246
1036.772	-2540
1036.836	-2183
1036.900	-2163
1036.963	-2357
1037.026	-2112
1037.090	-2136
1037.154	-1820
1037.217	-2295
1037.280	-2451
1037.344	-2158
1037.407	-2004
1037.471	-2956
1037.534	-2595
1037.597	-1431
1037.661	-2308
1037.724	-2471
1037.787	-2272
1037.850	-2529
1037.913	-2435
1037.977	-1718
1038.040	-2233
1038.103	-2703
1038.166	-2181
1038.229	-1817
1038.292	-2306
1038.355	-2772
1038.418	-2020
1038.481	-2298
1038.544	-1864
1038.607	-2516
1038.670	-2158
1038.732	-1847
1038.795	-2754
1038.858	-1768
1038.921	-1746
1038.984	-1906
1039.046	-2483
1039.109	-2089
1039.172	-1966
1039.234	-2418
1039.297	-2029
1039.360	-2319
1039.422	-1947
1039.485	-2065
1039.547	-2400
1039.610	-2057
1039.672	-2710
1039.734	-2376
1039.797	-2804
1039.859	-1959
1039.922	-2961
1039.984	-2645
1040.046	-2591
1040.109	-1618
1040.171	-2021
1040.233	-2319
1040.295	-2030
1040.358	-1479
1040.420	-2116
1040.482	-2890
1040.544	-1625
1040.606	-2090
1040.668	-2463
1040.730	-2454
1040.792	-2500
1040.854	-2047
1040.916	-2062
1040.978	-2421
1041.040	-2274
1041.102	-2205
1041.164	-2916
1041.225	-1936
1041.287	-2226
1041.349	-2480
1041.411	-2015
1041.472	-2212
1041.534	-1923
1041.596	-3365
1041.657	-2285
1041.719	-2613
1041.781	-2336
1041.842	-2539
1041.904	-1909
1041.965	-2763
1042.027	-2746
1042.088	-1552
1042.150	-2419
1042.211	-2525
1042.272	-2563
1042.334	-2856
1042.395	-2526
1042.456	-1672
1042.518	-1870
1042.579	-2425
1042.640	-2482
1042.701	-2127
1042.763	-2968
1042.824	-2233
1042.885	-1830
1042.946	-2353
1043.007	-2694
1043.068	-2193
1043.129	-2534
1043.190	-1567
1043.251	-1253
1043.312	-3042
1043.373	-2346
1043.434	-1900
1043.495	-2557
1043.556	-2486
1043.616	-1936
1043.677	-2594
1043.738	-1900
1043.799	-2880
1043.859	-2225
1043.920	-2956
1043.981	-1715
1044.041	-2700
1044.102	-2174
1044.162	-1924
1044.223	-1996
1044.284	-2594
1044.344	-1472
1044.405	-2552
1044.465	-2314
1044.525	-1370
1044.586	-2711
1044.646	-2467
1044.707	-1608
1044.767	-2412
1044.827	-1468
1044.887	-1787
1044.948	-2139
1045.008	-1616
1045.068	-2711
1045.128	-1903
1045.188	-2300
1045.249	-1465
1045.309	-1984
1045.369	-2198
1045.429	-2407
1045.489	-2072
1045.549	-2019
1045.609	-1991
1045.669	-2649
1045.729	-2973
1045.789	-2487
1045.848	-1825
1045.908	-1720
1045.968	-1548
1046.028	-2193
1046.088	-1664
1046.147	-1178
1046.207	-2212
1046.267	-1980
1046.326	-2065
1046.386	-1829
1046.446	-1445
1046.505	-1317
1046.565	-1851
1046.624	-1766
1046.684	-1325
1046.743	-1277
1046.803	-981
1046.862	-928
1046.922	0
