'Start Wavelength	183.907
'End Wavelength	1046.922
'Gate Delay	5.000
'Gate Width (ms)	1.050
'Laser Output Level	0.000
'X Position	0.000
'Y Position	0.000
'Z Position	0.000
'Grid Point Number	1.000
'Shot Number	100.000
183.907	137.000
183.977	960.000
184.047	-362
184.116	345
184.186	-359
184.256	-633
184.325	-197
184.395	-142
184.465	213
184.534	336
184.604	-19
184.674	170
184.743	-350
184.813	-14
184.883	261
184.952	112
185.022	123
185.092	560
185.161	172
185.231	-572
185.301	211
185.370	299
185.440	-66
185.509	-256
185.579	-408
185.649	896
185.718	476
185.788	419
185.857	353
185.927	-253
185.996	-385
186.066	143
186.136	-66
186.205	237
186.275	-143
186.344	349
186.414	-414
186.483	-442
186.553	1060
186.622	193
186.692	197
186.761	-189
186.831	1470
186.900	-481
186.970	977
187.039	431
187.109	1082
187.178	444
187.248	289
187.317	357
187.387	-234
187.456	263
187.526	1041
187.595	660
187.664	120
187.734	428
187.803	797
187.873	-55
187.942	644
188.012	713
188.081	-6
188.150	213
188.220	822
188.289	407
188.358	420
188.428	442
188.497	-1
188.567	429
188.636	676
188.705	-69
188.775	-135
188.844	-205
188.913	109
188.983	254
189.052	-119
189.121	178
189.191	126
189.260	715
189.329	858
189.399	-53
189.468	1047
189.537	548
189.606	312
189.676	869
189.745	-60
189.814	73
189.883	-104
189.953	14
190.022	535
190.091	1151
190.161	1051
190.230	320
190.299	-65
190.368	285
190.437	-531
190.507	63
190.576	951
190.645	177
190.714	37
190.783	104
190.853	637
190.922	513
190.991	481
191.060	462
191.129	-180
191.198	642
191.268	-217
191.337	543
191.406	846
191.475	208
191.544	487
191.613	781
191.682	76
191.752	-363
191.821	-73
191.890	218
191.959	-96
192.028	58
192.097	741
192.166	290
192.235	565
192.304	245
192.373	-259
192.442	670
192.511	104
192.580	-223
192.650	-324
192.719	639
192.788	546
192.857	-143
192.926	267
192.995	-183
193.064	541
193.133	663
193.202	1139
193.271	724
193.340	1055
193.409	986
193.478	1194
193.547	427
193.615	518
193.684	1636
193.753	880
193.822	392
193.891	-246
193.960	669
194.029	-62
194.098	922
194.167	491
194.236	593
194.305	482
194.374	3
194.443	151
194.512	433
194.580	849
194.649	688
194.718	869
194.787	469
194.856	273
194.925	1329
194.994	655
195.062	874
195.131	557
195.200	712
195.269	1510
195.338	330
195.407	57
195.475	125
195.544	889
195.613	770
195.682	37
195.751	679
195.819	1077
195.888	906
195.957	1431
196.026	995
196.094	839
196.163	727
196.232	797
196.301	698
196.369	156
196.438	872
196.507	727
196.576	479
196.644	343
196.713	327
196.782	367
196.850	1031
196.919	218
196.988	505
197.056	-312
197.125	575
197.194	595
197.262	824
197.331	406
197.400	725
197.468	257
197.537	202
197.606	724
197.674	790
197.743	1183
197.812	125
197.880	1270
197.949	421
198.017	1512
198.086	793
198.155	736
198.223	1108
198.292	861
198.360	228
198.429	352
198.497	604
198.566	1246
198.635	1097
198.703	1097
198.772	1226
198.840	1736
198.909	1184
198.977	848
199.046	318
199.114	608
199.183	685
199.251	918
199.320	-391
199.388	289
199.457	216
199.525	748
199.594	163
199.662	-332
199.731	52
199.799	-141
199.867	334
199.936	293
200.004	1023
200.073	705
200.141	-27
200.210	182
200.278	480
200.346	740
200.415	951
200.483	1611
200.552	424
200.620	241
200.688	393
200.757	21
200.825	877
200.893	891
200.962	548
201.030	160
201.098	186
201.167	1217
201.235	808
201.303	245
201.372	1214
201.440	584
201.508	702
201.577	1026
201.645	654
201.713	690
201.781	817
201.850	1718
201.918	1229
201.986	1136
202.055	968
202.123	449
202.191	1304
202.259	1140
202.327	518
202.396	447
202.464	395
202.532	810
202.600	2491
202.669	1306
202.737	328
202.805	288
202.873	549
202.941	1109
203.009	-103
203.078	889
203.146	636
203.214	509
203.282	723
203.350	865
203.418	863
203.487	1292
203.555	540
203.623	733
203.691	646
203.759	497
203.827	529
203.895	1086
203.963	529
204.031	103
204.099	936
204.168	-42
204.236	1012
204.304	892
204.372	931
204.440	810
204.508	343
204.576	771
204.644	1159
204.712	737
204.780	1222
204.848	-6
204.916	494
204.984	796
205.052	653
205.120	411
205.188	1236
205.256	70
205.324	1348
205.392	727
205.460	810
205.528	31
205.596	796
205.664	868
205.732	625
205.799	1779
205.867	2421
205.935	1191
206.003	843
206.071	63
206.139	605
206.207	539
206.275	637
206.343	34
206.411	831
206.478	1097
206.546	979
206.614	776
206.682	228
206.750	636
206.818	697
206.885	1652
206.953	-66
207.021	1076
207.089	1169
207.157	-41
207.225	382
207.292	546
207.360	159
207.428	923
207.496	948
207.563	605
207.631	972
207.699	-79
207.767	1204
207.834	438
207.902	1128
207.970	-9
208.038	457
208.105	1060
208.173	1039
208.241	1812
208.309	2197
208.376	809
208.444	2540
208.512	1378
208.579	831
208.647	830
208.715	1612
208.782	880
208.850	1394
208.918	904
208.985	628
209.053	1047
209.120	1057
209.188	1230
209.256	985
209.323	213
209.391	1421
209.459	1690
209.526	1419
209.594	907
209.661	366
209.729	1178
209.796	1119
209.864	1335
209.932	220
209.999	2472
210.067	1328
210.134	499
210.202	1052
210.269	2484
210.337	2060
210.404	859
210.472	878
210.539	1638
210.607	2243
210.674	1833
210.742	1504
210.809	1633
210.877	1787
210.944	1706
211.012	1116
211.079	2521
211.146	808
211.214	978
211.281	1328
211.349	1686
211.416	1046
211.484	910
211.551	1421
211.618	1232
211.686	2170
211.753	383
211.821	1001
211.888	560
211.955	1598
212.023	2033
212.090	1356
212.157	2202
212.225	1070
212.292	2161
212.359	3364
212.427	5959
212.494	3733
212.561	1841
212.629	1788
212.696	1305
212.763	1299
212.831	899
212.898	2020
212.965	1561
213.032	1939
213.100	1943
213.167	1302
213.234	2679
213.301	1725
213.369	1443
213.436	1613
213.503	611
213.570	1340
213.638	1747
213.705	1079
213.772	740
213.839	1316
213.906	1516
213.973	1670
214.041	1584
214.108	2033
214.175	1809
214.242	1158
214.309	1400
214.376	2137
214.444	945
214.511	1222
214.578	1278
214.645	1437
214.712	2985
214.779	1264
214.846	1254
214.913	2232
214.980	2235
215.048	1829
215.115	1969
215.182	2554
215.249	1749
215.316	1311
215.383	2358
215.450	1790
215.517	1543
215.584	1327
215.651	1366
215.718	1738
215.785	1946
215.852	1312
215.919	2534
215.986	2594
216.053	1174
216.120	940
216.187	1444
216.254	1694
216.321	2428
216.388	2005
216.455	2298
216.522	1861
216.589	2596
216.656	2767
216.722	2663
216.789	2360
216.856	2985
216.923	2699
216.990	2615
217.057	2073
217.124	3359
217.191	2173
217.258	3236
217.324	4388
217.391	3261
217.458	3104
217.525	1939
217.592	1874
217.659	1295
217.725	1922
217.792	1975
217.859	2999
217.926	1533
217.993	701
218.059	2058
218.126	2493
218.193	1153
218.260	930
218.327	1939
218.393	1630
218.460	494
218.527	1382
218.594	1179
218.660	2488
218.727	2690
218.794	1205
218.860	1389
218.927	1662
218.994	1540
219.061	2087
219.127	1568
219.194	2207
219.261	1388
219.327	950
219.394	1342
219.461	250
219.527	1290
219.594	1668
219.661	1535
219.727	608
219.794	1659
219.860	1353
219.927	1925
219.994	1705
220.060	2624
220.127	2574
220.193	2255
220.260	1402
220.326	3394
220.393	4932
220.460	5030
220.526	3482
220.593	2467
220.659	3673
220.726	2782
220.792	4934
220.859	5312
220.925	6734
220.992	8649
221.058	7896
221.125	6312
221.191	5436
221.258	2394
221.324	2952
221.391	1748
221.457	1142
221.524	2386
221.590	3181
221.657	5025
221.723	3622
221.789	3125
221.856	3881
221.922	1831
221.989	2214
222.055	1560
222.121	1257
222.188	3083
222.254	2123
222.321	1594
222.387	1186
222.453	1418
222.520	1904
222.586	1295
222.652	1339
222.719	1193
222.785	1598
222.851	1315
222.918	1332
222.984	1377
223.050	669
223.116	646
223.183	2842
223.249	467
223.315	1446
223.382	1982
223.448	953
223.514	506
223.580	984
223.647	682
223.713	1125
223.779	956
223.845	1085
223.911	1598
223.978	418
224.044	748
224.110	349
224.176	1058
224.242	1235
224.309	653
224.375	1699
224.441	1190
224.507	900
224.573	539
224.639	1771
224.705	829
224.772	710
224.838	1189
224.904	1834
224.970	1169
225.036	562
225.102	882
225.168	1533
225.234	1311
225.300	1269
225.366	1446
225.432	1668
225.499	1030
225.565	1275
225.631	1643
225.697	1559
225.763	2495
225.829	2231
225.895	1696
225.961	2843
226.027	3121
226.093	2489
226.159	3914
226.225	4615
226.291	8843
226.357	12775
226.423	7940
226.489	5317
226.554	3199
226.620	3952
226.686	4218
226.752	6163
226.818	8582
226.884	14989
226.950	13508
227.016	7515
227.082	4366
227.148	3181
227.214	3041
227.279	2868
227.345	1828
227.411	3014
227.477	2523
227.543	5469
227.609	5204
227.674	2692
227.740	2167
227.806	2799
227.872	2300
227.938	2290
228.003	3787
228.069	2270
228.135	1482
228.201	1898
228.267	2155
228.332	2635
228.398	1366
228.464	2073
228.530	858
228.595	1273
228.661	1331
228.727	2588
228.792	3976
228.858	1885
228.924	1414
228.990	3143
229.055	2245
229.121	2621
229.187	1963
229.252	1983
229.318	1045
229.384	1457
229.449	2309
229.515	-36
229.581	1161
229.646	2783
229.712	1860
229.777	2993
229.843	3217
229.909	3124
229.974	4120
230.040	3811
230.105	2861
230.171	2882
230.236	2952
230.302	4158
230.368	2959
230.433	2239
230.499	2027
230.564	3351
230.630	1859
230.695	1774
230.761	2747
230.826	600
230.892	3657
230.957	1847
231.023	1807
231.088	1878
231.154	2431
231.219	2492
231.284	2135
231.350	2976
231.415	1404
231.481	2240
231.546	1642
231.612	1484
231.677	1218
231.742	533
231.808	2888
231.873	809
231.939	192
232.004	3178
232.069	3773
232.135	1885
232.200	1711
232.265	1549
232.331	1038
232.396	1096
232.461	1266
232.527	1525
232.592	1017
232.657	2017
232.723	2414
232.788	1793
232.853	1355
232.918	1115
232.984	991
233.049	1664
233.114	1531
233.179	2431
233.245	2955
233.310	2583
233.375	696
233.440	1792
233.506	1425
233.571	449
233.636	818
233.701	860
233.766	2092
233.832	3385
233.897	1594
233.962	1483
234.027	4198
234.092	2197
234.157	1506
234.222	1928
234.288	2393
234.353	5551
234.418	6103
234.483	4489
234.548	4469
234.613	3492
234.678	2556
234.743	2176
234.808	6408
234.873	3953
234.938	3989
235.004	2491
235.069	2907
235.134	2049
235.199	2618
235.264	2451
235.329	1063
235.394	3175
235.459	2776
235.524	1507
235.589	2350
235.654	2300
235.719	1141
235.784	2587
235.849	2434
235.913	4174
235.978	4249
236.043	4305
236.108	2902
236.173	2363
236.238	2545
236.303	1929
236.368	1964
236.433	3241
236.498	3927
236.563	4464
236.627	7280
236.692	19006
236.757	17291
236.822	8201
236.887	5124
236.952	5478
237.017	4072
237.081	4948
237.146	5655
237.211	11323
237.276	19445
237.341	26349
237.405	16899
237.470	8149
237.535	5567
237.600	4418
237.664	3739
237.729	2813
237.794	4332
237.859	8024
237.923	6023
237.988	3246
238.053	4722
238.118	3337
238.182	7580
238.247	7543
238.312	3963
238.376	3639
238.441	1720
238.506	3896
238.570	1572
238.635	3225
238.700	2096
238.764	1874
238.829	3831
238.893	3766
238.958	4443
239.023	2975
239.087	2613
239.152	2034
239.216	1689
239.281	3035
239.346	1931
239.410	1540
239.475	2643
239.539	7682
239.604	5123
239.668	3283
239.733	3159
239.797	3141
239.862	8736
239.926	7763
239.991	3518
240.055	2715
240.120	2189
240.184	1966
240.249	1773
240.313	1790
240.378	2102
240.442	4822
240.507	7242
240.571	2725
240.635	3351
240.700	4332
240.764	2848
240.829	1787
240.893	835
240.957	2857
241.022	4364
241.086	6922
241.151	4156
241.215	2066
241.279	2926
241.344	4472
241.408	3904
241.472	3185
241.537	4741
241.601	3436
241.665	3023
241.730	2527
241.794	3675
241.858	1943
241.922	2987
241.987	3567
242.051	2244
242.115	1658
242.179	3544
242.244	2610
242.308	3298
242.372	3601
242.436	2414
242.501	3267
242.565	1894
242.629	1590
242.693	2525
242.757	1910
242.822	2033
242.886	3331
242.950	3876
243.014	2268
243.078	3435
243.142	3886
243.206	2872
243.271	3284
243.335	3139
243.399	4844
243.463	10362
243.527	24051
243.591	9270
243.655	5452
243.719	3205
243.783	4179
243.847	5807
243.911	5745
243.975	7332
244.040	5526
244.104	5181
244.168	2750
244.232	4410
244.296	6118
244.360	5787
244.424	3527
244.488	3499
244.552	3766
244.615	1907
244.679	2557
244.743	3194
244.807	2852
244.871	2787
244.935	3520
244.999	1447
245.063	2310
245.127	4329
245.191	5311
245.255	4018
245.319	4108
245.383	2950
245.446	4277
245.510	1425
245.574	2166
245.638	4383
245.702	1389
245.766	5594
245.829	4807
245.893	2596
245.957	3209
246.021	4293
246.085	3558
246.149	4509
246.212	8735
246.276	11013
246.340	5882
246.404	4660
246.467	4871
246.531	4820
246.595	4276
246.659	4753
246.722	2983
246.786	5722
246.850	5473
246.913	5754
246.977	2642
247.041	3463
247.104	4010
247.168	3449
247.232	8542
247.295	14486
247.359	8969
247.423	3371
247.486	6994
247.550	5715
247.614	4096
247.677	5604
247.741	4043
247.804	3284
247.868	3476
247.932	6691
247.995	15664
248.059	6795
248.122	3881
248.186	5377
248.249	7438
248.313	20752
248.376	23370
248.440	16257
248.503	6522
248.567	6792
248.630	7815
248.694	11459
248.757	14872
248.821	23406
248.884	17504
248.948	14357
249.011	19847
249.075	26153
249.138	24602
249.202	12279
249.265	7522
249.328	7997
249.392	7052
249.455	7024
249.519	5238
249.582	5872
249.645	9463
249.709	7280
249.772	6199
249.835	5894
249.899	4752
249.962	4849
250.025	4494
250.089	10506
250.152	14362
250.215	8574
250.279	5859
250.342	6266
250.405	5949
250.468	4796
250.532	6023
250.595	9397
250.658	23323
250.721	37154
250.785	17087
250.848	10975
250.911	6219
250.974	5185
251.038	8023
251.101	15161
251.164	8509
251.227	9714
251.290	8330
251.354	11013
251.417	32706
251.480	32689
251.543	24939
251.606	53711
251.669	43799
251.732	21249
251.795	20477
251.859	20004
251.922	37973
251.985	25213
252.048	11753
252.111	9340
252.174	8670
252.237	15447
252.300	26617
252.363	30223
252.426	45206
252.489	23807
252.552	13960
252.615	9286
252.678	10285
252.741	20625
252.804	26080
252.867	46196
252.930	34010
252.993	18444
253.056	12200
253.119	8473
253.182	6334
253.245	11274
253.308	9994
253.371	9023
253.434	9179
253.497	9008
253.559	14227
253.622	11043
253.685	14969
253.748	15708
253.811	7841
253.874	8679
253.937	6907
254.000	5997
254.062	10580
254.125	14562
254.188	14128
254.251	12034
254.314	5939
254.376	11097
254.439	13708
254.502	12166
254.565	10882
254.628	18391
254.690	12625
254.753	7252
254.816	5813
254.878	6087
254.941	10640
255.004	11283
255.067	6319
255.129	6002
255.192	4260
255.255	3143
255.317	4479
255.380	2957
255.443	2407
255.505	2554
255.568	2851
255.631	3081
255.693	3893
255.756	2874
255.819	3168
255.881	1870
255.944	2561
256.006	2206
256.069	1847
256.132	2993
256.194	3568
256.257	7075
256.319	5776
256.382	5431
256.444	4876
256.507	4021
256.569	3829
256.632	3783
256.694	5141
256.757	13598
256.819	33848
256.882	16440
256.944	7632
257.007	6935
257.069	5857
257.132	3892
257.194	4577
257.257	3754
257.319	3299
257.381	3727
257.444	10093
257.506	37239
257.569	43606
257.631	21661
257.693	12395
257.756	6368
257.818	5385
257.880	4320
257.943	4456
258.005	3450
258.067	3126
258.130	3714
258.192	4565
258.254	8972
258.317	5600
258.379	4356
258.441	7863
258.503	8697
258.566	9236
258.628	10726
258.690	3837
258.753	5177
258.815	8629
258.877	5549
258.939	4031
259.001	4571
259.064	3934
259.126	3613
259.188	3994
259.250	3938
259.312	4606
259.375	9284
259.437	6558
259.499	4033
259.561	4163
259.623	3649
259.685	3584
259.747	3966
259.809	7717
259.872	13382
259.934	19092
259.996	19712
260.058	7476
260.120	3316
260.182	2647
260.244	2891
260.306	2790
260.368	3893
260.430	3175
260.492	6187
260.554	10023
260.616	6071
260.678	12433
260.740	13845
260.802	4658
260.864	5704
260.926	3077
260.988	3634
261.050	3331
261.112	7526
261.174	17140
261.236	11479
261.298	4634
261.359	6958
261.421	9330
261.483	4083
261.545	4235
261.607	2272
261.669	2754
261.731	4835
261.793	11338
261.854	5362
261.916	4762
261.978	3861
262.040	4272
262.102	3157
262.164	4195
262.225	4400
262.287	3154
262.349	8081
262.411	6545
262.472	3922
262.534	4782
262.596	8989
262.658	4348
262.719	2119
262.781	4337
262.843	8210
262.904	5215
262.966	3743
263.028	4391
263.090	15587
263.151	38042
263.213	15021
263.275	9487
263.336	4346
263.398	3438
263.459	1878
263.521	3124
263.583	7229
263.644	5855
263.706	2635
263.767	1139
263.829	2377
263.891	1643
263.952	1771
264.014	1122
264.075	3592
264.137	8820
264.198	5439
264.260	1644
264.321	1475
264.383	5331
264.444	13823
264.506	4975
264.567	2991
264.629	5830
264.690	10727
264.752	5385
264.813	3550
264.875	2204
264.936	3056
264.998	1801
265.059	2296
265.120	2616
265.182	3893
265.243	21418
265.305	20701
265.366	5785
265.427	3516
265.489	3771
265.550	1582
265.611	3012
265.673	3044
265.734	2328
265.795	3210
265.857	1384
265.918	2147
265.979	6791
266.040	31213
266.102	26902
266.163	9163
266.224	6801
266.286	4242
266.347	2519
266.408	3151
266.469	2802
266.530	2379
266.592	2402
266.653	4884
266.714	9808
266.775	4103
266.836	2190
266.898	1676
266.959	4292
267.020	3678
267.081	3940
267.142	3355
267.203	1986
267.264	1820
267.326	3633
267.387	2860
267.448	1909
267.509	2371
267.570	2454
267.631	2307
267.692	1946
267.753	2421
267.814	2152
267.875	4561
267.936	10919
267.997	6101
268.058	7021
268.119	4058
268.180	3800
268.241	2779
268.302	2501
268.363	2085
268.424	2524
268.485	2790
268.546	1836
268.607	1931
268.668	2242
268.729	1631
268.790	2183
268.851	3221
268.912	6306
268.972	9273
269.033	5975
269.094	2482
269.155	2583
269.216	1982
269.277	2888
269.338	1796
269.398	2318
269.459	2464
269.520	5335
269.581	6155
269.642	7981
269.702	4116
269.763	3117
269.824	2672
269.885	3929
269.945	6828
270.006	2558
270.067	990
270.128	3002
270.188	1974
270.249	2153
270.310	2237
270.370	1994
270.431	1987
270.492	1900
270.553	2312
270.613	4798
270.674	10900
270.734	5024
270.795	3383
270.856	4553
270.916	3826
270.977	2431
271.038	3834
271.098	3226
271.159	6322
271.219	5319
271.280	2746
271.340	3340
271.401	2358
271.462	5796
271.522	4443
271.583	2517
271.643	3344
271.704	3514
271.764	3815
271.825	8005
271.885	25535
271.946	30613
272.006	12597
272.066	15226
272.127	24430
272.187	9059
272.248	4683
272.308	4766
272.369	16038
272.429	10424
272.489	8694
272.550	8675
272.610	9833
272.671	6998
272.731	5716
272.791	8200
272.852	6014
272.912	5681
272.972	3741
273.033	2979
273.093	5199
273.153	6099
273.214	4028
273.274	4462
273.334	12721
273.394	24315
273.455	12420
273.515	10950
273.575	20556
273.635	10274
273.696	12162
273.756	21963
273.816	11423
273.876	7205
273.936	9752
273.997	14764
274.057	5420
274.117	5239
274.177	7995
274.237	29139
274.297	23594
274.358	16089
274.418	18759
274.478	15644
274.538	6464
274.598	3885
274.658	12259
274.718	16039
274.778	8217
274.838	4095
274.898	7156
274.958	20228
275.018	21913
275.078	15193
275.138	7286
275.198	3327
275.258	2702
275.318	3847
275.378	9380
275.438	10135
275.498	5652
275.558	10573
275.618	21132
275.678	15264
275.738	11839
275.798	8390
275.858	4408
275.918	3034
275.978	4064
276.038	3991
276.098	3251
276.157	5924
276.217	18146
276.277	8577
276.337	8407
276.397	3661
276.457	5251
276.517	3760
276.576	2732
276.636	2259
276.696	5098
276.756	12351
276.815	8818
276.875	4161
276.935	4354
276.995	5126
277.055	3785
277.114	2840
277.174	4337
277.234	14481
277.293	6631
277.353	4065
277.413	3518
277.472	4392
277.532	3064
277.592	3814
277.651	12578
277.711	23911
277.771	8101
277.830	28729
277.890	22542
277.950	14914
278.009	40247
278.069	16087
278.128	16800
278.188	24711
278.248	11468
278.307	27484
278.367	15917
278.426	5654
278.486	4340
278.545	2810
278.605	3508
278.664	2918
278.724	3864
278.783	8553
278.843	21292
278.902	6874
278.962	5115
279.021	6039
279.081	6914
279.140	6079
279.199	6468
279.259	6687
279.318	6819
279.378	7879
279.437	11765
279.496	38512
279.556	95690
279.615	76462
279.675	25423
279.734	14418
279.793	20547
279.853	28923
279.912	12045
279.971	7666
280.031	6241
280.090	11789
280.149	18933
280.208	15092
280.268	65373
280.327	67275
280.386	19439
280.445	15498
280.505	13684
280.564	7513
280.623	4911
280.682	8013
280.742	14093
280.801	4821
280.860	4254
280.919	4489
280.978	4060
281.037	3498
281.097	3264
281.156	3994
281.215	3332
281.274	3955
281.333	14927
281.392	10818
281.451	3770
281.510	3483
281.569	3307
281.628	2062
281.688	1868
281.747	4155
281.806	3434
281.865	3158
281.924	2488
281.983	3229
282.042	1337
282.101	2808
282.160	1830
282.219	2774
282.278	3536
282.337	10336
282.396	7420
282.454	3478
282.513	3849
282.572	16565
282.631	9708
282.690	4294
282.749	3192
282.808	4554
282.867	4396
282.926	4808
282.985	3310
283.043	3012
283.102	2987
283.161	3400
283.220	6838
283.279	15161
283.338	5060
283.396	3808
283.455	4294
283.514	4383
283.573	7353
283.631	5618
283.690	3397
283.749	3586
283.808	7720
283.866	9959
283.925	4201
283.984	4231
284.043	5840
284.101	6764
284.160	4871
284.219	5966
284.277	6229
284.336	7368
284.395	22998
284.453	17834
284.512	9575
284.570	12554
284.629	11715
284.688	11120
284.746	14370
284.805	15179
284.863	20692
284.922	25834
284.981	31419
285.039	43839
285.098	68149
285.156	105106
285.215	82620
285.273	83449
285.332	107082
285.390	79691
285.449	53437
285.507	38228
285.566	26980
285.624	21371
285.683	17917
285.741	13347
285.799	11828
285.858	10118
285.916	10282
285.975	7951
286.033	6931
286.091	7056
286.150	5915
286.208	5302
286.267	6223
286.325	6883
286.383	9182
286.442	7881
286.500	5024
286.558	4194
286.616	3659
286.675	5563
286.733	4851
286.791	4644
286.850	4650
286.908	5890
286.966	10458
287.024	5599
287.083	3456
287.141	2625
287.199	3318
287.257	5783
287.315	3844
287.374	4206
287.432	10995
287.490	7413
287.548	4362
287.606	3884
287.664	3739
287.723	5084
287.781	6150
287.839	3874
287.897	4249
287.955	4797
288.013	5204
288.071	12791
288.129	50636
288.187	122901
288.245	61593
288.303	23143
288.361	12299
288.419	8513
288.477	6384
288.535	4565
288.593	3890
288.651	4160
288.709	2185
288.767	2917
288.825	3001
288.883	2891
288.941	2525
288.999	1874
289.057	2383
289.115	2459
289.173	2906
289.231	2649
289.289	2261
289.346	2120
289.404	3322
289.462	6147
289.520	6411
289.578	3613
289.636	2557
289.694	1912
289.751	1578
289.809	1800
289.867	2122
289.925	3536
289.983	3083
290.040	2091
290.098	2396
290.156	3424
290.214	4659
290.271	2941
290.329	1303
290.387	2066
290.444	2099
290.502	702
290.560	2199
290.617	2578
290.675	2302
290.733	1880
290.790	3850
290.848	2193
290.906	1673
290.963	2095
291.021	2760
291.078	1887
291.136	1037
291.194	7488
291.251	16856
291.309	4823
291.366	2141
291.424	2093
291.481	3137
291.539	2871
291.596	3082
291.654	1609
291.711	2157
291.769	2033
291.826	6494
291.884	4225
291.941	2569
291.999	2069
292.056	3381
292.114	3661
292.171	2638
292.228	2549
292.286	3714
292.343	6050
292.401	8669
292.458	4906
292.515	3392
292.573	4398
292.630	4208
292.687	3207
292.745	2453
292.802	3006
292.859	9322
292.917	17294
292.974	11287
293.031	3783
293.089	2510
293.146	2538
293.203	1643
293.260	1839
293.318	2451
293.375	4418
293.432	2392
293.489	2650
293.546	2300
293.604	2744
293.661	10523
293.718	27106
293.775	14041
293.832	8193
293.889	5953
293.947	5683
294.004	3820
294.061	3582
294.118	8136
294.175	17605
294.232	19980
294.289	8133
294.346	5873
294.403	5249
294.460	3461
294.517	3045
294.574	2702
294.631	2207
294.688	3402
294.745	7295
294.802	28845
294.859	30180
294.916	11972
294.973	7884
295.030	6590
295.087	5832
295.144	3794
295.201	3464
295.258	2336
295.315	3135
295.372	11776
295.429	21281
295.486	10133
295.542	5557
295.599	12219
295.656	20159
295.713	14803
295.770	20476
295.827	8014
295.883	4146
295.940	3950
295.997	7643
296.054	7831
296.111	4318
296.167	3458
296.224	2981
296.281	2395
296.338	2278
296.394	2229
296.451	2870
296.508	8669
296.564	18187
296.621	11529
296.678	26267
296.734	35251
296.791	13271
296.848	7551
296.904	7700
296.961	19035
297.018	24717
297.074	17232
297.131	7737
297.187	5215
297.244	6635
297.301	21306
297.357	36654
297.414	13584
297.470	6638
297.527	4450
297.583	3006
297.640	4233
297.696	3007
297.753	2580
297.809	2624
297.866	2468
297.922	2656
297.979	1855
298.035	3084
298.092	4987
298.148	13317
298.204	13063
298.261	6122
298.317	12389
298.374	30446
298.430	17599
298.486	8055
298.543	5396
298.599	5257
298.656	5190
298.712	10488
298.768	26137
298.824	17362
298.881	6126
298.937	3737
298.993	4163
299.050	5743
299.106	4918
299.162	4714
299.218	5200
299.275	3488
299.331	3650
299.387	7014
299.443	26832
299.500	29335
299.556	12459
299.612	6497
299.668	5696
299.724	7608
299.780	7093
299.837	4606
299.893	6316
299.949	23190
300.005	25563
300.061	23482
300.117	36435
300.173	17766
300.229	9438
300.285	11367
300.341	13108
300.397	7271
300.453	3840
300.510	3514
300.566	3483
300.622	4926
300.678	15449
300.734	28497
300.790	23808
300.845	25255
300.901	17790
300.957	26521
301.013	19407
301.069	7920
301.125	5855
301.181	6207
301.237	5432
301.293	3258
301.349	3126
301.405	3321
301.461	3399
301.516	3026
301.572	4897
301.628	9059
301.684	7536
301.740	9632
301.796	15809
301.851	11146
301.907	19250
301.963	16792
302.019	26431
302.074	65530
302.130	66128
302.186	31649
302.242	14479
302.297	9402
302.353	8453
302.409	15894
302.464	12649
302.520	11223
302.576	27494
302.631	31781
302.687	19802
302.743	8762
302.798	4657
302.854	4608
302.910	5123
302.965	5997
303.021	10455
303.076	10146
303.132	14121
303.187	16651
303.243	8776
303.299	3898
303.354	3839
303.410	4292
303.465	3274
303.521	3538
303.576	3517
303.632	3517
303.687	8480
303.743	23164
303.798	20419
303.853	8698
303.909	5074
303.964	4358
304.020	7947
304.075	12630
304.130	9814
304.186	20606
304.241	21310
304.297	16567
304.352	9527
304.358	9087
304.407	5520
304.449	5237
304.463	5143
304.518	6271
304.539	5665
304.573	4699
304.629	4652
304.630	4674
304.684	5960
304.720	14611
304.739	18908
304.794	26816
304.811	23129
304.850	14204
304.902	6719
304.905	6251
304.960	5683
304.992	5532
305.015	5403
305.071	4887
305.083	4710
305.126	4102
305.173	3401
305.181	3284
305.236	2618
305.264	3219
305.292	3893
305.347	4981
305.354	4953
305.402	4724
305.445	5704
305.457	5995
305.512	6831
305.535	6823
305.567	6708
305.622	6339
305.626	6518
305.678	11446
305.716	22440
305.733	26221
305.788	27267
305.807	23734
305.843	18017
305.897	24441
305.898	24501
305.953	22762
305.988	15583
306.008	11807
306.063	9100
306.078	8243
306.118	6292
306.168	4198
306.173	4010
306.228	2825
306.259	2490
306.283	2379
306.338	2869
306.349	3000
306.393	3569
306.440	4029
306.448	4094
306.503	4001
306.530	4423
306.558	6289
306.613	12364
306.620	13560
306.668	20241
306.711	26260
306.723	26725
306.778	20530
306.801	15881
306.833	10929
306.888	5667
306.892	5447
306.943	3989
306.982	3389
306.997	3216
307.052	3271
307.072	3147
307.107	3468
307.162	5071
307.163	5093
307.217	7887
307.253	8867
307.272	8785
307.327	9063
307.343	8583
307.381	7423
307.434	6544
307.436	6808
307.491	14472
307.524	21978
307.546	23440
307.600	23265
307.614	20889
307.655	13093
307.704	6971
307.710	6882
307.765	7623
307.795	9693
307.819	11931
307.874	18061
307.885	18345
307.929	14051
307.975	9916
307.984	10150
308.038	14108
308.065	17071
308.093	28717
308.148	62800
308.156	70217
308.202	109887
308.246	132045
308.257	128103
308.312	74113
308.336	53404
308.366	41927
308.421	27529
308.426	26176
308.475	16335
308.517	11345
308.530	10604
308.585	9275
308.607	8960
308.639	9038
308.694	9161
308.697	9267
308.748	17523
308.787	24932
308.803	24247
308.857	18395
308.877	15908
308.912	14382
308.967	13456
308.967	13457
309.021	19936
309.058	25233
309.076	31072
309.130	53181
309.148	61670
309.185	98601
309.238	160899
309.239	161431
309.293	174955
309.328	167513
309.348	147160
309.402	77846
309.418	60035
309.457	44291
309.508	28916
309.511	28574
309.566	27229
309.598	28675
309.620	34943
309.674	54587
309.688	59555
309.729	57144
309.778	47717
309.783	46572
309.837	31474
309.868	23822
309.892	26259
309.946	36024
309.959	39227
310.001	49378
310.049	57847
310.055	55784
310.109	32027
310.139	19102
310.163	15562
310.218	9857
310.229	9043
310.272	7895
310.319	6534
310.326	6328
310.381	5117
310.409	4743
310.435	4675
310.489	4460
310.499	4448
310.543	5044
310.589	5570
310.598	5472
310.652	5068
310.679	4730
310.706	4336
310.760	3551
310.769	3427
310.814	3338
310.859	3431
310.868	3507
310.923	3764
310.948	3897
310.977	4264
311.031	5181
311.038	5260
311.085	4545
311.128	3957
311.139	3961
311.193	3959
311.218	3944
311.247	3976
311.301	3982
311.308	3998
311.356	3916
311.398	3732
311.410	3666
311.464	3293
311.488	3155
311.518	3238
311.572	3497
311.578	3522
311.626	5579
311.668	7358
311.680	7242
311.734	6610
311.758	6312
311.788	6206
311.842	6011
311.847	5985
311.896	7835
311.937	9447
311.950	9330
312.004	8677
312.027	8378
312.058	7270
312.112	5263
312.117	5057
312.165	4363
312.207	3766
312.297	6203
312.386	3821
312.476	5100
312.566	11479
312.656	5935
312.745	2963
312.835	4872
312.925	4674
313.015	4465
313.104	4456
313.194	3358
313.284	4534
313.374	6184
313.463	5767
313.553	3262
313.643	4033
313.732	3075
313.822	3267
313.912	3952
314.001	5261
314.091	5305
314.180	7349
314.270	5740
314.360	7850
314.449	6692
314.539	4000
314.628	3780
314.718	5235
314.808	5681
314.897	4061
314.987	4064
315.076	5556
315.166	7734
315.255	5739
315.345	6870
315.434	6523
315.524	6144
315.613	7177
315.703	8938
315.792	11879
315.881	24779
315.971	10034
316.060	12502
316.150	17609
316.239	18421
316.328	6167
316.418	3723
316.507	3988
316.597	6342
316.686	5897
316.775	8223
316.865	18743
316.954	4591
317.043	3147
317.133	3711
317.222	3341
317.311	4320
317.400	2471
317.490	6711
317.579	6813
317.668	4223
317.757	8381
317.847	16716
317.936	44284
318.025	22843
318.114	11612
318.203	8527
318.293	12711
318.382	24894
318.471	19291
318.560	25725
318.649	43622
318.738	9137
318.828	7195
318.917	7180
319.006	8360
319.095	23948
319.184	56692
319.273	32153
319.362	16850
319.451	5950
319.540	6071
319.629	15098
319.718	24384
319.807	8505
319.896	20929
319.985	67616
320.074	24268
320.163	6869
320.252	12790
320.341	10326
320.430	8724
320.519	13250
320.608	6900
320.697	6110
320.786	5890
320.875	8080
320.964	11985
321.053	17621
321.142	25708
321.230	24603
321.319	19802
321.408	44988
321.497	17024
321.586	17292
321.675	20112
321.764	17936
321.852	12171
321.941	25896
322.030	14321
322.119	17404
322.207	46832
322.296	28886
322.385	13551
322.474	17800
322.562	55538
322.651	25682
322.740	19492
322.829	26256
322.917	27521
323.006	15983
323.095	13872
323.183	9184
323.272	14079
323.361	25508
323.449	71293
323.538	21918
323.626	53208
323.715	27904
323.804	12315
323.892	48248
323.981	26395
324.069	6455
324.158	26222
324.246	22637
324.335	9241
324.424	16732
324.512	6142
324.601	7801
324.689	9098
324.778	13300
324.866	19229
324.954	5695
325.043	5484
325.131	11785
325.220	18920
325.308	23598
325.397	16581
325.485	10337
325.574	3900
325.662	3173
325.750	4751
325.839	4612
325.927	2297
326.015	5018
326.104	8680
326.192	12466
326.280	3852
326.369	4214
326.457	7327
326.545	14322
326.634	5994
326.722	2606
326.810	3550
326.898	3693
326.987	4046
327.075	12562
327.163	12455
327.251	4626
327.340	4356
327.428	6129
327.516	3462
327.604	4464
327.692	4544
327.781	4988
327.869	9698
327.957	5373
328.045	5340
328.133	3173
328.221	5314
328.309	4330
328.397	3771
328.485	5222
328.574	8030
328.662	29279
328.750	14126
328.838	5443
328.926	4010
329.014	2756
329.102	6516
329.190	16554
329.278	10306
329.366	2852
329.454	2204
329.542	2640
329.630	2539
329.718	3992
329.806	4434
329.893	4917
329.981	4678
330.069	6941
330.157	32643
330.245	93600
330.333	48018
330.421	8654
330.509	8502
330.597	36526
330.684	21966
330.772	7241
330.860	9717
330.948	13254
331.036	5011
331.123	1872
331.211	3052
331.299	4134
331.387	11200
331.475	20152
331.562	6295
331.650	3152
331.738	4156
331.825	6318
331.913	2256
332.001	2519
332.089	3928
332.176	10168
332.264	24999
332.352	18907
332.439	5584
332.527	4420
332.614	3428
332.702	5047
332.790	4035
332.877	10828
332.965	25968
333.052	7647
333.140	8214
333.228	21917
333.315	6878
333.403	4362
333.490	15097
333.578	14438
333.665	28300
333.753	12793
333.840	4124
333.928	5115
334.015	14914
334.103	21456
334.190	68986
334.278	16857
334.365	8266
334.452	5753
334.540	4071
334.627	4867
334.715	7591
334.802	13924
334.889	83361
334.977	80132
335.064	10888
335.151	4921
335.239	5519
335.326	6676
335.413	32606
335.501	46542
335.588	5900
335.675	4688
335.762	6192
335.850	11049
335.937	7003
336.024	18666
336.111	91749
336.199	37377
336.286	8082
336.373	3609
336.460	2966
336.547	2669
336.635	5504
336.722	3741
336.809	4578
336.896	5657
336.983	20562
337.070	50406
337.157	68431
337.245	53768
337.332	37943
337.419	4759
337.506	3354
337.593	4194
337.680	15716
337.767	52363
337.854	14611
337.941	16136
338.028	21494
338.115	6860
338.202	6990
338.289	13996
338.376	56841
338.463	17331
338.550	28543
338.637	30911
338.724	11315
338.811	18363
338.898	3413
338.984	3744
339.071	4458
339.158	5520
339.245	18275
339.332	10716
339.419	13128
339.506	12211
339.593	1917
339.679	3503
339.766	2837
339.853	5058
339.940	12871
340.027	4325
340.113	4558
340.200	6358
340.287	4259
340.374	5583
340.460	11629
340.547	4940
340.634	7976
340.720	33518
340.807	18016
340.894	2951
340.980	3667
341.067	2983
341.154	4519
341.240	7206
341.327	16760
341.414	6428
341.500	5581
341.587	4007
341.674	3016
341.760	11787
341.847	13924
341.933	4198
342.020	866
342.106	1591
342.193	3882
342.279	8995
342.366	6615
342.452	10957
342.539	5641
342.625	13875
342.712	35242
342.798	14895
342.885	5953
342.971	1429
343.058	1986
343.144	2613
343.230	2707
343.317	3069
343.403	2017
343.490	1519
343.576	1932
343.662	2810
343.749	2977
343.835	4734
343.921	7537
344.008	47737
344.094	112010
344.180	25073
344.267	8888
344.353	33231
344.439	36618
344.525	17002
344.612	6855
344.698	4706
344.784	3206
344.870	2821
344.957	2597
345.043	6380
345.129	4182
345.215	11177
345.301	5766
345.387	4238
345.474	1193
345.560	2337
345.646	3558
345.732	2998
345.818	3807
345.904	3592
345.990	4754
346.076	4656
346.162	9885
346.249	4149
346.335	1519
346.421	3026
346.507	11244
346.593	45242
346.679	11270
346.765	3972
346.851	4131
346.937	2988
347.023	3327
347.108	3506
347.194	3136
347.280	3160
347.366	3906
347.452	12813
347.538	52890
347.624	39919
347.710	35582
347.796	5702
347.882	3524
347.967	2963
348.053	4349
348.139	2657
348.225	2451
348.311	2605
348.397	1991
348.482	4249
348.568	4864
348.654	2658
348.740	3383
348.825	2764
348.911	6229
348.997	23967
349.083	49866
349.168	8861
349.254	3982
349.340	4307
349.425	1942
349.511	5047
349.597	5495
349.682	10020
349.768	35281
349.854	17269
349.939	3387
350.025	2273
350.110	2384
350.196	2164
350.282	1544
350.367	2108
350.453	4493
350.538	6143
350.624	4472
350.709	5000
350.795	1883
350.880	2256
350.966	4034
351.051	6574
351.137	4395
351.222	3571
351.308	11615
351.393	34519
351.479	9916
351.564	3762
351.649	3344
351.735	2316
351.820	2805
351.906	2826
351.991	3657
352.076	19741
352.162	32061
352.247	6114
352.332	4661
352.418	10201
352.503	11418
352.588	48097
352.673	41606
352.759	9566
352.844	4336
352.929	4993
353.014	6277
353.100	4835
353.185	7275
353.270	12588
353.355	13681
353.441	3885
353.526	4203
353.611	11072
353.696	14143
353.781	8526
353.866	3413
353.952	3988
354.037	11067
354.122	26851
354.207	24558
354.292	8976
354.377	4026
354.462	3342
354.547	5445
354.632	5106
354.717	6585
354.802	8563
354.887	3843
354.972	2577
355.057	2006
355.142	2179
355.227	4750
355.312	7210
355.397	17569
355.482	42747
355.567	19888
355.652	14479
355.737	15207
355.822	39029
355.907	35261
355.991	5696
356.076	3518
356.161	2601
356.246	2311
356.331	3526
356.416	6645
356.501	56352
356.585	63057
356.670	9484
356.755	7199
356.840	9328
356.924	40523
357.009	146204
357.094	60545
357.179	13442
357.263	9052
357.348	9023
357.433	9862
357.517	9488
357.602	7152
357.687	4767
357.771	7770
357.856	16861
357.941	12509
358.025	29770
358.110	133205
358.195	68480
358.279	10782
358.364	7475
358.448	28787
358.533	81451
358.617	60689
358.702	56881
358.787	21669
358.871	12683
358.956	10737
359.040	3001
359.125	2806
359.209	2994
359.294	8230
359.378	13488
359.462	10081
359.547	6705
359.631	3618
359.716	2527
359.800	3590
359.885	6640
359.969	3654
360.053	3127
360.138	3562
360.222	5374
360.306	12767
360.391	10355
360.475	12544
360.559	31200
360.644	31200
360.728	23572
360.812	31100
360.896	87352
360.981	40903
361.065	24931
361.149	6465
361.233	5984
361.318	4109
361.402	5529
361.486	5656
361.570	4060
361.654	5719
361.739	14260
361.823	56559
361.907	89699
361.991	16380
362.075	10168
362.159	24528
362.243	18131
362.327	14884
362.411	19623
362.495	9991
362.580	5066
362.664	3942
362.748	4062
362.832	5277
362.916	7573
363.000	26989
363.084	76969
363.168	105610
363.252	29016
363.336	9910
363.420	13473
363.503	45362
363.587	56672
363.671	10571
363.755	7912
363.839	12740
363.923	5791
364.007	11845
364.091	14629
364.175	16200
364.258	71607
364.342	55236
364.426	60286
364.510	34331
364.594	16457
364.677	18261
364.761	72457
364.845	57625
364.929	21508
365.013	18575
365.096	14173
365.180	17553
365.264	17827
365.347	69872
365.431	33864
365.515	8994
365.598	5040
365.682	5348
365.766	8134
365.849	11283
365.933	5763
366.017	7747
366.100	6174
366.184	2619
366.267	4632
366.351	3700
366.435	2729
366.518	2485
366.602	2610
366.685	4164
366.769	4605
366.852	8464
366.936	15090
367.019	9017
367.103	5938
367.186	12885
367.270	3961
367.353	2263
367.436	4132
367.520	3214
367.603	5466
367.687	7505
367.770	15591
367.853	8933
367.937	22149
368.020	41570
368.104	10175
368.187	11454
368.270	16756
368.353	15287
368.437	17006
368.520	37353
368.603	25104
368.687	28994
368.770	57060
368.853	15242
368.936	14024
369.020	14483
369.103	5972
369.186	3581
369.269	4707
369.352	9805
369.436	14663
369.519	9813
369.602	2963
369.685	6109
369.768	5696
369.851	4563
369.934	3288
370.018	4263
370.101	12234
370.184	10734
370.267	6616
370.350	11985
370.433	18945
370.516	39488
370.599	51929
370.682	17740
370.765	33762
370.848	39321
370.931	64704
371.014	28045
371.097	5606
371.180	5643
371.263	3814
371.346	1158
371.429	4126
371.511	4250
371.594	8243
371.677	14474
371.760	15629
371.843	12851
371.926	47685
372.009	116234
372.091	44035
372.174	27089
372.257	56587
372.340	25842
372.423	20216
372.505	24395
372.588	10566
372.671	20786
372.754	65242
372.836	35713
372.919	22239
373.002	48045
373.085	16317
373.167	12942
373.250	28687
373.332	58950
373.415	74981
373.498	150226
373.580	64173
373.663	68234
373.746	99549
373.828	25741
373.911	12956
373.993	11548
374.076	40989
374.159	43109
374.241	18347
374.324	55794
374.406	40482
374.489	41746
374.571	119597
374.654	55965
374.736	24633
374.819	70337
374.901	104444
374.983	112165
375.066	23018
375.148	8553
375.231	31125
375.313	67497
375.395	27095
375.478	6289
375.560	4487
375.643	6770
375.725	22340
375.807	90203
375.890	80326
375.972	37299
376.054	19933
376.136	31093
376.219	14535
376.301	26417
376.383	79769
376.465	35843
376.548	22617
376.630	25352
376.712	68723
376.794	36762
376.877	4519
376.959	2527
377.041	4436
377.123	9305
377.205	12544
377.287	2892
377.369	3400
377.452	3477
377.534	3833
377.616	3022
377.698	2900
377.780	2455
377.862	3436
377.944	4149
378.026	1852
378.108	3514
378.190	3012
378.272	2034
378.354	1930
378.436	2043
378.518	5828
378.600	20593
378.682	20303
378.764	38412
378.846	34696
378.928	9124
379.010	13533
379.091	8994
379.173	3829
379.255	2559
379.337	5005
379.419	18202
379.501	55595
379.583	23940
379.664	5706
379.746	15409
379.828	41179
379.910	55344
379.991	47865
380.073	8672
380.155	4650
380.237	4025
380.318	3316
380.400	3693
380.482	9270
380.564	16392
380.645	14563
380.727	14343
380.809	8843
380.890	5752
380.972	3821
381.053	4298
381.135	5839
381.217	13759
381.298	42604
381.380	24035
381.461	16068
381.543	67678
381.624	91803
381.706	19418
381.787	10066
381.869	11745
381.951	30178
382.032	109396
382.113	82394
382.195	19655
382.276	13487
382.358	23446
382.439	63452
382.521	71857
382.602	107753
382.684	56451
382.765	96150
382.846	129573
382.928	195345
383.009	120942
383.090	78240
383.172	244378
383.253	371485
383.334	139572
383.416	108236
383.497	63916
383.578	35912
383.659	67258
383.741	210598
383.822	474146
383.903	280081
383.984	95735
384.066	132189
384.147	88204
384.228	21521
384.309	14706
384.390	12215
384.471	9259
384.553	9585
384.634	13150
384.715	14348
384.796	7648
384.877	9375
384.958	36005
385.039	48771
385.120	18554
385.201	8606
385.282	10355
385.363	10472
385.444	9240
385.525	16692
385.606	48128
385.687	44795
385.768	12573
385.849	14721
385.930	52759
386.011	95238
386.092	28635
386.173	7379
386.254	6638
386.335	6463
386.416	7067
386.496	24037
386.577	43775
386.658	16861
386.739	9511
386.820	8711
386.901	5641
386.981	6619
387.062	3220
387.143	8698
387.224	37928
387.304	39479
387.385	14564
387.466	8355
387.547	11379
387.627	7279
387.708	14712
387.789	63591
387.869	80366
387.950	24220
388.031	4394
388.111	2574
388.192	11770
388.273	18361
388.353	11114
388.434	6002
388.514	12686
388.595	52482
388.676	79192
388.756	42750
388.837	38865
388.917	27019
388.998	4323
389.078	4435
389.159	5002
389.239	3563
389.320	8696
389.400	6393
389.480	14871
389.561	39352
389.641	22741
389.722	7080
389.802	12607
389.883	17638
389.963	43776
390.043	30991
390.124	9876
390.204	15098
390.284	46063
390.365	31914
390.445	30500
390.525	73062
390.605	67539
390.686	26081
390.766	8395
390.846	5240
390.927	2573
391.007	3618
391.087	4485
391.167	4181
391.247	3026
391.328	7116
391.408	11910
391.488	8897
391.568	2529
391.648	5767
391.728	9158
391.808	8652
391.888	8746
391.969	21724
392.049	36454
392.129	17582
392.209	16362
392.289	43613
392.369	26335
392.449	19041
392.529	14041
392.609	10851
392.689	12524
392.769	40653
392.849	38863
392.929	25670
393.009	58348
393.089	48311
393.169	36413
393.248	104695
393.328	364521
393.408	419343
393.488	127373
393.568	34091
393.648	17271
393.728	10934
393.807	7724
393.887	7734
393.967	6280
394.047	8515
394.127	9707
394.206	16421
394.286	52052
394.366	210936
394.446	251623
394.525	66104
394.605	15394
394.685	13286
394.764	28443
394.844	46122
394.924	36513
395.003	11129
395.083	8042
395.163	6112
395.242	5758
395.322	6120
395.402	4144
395.481	7021
395.561	18069
395.640	53907
395.720	45880
395.799	53639
395.879	46411
395.958	25629
396.038	76527
396.117	276941
396.197	331830
396.276	109828
396.356	35618
396.435	24121
396.515	17387
396.594	18902
396.673	34897
396.753	113438
396.832	340772
396.912	292697
396.991	80755
397.070	21780
397.150	10006
397.229	9313
397.308	11251
397.388	18649
397.467	10989
397.546	4642
397.625	1958
397.705	7517
397.784	6606
397.863	3362
397.942	2785
398.022	3515
398.101	14483
398.180	46787
398.259	27363
398.338	7638
398.417	4734
398.497	3115
398.576	4424
398.655	2334
398.734	1767
398.813	3186
398.892	12461
398.971	49176
399.050	27877
399.129	2387
399.208	1894
399.287	2589
399.366	1219
399.445	1862
399.524	2374
399.603	1570
399.682	6230
399.761	17315
399.840	52043
399.919	43884
399.998	6420
400.077	1469
400.156	1279
400.235	4108
400.313	2596
400.392	3896
400.471	20138
400.550	36878
400.629	10027
400.708	4671
400.786	4205
400.865	10728
400.944	12662
401.023	7584
401.102	1418
401.180	1302
401.259	2255
401.338	2381
401.416	4492
401.495	3823
401.574	3147
401.652	2002
401.731	4713
401.810	3570
401.888	1949
401.967	798
402.046	1705
402.124	3495
402.203	5296
402.281	3816
402.360	4129
402.438	14645
402.517	10427
402.596	3659
402.674	3119
402.753	1491
402.831	1134
402.910	3526
402.988	11855
403.066	42919
403.145	28202
403.223	14324
403.302	35496
403.380	29194
403.459	27526
403.537	11211
403.615	3763
403.694	-263
403.772	2043
403.850	976
403.929	584
404.007	657
404.085	5218
404.164	5641
404.242	1573
404.320	3844
404.398	9222
404.477	19778
404.555	82889
404.633	81739
404.711	14934
404.789	4715
404.868	2166
404.946	871
405.024	1563
405.102	414
405.180	618
405.258	-123
405.336	2017
405.415	1375
405.493	5282
405.571	4641
405.649	1389
405.727	840
405.805	4322
405.883	3613
405.961	3670
406.039	3898
406.117	1247
406.195	4337
406.273	20585
406.351	74453
406.429	51396
406.507	8016
406.585	1649
406.663	2921
406.740	4532
406.818	2834
406.896	1447
406.974	2866
407.052	6013
407.130	43149
407.208	66661
407.285	14944
407.363	1310
407.441	2206
407.519	2005
407.596	3322
407.674	6440
407.752	18002
407.830	21084
407.907	9559
407.985	3005
408.063	1392
408.141	601
408.218	3205
408.296	3180
408.373	2827
408.451	2954
408.529	2965
408.606	634
408.684	708
408.762	145
408.839	418
408.917	365
408.994	561
409.072	431
409.149	639
409.227	3345
409.304	3518
409.382	2322
409.459	2715
409.537	4710
409.614	3887
409.692	3191
409.769	2534
409.846	5348
409.924	7608
410.001	4590
410.079	3324
410.156	2637
410.233	2075
410.311	1725
410.388	476
410.465	2504
410.543	1932
410.620	1701
410.697	1824
410.775	2897
410.852	918
410.929	2836
411.006	5301
411.083	2095
411.161	6280
411.238	7636
411.315	3531
411.392	600
411.469	3352
411.547	3235
411.624	1501
411.701	1304
411.778	2078
411.855	6997
411.932	3841
412.009	1267
412.086	1791
412.163	2129
412.240	1571
412.317	3381
412.394	2900
412.471	1361
412.548	1073
412.625	614
412.702	2462
412.779	5701
412.856	4394
412.933	29
413.010	1472
413.087	3128
413.164	19320
413.241	31666
413.318	7475
413.395	4256
413.471	6909
413.548	2498
413.625	1869
413.702	1325
413.779	2252
413.855	-294
413.932	-200
414.009	-676
414.086	675
414.162	652
414.239	3564
414.316	18636
414.393	46243
414.469	17826
414.546	1788
414.623	515
414.699	1013
414.776	2374
414.853	1303
414.929	848
415.006	639
415.082	1662
415.159	1249
415.236	949
415.312	1467
415.389	4412
415.465	6356
415.542	3419
415.618	803
415.695	4018
415.771	2027
415.848	2288
415.924	1720
416.000	1309
416.077	999
416.153	-496
416.230	-1052
416.306	-100
416.383	21
416.459	744
416.535	-18
416.612	151
416.688	1141
416.764	47
416.841	251
416.917	212
416.993	1421
417.069	1533
417.146	2375
417.222	4490
417.298	1863
417.374	452
417.451	1636
417.527	1883
417.603	3226
417.679	2104
417.755	1343
417.831	222
417.908	793
417.984	201
418.060	93
418.136	5532
418.212	7234
418.288	2356
418.364	801
418.440	335
418.516	2960
418.592	4047
418.668	9408
418.744	14698
418.820	11177
418.896	2285
418.972	-168
419.048	571
419.124	6350
419.200	5022
419.276	718
419.352	-268
419.428	260
419.504	1514
419.579	2709
419.655	1990
419.731	1613
419.807	8175
419.883	16491
419.959	12091
420.034	2873
420.110	6159
420.186	25874
420.262	23208
420.337	3651
420.413	2938
420.489	1500
420.565	555
420.640	1012
420.716	1004
420.792	-691
420.867	1962
420.943	871
421.019	3812
421.094	3482
421.170	864
421.245	925
421.321	1100
421.397	1119
421.472	3758
421.548	9295
421.623	9060
421.699	4040
421.774	3620
421.850	2281
421.925	5763
422.001	5782
422.076	4070
422.152	4638
422.227	10230
422.302	11098
422.378	15442
422.453	29326
422.529	69562
422.604	182715
422.679	285327
422.755	216946
422.830	84649
422.905	32479
422.981	16548
423.056	9903
423.131	8091
423.207	6297
423.282	5811
423.357	11512
423.432	7359
423.508	6195
423.583	14991
423.658	12246
423.733	3967
423.808	3907
423.883	4836
423.959	4012
424.034	2464
424.109	2740
424.184	846
424.259	1003
424.334	1197
424.409	196
424.484	766
424.559	1368
424.634	1064
424.709	1938
424.784	2922
424.859	1343
424.934	4264
425.009	19583
425.084	33554
425.159	12580
425.234	1673
425.309	-247
425.384	2780
425.459	5538
425.534	2278
425.609	557
425.683	403
425.758	778
425.833	938
425.908	2335
425.983	10933
426.058	35358
426.132	16687
426.207	1577
426.282	4210
426.357	3158
426.431	838
426.506	1173
426.581	1664
426.655	771
426.730	523
426.805	932
426.879	974
426.954	1257
427.029	4588
427.103	28527
427.178	69543
427.253	33327
427.327	4201
427.402	3586
427.476	8591
427.551	4206
427.625	1967
427.700	1374
427.774	-382
427.849	1202
427.923	-350
427.998	399
428.072	241
428.147	4525
428.221	20672
428.296	59603
428.370	34608
428.444	3796
428.519	5121
428.593	10200
428.667	9396
428.742	10837
428.816	11428
428.890	36363
428.965	61240
429.039	20079
429.113	12340
429.188	4151
429.262	549
429.336	4495
429.410	15588
429.485	11023
429.559	7882
429.633	7435
429.707	2157
429.781	6655
429.855	40999
429.930	69378
430.004	35345
430.078	48668
430.152	46358
430.226	70974
430.300	79520
430.374	12450
430.448	4728
430.522	14665
430.596	46385
430.670	32271
430.744	64495
430.818	104873
430.892	22914
430.966	2295
431.040	1061
431.114	-4
431.188	-635
431.262	541
431.336	46
431.410	3849
431.484	13234
431.557	10337
431.631	674
431.705	1375
431.779	9220
431.853	48341
431.927	38574
432.000	3908
432.074	940
432.148	1319
432.222	1453
432.295	131
432.369	678
432.443	2824
432.516	23693
432.590	67464
432.664	27850
432.737	2226
432.811	-360
432.885	254
432.958	324
433.032	28
433.106	-693
433.179	-305
433.253	-755
433.326	129
433.400	-425
433.473	-175
433.547	-713
433.620	52
433.694	2335
433.767	2833
433.841	175
433.914	-715
433.988	53
434.061	-341
434.134	246
434.208	-472
434.281	-938
434.355	-829
434.428	-26
434.501	-246
434.575	-574
434.648	264
434.721	-601
434.795	-1093
434.868	-1475
434.941	-602
435.014	-1056
435.088	48
435.161	1160
435.234	2673
435.307	4448
435.381	1478
435.454	247
435.527	1158
435.600	1932
435.673	1292
435.746	183
435.819	361
435.892	689
435.966	107
436.039	-806
436.112	962
436.185	-1017
436.258	-934
436.331	-1117
436.404	-1099
436.477	-585
436.550	-767
436.623	-697
436.696	-107
436.769	594
436.842	355
436.915	234
436.987	1570
437.060	-132
437.133	-280
437.206	-820
437.279	57
437.352	-673
437.425	-589
437.498	377
437.570	3002
437.643	4189
437.716	-21
437.789	-308
437.861	2550
437.934	10619
438.007	3974
438.080	-347
438.152	228
438.225	3578
438.298	30814
438.370	90979
438.443	43286
438.516	9901
438.588	1920
438.661	-37
438.734	-4
438.806	440
438.879	1167
438.951	1803
439.024	5081
439.096	1374
439.169	-141
439.241	-112
439.314	-716
439.386	1494
439.459	2449
439.531	4570
439.604	1392
439.676	-385
439.749	485
439.821	-118
439.893	123
439.966	125
440.038	1100
440.110	1217
440.183	583
440.255	-715
440.327	1791
440.400	13176
440.472	58278
440.544	42407
440.617	4493
440.689	2919
440.761	4774
440.833	8999
440.905	5750
440.978	259
441.050	-1365
441.122	128
441.194	-796
441.266	-442
441.338	-241
441.411	2306
441.483	19570
441.555	34086
441.627	6090
441.699	2872
441.771	2230
441.843	153
441.915	296
441.987	-283
442.059	-329
442.131	-412
442.203	2193
442.275	2513
442.347	2837
442.419	4110
442.491	22095
442.563	60391
442.635	27656
442.706	14704
442.778	11825
442.850	1643
442.922	-75
442.994	278
443.066	2442
443.137	2847
443.209	948
443.281	2874
443.353	6484
443.425	29305
443.496	107894
443.568	108505
443.640	38998
443.711	5728
443.783	1754
443.855	1064
443.926	677
443.998	163
444.070	1710
444.141	1338
444.213	3270
444.285	4375
444.356	3406
444.428	2133
444.499	407
444.571	-3
444.642	-925
444.714	632
444.785	2042
444.857	3282
444.928	7795
445.000	4117
445.071	5988
445.143	7243
445.214	4017
445.285	6728
445.357	21987
445.428	69268
445.500	166779
445.571	106539
445.642	53636
445.714	18861
445.785	15817
445.856	4635
445.928	4574
445.999	3477
446.070	2718
446.141	2491
446.213	5396
446.284	1659
446.355	1753
446.426	339
446.497	369
446.569	2215
446.640	5114
446.711	4256
446.782	614
446.853	1468
446.924	1374
446.995	1603
447.066	869
447.138	2330
447.209	918
447.280	-530
447.351	-630
447.422	-523
447.493	37
447.564	1138
447.635	3581
447.706	651
447.777	69
447.847	-619
447.918	-846
447.989	1073
448.060	1858
448.131	4820
448.202	5115
448.273	4447
448.344	1139
448.414	266
448.485	224
448.556	369
448.627	-637
448.698	-122
448.768	-491
448.839	-367
448.910	1598
448.981	2403
449.051	-419
449.122	-434
449.193	-144
449.263	-398
449.334	-199
449.405	930
449.475	5027
449.546	3268
449.616	3513
449.687	1972
449.758	480
449.828	-841
449.899	321
449.969	-969
450.040	-349
450.110	454
450.181	1249
450.251	624
450.322	-660
450.392	-420
450.463	-402
450.533	68
450.604	284
450.674	-484
450.744	485
450.815	87
450.885	31
450.955	-154
451.026	-443
451.096	-515
451.166	47
451.237	2699
451.307	8698
451.377	2612
451.447	-177
451.518	-259
451.588	-14
451.658	-473
451.728	1914
451.799	9331
451.869	11142
451.939	1367
452.009	100
452.079	-150
452.149	422
452.219	1188
452.289	11523
452.360	8299
452.430	675
452.500	779
452.570	1622
452.640	2966
452.710	8777
452.780	14134
452.850	9959
452.920	10491
452.990	2766
453.060	467
453.129	1984
453.199	2906
453.269	11733
453.339	26658
453.409	41623
453.479	41155
453.549	61801
453.619	64760
453.688	23019
453.758	2248
453.828	569
453.898	237
453.968	609
454.037	-300
454.087	130
454.107	296
454.168	-344
454.177	-454
454.247	-478
454.249	-464
454.316	-582
454.330	-318
454.386	612
454.411	2070
454.456	4444
454.492	6140
454.525	7638
454.574	3619
454.595	1872
454.655	1159
454.665	1045
454.734	277
454.736	363
454.804	2507
454.817	3965
454.873	9797
454.898	10328
454.943	11391
454.979	7060
455.013	3119
455.060	1932
455.082	1439
455.141	1528
455.152	1465
455.221	6235
455.222	6335
455.291	12678
455.303	11113
455.360	4165
455.384	3661
455.430	2720
455.465	3441
455.499	3950
455.546	7329
455.569	8804
455.627	5824
455.638	5315
455.707	660
455.708	670
455.777	-165
455.789	57
455.846	731
455.869	377
455.916	-134
455.950	61
455.985	134
456.031	-46
456.054	-160
456.112	595
456.124	769
456.193	406
456.193	387
456.262	493
456.274	668
456.332	1485
456.355	1458
456.401	1140
456.436	830
456.470	546
456.516	394
456.540	436
456.597	73
456.609	-76
456.678	812
456.678	803
456.747	192
456.759	181
456.817	178
456.840	325
456.886	350
456.920	582
456.955	1036
457.001	1036
457.024	966
457.082	1571
457.093	1636
457.162	1615
457.163	1632
457.232	2646
457.243	2451
457.301	1482
457.324	1214
457.370	860
457.405	850
457.439	819
457.485	918
457.508	965
457.566	1553
457.577	1702
457.646	2249
457.647	2276
457.715	4300
457.727	4724
457.784	7074
457.808	8931
457.853	10587
457.889	11698
457.922	11912
457.969	8979
457.991	9167
458.050	10922
458.060	11165
458.129	18301
458.130	18513
458.198	16842
458.211	14694
458.267	8111
458.292	5788
458.336	4087
458.372	4539
458.405	6331
458.453	9518
458.474	11657
458.533	18943
458.543	19206
458.611	28434
458.614	28540
458.680	17865
458.694	13853
458.749	6098
458.775	4696
458.818	3017
458.855	2567
458.887	2390
458.936	2113
458.955	1882
459.016	1478
459.024	1485
459.093	2293
459.097	2293
459.162	2179
459.177	2319
459.230	2915
459.257	3189
459.299	3093
459.338	2904
459.368	3055
459.418	3692
459.437	3595
459.499	2874
459.505	2856
459.574	2524
459.579	2483
459.643	1763
459.659	1747
459.711	2414
459.740	2752
459.780	2704
459.820	2670
459.849	2653
459.900	3075
459.917	3303
459.981	3386
459.986	3355
460.054	3092
460.061	3088
460.123	3580
460.141	3822
460.191	4745
460.222	5328
460.260	5722
460.302	6810
460.328	6761
460.382	5010
460.397	4882
460.462	4133
460.465	4219
460.534	7807
460.543	8196
460.602	16255
460.623	19439
460.671	28525
460.703	37344
460.739	31742
460.783	21764
460.808	19082
460.864	5612
460.876	4354
460.944	3285
460.945	3263
461.013	2890
461.024	2870
461.081	3137
461.104	3458
461.150	3588
461.184	3204
461.218	2844
461.264	2463
461.286	2487
461.345	2534
461.355	2520
461.423	2613
461.425	2613
461.491	2990
461.505	3187
461.559	4896
461.585	5576
461.628	7467
461.665	9407
461.696	9480
461.745	11763
461.764	11458
461.825	5451
461.832	5306
461.901	3778
461.905	3828
461.969	2708
461.985	2363
462.037	3341
462.065	3874
462.105	3481
462.145	3120
462.173	4049
462.225	6005
462.241	6147
462.305	7566
462.310	7476
462.378	5495
462.385	5052
462.446	3850
462.465	3904
462.514	3809
462.545	3668
462.582	3482
462.625	3341
462.650	3203
462.705	2761
462.718	2792
462.785	3141
462.786	3160
462.854	4091
462.865	4285
462.922	4968
462.945	5389
462.990	4740
463.025	3517
463.058	3121
463.104	2796
463.126	2763
463.184	3238
463.194	3337
463.262	3365
463.264	3385
463.330	3696
463.344	3726
463.398	4006
463.424	4033
463.466	3607
463.504	3437
463.533	3767
463.583	3958
463.601	3974
463.663	4057
463.669	4101
463.737	4805
463.743	4873
463.805	6808
463.823	7391
463.873	10309
463.903	12202
463.940	11965
463.982	12147
464.008	10618
464.062	5523
464.076	5246
464.142	3749
464.144	3720
464.211	3526
464.221	3526
464.279	3865
464.301	3960
464.347	4347
464.381	4692
464.414	4757
464.461	4733
464.482	4832
464.540	5293
464.550	5275
464.617	4597
464.620	4576
464.685	6629
464.699	7077
464.753	8535
464.779	9355
464.820	10484
464.859	11332
464.888	10398
464.938	8686
464.956	8654
465.018	8558
465.023	8513
465.091	7732
465.098	7632
465.158	6937
465.177	6757
465.226	7607
465.257	8043
465.293	8118
465.336	8231
465.361	8749
465.416	10009
465.428	10258
465.495	11470
465.496	11511
465.563	15203
465.575	15828
465.631	17098
465.654	17898
465.698	13505
465.734	9014
465.765	8639
465.813	8201
465.833	8040
465.893	7938
465.900	7960
465.968	7928
465.972	7915
466.035	7929
466.052	7935
466.102	8455
466.131	8699
466.170	8684
466.210	8662
466.237	8629
466.290	8525
466.304	8614
466.369	8781
466.372	8848
466.439	10464
466.449	10672
466.506	11371
466.528	11625
466.573	13645
466.607	15077
466.641	18573
466.687	23451
466.708	24487
466.766	27450
466.775	26093
466.842	15384
466.845	14845
466.909	12547
466.925	12052
466.977	11399
467.004	11044
467.044	11903
467.083	12760
467.111	14301
467.163	17120
467.178	17245
467.242	17573
467.245	17476
467.312	14807
467.321	14425
467.379	14135
467.400	13991
467.446	14782
467.480	15307
467.559	12835
467.638	12111
467.717	11759
467.796	13585
467.875	13455
467.955	12880
468.034	16922
468.113	26217
468.192	30050
468.271	13557
468.350	12855
468.429	14014
468.508	14612
468.588	11351
468.667	11489
468.746	10911
468.825	10547
468.904	9786
468.983	10841
469.062	13644
469.141	14560
469.220	10022
469.299	11009
469.378	12461
469.456	15000
469.535	12773
469.614	11550
469.693	12578
469.772	14181
469.851	15671
469.930	12718
470.009	12694
470.088	11668
470.166	15951
470.245	20487
470.324	23709
470.403	16589
470.482	13060
470.560	12288
470.639	12186
470.718	12686
470.797	10754
470.875	12542
470.954	14022
471.033	14275
471.111	9768
471.190	8222
471.269	9261
471.347	9227
471.426	9313
471.505	12308
471.583	13020
471.662	11948
471.740	10658
471.819	10445
471.898	9798
471.976	9951
472.055	10188
472.133	9724
472.212	11614
472.290	11459
472.369	9846
472.447	9398
472.526	8735
472.604	9774
472.683	9557
472.761	10003
472.839	9567
472.918	10130
472.996	9353
473.075	10177
473.153	10380
473.231	8503
473.310	9916
473.388	9429
473.466	9571
473.545	12033
473.623	14517
473.701	13607
473.780	9910
473.858	8712
473.936	10942
474.014	8895
474.093	11423
474.171	11882
474.249	14053
474.327	10080
474.405	8098
474.484	8918
474.562	9428
474.640	9691
474.718	8971
474.796	9224
474.874	9147
474.952	8124
475.030	8176
475.108	9953
475.187	11099
475.265	10923
475.343	13701
475.421	14078
475.499	8966
475.577	8887
475.655	10548
475.733	13679
475.811	21736
475.889	17782
475.966	13553
476.044	9053
476.122	10693
476.200	12207
476.278	9285
476.356	7939
476.434	8670
476.512	10304
476.590	10999
476.667	10333
476.745	7625
476.823	8366
476.901	8012
476.979	8101
477.056	8087
477.134	8561
477.212	9080
477.290	8364
477.367	7697
477.445	8231
477.523	7142
477.601	6992
477.678	7535
477.756	8631
477.834	8378
477.911	6842
477.989	7983
478.066	6948
478.144	7842
478.222	10083
478.299	14757
478.377	10955
478.454	6766
478.532	6797
478.609	7934
478.687	8378
478.764	6970
478.842	6927
478.919	7980
478.997	7025
479.074	6417
479.152	6801
479.229	7047
479.307	6213
479.384	6225
479.461	5605
479.539	5765
479.616	7005
479.694	6245
479.771	7364
479.848	7251
479.926	7336
480.003	9146
480.080	6217
480.157	6086
480.235	6546
480.312	6802
480.389	6826
480.467	8652
480.544	9457
480.621	7121
480.698	6095
480.775	7315
480.853	7311
480.930	6911
481.007	6672
481.084	7651
481.161	8088
481.238	7781
481.315	5690
481.392	5967
481.470	5777
481.547	6077
481.624	6219
481.701	6177
481.778	6226
481.855	7117
481.932	8128
482.009	12742
482.086	8698
482.163	6671
482.240	10171
482.317	16474
482.393	10675
482.470	6051
482.547	6186
482.624	5921
482.701	6331
482.778	6141
482.855	5731
482.932	5726
483.009	5187
483.085	6950
483.162	8256
483.239	7624
483.316	5456
483.393	6285
483.469	5793
483.546	7419
483.623	6341
483.699	6607
483.776	6821
483.853	7180
483.930	10153
484.006	19531
484.083	31480
484.160	33413
484.236	52670
484.313	36771
484.389	27010
484.466	25216
484.543	23534
484.619	24606
484.696	26214
484.772	24724
484.849	24294
484.925	22388
485.002	22146
485.078	23384
485.155	23599
485.231	20840
485.308	20076
485.384	20883
485.461	22220
485.537	26430
485.614	28986
485.690	19103
485.766	19940
485.843	21839
485.919	27463
485.995	26992
486.072	18943
486.148	18105
486.224	18127
486.301	19763
486.377	20340
486.453	19959
486.530	22460
486.606	30913
486.682	30248
486.758	28499
486.835	29477
486.911	27461
486.987	36570
487.063	45373
487.139	54524
487.215	37521
487.292	23171
487.368	21040
487.444	23350
487.520	28474
487.596	27284
487.672	42431
487.748	90658
487.824	109011
487.900	36203
487.976	22941
488.052	21627
488.128	25201
488.204	19983
488.280	18084
488.356	21001
488.432	29260
488.508	34060
488.584	20104
488.660	17467
488.736	18521
488.812	20453
488.888	24634
488.964	32218
489.039	58221
489.115	76195
489.191	40046
489.267	16960
489.343	16390
489.418	15060
489.494	16338
489.570	13248
489.646	16492
489.722	14936
489.797	15557
489.873	19698
489.949	27926
490.024	23836
490.100	14962
490.176	15654
490.251	17658
490.327	21361
490.403	13820
490.478	14261
490.554	12568
490.629	13789
490.705	12371
490.781	13481
490.856	13041
490.932	16065
491.007	13540
491.083	14292
491.158	13243
491.234	16064
491.309	22063
491.385	20328
491.460	12470
491.536	13998
491.611	12393
491.686	14775
491.762	19955
491.837	36254
491.913	54311
491.988	73891
492.063	79523
492.139	19209
492.214	14934
492.289	11719
492.365	11535
492.440	13609
492.515	11763
492.590	12576
492.666	10556
492.741	12677
492.816	14445
492.891	10698
492.967	10442
493.042	9669
493.117	10061
493.192	9775
493.267	11810
493.342	15783
493.418	15124
493.493	11605
493.568	8403
493.643	9746
493.718	12100
493.793	14968
493.868	18210
493.943	11836
494.018	11033
494.093	9503
494.168	9513
494.243	9081
494.318	9228
494.393	8966
494.468	9702
494.543	8866
494.618	11496
494.693	8990
494.768	9316
494.842	9661
494.917	9396
494.992	10150
495.067	8678
495.142	8471
495.217	9991
495.292	9180
495.366	10282
495.441	12113
495.516	16945
495.591	27416
495.665	79130
495.740	149911
495.815	46114
495.890	12696
495.964	9562
496.039	13557
496.114	10798
496.188	11898
496.263	12463
496.338	9852
496.412	11827
496.487	13585
496.561	14199
496.636	13918
496.710	11458
496.785	13357
496.860	13270
496.934	10764
497.009	12386
497.083	13226
497.158	13614
497.232	15556
497.307	16424
497.381	15704
497.455	17401
497.530	17782
497.604	15396
497.679	16903
497.753	23075
497.827	30318
497.902	29559
497.976	33574
498.050	65812
498.125	167060
498.199	146158
498.273	46347
498.348	39336
498.422	31244
498.496	28681
498.570	24484
498.645	18562
498.719	15812
498.793	16805
498.867	21836
498.941	29363
499.016	76096
499.090	157290
499.164	46498
499.238	12199
499.312	12124
499.386	16194
499.460	13574
499.534	13195
499.609	15065
499.683	16545
499.757	15673
499.831	38465
499.905	110133
499.979	82999
500.053	17376
500.127	18755
500.201	16066
500.275	12987
500.349	11727
500.422	13874
500.496	21700
500.570	42584
500.644	75545
500.718	101393
500.792	20313
500.866	9818
500.940	11120
501.013	10113
501.087	11815
501.161	21668
501.235	21505
501.309	41680
501.382	93888
501.456	70463
501.530	21338
501.603	29227
501.677	12449
501.751	6133
501.825	10315
501.898	17688
501.972	36586
502.046	21041
502.119	9403
502.193	22208
502.266	37941
502.340	19062
502.413	20543
502.487	31482
502.561	18077
502.634	8681
502.708	8605
502.781	8069
502.855	7006
502.928	5370
503.002	6284
503.075	5285
503.149	6180
503.222	6236
503.295	6086
503.369	8402
503.442	11806
503.516	31932
503.589	63805
503.662	37169
503.736	15985
503.809	32219
503.882	27942
503.956	42966
504.029	42871
504.102	50066
504.175	54655
504.249	17127
504.322	11539
504.395	8889
504.468	7673
504.542	6416
504.615	5759
504.688	6218
504.761	4710
504.834	8119
504.907	10317
504.980	15025
505.053	8862
505.127	10473
505.200	12327
505.273	8148
505.346	5291
505.419	5889
505.492	6615
505.565	4012
505.638	5338
505.711	4513
505.784	4503
505.857	4625
505.930	6417
506.003	4995
506.076	6586
506.149	6280
506.221	5720
506.294	8702
506.367	18930
506.440	49305
506.513	24561
506.586	7356
506.659	5073
506.731	6427
506.804	7114
506.877	9543
506.950	6668
507.022	5345
507.095	5073
507.168	8036
507.241	6367
507.313	5223
507.386	6369
507.459	9900
507.531	5216
507.604	5427
507.677	6327
507.749	4522
507.822	9721
507.894	18635
507.967	21866
508.040	12810
508.112	10897
508.185	10501
508.257	10068
508.330	14907
508.402	8394
508.475	8189
508.547	9669
508.620	8642
508.692	11550
508.765	8813
508.837	7658
508.909	8227
508.982	7937
509.054	9168
509.127	7785
509.199	7089
509.271	5351
509.344	7119
509.416	6398
509.488	6593
509.560	7708
509.633	8180
509.705	7710
509.777	8792
509.849	11960
509.922	8133
509.994	7207
510.066	8506
510.138	10126
510.210	21243
510.283	16237
510.355	14005
510.427	12320
510.499	11554
510.571	10244
510.643	11665
510.715	17980
510.787	13281
510.859	12497
510.931	13081
511.003	17353
511.076	14769
511.148	8645
511.219	9647
511.291	12989
511.363	12969
511.435	9376
511.507	7760
511.579	9299
511.651	9741
511.723	8727
511.795	8801
511.867	8801
511.939	10660
512.010	12941
512.082	11798
512.154	8361
512.226	10934
512.298	17288
512.369	22178
512.441	17082
512.513	14554
512.585	11930
512.656	13171
512.728	13336
512.800	11135
512.871	10876
512.943	10413
513.015	10191
513.086	11742
513.158	11236
513.230	12282
513.301	15257
513.373	16803
513.444	10024
513.516	10204
513.588	10270
513.659	11276
513.731	12867
513.802	12338
513.874	24520
513.945	32452
514.016	11630
514.088	9821
514.159	10734
514.231	15516
514.302	19248
514.374	14488
514.445	12643
514.516	18736
514.588	12920
514.659	12201
514.730	16579
514.802	15748
514.873	14387
514.944	15384
515.016	14278
515.087	13588
515.158	15821
515.229	17851
515.301	17173
515.372	19939
515.443	12686
515.514	11660
515.585	9760
515.656	11158
515.728	10738
515.799	9931
515.870	11269
515.941	11157
516.012	10227
516.083	16205
516.154	16186
516.225	19047
516.296	18223
516.367	15773
516.438	18498
516.509	24576
516.580	45186
516.651	140746
516.722	360035
516.793	112070
516.864	27495
516.935	26503
517.006	32835
517.077	53874
517.148	138581
517.219	446673
517.289	480316
517.360	93914
517.431	30645
517.502	15686
517.573	15916
517.643	16027
517.714	17643
517.785	17489
517.856	16690
517.926	21174
517.997	23121
518.068	30244
518.138	45787
518.209	92671
518.280	324665
518.350	801823
518.421	230985
518.492	34095
518.562	20983
518.633	20002
518.703	20432
518.774	38229
518.845	75196
518.915	57158
518.986	21436
519.056	20753
519.127	32654
519.197	43845
519.268	65755
519.338	35950
519.408	16177
519.479	22364
519.549	14382
519.620	11991
519.690	8787
519.760	10785
519.831	10331
519.901	9807
519.971	8968
520.042	8965
520.112	9672
520.182	12990
520.253	13629
520.323	8895
520.393	10608
520.463	14349
520.534	8281
520.604	16426
520.674	10910
520.744	10672
520.814	18822
520.885	17937
520.955	26434
521.025	65128
521.095	22424
521.165	9511
521.235	8727
521.305	7594
521.375	9124
521.445	10241
521.515	10811
521.585	15415
521.655	10951
521.725	11269
521.795	9916
521.865	6592
521.935	12750
522.005	8065
522.075	6798
522.145	8953
522.215	7455
522.285	10568
522.355	12882
522.424	19448
522.494	16308
522.564	15577
522.634	34925
522.704	77524
522.774	23469
522.843	9873
522.913	8961
522.983	10149
523.053	8595
523.122	10090
523.192	15538
523.262	44349
523.331	31255
523.401	9396
523.471	6681
523.540	7384
523.610	6110
523.680	6430
523.749	7682
523.819	8339
523.888	6541
523.958	6362
524.027	8086
524.097	7988
524.166	7551
524.236	7585
524.305	8814
524.375	6051
524.444	5569
524.514	8639
524.583	7324
524.653	8200
524.722	8633
524.791	6297
524.861	8247
524.930	6119
524.999	7042
525.069	10042
525.138	7080
525.207	8034
525.277	8414
525.346	7336
525.415	8427
525.484	7961
525.554	7479
525.623	8528
525.692	8221
525.761	9190
525.830	8918
525.900	11025
525.969	17542
526.038	28202
526.107	62011
526.176	139088
526.245	91720
526.314	39078
526.383	82621
526.452	95411
526.522	175235
526.591	125882
526.660	39489
526.729	23023
526.797	33226
526.867	82839
526.935	276059
527.004	381302
527.073	141309
527.142	14568
527.211	9892
527.280	11206
527.349	11434
527.418	5741
527.487	8196
527.555	5873
527.624	5390
527.693	4261
527.762	7762
527.831	5060
527.899	6385
527.968	6016
528.037	5107
528.106	9206
528.174	12466
528.243	10143
528.312	14400
528.380	15985
528.449	6110
528.518	7359
528.586	3590
528.655	6064
528.723	5606
528.792	5914
528.861	5302
528.929	4188
528.998	6552
529.066	5186
529.135	5393
529.203	4988
529.272	4291
529.340	6561
529.409	6436
529.477	4987
529.545	5063
529.614	8296
529.682	5738
529.751	7285
529.819	10458
529.887	6946
529.956	5861
530.024	7704
530.092	6231
530.161	8725
530.229	11569
530.297	6995
530.365	6988
530.434	6021
530.502	5968
530.570	6179
530.638	4673
530.707	6929
530.775	7975
530.843	5759
530.911	6590
530.979	6977
531.047	7178
531.115	7617
531.183	6043
531.252	6593
531.320	6360
531.388	5683
531.456	7970
531.524	5753
531.592	6433
531.660	8343
531.728	6193
531.796	6391
531.864	7343
531.932	6789
532.000	6843
532.067	7288
532.135	7988
532.203	9322
532.271	8616
532.339	17209
532.407	33385
532.475	18347
532.542	11063
532.610	14400
532.678	22540
532.746	82738
532.814	142805
532.881	30823
532.949	8873
533.017	8358
533.084	7516
533.152	6912
533.220	7112
533.287	7725
533.355	6430
533.423	7249
533.490	6736
533.558	7312
533.625	8127
533.693	7710
533.761	7964
533.828	8298
533.896	7393
533.963	15110
534.031	16972
534.098	21400
534.166	9753
534.233	7276
534.300	8907
534.368	8352
534.435	7067
534.503	8440
534.570	8267
534.637	8280
534.705	9354
534.772	11916
534.840	21550
534.907	76756
534.974	65045
535.041	9707
535.109	9044
535.176	7089
535.243	8564
535.310	7234
535.378	6887
535.445	6661
535.512	6064
535.579	7848
535.646	5795
535.714	8293
535.781	10231
535.848	9128
535.915	9689
535.982	8028
536.049	7949
536.116	9768
536.183	7524
536.250	8562
536.317	7788
536.384	10859
536.451	12597
536.518	13074
536.585	8814
536.652	13019
536.719	16161
536.786	11717
536.853	11016
536.920	16374
536.987	23040
537.053	26868
537.120	90368
537.187	55582
537.254	8891
537.321	7560
537.388	8764
537.454	6612
537.521	7495
537.588	7830
537.654	9708
537.721	11576
537.788	10608
537.855	8588
537.921	9135
537.988	7991
538.055	8131
538.121	8143
538.188	10235
538.254	14128
538.321	21957
538.388	13558
538.454	9397
538.521	9935
538.587	7996
538.654	8119
538.720	8259
538.787	9031
538.853	10062
538.920	10172
538.986	9759
539.053	8717
539.119	9186
539.185	9920
539.252	11832
539.318	15039
539.385	13031
539.451	11558
539.517	12851
539.583	15079
539.650	32858
539.716	60348
539.782	16448
539.849	8434
539.915	10637
539.981	10397
540.047	10804
540.114	9969
540.180	11714
540.246	9854
540.312	14717
540.378	23724
540.444	24046
540.510	34102
540.576	67846
540.643	18846
540.709	8335
540.775	9338
540.841	9293
540.907	12261
540.973	15226
541.039	15745
541.105	15008
541.171	10038
541.237	9201
541.303	12115
541.369	13719
541.435	14108
541.500	19730
541.566	11933
541.632	8649
541.698	7909
541.764	9578
541.830	8733
541.896	7816
541.961	9134
542.027	9088
542.093	10457
542.159	10703
542.224	11603
542.290	15613
542.356	20969
542.421	21230
542.487	12059
542.553	10333
542.618	11343
542.684	9370
542.750	10302
542.815	14355
542.881	22208
542.947	65439
543.012	36929
543.078	8969
543.143	9522
543.209	10391
543.274	11683
543.340	14919
543.405	29655
543.471	33467
543.536	10460
543.602	9235
543.667	8864
543.732	10744
543.798	8837
543.863	9953
543.928	8917
543.994	8346
544.059	9134
544.124	9113
544.190	9724
544.255	10034
544.320	11013
544.386	10493
544.451	13927
544.516	16053
544.581	17750
544.646	45210
544.712	54211
544.777	13847
544.842	11045
544.907	11542
544.972	11670
545.037	11316
545.102	12342
545.168	11772
545.233	13323
545.298	13565
545.363	14734
545.428	17165
545.493	29510
545.558	48332
545.623	19783
545.688	11582
545.753	12695
545.818	11771
545.883	13858
545.947	12256
546.012	12570
546.077	12561
546.142	14333
546.207	14225
546.272	17908
546.337	15699
546.401	15186
546.466	14887
546.531	13275
546.596	15622
546.661	15868
546.725	15553
546.790	14505
546.855	16342
546.919	16032
546.984	18180
547.049	19585
547.113	21450
547.178	21386
547.243	24956
547.307	27987
547.372	31363
547.436	32062
547.501	30889
547.565	33018
547.630	31971
547.695	31436
547.759	31132
547.823	29594
547.888	29787
547.952	30223
548.017	31994
548.081	34074
548.146	34362
548.210	33798
548.274	34628
548.339	33490
548.403	31795
548.468	29154
548.532	29088
548.596	30595
548.660	29869
548.725	34708
548.789	36415
548.853	36051
548.917	34114
548.982	34186
549.046	32511
549.110	26216
549.174	28846
549.238	32002
549.303	33885
549.367	34952
549.431	32100
549.495	32094
549.559	31733
549.623	37033
549.687	41740
549.751	46027
549.815	46525
549.879	45133
549.943	41854
550.007	46159
550.071	45923
550.135	44619
550.199	40756
550.263	39193
550.327	38046
550.391	40430
550.455	42956
550.519	43235
550.582	47550
550.646	57486
550.710	56019
550.774	51257
550.838	50552
550.901	51882
550.965	55139
551.029	57438
551.093	62064
551.156	66913
551.220	78200
551.284	81110
551.347	63437
551.411	66547
551.475	64432
551.538	55500
551.602	49899
551.666	48629
551.729	44457
551.793	45237
551.856	44503
551.920	43808
551.983	43786
552.047	42547
552.110	44030
552.174	45136
552.237	44652
552.301	41404
552.364	40892
552.428	40343
552.491	40896
552.554	41281
552.618	42584
552.681	45187
552.745	46000
552.808	58966
552.871	63980
552.934	48426
552.998	42084
553.061	41984
553.124	38967
553.187	39435
553.251	41214
553.314	41436
553.377	41263
553.440	43717
553.503	48016
553.567	49513
553.630	43013
553.693	42653
553.756	44364
553.819	43154
553.882	41224
553.945	41488
554.008	39613
554.071	41236
554.134	41065
554.197	39923
554.260	37587
554.323	41991
554.386	41448
554.449	43117
554.512	41837
554.575	39328
554.638	40096
554.701	39646
554.764	39990
554.827	38204
554.889	35760
554.952	34337
555.015	33474
555.078	34802
555.141	36265
555.203	34606
555.266	34249
555.329	35459
555.391	32377
555.454	34545
555.517	32533
555.580	29613
555.642	28775
555.705	28407
555.768	29287
555.830	28615
555.893	27430
555.955	27791
556.018	25925
556.080	27206
556.143	26810
556.206	25569
556.268	27672
556.330	27528
556.393	25572
556.455	25499
556.518	27910
556.580	26699
556.643	23899
556.705	23191
556.767	22411
556.830	23801
556.892	24400
556.955	28561
557.017	24746
557.079	21617
557.142	21592
557.204	24387
557.266	33349
557.328	27487
557.391	18648
557.453	18765
557.515	19457
557.577	22039
557.639	20724
557.701	18765
557.764	17713
557.826	18340
557.888	19628
557.950	19694
558.012	22824
558.074	28960
558.136	58696
558.198	99373
558.260	33553
558.322	19945
558.384	21699
558.446	24056
558.508	25067
558.570	31370
558.632	47592
558.694	66526
558.756	88771
558.818	238391
558.880	415218
558.942	112184
559.003	103923
559.065	42709
559.127	25076
559.189	26875
559.251	34873
559.312	52484
559.374	119058
559.436	297469
559.498	102900
559.559	25972
559.621	26153
559.683	35634
559.744	57334
559.806	163434
559.868	174930
559.929	33994
559.991	29186
560.052	47250
560.114	103587
560.176	56652
560.237	68162
560.299	82958
560.360	21450
560.422	14808
560.483	14484
560.545	14113
560.606	12792
560.667	13453
560.729	12237
560.790	11875
560.852	12912
560.913	13351
560.974	12214
561.036	13173
561.097	12106
561.158	12462
561.220	13272
561.281	12527
561.342	13166
561.403	16857
561.465	19655
561.526	36773
561.587	36890
561.648	13598
561.709	12800
561.771	12997
561.832	13560
561.893	13074
561.954	12452
562.015	13364
562.076	13178
562.137	13626
562.198	13401
562.259	13487
562.320	13379
562.381	14894
562.442	17617
562.503	15117
562.564	12893
562.625	12140
562.686	13046
562.747	13572
562.808	12882
562.869	13302
562.930	13493
562.991	13986
563.051	12721
563.112	13552
563.173	12448
563.234	11829
563.294	12703
563.355	11471
563.416	13498
563.477	12509
563.537	12875
563.598	13088
563.659	12085
563.720	12978
563.780	13614
563.841	13599
563.901	12945
563.962	12198
564.023	12099
564.083	12622
564.144	12226
564.204	13049
564.265	13087
564.325	14109
564.386	18477
564.446	16168
564.507	12696
564.567	12589
564.628	12947
564.688	12786
564.749	11523
564.809	13675
564.869	14394
564.930	12347
564.990	13232
565.050	12790
565.111	12630
565.171	12697
565.231	12779
565.292	12691
565.352	12458
565.412	13142
565.472	13210
565.532	13335
565.593	11711
565.653	13578
565.713	13600
565.773	15424
565.833	15655
565.893	17509
565.953	13811
566.013	13799
566.074	13382
566.134	15323
566.194	18712
566.254	17987
566.314	15419
566.374	13681
566.434	14601
566.494	14826
566.554	15225
566.614	15074
566.673	14911
566.733	16366
566.793	16289
566.853	17742
566.913	16635
566.973	16769
567.033	18177
567.092	17012
567.152	16015
567.212	17202
567.272	17531
567.331	17173
567.391	17047
567.451	19227
567.511	21371
567.570	19758
567.630	17672
567.690	17290
567.749	17160
567.809	18040
567.868	21468
567.928	22066
567.988	25551
568.047	29246
568.107	36473
568.166	51598
568.226	81947
568.285	104253
568.345	76775
568.404	57320
568.464	49054
568.523	47382
568.582	49729
568.642	58219
568.701	77415
568.761	119731
568.820	183436
568.879	152754
568.939	99721
568.998	70868
569.057	52538
569.116	42553
569.176	34138
569.235	28671
569.294	26575
569.353	23011
569.413	22609
569.472	20500
569.531	19053
569.590	17893
569.649	17563
569.708	16176
569.767	17011
569.827	18360
569.886	15949
569.945	14454
570.004	15073
570.063	14887
570.122	15151
570.181	15052
570.240	14218
570.299	15133
570.358	15920
570.417	14533
570.475	13406
570.534	14306
570.593	13894
570.652	13468
570.711	13730
570.770	14054
570.829	13552
570.887	13865
570.946	14711
571.005	12336
571.064	13036
571.122	13984
571.181	12693
571.240	11974
571.299	12833
571.357	12645
571.416	12385
571.475	13654
571.533	13099
571.592	11733
571.650	12576
571.709	11666
571.768	11319
571.826	12967
571.885	12253
571.943	12679
572.002	10482
572.060	11141
572.119	10558
572.177	11266
572.236	11063
572.294	11265
572.352	10777
572.411	12054
572.469	11033
572.528	11613
572.586	12083
572.644	12593
572.703	14771
572.761	12100
572.819	11036
572.877	10123
572.936	10352
572.994	10798
573.052	10370
573.110	10768
573.169	11107
573.227	10579
573.285	9401
573.343	10277
573.401	10893
573.459	10787
573.517	10666
573.576	10054
573.634	11491
573.692	11642
573.750	10660
573.808	9829
573.866	10501
573.924	11633
573.982	11888
574.040	9686
574.098	10011
574.155	10421
574.213	10554
574.271	9963
574.329	10407
574.387	9099
574.445	10327
574.503	9376
574.560	9769
574.618	10187
574.676	9402
574.734	10861
574.792	9667
574.849	10328
574.907	8688
574.965	10021
575.022	8480
575.080	8209
575.138	9803
575.195	9710
575.253	9371
575.311	11118
575.368	8876
575.426	8748
575.483	9118
575.541	9559
575.598	9044
575.656	9874
575.713	9118
575.771	9146
575.828	9296
575.886	9331
575.943	9838
576.001	10195
576.058	9998
576.115	10149
576.173	11153
576.230	11779
576.287	12180
576.345	9696
576.402	10044
576.459	9663
576.517	8934
576.574	11064
576.631	10276
576.688	9608
576.746	9336
576.803	10800
576.860	9138
576.917	10013
576.974	9613
577.031	9941
577.089	8816
577.146	9504
577.203	10070
577.260	10088
577.317	9867
577.374	10990
577.431	10074
577.488	10182
577.545	8361
577.602	9832
577.659	9721
577.716	9650
577.773	9206
577.830	9579
577.886	9469
577.943	9471
578.000	9212
578.057	9133
578.114	9658
578.171	10018
578.227	9511
578.284	10386
578.341	10357
578.398	9866
578.454	10025
578.511	10551
578.568	10621
578.625	9401
578.681	9744
578.738	9932
578.794	9625
578.851	9995
578.908	10895
578.964	12146
579.021	12322
579.077	12073
579.134	10605
579.190	10410
579.247	10483
579.303	10561
579.360	9843
579.416	10419
579.473	9858
579.529	9629
579.586	10385
579.642	11362
579.698	10153
579.755	11275
579.811	10375
579.867	10855
579.924	9221
579.980	9952
580.036	10780
580.093	11136
580.149	11117
580.205	11870
580.261	10977
580.317	10801
580.374	11513
580.430	12443
580.486	11390
580.542	11531
580.598	10357
580.619	10684
580.654	11263
580.692	11530
580.710	11674
580.765	11013
580.767	10999
580.823	11500
580.838	11449
580.879	11324
580.911	11338
580.935	11371
580.984	10719
580.991	10633
581.047	10875
581.057	10917
581.103	11131
581.130	11346
581.159	11589
581.203	11520
581.215	11508
581.270	11359
581.276	11346
581.326	11247
581.349	11068
581.382	10816
581.422	11863
581.438	12287
581.494	11610
581.494	11608
581.550	11850
581.567	12068
581.606	12424
581.640	12339
581.661	12340
581.713	11779
581.717	11731
581.773	10955
581.786	11265
581.829	12379
581.859	13453
581.885	14314
581.932	12694
581.940	12435
581.996	12870
582.004	12876
582.052	12666
582.077	12459
582.107	12339
582.150	12727
582.163	12802
582.219	12133
582.223	12138
582.274	12408
582.296	12876
582.330	13589
582.368	13585
582.386	13577
582.441	13406
582.441	13405
582.497	13252
582.514	13137
582.552	13127
582.587	13632
582.608	13793
582.659	12761
582.663	12699
582.719	13619
582.732	13628
582.774	13656
582.805	14091
582.830	14480
582.877	14094
582.885	13999
582.941	14589
582.950	14589
582.996	14708
583.023	14533
583.052	14424
583.095	15097
583.107	15254
583.162	15460
583.168	15467
583.218	15192
583.240	15028
583.273	15026
583.313	15089
583.328	15089
583.384	14547
583.385	14547
583.439	14536
583.458	14579
583.494	14537
583.531	14729
583.549	14921
583.603	15507
583.605	15514
583.660	15868
583.676	15673
583.715	15726
583.748	16208
583.770	16326
583.820	15896
583.825	15876
583.881	16274
583.893	16296
583.936	16021
583.965	15886
583.991	15947
584.038	16306
584.046	16378
584.101	16283
584.110	16358
584.156	16868
584.183	16962
584.211	16677
584.255	16272
584.266	16362
584.321	17334
584.328	17411
584.376	17735
584.400	17840
584.431	18002
584.472	18304
584.486	18337
584.541	18575
584.545	18586
584.596	19259
584.617	19207
584.651	19151
584.689	19577
584.706	19797
584.761	20192
584.762	20191
584.816	20603
584.834	20586
584.871	20938
584.906	21367
584.926	21478
584.978	21621
584.980	21659
585.035	22155
585.051	22572
585.090	23582
585.123	24513
585.145	25101
585.195	25140
585.200	25166
585.254	25945
585.267	26183
585.309	27518
585.340	28589
585.364	29318
585.412	31907
585.419	32349
585.473	35705
585.484	36762
585.528	42861
585.556	47910
585.583	58027
585.628	79208
585.637	88040
585.692	164783
585.700	175599
585.747	211544
585.772	188764
585.801	122197
585.845	54398
585.856	48537
585.910	37533
585.917	36077
585.965	33208
585.989	32681
586.019	32717
586.061	32466
586.074	32491
586.128	32838
586.133	32843
586.183	33946
586.205	34254
586.237	34428
586.277	34949
586.292	35238
586.346	35671
586.349	35687
586.401	36060
586.421	36127
586.455	37429
586.493	39069
586.509	40456
586.564	44090
586.565	44221
586.618	56696
586.637	58595
586.672	52636
586.709	47098
586.727	46369
586.781	45352
586.781	45404
586.835	45033
586.853	44682
586.889	44860
586.925	45143
586.944	45513
586.996	47216
586.998	47363
587.052	50328
587.068	51201
587.106	52202
587.140	52713
587.161	53605
587.212	55488
587.215	55659
587.269	58576
587.284	59193
587.323	60532
587.356	61059
587.377	62052
587.427	65650
587.431	66022
587.485	69144
587.499	70162
587.539	73308
587.571	74872
587.593	76707
587.643	81467
587.648	82048
587.702	87432
587.715	88552
587.755	93358
587.786	97098
587.810	100049
587.858	105454
587.864	106493
587.917	116813
587.930	118861
587.971	127707
588.001	134249
588.025	140345
588.073	152555
588.079	154506
588.133	170444
588.145	173997
588.187	191389
588.217	203298
588.241	215396
588.288	239814
588.295	244243
588.348	280279
588.360	287920
588.402	323741
588.431	349217
588.456	377706
588.503	435649
588.510	446812
588.564	537728
588.575	557204
588.617	663968
588.646	740371
588.671	836271
588.718	1024989
588.725	1066410
588.778	1389556
588.789	1454823
588.832	1723855
588.861	1887106
588.886	1875515
588.932	1746289
588.939	1720396
588.993	1517209
589.004	1503091
589.047	1822515
589.075	1969893
589.100	1859007
589.147	1588959
589.154	1550222
589.207	1242432
589.218	1181211
589.261	1087452
589.290	1031187
589.314	1055998
589.361	1114150
589.368	1145363
589.421	1406588
589.433	1462294
589.475	1701676
589.504	1837305
589.528	1789042
589.576	1626670
589.582	1633920
589.635	1762197
589.647	1767699
589.689	1514173
589.718	1313030
589.742	1139431
589.790	803055
589.795	783265
589.849	594342
589.861	551454
589.902	475217
589.932	417822
589.955	385995
590.004	319757
590.009	316446
590.062	274906
590.075	264336
590.115	239893
590.146	220459
590.168	212823
590.218	194606
590.222	193753
590.275	177564
590.289	172985
590.328	164246
590.360	156652
590.381	151957
590.431	139847
590.435	139689
590.488	131522
590.503	128994
590.541	124633
590.574	120515
590.594	118271
590.645	111220
590.647	111295
590.700	106684
590.716	104928
590.753	102233
590.787	99305
590.806	97961
590.859	93737
590.859	93931
590.912	91529
590.930	90619
590.965	88496
591.001	85950
591.018	85432
591.071	83150
591.072	82916
591.124	81532
591.143	80824
591.177	80112
591.214	78804
591.230	78820
591.283	78288
591.285	78061
591.336	77559
591.356	77064
591.389	76025
591.427	74264
591.442	73549
591.495	70255
591.498	69826
591.547	67919
591.569	66784
591.600	67126
591.640	67207
591.653	66951
591.706	65181
591.711	64804
591.759	65914
591.782	66218
591.811	66941
591.853	67713
591.864	67343
591.917	64203
591.924	63601
591.969	63369
591.995	62912
592.022	63047
592.066	62905
592.075	63312
592.127	64681
592.137	64760
592.180	67463
592.208	68880
592.233	66309
592.279	60848
592.285	60867
592.338	59652
592.350	59197
592.390	58247
592.421	57276
592.443	57636
592.491	57893
592.495	58006
592.548	57334
592.562	56993
592.600	56960
592.633	56635
592.653	56518
592.704	55507
592.705	55831
592.775	56033
592.846	55754
592.916	56280
592.987	57860
593.058	55838
593.128	52950
593.199	53251
593.270	52012
593.341	52274
593.411	52349
593.482	52152
593.553	51898
593.623	51356
593.694	50926
593.764	53473
593.835	51580
593.906	52121
593.976	50789
594.047	52101
594.117	57099
594.188	55931
594.258	50612
594.329	50466
594.399	50024
594.470	50730
594.540	50728
594.611	50785
594.681	50137
594.751	51016
594.822	52239
594.892	53771
594.963	53251
595.033	53219
595.103	53501
595.174	55690
595.244	65237
595.314	73162
595.384	56735
595.455	54816
595.525	56779
595.595	57098
595.665	56823
595.736	55803
595.806	56094
595.876	55276
595.946	55044
596.016	56177
596.087	57965
596.157	57750
596.227	57414
596.297	59357
596.367	62775
596.437	66253
596.507	72490
596.577	78601
596.647	68343
596.717	65022
596.787	66335
596.857	66628
596.927	67244
596.997	65722
597.067	66670
597.137	67342
597.207	68144
597.277	68783
597.347	66757
597.417	64554
597.487	67312
597.557	68462
597.626	68722
597.696	70633
597.766	73216
597.836	81109
597.906	66136
597.975	62860
598.045	62278
598.115	63663
598.185	65883
598.254	72475
598.324	75727
598.394	78260
598.464	74951
598.533	74578
598.603	70157
598.672	70079
598.742	70283
598.812	70244
598.881	70602
598.951	70207
599.020	70558
599.090	72908
599.159	72663
599.229	71206
599.299	69223
599.368	71688
599.437	69620
599.507	66767
599.576	65366
599.646	65320
599.715	64336
599.785	64560
599.854	64369
599.924	66774
599.993	64093
600.062	63506
600.132	63160
600.201	68995
600.270	76422
600.340	77750
600.409	75568
600.478	76097
600.547	76705
600.617	73145
600.686	64367
600.755	60243
600.824	58818
600.894	57552
600.963	56221
601.032	55567
601.101	55493
601.170	53469
601.239	53090
601.308	54963
601.378	53064
601.447	52185
601.516	52788
601.585	56300
601.654	57523
601.723	56649
601.792	56737
601.861	57379
601.930	60376
601.999	64018
602.068	60222
602.137	62724
602.206	60829
602.275	62673
602.343	65734
602.412	65080
602.481	61109
602.550	61650
602.619	61148
602.688	63889
602.756	62812
602.825	63681
602.894	64046
602.963	64108
603.032	66138
603.100	65135
603.169	65245
603.238	67598
603.307	64264
603.375	65723
603.444	66400
603.513	66570
603.581	66460
603.650	69023
603.719	65876
603.787	66222
603.856	65867
603.924	69528
603.993	71435
604.061	71781
604.130	73437
604.198	76743
604.267	76161
604.335	77756
604.404	77814
604.472	79323
604.541	79982
604.609	80926
604.678	80654
604.746	83171
604.815	82818
604.883	85859
604.951	84525
605.020	84715
605.088	84788
605.156	85708
605.225	86243
605.293	86097
605.361	86879
605.429	87261
605.498	88270
605.566	91755
605.634	92562
605.702	96447
605.771	98263
605.839	99520
605.907	96232
605.975	94655
606.043	93619
606.111	92045
606.180	91398
606.248	89818
606.316	91285
606.384	90688
606.452	94197
606.520	96576
606.588	93666
606.656	89746
606.724	88801
606.792	85710
606.860	75276
606.928	69837
606.996	67930
607.064	67883
607.132	67934
607.200	73684
607.267	74385
607.335	75681
607.403	77282
607.471	74901
607.539	72542
607.607	73084
607.674	65222
607.742	67018
607.810	67437
607.878	66635
607.946	66482
608.013	69862
608.081	70935
608.149	72346
608.216	73934
608.284	76171
608.352	75597
608.419	75195
608.487	82113
608.555	74420
608.622	74246
608.690	77871
608.757	84711
608.825	86444
608.893	85581
608.960	85569
609.028	84636
609.095	87589
609.163	77876
609.230	71563
609.298	65382
609.365	68724
609.432	73507
609.500	79372
609.567	89049
609.635	99191
609.702	105587
609.769	101737
609.837	85004
609.904	72574
609.971	77071
610.039	87660
610.106	114906
610.173	218895
610.241	498978
610.308	422175
610.375	217687
610.442	98223
610.509	79013
610.577	76257
610.644	74314
610.711	76264
610.778	78522
610.845	80071
610.912	83813
610.980	86237
611.047	86008
611.114	86619
611.181	83252
611.248	81103
611.315	87424
611.382	87752
611.449	91909
611.516	91997
611.583	90851
611.650	92903
611.717	93579
611.784	95260
611.851	99487
611.918	110314
611.984	126935
612.051	181917
612.118	367264
612.185	899318
612.252	589852
612.319	152462
612.386	121310
612.452	110394
612.519	106490
612.586	111419
612.653	107858
612.719	107706
612.786	102118
612.853	97143
612.919	93559
612.986	96208
613.053	88946
613.120	85245
613.186	80445
613.253	83752
613.319	81865
613.386	83254
613.453	84794
613.519	89217
613.586	91935
613.652	103588
613.719	94720
613.785	94025
613.852	86351
613.918	84143
613.985	84973
614.051	89826
614.118	90825
614.184	86315
614.250	83802
614.317	86890
614.383	84242
614.449	86639
614.516	85786
614.582	87211
614.648	85358
614.715	84359
614.781	81845
614.847	84166
614.914	82873
614.980	83025
615.046	80798
615.112	84243
615.179	85428
615.245	90641
615.311	97348
615.377	125984
615.443	133131
615.509	102642
615.575	95049
615.642	93253
615.708	94363
615.774	100028
615.840	109638
615.906	125898
615.972	172279
616.038	296450
616.104	528338
616.170	1100060
616.236	959369
616.302	225819
616.368	156457
616.434	118397
616.500	110555
616.565	117523
616.631	141304
616.697	120826
616.763	120620
616.829	170469
616.895	292451
616.961	285399
617.026	133786
617.092	95767
617.158	91036
617.224	89362
617.289	83968
617.355	80970
617.421	78232
617.487	80393
617.552	74617
617.618	74276
617.684	73276
617.749	76984
617.815	73142
617.880	70853
617.946	70413
618.012	73553
618.077	74964
618.143	71622
618.208	72540
618.274	78266
618.339	77490
618.405	66814
618.470	66652
618.536	67669
618.601	68494
618.667	63917
618.732	61896
618.798	60441
618.863	59143
618.928	59728
618.994	62108
619.059	64131
619.124	73850
619.190	64204
619.255	59615
619.320	59680
619.386	59334
619.451	57770
619.516	56748
619.581	58932
619.647	60668
619.712	60709
619.777	59855
619.842	58923
619.907	61045
619.972	60874
620.038	60039
620.103	58838
620.168	57544
620.233	59216
620.298	58209
620.363	59571
620.428	60336
620.493	60669
620.558	60865
620.623	62397
620.688	61643
620.753	61093
620.818	62243
620.883	63422
620.948	62453
621.013	62707
621.078	61957
621.143	61166
621.207	64250
621.272	64818
621.337	63219
621.402	65358
621.467	68653
621.532	71178
621.596	65119
621.661	62100
621.726	60524
621.791	62104
621.855	62743
621.920	64013
621.985	64431
622.049	67668
622.114	66265
622.179	66309
622.243	67075
622.308	68484
622.373	70081
622.437	69351
622.502	65004
622.566	65724
622.631	63936
622.695	67988
622.760	66258
622.824	66077
622.889	64790
622.953	68766
623.018	82906
623.082	82184
623.147	67041
623.211	68020
623.276	68752
623.340	65120
623.404	62386
623.469	62078
623.533	62937
623.597	61507
623.662	62062
623.726	59088
623.790	56155
623.854	56039
623.919	55639
623.983	57120
624.047	57524
624.111	58093
624.176	57025
624.240	61746
624.304	64587
624.368	58673
624.432	57056
624.496	59591
624.560	62284
624.625	66359
624.689	60985
624.753	61836
624.817	60901
624.881	59101
624.945	54694
625.009	53454
625.073	54603
625.137	58918
625.201	65185
625.265	65368
625.329	55720
625.393	57834
625.456	57304
625.520	57603
625.584	60952
625.648	66541
625.712	80841
625.776	127869
625.839	138605
625.903	73481
625.967	54330
626.031	69706
626.095	95353
626.158	60305
626.222	44803
626.286	43713
626.349	42409
626.413	39718
626.477	43339
626.540	39309
626.604	40006
626.668	39666
626.731	38253
626.795	39926
626.858	40395
626.922	38518
626.986	38769
627.049	37312
627.113	38985
627.176	38586
627.240	37173
627.303	37937
627.366	36742
627.430	39186
627.493	37801
627.557	37408
627.620	37584
627.684	38655
627.747	38645
627.810	35156
627.874	35087
627.937	32195
628.000	36297
628.064	35782
628.127	29933
628.190	31819
628.253	31904
628.317	30174
628.380	28686
628.443	28886
628.506	28820
628.569	28672
628.632	25186
628.696	27079
628.759	25677
628.822	26516
628.885	25555
628.948	25843
629.011	26615
629.074	25399
629.137	24046
629.200	24705
629.263	26243
629.326	23893
629.389	24248
629.452	23982
629.515	23753
629.578	24377
629.641	24919
629.704	23928
629.767	24972
629.830	23787
629.892	22099
629.955	22877
630.018	25139
630.081	24616
630.144	29194
630.207	23637
630.269	25391
630.332	25531
630.395	23846
630.458	22169
630.520	20216
630.583	22349
630.646	22051
630.708	21988
630.771	21934
630.834	22802
630.896	21513
630.959	21454
631.021	20144
631.084	22762
631.146	23206
631.209	25787
631.272	20512
631.334	21518
631.397	21389
631.459	21172
631.522	22256
631.584	22345
631.646	22948
631.709	25062
631.771	27454
631.834	25201
631.896	22158
631.958	20920
632.021	21239
632.083	20453
632.145	21730
632.208	20646
632.270	21270
632.332	19873
632.395	19083
632.457	21646
632.519	19695
632.581	20150
632.643	20115
632.706	19933
632.768	18071
632.830	19059
632.892	18371
632.954	20109
633.016	20801
633.078	19507
633.141	18726
633.203	18840
633.265	19367
633.327	19481
633.389	18749
633.451	20676
633.513	22897
633.575	23618
633.637	22180
633.698	21872
633.760	20728
633.822	21031
633.884	20253
633.946	19956
634.008	19608
634.070	20365
634.132	20912
634.193	22361
634.255	23249
634.317	24479
634.379	24019
634.441	22635
634.502	20382
634.564	20506
634.626	18633
634.687	19708
634.749	18324
634.811	18666
634.873	16205
634.934	18220
634.996	19019
635.057	16954
635.119	16625
635.181	18856
635.242	19032
635.304	17101
635.365	20758
635.427	17829
635.488	18071
635.550	17862
635.611	18213
635.673	16790
635.734	20683
635.796	20267
635.857	21836
635.918	20964
635.980	22451
636.041	22269
636.102	23857
636.164	24404
636.225	23132
636.286	20293
636.348	20376
636.409	19674
636.470	18076
636.531	17446
636.593	18973
636.654	18943
636.715	16501
636.776	16242
636.838	14739
636.899	17049
636.960	15415
637.021	15902
637.082	15508
637.143	15971
637.204	13873
637.265	14952
637.326	15577
637.387	15866
637.448	14072
637.509	16014
637.570	15374
637.631	15145
637.692	13767
637.753	13927
637.814	13938
637.875	14035
637.936	15084
637.997	13718
638.058	14462
638.119	15736
638.179	13439
638.240	13801
638.301	12912
638.362	14182
638.423	13652
638.483	15241
638.544	12684
638.605	14437
638.666	12699
638.726	14056
638.787	14207
638.848	14430
638.908	12283
638.969	14398
639.030	13456
639.090	13278
639.151	12748
639.211	15613
639.272	16832
639.332	24111
639.393	15906
639.453	13643
639.514	14004
639.574	13396
639.635	11729
639.695	13364
639.756	11676
639.816	14180
639.877	14921
639.937	21682
639.997	26275
640.058	14107
640.118	11925
640.178	13448
640.239	11692
640.299	11664
640.359	11879
640.420	12686
640.480	13131
640.540	14628
640.600	13847
640.661	14194
640.721	12346
640.781	17692
640.841	11780
640.901	13455
640.961	12713
641.021	13605
641.082	13897
641.142	18686
641.202	14718
641.262	10501
641.322	12406
641.382	10611
641.442	11834
641.502	11010
641.562	11664
641.622	11090
641.682	11380
641.742	12735
641.802	12674
641.861	12114
641.921	11766
641.981	13750
642.041	13341
642.101	15878
642.161	10913
642.221	10856
642.280	11072
642.340	10724
642.400	10895
642.460	12198
642.519	11382
642.579	10865
642.639	11993
642.698	9220
642.758	12614
642.818	11757
642.877	10066
642.937	11581
642.997	13821
643.056	17532
643.116	11755
643.175	13313
643.235	11466
643.294	12553
643.354	12354
643.414	13537
643.473	15398
643.532	17612
643.592	23343
643.651	37000
643.711	64022
643.770	126609
643.830	300839
643.889	664825
643.948	159670
644.008	28127
644.067	18766
644.126	15699
644.186	13669
644.245	12438
644.304	9843
644.363	12755
644.423	9205
644.482	12005
644.541	12097
644.600	10817
644.659	14346
644.719	16570
644.778	22476
644.837	35261
644.896	70555
644.955	166729
645.014	55979
645.073	15883
645.132	12654
645.191	12178
645.250	10792
645.309	13841
645.368	12310
645.427	15258
645.486	20499
645.545	35027
645.604	12765
645.663	11945
645.722	11352
645.781	11881
645.840	12119
645.898	15921
645.957	22576
646.016	32870
646.075	60302
646.134	117680
646.192	309738
646.251	476106
646.310	70617
646.369	20969
646.427	17702
646.486	13706
646.545	12022
646.603	11194
646.662	10133
646.721	10717
646.779	9871
646.838	9810
646.896	12558
646.955	15743
647.014	22776
647.072	39173
647.131	102889
647.189	51928
647.248	10952
647.306	10658
647.365	9302
647.423	7399
647.481	9439
647.540	8131
647.598	8718
647.657	8424
647.715	9001
647.773	7512
647.832	9110
647.890	6841
647.948	6898
648.007	9248
648.065	5618
648.123	7030
648.181	8814
648.240	7547
648.298	6817
648.356	7244
648.414	7751
648.472	8377
648.531	7242
648.589	6924
648.647	7313
648.705	8424
648.763	7086
648.821	8174
648.879	7452
648.937	8618
648.995	9511
649.053	12091
649.111	17371
649.169	28235
649.227	47311
649.285	95397
649.343	283258
649.401	140531
649.459	34271
649.516	21824
649.574	9708
649.632	12111
649.690	12125
649.748	13613
649.806	15197
649.863	28082
649.921	71525
649.979	49873
650.037	9703
650.094	6398
650.152	7583
650.210	6539
650.268	7104
650.325	7180
650.383	6736
650.440	5881
650.498	6587
650.556	6757
650.613	5874
650.671	6711
650.728	6321
650.786	7391
650.843	7116
650.901	5579
650.958	5744
651.016	5948
651.073	5535
651.131	5742
651.188	5033
651.246	6405
651.303	5590
651.360	6674
651.418	5523
651.475	6609
651.532	4285
651.590	6166
651.647	4848
651.704	5418
651.762	4998
651.819	5760
651.876	4684
651.933	5915
651.990	6311
652.048	5398
652.105	4414
652.162	6225
652.219	4850
652.276	5345
652.333	5473
652.390	4743
652.448	4762
652.505	5757
652.562	4597
652.619	5148
652.676	4933
652.733	6320
652.790	4844
652.847	4120
652.904	5226
652.961	3904
653.017	4249
653.074	5063
653.131	5259
653.188	4096
653.245	5432
653.302	5155
653.359	4086
653.415	5715
653.472	3563
653.529	5560
653.586	4277
653.642	4702
653.699	4582
653.756	3551
653.813	4775
653.869	4953
653.926	4719
653.983	3918
654.039	5443
654.096	4960
654.152	5535
654.209	4531
654.266	4490
654.322	3618
654.379	4624
654.435	6516
654.492	5706
654.548	7729
654.605	11227
654.661	7308
654.717	4481
654.774	5315
654.830	5128
654.887	4986
654.943	5019
655.000	5341
655.056	4214
655.112	5766
655.168	3417
655.225	5282
655.281	5849
655.337	6474
655.394	9974
655.450	7689
655.506	7205
655.562	10598
655.618	9738
655.675	4601
655.731	4809
655.787	4620
655.843	5456
655.899	4947
655.955	4211
656.011	5271
656.067	2890
656.123	5352
656.179	5579
656.235	6225
656.291	3413
656.347	6630
656.403	4319
656.459	5309
656.515	5138
656.571	5988
656.627	5513
656.683	5691
656.739	4112
656.795	4963
656.850	4902
656.906	5911
656.962	5410
657.018	4151
657.074	5316
657.129	6053
657.185	7274
657.241	11340
657.297	7030
657.352	4844
657.408	3823
657.464	5904
657.519	3976
657.575	3244
657.630	4349
657.686	4391
657.742	3457
657.797	4390
657.853	3793
657.908	5808
657.964	3843
658.019	4461
658.075	3904
658.130	5706
658.186	2712
658.241	4510
658.297	3670
658.352	3744
658.407	4370
658.463	3715
658.518	4362
658.573	4813
658.629	3726
658.684	3893
658.739	4869
658.795	3630
658.850	4260
658.905	4006
658.960	4100
659.016	3390
659.071	3803
659.126	5610
659.181	4964
659.236	8373
659.291	8591
659.346	5208
659.401	4438
659.457	5059
659.512	3587
659.567	5663
659.622	3439
659.677	4528
659.732	3319
659.787	5178
659.842	4592
659.897	5672
659.952	4773
660.007	4841
660.061	4028
660.116	3842
660.171	2837
660.226	4785
660.281	4268
660.336	3729
660.391	4213
660.445	4253
660.500	3916
660.555	4287
660.610	3566
660.664	4859
660.719	3566
660.774	4614
660.828	4349
660.883	5480
660.938	5197
660.992	3020
661.047	3835
661.101	3956
661.156	3054
661.211	3140
661.265	3631
661.320	3130
661.374	3465
661.429	3192
661.483	4001
661.538	3741
661.592	3741
661.647	4206
661.701	3750
661.755	4185
661.810	3694
661.864	4476
661.919	3132
661.973	5199
662.027	2701
662.081	3753
662.136	2894
662.190	4668
662.244	4710
662.299	3710
662.353	4227
662.407	3736
662.461	3764
662.515	4891
662.569	4378
662.624	4888
662.678	4264
662.732	4421
662.786	3318
662.840	3696
662.894	3388
662.948	3925
663.002	3653
663.056	4851
663.110	2386
663.164	4308
663.218	2564
663.272	4068
663.326	4208
663.380	4504
663.434	3928
663.488	4367
663.542	3762
663.595	4011
663.649	3403
663.703	4239
663.757	4043
663.811	3497
663.864	3428
663.918	3828
663.972	3397
664.026	3509
664.079	3342
664.133	3966
664.187	3800
664.240	3908
664.294	3408
664.348	3874
664.401	3744
664.455	4221
664.508	3017
664.562	3951
664.615	2915
664.669	3282
664.722	2903
664.776	3790
664.829	4049
664.883	4074
664.936	3481
664.990	4949
665.043	4616
665.097	3964
665.150	5001
665.203	4016
665.257	4495
665.310	3692
665.363	3898
665.417	4165
665.470	4323
665.523	3459
665.576	4023
665.630	4734
665.683	4566
665.736	4884
665.789	3985
665.842	4442
665.895	3275
665.949	3744
666.002	3196
666.055	3952
666.108	3786
666.161	3903
666.214	3757
666.267	5212
666.320	4945
666.373	5679
666.426	4030
666.479	4470
666.532	4529
666.585	5685
666.638	5136
666.691	5090
666.744	5065
666.796	4722
666.849	4004
666.902	4922
666.955	4286
667.008	3263
667.060	3330
667.113	3000
667.166	4569
667.219	3384
667.271	3581
667.324	4134
667.377	4226
667.430	3843
667.482	2637
667.535	3819
667.587	4161
667.640	4962
667.693	5425
667.745	8688
667.798	8791
667.850	4826
667.903	4201
667.955	3831
668.008	4531
668.060	4660
668.113	4795
668.165	5212
668.218	4771
668.270	4773
668.322	3883
668.375	4791
668.427	5300
668.479	4080
668.532	4721
668.584	4529
668.636	4350
668.689	4752
668.741	4335
668.793	5412
668.845	3423
668.898	5038
668.950	4304
669.002	4610
669.054	3696
669.106	4111
669.158	4562
669.211	4154
669.263	4877
669.315	4492
669.367	4342
669.419	5619
669.471	5452
669.523	5769
669.575	6538
669.627	5804
669.679	4675
669.731	5510
669.783	5341
669.835	6226
669.886	5287
669.938	6117
669.990	4280
670.042	6116
670.094	5933
670.146	6456
670.197	7215
670.249	9906
670.301	11893
670.353	16273
670.404	22101
670.456	31159
670.508	49771
670.560	81323
670.611	133613
670.663	232674
670.715	498156
670.766	718527
670.818	293239
670.869	66387
670.921	31828
670.972	22568
671.024	16498
671.075	12589
671.127	10723
671.178	8420
671.230	8067
671.281	7325
671.333	6796
671.384	6994
671.436	6960
671.487	8799
671.538	9522
671.590	12213
671.641	17067
671.692	26259
671.744	45437
671.795	32146
671.846	11006
671.897	7803
671.949	5938
672.000	6136
672.051	5148
672.102	5780
672.153	4894
672.204	5830
672.256	4490
672.307	4147
672.358	4315
672.409	5369
672.460	4299
672.511	4352
672.562	3920
672.613	4526
672.664	3289
672.715	4386
672.766	4013
672.817	3568
672.868	3277
672.919	3858
672.970	3330
673.021	4363
673.071	3457
673.122	4009
673.173	3012
673.224	3569
673.275	3439
673.326	3703
673.376	3833
673.427	2770
673.478	3706
673.528	5038
673.579	3411
673.630	4274
673.680	3642
673.731	3332
673.782	3912
673.832	3697
673.883	4310
673.934	3434
673.984	3158
674.035	4206
674.085	2695
674.136	3809
674.186	3536
674.237	4104
674.287	6546
674.338	3855
674.388	2569
674.438	3892
674.489	3349
674.539	3648
674.589	3114
674.640	3680
674.690	3606
674.740	3017
674.791	4283
674.841	4286
674.891	3523
674.942	3056
674.992	3599
675.042	2925
675.092	2594
675.142	2487
675.193	2214
675.243	3374
675.293	2933
675.343	3148
675.393	2508
675.443	4064
675.493	2486
675.543	3439
675.593	2675
675.643	3544
675.693	2947
675.743	4050
675.793	3003
675.843	3092
675.893	2966
675.943	3909
675.993	2805
676.043	3406
676.093	3310
676.142	2497
676.192	3317
676.242	3389
676.292	2014
676.341	3443
676.391	2835
676.441	2493
676.491	2525
676.540	2262
676.590	2465
676.640	2778
676.689	2760
676.739	2251
676.789	2461
676.838	2798
676.888	2352
676.937	2530
676.987	3207
677.037	2103
677.086	2002
677.136	2947
677.185	1972
677.235	2207
677.284	2708
677.333	2798
677.383	2378
677.432	1851
677.482	2245
677.531	2742
677.580	1671
677.630	2676
677.679	1719
677.728	3032
677.778	2913
677.827	2709
677.876	2464
677.925	1877
677.975	1530
678.024	3226
678.073	2662
678.122	2618
678.171	2693
678.220	3373
678.269	3032
678.319	3772
678.368	2714
678.417	3145
678.466	2628
678.515	3372
678.564	2440
678.613	2865
678.662	1829
678.711	2828
678.760	2528
678.809	2886
678.857	1844
678.906	2929
678.955	2449
679.004	3239
679.053	1974
679.102	3167
679.151	2306
679.199	2703
679.248	2138
679.297	2262
679.346	2589
679.394	2178
679.443	2646
679.492	2244
679.540	2191
679.589	2655
679.638	2506
679.686	2844
679.735	2862
679.784	2055
679.832	2458
679.881	2086
679.929	1999
679.978	1966
680.026	2108
680.075	2448
680.123	1938
680.172	1975
680.220	1652
680.268	2778
680.317	916
680.365	2101
680.414	1747
680.462	2155
680.510	1953
680.559	2692
680.607	1778
680.655	2306
680.703	2515
680.752	2320
680.800	1402
680.848	1654
680.896	497
680.945	2085
680.993	1495
681.041	2043
681.089	1655
681.137	2170
681.185	1139
681.233	2200
681.258	2157
681.281	2086
681.329	975
681.377	1775
681.380	1877
681.425	3167
681.473	2390
681.502	2666
681.521	2795
681.569	2269
681.617	2171
681.624	2182
681.665	2044
681.713	3085
681.745	2556
681.761	2246
681.809	2061
681.857	2474
681.867	2341
681.904	1761
681.952	2384
681.989	3353
682.000	3607
682.048	2291
682.096	2890
682.111	2576
682.143	1794
682.191	3006
682.233	3146
682.239	3138
682.286	3240
682.334	3110
682.354	3301
682.382	3509
682.430	2754
682.476	3846
682.477	3841
682.525	3173
682.572	3222
682.598	3210
682.620	3180
682.667	3972
682.715	3543
682.720	3644
682.763	4269
682.810	4114
682.841	3977
682.857	3862
682.905	3975
682.952	4289
682.963	4247
683.000	3961
683.047	4055
683.085	4632
683.095	4772
683.142	4248
683.190	3801
683.206	3966
683.237	4147
683.284	4362
683.328	4313
683.332	4289
683.379	3505
683.426	4865
683.449	4499
683.473	4066
683.521	4268
683.568	4040
683.571	4130
683.615	5057
683.662	4766
683.693	5002
683.709	5069
683.757	4132
683.804	5457
683.814	5256
683.851	4530
683.898	5558
683.936	5253
683.945	5155
683.992	5772
684.039	4763
684.057	5074
684.086	5590
684.133	4993
684.179	5942
684.180	5943
684.227	5617
684.274	6181
684.300	5610
684.321	5224
684.368	5719
684.415	5206
684.422	5399
684.462	6265
684.509	4373
684.543	5422
684.556	5805
684.603	5486
684.649	5744
684.665	5817
684.696	5965
684.743	5746
684.786	5840
684.790	5832
684.837	6170
684.883	7166
684.908	7101
684.930	7011
684.977	6842
685.023	6721
685.029	6739
685.070	6724
685.117	7102
685.150	6813
685.164	6695
685.210	7909
685.257	7578
685.272	7546
685.303	7362
685.350	7090
685.393	7312
685.396	7333
685.443	7903
685.490	8338
685.514	8139
685.536	7784
685.583	8467
685.629	7673
685.636	7732
685.675	8021
685.722	7259
685.757	7717
685.768	7935
685.815	7889
685.861	8378
685.878	8451
685.908	8336
685.954	7938
686.000	8372
686.000	8380
686.047	8495
686.093	9456
686.121	9569
686.139	9397
686.185	8745
686.232	8741
686.242	8761
686.278	8795
686.324	8692
686.363	8468
686.370	8439
686.416	8427
686.463	8422
686.484	8342
686.509	8296
686.555	7809
686.601	7920
686.606	7983
686.647	8523
686.693	8340
686.727	8059
686.739	7984
686.785	8762
686.831	9068
686.848	9155
686.877	9142
686.923	8768
686.969	8616
686.969	8615
687.015	8696
687.061	9145
687.090	9361
687.107	9323
687.153	9406
687.199	8696
687.211	8648
687.245	8655
687.291	8692
687.332	9281
687.336	9364
687.382	9295
687.428	9110
687.453	9064
687.474	8839
687.520	9267
687.565	9771
687.574	9708
687.611	9675
687.657	9226
687.695	9992
687.702	10147
687.748	9620
687.794	10563
687.816	10650
687.839	10505
687.885	9411
687.931	8858
687.937	8930
687.976	9658
688.022	9240
688.058	9831
688.067	9959
688.113	9226
688.158	9956
688.179	9751
688.204	9621
688.249	9750
688.295	9565
688.300	9700
688.340	10651
688.386	10479
688.421	10369
688.431	10366
688.477	10375
688.522	10918
688.542	10771
688.567	10528
688.613	11022
688.658	10325
688.663	10385
688.703	10928
688.749	10197
688.784	10908
688.794	11085
688.839	10194
688.884	10560
688.905	10360
688.930	10282
688.975	10788
689.020	10507
689.026	10519
689.065	10548
689.110	10352
689.146	10450
689.155	10487
689.201	10050
689.246	10315
689.267	10285
689.291	10276
689.336	10831
689.381	10788
689.388	10678
689.426	10306
689.471	10409
689.509	10748
689.516	10806
689.561	10504
689.606	10879
689.630	10629
689.651	10472
689.696	10567
689.741	10921
689.750	10975
689.785	11092
689.830	10572
689.871	11069
689.875	11149
689.920	10846
689.965	11219
689.992	10910
690.010	10661
690.054	10828
690.099	10916
690.112	10842
690.144	10840
690.189	10738
690.233	10844
690.233	10858
690.278	10423
690.323	10584
690.354	10459
690.367	10591
690.412	11068
690.457	10979
690.474	11249
690.501	11393
690.546	10864
690.590	11336
690.595	11237
690.635	10813
690.680	11551
690.716	11196
690.724	11132
690.769	11655
690.813	11976
690.836	11863
690.857	11929
690.902	12137
690.946	13198
690.957	13221
690.991	13964
691.035	15125
691.077	16614
691.080	16663
691.124	16664
691.168	16748
691.198	16437
691.213	16013
691.257	15362
691.301	14577
691.318	14092
691.346	13554
691.390	12894
691.434	12446
691.439	12348
691.478	12205
691.522	12334
691.559	12148
691.567	12253
691.611	13065
691.655	13428
691.680	13661
691.699	13474
691.743	13590
691.787	13122
691.800	12944
691.831	12981
691.875	13150
691.919	13677
691.921	13656
691.964	13475
692.008	13204
692.041	13292
692.052	13379
692.096	13398
692.139	13293
692.162	13337
692.183	13443
692.227	13220
692.271	13791
692.282	13695
692.315	13611
692.359	14008
692.402	14108
692.403	14132
692.447	13851
692.490	13554
692.523	13493
692.534	13610
692.578	13863
692.622	13849
692.643	13872
692.666	13692
692.709	13748
692.753	12814
692.763	12812
692.797	13274
692.840	13334
692.884	13779
692.884	13809
692.928	13636
692.971	13931
693.004	13878
693.015	13864
693.059	14072
693.102	13795
693.124	13949
693.146	14047
693.189	13328
693.233	13658
693.245	13463
693.276	13559
693.320	14449
693.363	14051
693.365	14066
693.407	14905
693.450	14731
693.485	14698
693.493	14821
693.537	15417
693.580	15749
693.605	16049
693.624	16305
693.667	16751
693.710	17236
693.725	17347
693.753	19264
693.797	22082
693.840	25485
693.845	25786
693.883	25091
693.926	24165
693.966	23167
693.970	22959
694.013	20647
694.056	18226
694.086	16478
694.099	16372
694.142	16039
694.185	15805
694.206	15402
694.229	15260
694.272	15619
694.315	15447
694.326	15458
694.358	15786
694.401	15801
694.444	15994
694.446	15970
694.487	16172
694.530	16444
694.566	16654
694.573	16574
694.616	15463
694.659	14445
694.686	13895
694.702	14024
694.745	14015
694.787	14588
694.806	14496
694.830	14232
694.873	13931
694.916	13701
694.926	13620
694.959	14033
695.002	14369
695.044	14948
695.046	14931
695.087	14865
695.130	14757
695.166	14488
695.172	14546
695.215	15006
695.258	15308
695.286	15554
695.301	15565
695.343	15114
695.386	15205
695.406	14942
695.428	14913
695.471	15116
695.514	15257
695.526	15275
695.556	15507
695.599	15648
695.641	15967
695.646	15940
695.684	15618
695.726	15398
695.766	15127
695.769	15172
695.811	15197
695.854	15192
695.886	15276
695.896	15269
695.938	14854
695.981	14634
696.005	14403
696.023	14529
696.065	14895
696.108	15071
696.125	15115
696.150	15312
696.192	15683
696.235	16126
696.245	16145
696.277	15849
696.319	15555
696.361	15053
696.365	14994
696.404	15571
696.446	15964
696.485	16378
696.488	16400
696.530	16071
696.572	15756
696.604	15476
696.614	15577
696.656	15820
696.698	16122
696.724	16348
696.740	16320
696.783	15781
696.825	15727
696.844	15498
696.867	15687
696.909	16052
696.951	16211
696.964	16312
696.992	16304
697.034	16001
697.076	15943
697.083	15860
697.118	16034
697.160	16332
697.202	16415
697.203	16379
697.244	16328
697.286	16059
697.323	15854
697.327	15904
697.369	15840
697.411	15854
697.442	15852
697.453	16020
697.494	16537
697.536	16956
697.562	17252
697.578	17317
697.620	17309
697.661	17202
697.682	17172
697.703	17518
697.744	18039
697.786	18666
697.801	18809
697.828	18827
697.869	18738
697.911	18740
697.921	18667
697.952	17979
697.994	17096
698.035	16113
698.040	15960
698.077	16157
698.118	16306
698.160	16479
698.160	16436
698.201	16313
698.243	16176
698.279	16060
698.284	16163
698.325	16681
698.367	17196
698.399	17550
698.408	17526
698.449	17192
698.491	16870
698.518	16601
698.532	16725
698.573	16986
698.614	17233
698.638	17326
698.656	17372
698.697	17384
698.738	17376
698.757	17327
698.779	17521
698.820	17799
698.862	18090
698.877	18144
698.903	18225
698.944	18276
698.985	18341
698.996	18308
699.026	18146
699.067	17855
699.116	17460
699.235	17611
699.354	17561
699.474	17029
699.593	19149
699.713	17062
699.832	17943
699.951	18203
700.070	16929
700.190	16651
700.309	16470
700.428	16752
700.547	17484
700.667	16814
700.786	18069
700.905	16832
701.024	17444
701.143	16468
701.262	16283
701.381	15403
701.500	16267
701.619	16786
701.738	15496
701.857	15269
701.976	15069
702.095	14585
702.214	16971
702.333	17197
702.452	16663
702.571	15244
702.690	16030
702.809	13952
702.928	15100
703.047	15499
703.165	15194
703.284	14342
703.403	14838
703.522	15278
703.640	15177
703.759	17003
703.878	19684
703.997	15127
704.115	14462
704.234	14829
704.353	14146
704.471	14622
704.590	13846
704.708	12595
704.827	13441
704.946	13248
705.064	14475
705.183	13307
705.301	16394
705.420	20661
705.538	19343
705.656	16567
705.775	15439
705.893	16134
706.012	18964
706.130	15858
706.249	17426
706.367	18009
706.485	17385
706.604	16538
706.722	16720
706.840	18439
706.958	18952
707.077	15802
707.195	16160
707.313	15235
707.431	15528
707.549	14802
707.668	16291
707.786	15502
707.904	15613
708.022	14546
708.140	15445
708.258	15383
708.376	15771
708.494	14517
708.612	16402
708.730	20753
708.848	19985
708.966	19581
709.084	18800
709.202	18150
709.320	18194
709.438	18612
709.556	18225
709.674	17344
709.791	18370
709.909	16747
710.027	17207
710.145	16646
710.263	18183
710.380	16790
710.498	16722
710.616	16635
710.733	17464
710.851	17054
710.969	17786
711.086	15908
711.204	16164
711.322	16858
711.439	17039
711.557	16167
711.674	17400
711.792	16013
711.909	16114
712.027	14676
712.144	15540
712.262	15558
712.379	17799
712.497	22062
712.614	22992
712.732	18964
712.849	18845
712.966	20321
713.084	22795
713.201	19836
713.318	19371
713.436	18372
713.553	19108
713.670	19380
713.787	20639
713.905	20438
714.022	19404
714.139	18427
714.256	20529
714.373	22768
714.490	33712
714.608	66574
714.725	268024
714.842	317130
714.959	31494
715.076	19688
715.193	19027
715.310	17621
715.427	17230
715.544	15759
715.661	17322
715.778	16427
715.895	17809
716.011	17769
716.128	16927
716.245	16583
716.362	18560
716.479	18186
716.596	16501
716.713	16268
716.829	16022
716.946	15346
717.063	15108
717.180	14171
717.296	14083
717.413	15318
717.530	15919
717.646	14664
717.763	15556
717.880	14019
717.996	14591
718.113	14924
718.229	14796
718.346	13421
718.462	14079
718.579	15889
718.695	24899
718.812	18398
718.928	17948
719.045	13757
719.161	13587
719.277	13444
719.394	13117
719.510	13773
719.626	14759
719.743	16555
719.859	18112
719.975	25660
720.092	76227
720.208	184961
720.324	30775
720.440	15216
720.557	16856
720.673	20510
720.789	25086
720.905	38668
721.021	19406
721.137	13167
721.253	12427
721.369	12809
721.486	13818
721.602	16970
721.718	13318
721.834	11670
721.950	12941
722.066	11136
722.181	12898
722.297	12572
722.413	11952
722.529	11989
722.645	11415
722.761	10407
722.877	11228
722.993	10813
723.108	12980
723.224	11461
723.340	11111
723.456	10684
723.571	11809
723.687	10311
723.803	11284
723.918	10441
724.034	11770
724.150	9809
724.265	12158
724.381	17006
724.497	21498
724.612	10422
724.728	10395
724.843	8963
724.959	11801
725.074	16399
725.190	19624
725.305	10527
725.421	10554
725.536	10402
725.651	9556
725.767	8701
725.882	9341
725.997	9790
726.113	10163
726.228	9638
726.343	9531
726.459	9620
726.574	9378
726.689	9281
726.804	9186
726.920	10108
727.035	9380
727.150	8630
727.265	10182
727.380	9337
727.495	10122
727.610	8196
727.725	8970
727.841	8254
727.956	9078
728.071	10030
728.186	10026
728.301	8375
728.416	8906
728.531	8908
728.645	9063
728.760	8733
728.875	10354
728.990	8827
729.105	9363
729.220	9230
729.335	9825
729.449	7888
729.564	8766
729.679	7400
729.794	8459
729.908	7677
730.023	8241
730.138	8066
730.253	9364
730.367	7262
730.482	8775
730.596	8638
730.711	9317
730.826	8379
730.940	8439
731.055	8024
731.169	8161
731.284	7527
731.398	8485
731.513	8538
731.627	8697
731.742	8632
731.856	10527
731.970	8777
732.085	10149
732.199	11405
732.313	15996
732.428	31305
732.542	88146
732.656	58553
732.771	13992
732.885	9681
732.999	9336
733.113	9382
733.227	9568
733.342	7742
733.456	8320
733.570	7509
733.684	7503
733.798	7910
733.912	8374
734.026	8035
734.140	8353
734.254	7881
734.368	12194
734.482	13742
734.596	7612
734.710	7922
734.824	7808
734.938	7388
735.052	8058
735.166	8837
735.280	8418
735.393	7925
735.507	8530
735.621	8610
735.735	12992
735.849	8266
735.962	8073
736.076	8337
736.190	7724
736.303	8372
736.417	10668
736.531	6668
736.644	8242
736.758	6443
736.872	7226
736.985	7099
737.099	6892
737.212	6426
737.326	7255
737.439	7056
737.553	7513
737.666	6859
737.780	7047
737.893	6473
738.007	7292
738.120	6730
738.233	6278
738.347	7160
738.460	7094
738.573	7527
738.687	7883
738.800	6669
738.913	8694
739.026	7544
739.140	7399
739.253	5967
739.366	7359
739.479	6473
739.592	6926
739.705	4950
739.818	7037
739.932	6122
740.045	7260
740.158	6242
740.271	6388
740.384	5132
740.497	7264
740.610	6695
740.723	6156
740.836	6806
740.949	7377
741.062	7439
741.174	8170
741.287	6351
741.400	5854
741.513	6481
741.626	7123
741.739	6785
741.851	6396
741.964	5888
742.077	6650
742.189	6517
742.302	7197
742.415	5890
742.527	5925
742.640	6211
742.753	5765
742.865	5466
742.978	5349
743.090	6649
743.203	6453
743.316	5304
743.428	6031
743.541	5819
743.653	5567
743.766	4596
743.878	6202
743.990	6717
744.103	6921
744.215	5707
744.327	6330
744.440	6863
744.552	10588
744.664	7003
744.777	6010
744.889	5674
745.001	6301
745.113	4754
745.226	5130
745.338	6311
745.450	5827
745.562	5348
745.674	5002
745.786	4881
745.898	4551
746.010	5082
746.122	5714
746.234	4977
746.347	5528
746.459	4776
746.570	5286
746.682	5591
746.794	6418
746.906	5034
747.018	5348
747.130	5053
747.242	5788
747.354	5718
747.466	6019
747.577	4808
747.689	5721
747.801	4922
747.913	4806
748.024	4810
748.136	4942
748.248	4148
748.359	5450
748.471	4936
748.583	5154
748.694	4180
748.806	6077
748.918	4944
749.029	5006
749.141	5287
749.252	5811
749.364	5712
749.475	10332
749.587	6791
749.698	5499
749.809	5294
749.921	5679
750.032	4140
750.144	5844
750.255	3743
750.366	4239
750.478	4831
750.589	5363
750.700	4328
750.811	5783
750.923	5458
751.034	10579
751.145	11604
751.256	4670
751.367	4268
751.479	5001
751.590	4550
751.701	5518
751.812	4276
751.923	5042
752.034	4764
752.145	4686
752.256	3988
752.367	4809
752.478	4051
752.589	5651
752.700	3672
752.811	4280
752.922	3647
753.032	4401
753.143	5397
753.254	4799
753.365	4473
753.476	4950
753.586	4365
753.697	4227
753.808	3877
753.919	4666
754.029	3422
754.140	4975
754.251	4015
754.361	4383
754.472	4002
754.582	4211
754.693	3872
754.804	5164
754.914	4319
755.025	4426
755.135	3793
755.246	4516
755.356	3154
755.466	4062
755.577	3535
755.687	4581
755.798	3896
755.908	4504
756.018	3502
756.129	3921
756.239	3613
756.349	4312
756.460	3181
756.570	4659
756.680	3533
756.790	5330
756.900	4363
757.011	5087
757.121	3849
757.231	4433
757.341	3522
757.451	4633
757.561	2863
757.671	4484
757.781	2410
757.891	3904
758.001	3311
758.111	4814
758.221	3864
758.331	5270
758.441	4307
758.551	6468
758.661	4405
758.771	4023
758.880	3926
758.990	4533
759.100	4211
759.210	3952
759.320	4338
759.429	4261
759.539	4639
759.649	5521
759.758	4647
759.868	5005
759.978	4952
760.087	4941
760.197	4669
760.307	4824
760.416	4987
760.526	4421
760.635	5088
760.745	4754
760.854	4763
760.964	5609
761.073	4755
761.182	5377
761.292	5294
761.401	5131
761.511	4014
761.620	4875
761.729	4525
761.839	4077
761.948	4855
762.057	5350
762.166	4290
762.276	3809
762.385	4745
762.494	4751
762.603	3992
762.712	4559
762.822	4684
762.931	5699
763.040	4012
763.149	4752
763.258	4628
763.367	5356
763.476	4367
763.585	5831
763.694	5733
763.803	5951
763.912	4835
764.021	5326
764.130	5388
764.238	6240
764.347	4744
764.456	5534
764.565	5553
764.674	6127
764.783	5297
764.891	5936
765.000	6527
765.109	7285
765.217	7383
765.326	9286
765.435	10117
765.543	10649
765.652	12185
765.761	15591
765.869	19247
765.978	31618
766.086	53191
766.195	107227
766.303	261130
766.412	637342
766.520	527197
766.629	184452
766.737	70870
766.846	39955
766.954	25957
767.062	20540
767.171	15141
767.279	13550
767.387	10520
767.496	10363
767.604	9269
767.712	8662
767.820	7102
767.928	8047
768.037	7233
768.145	7555
768.253	6946
768.361	6670
768.469	6640
768.577	7003
768.685	7484
768.793	8328
768.901	7254
769.009	9171
769.117	9006
769.225	10827
769.333	15301
769.441	22555
769.549	42132
769.657	96130
769.765	286264
769.873	535767
769.981	214887
770.088	56835
770.196	26547
770.304	18023
770.412	14837
770.519	11956
770.627	9615
770.735	8838
770.842	7279
770.950	7260
771.058	6844
771.165	7179
771.273	6253
771.380	6728
771.488	5934
771.595	5848
771.703	5516
771.810	6318
771.918	5025
772.025	5670
772.133	5725
772.240	5492
772.348	6653
772.455	6210
772.562	5424
772.670	5601
772.777	4652
772.884	4692
772.991	4458
773.099	6054
773.206	4403
773.313	5908
773.420	4688
773.528	4595
773.635	4299
773.742	5331
773.849	4585
773.956	4414
774.063	4820
774.170	4469
774.277	5207
774.384	5183
774.491	3791
774.598	4742
774.705	4065
774.812	6490
774.919	4880
775.026	4851
775.133	4650
775.239	4501
775.346	3971
775.453	5015
775.560	4261
775.667	5425
775.773	3564
775.880	5995
775.987	4319
776.093	4390
776.200	3456
776.307	5182
776.413	3895
776.520	4403
776.627	4277
776.733	4586
776.840	3296
776.946	5404
777.053	4940
777.159	6060
777.266	3400
777.372	6189
777.478	4652
777.585	5770
777.691	3696
777.798	4994
777.904	3538
778.010	5553
778.117	5153
778.223	4427
778.329	3482
778.435	4931
778.542	3623
778.648	3654
778.754	2329
778.860	3916
778.966	2897
779.072	4156
779.178	4285
779.284	4970
779.391	2356
779.497	3435
779.603	4744
779.708	4902
779.815	5854
779.920	11749
780.026	20257
780.132	6819
780.238	4516
780.344	4478
780.450	4289
780.556	4056
780.661	3103
780.767	4379
780.873	3426
780.979	3691
781.085	2638
781.190	3456
781.296	2665
781.402	3424
781.507	3095
781.613	3662
781.719	3406
781.824	3703
781.930	3742
782.035	4019
782.141	4087
782.246	2782
782.352	3407
782.457	3934
782.563	2953
782.668	3490
782.773	3330
782.879	2855
782.984	3955
783.090	5549
783.195	5384
783.300	4391
783.405	3175
783.511	3643
783.616	4004
783.721	4119
783.826	2653
783.932	3236
784.037	3744
784.142	3633
784.247	2580
784.352	2598
784.457	2836
784.562	3341
784.667	2892
784.772	3518
784.877	2243
784.982	3762
785.087	3174
785.192	3649
785.297	2693
785.402	3544
785.507	3275
785.611	3131
785.716	2942
785.821	3522
785.926	3305
786.031	3013
786.135	2818
786.240	3155
786.345	2019
786.450	3373
786.554	2842
786.659	3609
786.763	1651
786.868	3704
786.973	2748
787.077	2687
787.182	2150
787.286	3219
787.391	2384
787.495	3493
787.600	2721
787.704	2343
787.809	2384
787.913	2919
788.017	3260
788.122	3198
788.226	2294
788.330	3076
788.435	1684
788.539	3215
788.643	2054
788.747	2706
788.852	2141
788.956	2287
789.060	2752
789.164	3111
789.268	1753
789.372	3441
789.476	2708
789.580	2290
789.684	1729
789.788	2858
789.892	2456
789.996	3330
790.100	2535
790.204	3013
790.308	1845
790.412	2587
790.516	2325
790.620	2141
790.724	1896
790.828	3636
790.931	2066
791.035	4125
791.139	2630
791.242	2374
791.346	2666
791.450	3435
791.554	2432
791.657	1556
791.761	2599
791.864	3368
791.968	2594
792.072	3207
792.175	1798
792.279	2946
792.382	2527
792.486	2442
792.589	1637
792.693	2627
792.796	1092
792.899	3931
793.003	3243
793.106	1780
793.209	2085
793.313	3698
793.416	1720
793.519	3453
793.623	3415
793.726	4724
793.829	3004
793.932	3039
794.035	1410
794.138	3897
794.242	2940
794.345	3305
794.448	3050
794.551	4549
794.654	7860
794.757	11469
794.860	4515
794.963	3015
795.066	1598
795.169	3171
795.272	968
795.375	2943
795.477	960
795.580	2718
795.683	1212
795.786	2669
795.889	165
795.991	2883
796.094	3485
796.197	1441
796.300	2858
796.402	1872
796.505	1361
796.608	1806
796.710	2087
796.813	1788
796.915	1255
797.018	2300
797.120	2662
797.223	1286
797.326	2861
797.428	1847
797.530	2381
797.633	2798
797.735	2969
797.838	3191
797.940	3333
798.042	1576
798.145	1465
798.247	2340
798.349	1158
798.452	2707
798.554	2347
798.656	1332
798.758	2730
798.860	2109
798.962	655
799.065	1810
799.167	683
799.269	3470
799.371	3244
799.473	2970
799.575	2183
799.677	2812
799.779	3301
799.881	3092
799.983	3402
800.085	2313
800.187	1865
800.289	1910
800.390	2076
800.492	2316
800.594	2292
800.696	1875
800.798	2155
800.899	1593
801.001	1777
801.103	2295
801.205	1267
801.306	2493
801.408	614
801.509	1842
801.611	1968
801.713	2258
801.814	443
801.916	2125
802.017	995
802.119	1436
802.220	2096
802.322	1133
802.423	3243
802.525	1249
802.626	993
802.727	2276
802.829	2974
802.930	634
803.031	2911
803.133	1116
803.234	876
803.335	2071
803.436	664
803.538	1393
803.639	631
803.740	2270
803.841	1273
803.942	1725
804.043	1709
804.144	1562
804.245	689
804.346	1364
804.447	391
804.548	3043
804.649	3465
804.750	1870
804.851	304
804.952	1722
805.053	935
805.154	972
805.255	1965
805.355	1787
805.456	750
805.557	831
805.658	1006
805.758	2540
805.859	666
805.960	1511
806.061	562
806.161	989
806.262	1463
806.362	1044
806.463	1050
806.564	1902
806.664	1927
806.765	1627
806.865	1193
806.966	1986
807.066	1119
807.166	1862
807.267	1699
807.367	731
807.468	1315
807.568	637
807.668	2144
807.769	1659
807.869	733
807.969	1217
808.069	959
808.170	2020
808.270	1002
808.370	2658
808.470	1864
808.570	1625
808.670	1011
808.770	1540
808.870	881
808.970	1836
809.070	537
809.170	1166
809.271	1132
809.370	1482
809.470	1347
809.570	1541
809.670	1035
809.770	1509
809.870	897
809.970	2397
810.070	1436
810.169	2162
810.269	56
810.369	3046
810.469	1115
810.568	1174
810.668	616
810.768	1842
810.867	1413
810.967	1235
811.066	1610
811.166	1676
811.265	1397
811.365	1482
811.464	322
811.564	1802
811.663	1321
811.763	-34
811.862	1887
811.962	2209
812.061	1232
812.160	951
812.260	2285
812.359	2186
812.458	3291
812.557	11659
812.657	17685
812.756	6921
812.855	1680
812.954	1984
813.053	2043
813.153	1106
813.252	316
813.351	2168
813.450	1350
813.549	1233
813.648	1056
813.747	1836
813.846	1453
813.945	1571
814.044	1087
814.143	1795
814.242	1284
814.341	1745
814.439	1054
814.538	2645
814.637	1878
814.736	1193
814.835	2291
814.933	2515
815.032	1595
815.131	2520
815.229	1900
815.328	3181
815.427	2884
815.525	2706
815.624	2514
815.722	2492
815.821	2808
815.919	2531
816.018	2454
816.116	3800
816.215	2105
816.313	3461
816.412	3221
816.510	3711
816.609	5177
816.707	4208
816.805	3225
816.904	4542
817.002	4406
817.100	6040
817.198	5522
817.296	6732
817.395	6609
817.493	9245
817.591	9160
817.689	13597
817.787	17337
817.885	27009
817.983	45392
818.081	89696
818.179	194482
818.277	417319
818.375	387000
818.473	143762
818.571	60511
818.669	39709
818.767	31870
818.865	32582
818.963	37300
819.061	51716
819.158	83210
819.256	161082
819.354	322796
819.452	562147
819.549	427743
819.647	186408
819.745	85348
819.842	50681
819.940	33314
820.038	24148
820.135	18369
820.233	16198
820.330	11601
820.428	9018
820.525	9428
820.623	8065
820.720	7282
820.818	7020
820.915	6044
821.012	5622
821.110	3865
821.207	5831
821.304	3052
821.402	4269
821.499	4004
821.596	4626
821.693	4337
821.791	4603
821.888	3735
821.985	6603
822.082	5186
822.179	4189
822.276	2082
822.373	2051
822.470	2161
822.567	2762
822.664	902
822.761	3491
822.858	2014
822.955	2885
823.052	2461
823.149	3279
823.246	2009
823.343	1806
823.440	2666
823.536	2075
823.633	941
823.730	2119
823.827	1920
823.923	2264
824.020	2541
824.117	2267
824.213	1019
824.310	2631
824.407	1729
824.503	1742
824.600	1752
824.696	1627
824.793	2757
824.889	1991
824.986	1152
825.082	1340
825.179	1290
825.275	1578
825.371	812
825.468	2384
825.564	157
825.660	2099
825.757	1461
825.853	2366
825.949	1217
826.045	512
826.142	428
826.238	1952
826.334	1449
826.430	1225
826.526	1518
826.622	1200
826.718	1069
826.814	1243
826.910	2209
827.006	1126
827.102	215
827.198	2098
827.294	637
827.390	2413
827.486	1546
827.582	815
827.678	431
827.774	1898
827.869	505
827.965	2438
828.061	6
828.157	1932
828.252	708
828.348	794
828.444	1491
828.539	908
828.635	502
828.731	2618
828.826	934
828.922	2372
829.017	-183
829.113	1536
829.208	244
829.304	866
829.399	1599
829.495	1291
829.590	806
829.685	699
829.781	1150
829.876	1041
829.971	310
830.066	696
830.162	602
830.257	1248
830.352	686
830.447	1909
830.543	701
830.638	835
830.733	1360
830.828	1728
830.923	1248
831.018	555
831.113	597
831.208	861
831.303	618
831.398	630
831.493	3
831.588	1292
831.683	-92
831.778	1325
831.873	83
831.967	2404
832.062	609
832.157	123
832.252	1089
832.346	1569
832.441	1738
832.536	2616
832.631	4271
832.725	4792
832.820	695
832.914	1324
833.009	901
833.104	1498
833.198	1237
833.293	220
833.387	1363
833.482	1194
833.576	-106
833.670	1651
833.765	-268
833.859	1495
833.954	1185
834.048	597
834.142	806
834.237	1023
834.331	45
834.425	1177
834.519	505
834.613	1752
834.708	488
834.802	1145
834.896	875
834.990	1370
835.084	1107
835.178	1048
835.272	811
835.366	598
835.460	997
835.554	902
835.648	844
835.742	469
835.836	1120
835.930	488
836.024	992
836.117	1638
836.211	861
836.305	1419
836.399	2036
836.493	628
836.586	1468
836.680	908
836.774	115
836.867	1769
836.961	-131
837.055	981
837.148	12
837.242	1320
837.335	203
837.429	1162
837.522	-255
837.616	1110
837.709	2724
837.803	1575
837.896	1552
837.989	1067
838.083	605
838.176	2647
838.269	2689
838.363	1686
838.456	440
838.549	2508
838.642	2685
838.735	6743
838.829	2657
838.922	636
839.015	17
839.108	649
839.201	1293
839.294	932
839.387	918
839.480	877
839.573	615
839.666	1982
839.759	410
839.852	-53
839.945	218
840.038	808
840.131	-82
840.223	756
840.316	612
840.409	534
840.502	257
840.594	1588
840.687	-929
840.780	430
840.873	669
840.965	672
841.058	572
841.150	2521
841.243	1113
841.336	1294
841.428	43
841.521	861
841.613	225
841.706	307
841.798	-63
841.890	581
841.983	-574
842.075	1207
842.167	-209
842.260	503
842.352	992
842.444	1579
842.537	1699
842.629	4715
842.721	1215
842.813	626
842.905	-357
842.997	686
843.090	352
843.182	1663
843.274	2141
843.366	5667
843.458	9942
843.550	7507
843.642	687
843.734	941
843.826	680
843.918	1325
844.009	1055
844.101	485
844.193	-374
844.285	-16
844.377	137
844.469	1501
844.560	716
844.652	992
844.744	454
844.835	1426
844.927	-620
845.019	1088
845.110	892
845.202	1201
845.293	609
845.385	472
845.476	211
845.568	985
845.659	-384
845.751	298
845.842	-579
845.934	379
846.025	324
846.116	1290
846.208	227
846.299	232
846.390	356
846.482	934
846.573	444
846.664	1140
846.755	1951
846.846	3117
846.937	164
847.029	1233
847.120	420
847.211	690
847.302	1091
847.393	-51
847.484	388
847.575	545
847.666	182
847.757	1000
847.847	-106
847.938	1044
848.029	-446
848.120	450
848.211	-90
848.302	183
848.392	-84
848.483	1586
848.574	-838
848.664	497
848.755	311
848.846	646
848.936	216
849.027	811
849.118	413
849.208	1175
849.299	636
849.389	1152
849.480	2274
849.570	4987
849.661	8771
849.751	16263
849.841	5735
849.932	957
850.022	-424
850.112	825
850.203	-124
850.293	230
850.383	72
850.474	17
850.564	147
850.654	1350
850.744	-107
850.834	557
850.924	75
851.014	1031
851.104	303
851.194	170
851.284	909
851.374	2124
851.464	449
851.554	452
851.644	435
851.734	1254
851.824	294
851.914	243
852.004	35
852.094	163
852.183	-177
852.273	549
852.363	-485
852.452	230
852.542	675
852.632	647
852.721	-46
852.811	-27
852.901	-3
852.990	761
853.080	484
853.169	866
853.259	658
853.348	840
853.438	-117
853.527	2484
853.617	1845
853.706	4384
853.795	6212
853.885	16453
853.974	30333
854.063	53368
854.152	93330
854.242	38831
854.331	6230
854.420	2638
854.509	1290
854.598	1847
854.687	890
854.777	1849
854.866	-506
854.955	1398
855.044	257
855.133	108
855.222	-419
855.311	727
855.400	349
855.488	471
855.577	147
855.666	586
855.755	1212
855.844	1337
855.933	-227
856.021	625
856.110	75
856.199	85
856.288	-16
856.376	521
856.465	-201
856.554	448
856.642	-738
856.731	434
856.819	533
856.908	349
856.996	-346
857.085	1047
857.173	183
857.262	605
857.350	371
857.438	1335
857.527	-92
857.615	260
857.703	707
857.792	743
857.880	469
857.968	520
858.056	-370
858.145	799
858.233	141
858.321	471
858.409	-104
858.497	355
858.585	109
858.673	236
858.761	-285
858.849	424
858.937	-442
859.025	-25
859.113	-26
859.201	56
859.289	186
859.377	393
859.465	-119
859.552	540
859.640	-272
859.728	560
859.816	79
859.903	56
859.991	-465
860.079	45
860.166	-319
860.254	-78
860.342	55
860.429	307
860.517	-576
860.604	1145
860.692	68
860.779	620
860.867	-784
860.954	-237
861.042	160
861.129	453
861.216	-215
861.304	320
861.391	-63
861.478	1083
861.565	381
861.653	1242
861.740	-723
861.827	265
861.914	-429
862.001	99
862.089	-317
862.176	42
862.263	-590
862.350	483
862.437	-792
862.524	-23
862.611	-379
862.698	641
862.785	337
862.871	624
862.958	-80
863.045	710
863.132	-74
863.219	1007
863.306	-1410
863.392	531
863.479	-763
863.566	736
863.652	328
863.739	511
863.826	-23
863.912	245
863.999	-506
864.086	344
864.172	-239
864.259	969
864.345	656
864.432	572
864.518	-690
864.604	250
864.691	-106
864.777	1230
864.863	97
864.950	942
865.036	-444
865.122	1756
865.209	1222
865.295	852
865.381	1214
865.467	865
865.553	1223
865.639	2445
865.726	3907
865.812	8162
865.898	14867
865.984	23188
866.070	40394
866.156	51524
866.242	13780
866.328	3670
866.414	1285
866.499	1967
866.585	1408
866.671	1707
866.757	937
866.843	2311
866.928	1166
867.014	946
867.100	1174
867.186	1445
867.271	290
867.357	2304
867.442	923
867.528	1152
867.614	108
867.699	914
867.785	1336
867.870	908
867.956	-480
868.041	1906
868.127	1354
868.212	1705
868.297	875
868.383	1328
868.468	742
868.553	2785
868.639	2678
868.724	7010
868.809	6529
868.894	1428
868.979	-163
869.065	898
869.150	206
869.235	599
869.320	58
869.405	1125
869.490	606
869.575	168
869.660	68
869.745	565
869.830	82
869.915	141
870.000	898
870.085	284
870.169	709
870.254	1237
870.339	-477
870.424	589
870.509	-98
870.593	847
870.678	96
870.763	573
870.847	-65
870.932	50
871.016	284
871.101	885
871.186	774
871.270	924
871.355	-289
871.439	1211
871.523	-95
871.608	968
871.692	-344
871.777	370
871.861	529
871.945	597
872.030	52
872.114	786
872.198	-41
872.282	397
872.367	-825
872.451	-289
872.535	491
872.619	296
872.703	-908
872.787	227
872.871	-123
872.955	513
873.039	-320
873.123	587
873.207	402
873.291	12
873.375	-399
873.459	1326
873.543	241
873.627	118
873.711	-313
873.794	174
873.878	-394
873.962	74
874.045	-174
874.129	310
874.137	250
874.213	-352
874.245	-66
874.296	396
874.352	388
874.380	381
874.460	841
874.464	859
874.547	-341
874.568	-121
874.631	545
874.676	251
874.714	3
874.784	413
874.798	500
874.881	599
874.892	540
874.965	60
874.999	262
875.048	573
875.107	167
875.131	-6
875.215	-50
875.215	-50
875.298	-270
875.323	-340
875.381	-504
875.430	154
875.465	643
875.538	817
875.548	829
875.631	171
875.646	43
875.714	-570
875.753	-218
875.798	261
875.861	284
875.881	267
875.964	931
875.968	863
876.047	-344
876.076	-173
876.130	167
876.183	346
876.213	449
876.291	1042
876.296	1081
876.379	120
876.398	100
876.462	10
876.506	-132
876.545	-287
876.613	196
876.628	343
876.711	16
876.721	135
876.794	850
876.828	359
876.877	-353
876.935	250
876.960	559
877.043	384
877.043	386
877.125	759
877.150	713
877.208	575
877.258	718
877.291	883
877.365	596
877.374	537
877.456	528
877.472	400
877.539	87
877.579	507
877.622	806
877.687	371
877.704	277
877.787	879
877.794	849
877.869	604
877.901	552
877.952	383
878.008	303
878.034	334
878.115	871
878.117	879
878.199	300
878.222	418
878.282	844
878.329	679
878.364	443
878.437	876
878.447	966
878.529	519
878.544	573
878.611	694
878.651	460
878.694	330
878.758	1357
878.776	1590
878.858	340
878.865	358
878.941	723
878.972	709
879.023	658
879.078	507
879.105	449
879.185	958
879.187	970
879.269	682
879.292	580
879.351	206
879.399	441
879.433	715
879.506	921
879.516	933
879.598	694
879.613	710
879.680	772
879.720	821
879.762	892
879.827	589
879.844	462
879.926	506
879.933	477
880.007	632
880.040	743
880.089	648
880.147	914
880.171	1163
880.253	2813
880.254	2819
880.335	3622
880.360	4113
880.417	5680
880.467	7935
880.499	9407
880.574	11589
880.580	11556
880.662	4573
880.680	3723
880.744	1743
880.787	1173
880.825	839
880.893	719
880.907	670
880.989	621
881.000	611
881.070	954
881.106	831
881.152	548
881.213	812
881.233	786
881.315	2
881.319	-0
881.396	892
881.426	954
881.478	630
881.532	654
881.559	851
881.639	667
881.641	648
881.722	624
881.745	454
881.803	606
881.852	941
881.885	895
881.958	389
881.966	386
882.047	1385
882.064	1316
882.129	987
882.171	1178
882.210	1397
882.277	1851
882.291	1867
882.372	1600
882.383	1418
882.454	351
882.489	470
882.535	744
882.596	519
882.616	406
882.697	645
882.702	614
882.778	574
882.808	833
882.859	981
882.914	808
882.940	763
883.020	466
883.021	468
883.102	756
883.127	849
883.183	1149
883.233	1055
883.264	729
883.339	369
883.345	391
883.426	114
883.445	220
883.507	673
883.551	928
883.587	799
883.657	465
883.668	514
883.749	679
883.763	715
883.830	630
883.869	572
883.910	555
883.975	787
883.991	761
884.072	-136
884.081	-173
884.152	558
884.187	739
884.233	543
884.292	754
884.314	875
884.394	827
884.398	832
884.475	636
884.504	392
884.555	262
884.610	554
884.636	626
884.716	627
884.716	632
884.797	1140
884.821	1123
884.877	619
884.927	627
884.958	769
885.033	603
885.038	579
885.118	658
885.139	469
885.199	-77
885.244	32
885.279	620
885.350	1145
885.359	1115
885.439	1329
885.456	1291
885.520	1118
885.561	1110
885.600	1042
885.667	583
885.680	533
885.760	945
885.773	905
885.840	704
885.878	740
885.920	692
885.984	526
886.000	500
886.080	410
886.089	358
886.160	141
886.195	328
886.240	983
886.300	1278
886.320	1116
886.400	1157
886.406	1127
886.480	1277
886.511	1357
886.560	1128
886.616	861
886.640	960
886.720	1517
886.722	1518
886.800	566
886.827	358
886.879	850
886.932	1150
886.959	1257
887.038	1615
887.039	1615
887.119	1146
887.143	989
887.198	784
887.248	557
887.278	624
887.354	752
887.358	785
887.437	1371
887.459	1568
887.517	1705
887.564	1716
887.596	1589
887.669	1323
887.676	1277
887.755	610
887.774	474
887.835	839
887.880	981
887.914	925
887.985	963
887.994	1001
888.073	1196
888.090	1254
888.153	1096
888.195	906
888.232	949
888.300	1100
888.311	1086
888.391	904
888.405	871
888.470	1114
888.510	1244
888.549	1194
888.615	1189
888.628	1205
888.708	1143
888.720	1142
888.787	1014
888.825	912
888.866	892
888.930	928
888.945	987
889.024	1141
889.035	1176
889.103	1453
889.140	1558
889.182	1541
889.245	1582
889.261	1570
889.340	1406
889.349	1388
889.419	1167
889.454	1050
889.498	1064
889.559	1101
889.577	1042
889.656	757
889.664	731
889.735	1630
889.768	2048
889.814	1626
889.873	1060
889.978	1060
890.083	1844
890.187	1093
890.292	1571
890.397	-153
890.501	1405
890.606	479
890.710	1819
890.815	1325
890.919	1303
891.024	611
891.128	1303
891.233	1059
891.337	1838
891.442	1167
891.546	1151
891.650	468
891.755	545
891.859	2504
891.963	1762
892.068	1133
892.172	844
892.276	358
892.380	735
892.484	1529
892.589	1639
892.693	1207
892.797	810
892.901	690
893.005	930
893.109	1186
893.213	1916
893.317	954
893.421	1672
893.525	152
893.629	751
893.733	1136
893.837	1070
893.941	180
894.045	1722
894.148	673
894.252	324
894.356	964
894.460	1518
894.564	1054
894.667	1124
894.771	649
894.875	657
894.978	986
895.082	951
895.186	975
895.289	705
895.393	632
895.496	1046
895.600	764
895.703	834
895.807	182
895.910	729
896.014	346
896.117	688
896.221	1455
896.324	902
896.427	1069
896.531	476
896.634	928
896.737	1197
896.840	1016
896.944	1142
897.047	647
897.150	545
897.253	312
897.356	1380
897.460	-14
897.563	215
897.666	701
897.769	1337
897.872	587
897.975	1094
898.078	800
898.181	765
898.284	428
898.387	1394
898.490	1236
898.593	1020
898.695	267
898.798	1149
898.901	838
899.004	936
899.107	1114
899.209	684
899.312	1000
899.415	635
899.518	1556
899.620	249
899.723	269
899.826	649
899.928	977
900.031	979
900.133	1094
900.236	135
900.338	1099
900.441	1210
900.543	1182
900.646	1232
900.748	657
900.851	1066
900.953	731
901.055	617
901.158	842
901.260	955
901.362	1635
901.465	842
901.567	980
901.669	1035
901.771	416
901.873	785
901.976	882
902.078	1027
902.180	370
902.282	352
902.384	1357
902.486	1072
902.588	1080
902.690	94
902.792	467
902.894	1699
902.996	985
903.098	978
903.200	503
903.302	1106
903.404	1288
903.505	708
903.607	1756
903.709	1490
903.811	1585
903.913	28
904.014	1332
904.116	1007
904.218	953
904.319	1001
904.421	1327
904.523	1132
904.624	1266
904.726	856
904.827	970
904.929	889
905.030	1157
905.132	1595
905.233	827
905.335	127
905.436	280
905.537	615
905.639	936
905.740	643
905.841	1858
905.943	720
906.044	413
906.145	1416
906.247	594
906.348	1948
906.449	1563
906.550	611
906.651	1254
906.752	1825
906.854	895
906.955	1537
907.056	1104
907.157	979
907.258	1473
907.359	873
907.460	1058
907.561	442
907.662	899
907.762	828
907.863	1889
907.964	1385
908.065	1379
908.166	1052
908.267	1042
908.367	1748
908.468	846
908.569	783
908.670	1625
908.770	1307
908.871	2084
908.971	1220
909.072	622
909.173	1355
909.273	965
909.374	868
909.474	1326
909.575	1713
909.675	909
909.776	989
909.876	1044
909.977	1278
910.077	2295
910.177	626
910.278	943
910.378	1161
910.478	503
910.579	1367
910.679	1022
910.779	939
910.879	1767
910.980	1893
911.080	811
911.180	691
911.280	1657
911.380	893
911.480	1057
911.580	870
911.680	1283
911.780	404
911.880	1629
911.980	1179
912.080	687
912.180	1689
912.280	1500
912.380	954
912.480	1313
912.580	1824
912.679	765
912.779	2100
912.879	973
912.979	928
913.078	1260
913.178	461
913.278	490
913.377	1454
913.477	1374
913.577	1024
913.676	1784
913.776	713
913.875	1342
913.975	1093
914.074	499
914.174	974
914.273	663
914.373	1428
914.472	1371
914.572	689
914.671	1770
914.770	452
914.870	155
914.969	365
915.068	1193
915.167	1201
915.267	1026
915.366	1622
915.465	1322
915.564	846
915.663	1379
915.763	1096
915.862	958
915.961	773
916.060	506
916.159	1281
916.258	398
916.357	1528
916.456	1274
916.555	1273
916.654	657
916.752	1370
916.851	1294
916.950	1277
917.049	1770
917.148	403
917.247	1457
917.345	1500
917.444	575
917.543	1329
917.642	883
917.740	922
917.839	1183
917.937	1058
918.036	350
918.135	340
918.233	814
918.332	1371
918.430	1301
918.529	622
918.627	593
918.726	791
918.824	2049
918.923	1136
919.021	1455
919.119	1454
919.218	552
919.316	765
919.414	1102
919.512	1026
919.611	1750
919.709	1780
919.807	991
919.905	1637
920.003	2234
920.102	789
920.200	976
920.298	1575
920.396	1944
920.494	1217
920.592	1439
920.690	1678
920.788	1012
920.886	820
920.984	1235
921.082	1867
921.180	1860
921.277	1371
921.375	1742
921.473	1502
921.571	1552
921.669	574
921.766	1179
921.864	2086
921.962	893
922.060	1833
922.157	1676
922.255	1884
922.352	2331
922.450	2671
922.548	1801
922.645	2385
922.743	1900
922.840	3360
922.938	3299
923.035	2711
923.133	3141
923.230	3815
923.327	3340
923.425	3874
923.522	3681
923.619	4094
923.717	2641
923.814	2714
923.911	3389
924.008	2534
924.106	3443
924.203	2806
924.300	2612
924.397	3101
924.494	3102
924.591	2499
924.688	2651
924.786	2854
924.883	3247
924.979	2781
925.077	3526
925.173	3297
925.270	2913
925.367	2376
925.464	3207
925.561	3083
925.658	2856
925.755	2818
925.852	2881
925.948	3515
926.045	2247
926.142	2541
926.239	2695
926.335	2469
926.432	2926
926.529	3312
926.625	2856
926.722	2379
926.818	3238
926.915	2746
927.011	2900
927.108	2032
927.204	2106
927.301	2208
927.397	2238
927.494	2254
927.590	2458
927.687	1834
927.783	2342
927.879	2981
927.976	2312
928.072	2263
928.168	2467
928.264	2776
928.361	2090
928.457	3126
928.553	2093
928.649	2431
928.745	2973
928.841	1905
928.937	2310
929.033	2272
929.129	1975
929.225	2506
929.321	2954
929.417	2046
929.513	2414
929.609	1950
929.705	2170
929.801	2126
929.897	2044
929.993	1943
930.089	1748
930.184	2351
930.280	2096
930.376	3328
930.471	1429
930.567	2579
930.663	2233
930.758	1907
930.854	2485
930.950	1944
931.045	2043
931.141	1877
931.236	3340
931.332	1658
931.427	1412
931.523	2245
931.618	1578
931.714	1558
931.809	2488
931.905	2384
932.000	1510
932.095	1707
932.191	2170
932.286	2725
932.381	2257
932.476	1446
932.572	2044
932.667	2253
932.762	2253
932.857	2104
932.952	2108
933.047	2469
933.142	1442
933.237	2658
933.332	2484
933.427	2475
933.522	1645
933.617	1743
933.712	1384
933.807	2478
933.902	2181
933.997	1868
934.092	1512
934.187	1387
934.282	1994
934.376	1703
934.471	2104
934.566	1100
934.661	1301
934.755	1954
934.850	1379
934.945	2130
935.039	1833
935.134	1344
935.228	1140
935.323	2304
935.417	1623
935.512	1611
935.606	1269
935.701	1897
935.795	1735
935.890	2101
935.984	2098
936.079	1734
936.173	2332
936.267	1286
936.362	1528
936.456	2085
936.550	2583
936.644	1662
936.738	1962
936.833	1310
936.927	2023
937.021	1051
937.115	905
937.209	861
937.303	2114
937.397	403
937.491	2007
937.585	1541
937.679	1101
937.773	1790
937.867	958
937.961	1402
938.055	2115
938.149	1965
938.243	1625
938.337	988
938.430	952
938.524	2405
938.618	2481
938.712	1852
938.805	1073
938.899	1375
938.993	1093
939.086	1375
939.180	1347
939.274	1160
939.367	1539
939.461	772
939.554	728
939.648	137
939.741	1010
939.835	1987
939.928	1789
940.022	2145
940.115	1585
940.208	1197
940.302	1419
940.395	1909
940.488	1083
940.582	1438
940.675	977
940.768	1646
940.861	1142
940.954	2032
941.048	263
941.141	324
941.234	214
941.327	1247
941.420	1322
941.513	1357
941.606	734
941.699	2582
941.792	1534
941.885	849
941.978	1210
942.071	1463
942.164	464
942.257	1364
942.349	1504
942.442	1898
942.535	1156
942.628	1001
942.721	1376
942.813	143
942.906	1320
942.999	603
943.091	251
943.184	1194
943.277	1120
943.369	1130
943.462	296
943.554	1159
943.647	683
943.739	2128
943.832	1327
943.924	381
944.017	1184
944.109	113
944.201	939
944.294	1016
944.386	1119
944.478	1080
944.571	1182
944.663	1165
944.755	1090
944.847	1367
944.940	1327
945.032	673
945.124	1128
945.216	1142
945.308	1015
945.400	813
945.492	1256
945.584	635
945.676	1641
945.768	1398
945.860	538
945.952	140
946.044	1242
946.136	824
946.228	730
946.320	1118
946.412	1068
946.503	1119
946.595	1850
946.687	274
946.779	606
946.870	267
946.962	1414
947.054	923
947.145	1239
947.237	745
947.329	1466
947.420	-535
947.512	1070
947.603	838
947.695	670
947.786	268
947.878	511
947.969	89
948.061	814
948.152	396
948.243	894
948.335	548
948.426	626
948.517	205
948.609	642
948.700	654
948.791	303
948.882	239
948.973	974
949.065	53
949.156	288
949.247	21
949.338	741
949.429	788
949.520	293
949.611	-548
949.702	1789
949.793	1078
949.884	799
949.975	415
950.066	24
950.157	413
950.247	761
950.338	108
950.429	114
950.520	929
950.611	418
950.701	1330
950.792	1150
950.883	1947
950.973	610
951.064	26
951.155	587
951.245	933
951.336	362
951.427	88
951.517	2168
951.608	1179
951.698	1051
951.788	367
951.879	1565
951.969	38
952.060	368
952.150	878
952.240	1396
952.331	-954
952.421	1777
952.511	166
952.602	576
952.692	420
952.782	753
952.872	1281
952.962	726
953.052	-118
953.143	476
953.233	511
953.323	174
953.413	297
953.503	487
953.593	851
953.683	69
953.773	969
953.863	-80
953.953	85
954.042	765
954.132	245
954.222	1068
954.312	-58
954.402	-113
954.492	396
954.581	652
954.671	731
954.761	-309
954.850	1729
954.940	348
955.030	1091
955.119	231
955.209	563
955.298	490
955.388	1259
955.477	846
955.567	855
955.656	356
955.746	668
955.835	167
955.925	114
956.014	728
956.103	323
956.193	825
956.282	-121
956.371	802
956.461	512
956.550	144
956.639	1264
956.728	49
956.817	279
956.906	609
956.995	1604
957.085	248
957.174	469
957.263	125
957.352	792
957.441	361
957.530	815
957.619	167
957.708	-336
957.796	764
957.885	-132
957.974	522
958.063	686
958.152	-955
958.241	527
958.329	677
958.418	661
958.507	-123
958.596	804
958.684	-95
958.773	741
958.861	-629
958.950	767
959.039	755
959.127	-488
959.216	445
959.304	248
959.393	140
959.481	312
959.570	529
959.658	-625
959.746	-269
959.835	103
959.923	524
960.011	714
960.100	229
960.188	927
960.276	223
960.365	992
960.453	-70
960.541	-443
960.629	414
960.717	-40
960.805	-363
960.893	12
960.981	-480
961.069	805
961.158	676
961.245	723
961.333	586
961.421	889
961.509	-39
961.597	923
961.685	-283
961.773	718
961.861	-15
961.949	323
962.036	-332
962.124	379
962.212	-367
962.299	89
962.387	-457
962.475	148
962.562	-68
962.650	994
962.738	-258
962.825	-298
962.913	326
963.000	254
963.088	320
963.175	-645
963.263	743
963.350	115
963.438	-190
963.525	-31
963.612	1048
963.700	349
963.787	2090
963.874	882
963.962	352
964.049	190
964.136	-40
964.223	-73
964.310	-324
964.398	-107
964.485	421
964.572	531
964.659	898
964.746	16
964.833	-454
964.920	-158
965.007	290
965.094	-197
965.181	21
965.268	-111
965.355	1241
965.441	226
965.528	-697
965.615	-5
965.702	55
965.789	-240
965.875	-181
965.962	-24
966.049	-594
966.136	-571
966.222	80
966.309	637
966.395	-448
966.482	67
966.569	-525
966.655	183
966.742	415
966.828	-252
966.915	200
967.001	547
967.087	-229
967.174	-135
967.260	356
967.347	-41
967.433	-72
967.519	532
967.605	-21
967.692	3
967.778	-626
967.864	297
967.950	-108
968.036	52
968.123	-108
968.209	-21
968.295	-1341
968.381	1095
968.467	-994
968.553	-657
968.639	380
968.725	47
968.811	-61
968.897	152
968.983	-623
969.069	-475
969.154	237
969.240	556
969.326	-1047
969.412	-594
969.497	-686
969.583	-509
969.669	454
969.755	-48
969.840	-523
969.926	-116
970.012	-71
970.097	237
970.183	-671
970.268	-465
970.354	-181
970.439	-388
970.525	1005
970.610	-983
970.696	680
970.781	-222
970.866	-774
970.952	266
971.037	-711
971.122	-431
971.208	-164
971.293	-423
971.378	-1180
971.463	-464
971.549	-266
971.634	-226
971.719	490
971.804	-478
971.889	-283
971.974	-378
972.059	-859
972.144	450
972.229	-1136
972.314	-979
972.399	64
972.484	-6
972.569	-166
972.654	-1209
972.739	537
972.824	-156
972.908	-133
972.993	-283
973.078	-332
973.163	-890
973.247	-455
973.332	-1334
973.417	89
973.501	-1312
973.586	-542
973.671	-210
973.755	-671
973.840	-552
973.924	95
974.009	269
974.093	-994
974.178	972
974.262	10
974.346	-644
974.431	-21
974.515	-881
974.600	-751
974.684	-320
974.768	-346
974.852	90
974.937	-964
975.021	-339
975.105	-704
975.189	-1074
975.273	-703
975.358	-545
975.442	-646
975.526	281
975.610	-1481
975.694	-642
975.778	393
975.862	-118
975.946	-2078
976.030	509
976.114	-933
976.198	110
976.281	67
976.365	-355
976.449	-551
976.533	-779
976.617	-785
976.700	-1573
976.784	-1144
976.868	-357
976.951	-210
977.035	-702
977.119	-878
977.202	-589
977.286	-554
977.369	-170
977.453	268
977.536	-556
977.620	-344
977.703	397
977.787	-574
977.870	414
977.953	687
978.037	-1244
978.120	422
978.203	-1464
978.287	31
978.370	-478
978.453	-622
978.536	-792
978.620	-631
978.703	154
978.786	-429
978.869	-738
978.952	-887
979.035	787
979.118	-624
979.201	-1676
979.284	125
979.367	-968
979.450	-238
979.533	-531
979.616	-1204
979.699	-634
979.782	-168
979.865	-650
979.948	-118
980.030	-917
980.113	-589
980.196	-1618
980.279	-808
980.361	-813
980.444	-1375
980.526	-754
980.609	-615
980.692	-921
980.774	-95
980.857	-1194
980.939	948
981.022	-1013
981.104	-408
981.187	-86
981.269	-146
981.352	-756
981.434	-892
981.516	-802
981.599	103
981.681	-498
981.763	-258
981.846	-539
981.928	-1255
982.010	-632
982.092	-891
982.174	-108
982.256	-153
982.339	-668
982.421	-892
982.503	-272
982.585	-1159
982.667	-603
982.749	-43
982.831	-658
982.913	-530
982.995	110
983.077	-1253
983.158	104
983.240	-1216
983.322	2
983.404	-191
983.486	-1078
983.568	-834
983.649	-228
983.731	-39
983.813	-368
983.894	302
983.976	-1127
984.058	-561
984.139	863
984.221	-476
984.302	775
984.384	-699
984.465	-845
984.547	-1125
984.628	-937
984.710	341
984.791	-61
984.872	-229
984.954	-368
985.035	-500
985.116	-485
985.198	-785
985.279	1078
985.360	-398
985.441	-835
985.522	-481
985.604	-1168
985.685	-2082
985.766	-342
985.847	575
985.928	-1173
986.009	-303
986.090	-1024
986.171	458
986.252	-1171
986.333	-40
986.414	-188
986.495	-696
986.576	-774
986.656	-1012
986.737	-863
986.818	-875
986.899	-816
986.980	-503
987.060	252
987.141	-1137
987.222	-1222
987.302	-429
987.383	564
987.464	113
987.544	-293
987.625	-285
987.705	91
987.786	-253
987.866	277
987.947	267
988.027	-80
988.108	-1048
988.188	20
988.268	-659
988.349	70
988.429	-482
988.509	-235
988.589	-279
988.670	-1294
988.750	168
988.830	-195
988.910	111
988.990	195
989.070	-675
989.151	293
989.231	-935
989.311	-440
989.391	-901
989.471	-684
989.551	-1200
989.631	-382
989.711	164
989.791	-299
989.870	-435
989.950	431
990.030	-299
990.110	-726
990.190	-960
990.269	-1032
990.349	-719
990.429	-820
990.509	-171
990.588	-826
990.668	-439
990.747	-1005
990.827	-694
990.907	280
990.986	-888
991.066	649
991.145	-332
991.225	-357
991.304	-946
991.383	-309
991.463	-1138
991.542	-589
991.622	-371
991.701	-539
991.780	-1110
991.859	-341
991.939	-175
992.018	-373
992.097	-329
992.176	12
992.256	-261
992.335	-465
992.414	-153
992.493	-830
992.572	-704
992.651	725
992.730	-613
992.809	-231
992.888	-1334
992.967	-951
993.046	-607
993.125	-1185
993.203	-1051
993.282	-341
993.361	-524
993.440	-437
993.519	-1695
993.597	98
993.676	-878
993.755	607
993.834	-368
993.912	-1439
993.991	1138
994.069	-1170
994.148	-567
994.226	-925
994.305	-715
994.384	-564
994.462	21
994.540	-1023
994.619	-505
994.697	-524
994.776	-856
994.854	139
994.932	-1204
995.011	-486
995.089	-1599
995.167	-448
995.245	-858
995.324	-1260
995.402	41
995.480	-508
995.558	-586
995.636	-1373
995.714	-141
995.792	470
995.870	-562
995.948	157
996.026	-403
996.104	-1887
996.182	300
996.260	-1562
996.338	-725
996.416	-437
996.494	-1305
996.572	418
996.649	-1012
996.727	-1500
996.805	-1146
996.883	-772
996.960	-1206
997.038	735
997.116	-767
997.193	-626
997.271	-500
997.348	-892
997.426	-481
997.504	-1148
997.581	179
997.658	-34
997.736	-1643
997.813	-951
997.891	137
997.968	-1177
998.046	-1020
998.123	-1145
998.200	-1179
998.277	-1755
998.355	-421
998.432	-1817
998.509	-858
998.586	-584
998.663	48
998.741	-1099
998.818	-737
998.895	-976
998.972	-583
999.049	-1819
999.126	-1511
999.203	-430
999.280	-483
999.357	-1641
999.434	-1501
999.511	-146
999.587	343
999.664	-1198
999.741	-1029
999.818	-222
999.895	-1186
999.971	-861
1000.048	-880
1000.125	-682
1000.202	-1217
1000.278	-1033
1000.355	-801
1000.431	-1177
1000.508	-1159
1000.584	-730
1000.661	-650
1000.738	-1726
1000.814	-205
1000.890	-675
1000.967	-1148
1001.043	-1168
1001.120	-1183
1001.196	-79
1001.272	-1170
1001.349	-953
1001.425	-621
1001.501	-851
1001.577	-1782
1001.654	-1128
1001.730	-916
1001.806	-774
1001.882	-594
1001.958	-659
1002.034	-1245
1002.110	-1108
1002.186	-1780
1002.262	-1037
1002.338	-1939
1002.414	-1099
1002.490	123
1002.566	-1721
1002.642	-712
1002.718	-173
1002.794	-1342
1002.870	-767
1002.945	-1438
1003.021	-996
1003.097	-1184
1003.173	-725
1003.248	-1427
1003.324	-1723
1003.400	-967
1003.475	-918
1003.551	-758
1003.626	-1009
1003.702	-1295
1003.777	-1366
1003.853	-657
1003.928	-1234
1004.004	-515
1004.079	-881
1004.155	-1260
1004.230	-2010
1004.305	-963
1004.381	-1420
1004.456	-1029
1004.531	-1281
1004.607	-1097
1004.682	-1772
1004.757	-1023
1004.832	-2029
1004.907	-941
1004.982	-569
1005.057	-1046
1005.133	-973
1005.208	-1143
1005.283	-792
1005.358	-497
1005.433	-1496
1005.508	-1272
1005.583	-2211
1005.657	-1059
1005.732	-760
1005.807	-926
1005.882	-1265
1005.957	-1494
1006.032	-1842
1006.106	-1203
1006.181	-516
1006.256	-1023
1006.331	-1441
1006.405	-1886
1006.480	-1306
1006.554	-1153
1006.629	-560
1006.704	-1209
1006.778	-1588
1006.853	-808
1006.927	-1088
1007.002	-2340
1007.076	-1019
1007.150	-1336
1007.225	-1268
1007.299	-1679
1007.373	-1554
1007.448	-1751
1007.522	-764
1007.596	-1054
1007.671	-1758
1007.745	-1054
1007.819	-2346
1007.893	-1835
1007.967	-2406
1008.041	-2304
1008.115	33
1008.190	-858
1008.264	-856
1008.338	-1611
1008.412	-1701
1008.486	-1210
1008.560	-1409
1008.633	-1636
1008.707	-1989
1008.781	-1064
1008.855	-1680
1008.929	-1268
1009.003	-1724
1009.076	-997
1009.150	-1417
1009.224	-1184
1009.298	-1243
1009.371	-1212
1009.445	-1090
1009.519	-1561
1009.592	-2366
1009.666	-1522
1009.739	-1584
1009.813	-2130
1009.886	-456
1009.960	-1886
1010.033	-1545
1010.107	-570
1010.180	-770
1010.253	-2197
1010.327	-1489
1010.400	-669
1010.473	-1952
1010.547	-1169
1010.620	-1316
1010.693	-1379
1010.766	-2103
1010.840	-1648
1010.913	-1286
1010.986	-2337
1011.059	-1428
1011.132	-1778
1011.205	-1502
1011.278	-1274
1011.351	-973
1011.424	-1066
1011.497	-1328
1011.570	-644
1011.643	-1879
1011.716	-1454
1011.789	-2166
1011.862	-1230
1011.934	-771
1012.007	-2269
1012.080	-1603
1012.153	-1568
1012.225	91
1012.298	-1867
1012.371	-1936
1012.443	-884
1012.516	-2253
1012.588	-2044
1012.661	-1366
1012.733	-1822
1012.806	-1155
1012.879	-1336
1012.951	-1799
1013.023	-956
1013.096	-1522
1013.168	-2225
1013.241	-1029
1013.313	-1822
1013.385	-1682
1013.458	-1673
1013.530	-1471
1013.602	-2799
1013.674	-1367
1013.746	-2301
1013.819	-1320
1013.891	-1002
1013.963	-1506
1014.035	-1471
1014.107	-1688
1014.179	-1680
1014.251	-2228
1014.323	-1577
1014.395	-1899
1014.467	-1104
1014.539	-1951
1014.611	-2345
1014.683	-2042
1014.754	-1726
1014.826	-1675
1014.898	-1680
1014.970	-2363
1015.042	-1272
1015.113	-1709
1015.185	-2103
1015.257	-2400
1015.328	-1168
1015.400	-2205
1015.471	-1107
1015.543	-2117
1015.615	-1391
1015.686	-830
1015.757	-2008
1015.829	-1453
1015.901	-2581
1015.972	-1683
1016.043	-2230
1016.115	-1514
1016.186	-1244
1016.257	-1994
1016.328	-1285
1016.400	-1734
1016.471	-2222
1016.542	-1529
1016.613	-975
1016.685	-1777
1016.756	-1544
1016.827	-2150
1016.898	-1901
1016.969	-1324
1017.040	-1687
1017.111	-1653
1017.182	-1314
1017.253	-2671
1017.324	-1297
1017.395	-2516
1017.466	-1683
1017.537	-1713
1017.608	-2123
1017.678	-2127
1017.749	-1315
1017.820	-1506
1017.891	-1827
1017.961	-2026
1018.032	-1028
1018.103	-2048
1018.173	-1235
1018.244	-953
1018.315	-1759
1018.385	-1407
1018.456	-1576
1018.526	-2434
1018.597	-1409
1018.667	-2104
1018.738	-1930
1018.808	-1636
1018.878	-1384
1018.949	-1098
1019.019	-1762
1019.089	-2034
1019.160	-1435
1019.230	-2060
1019.300	-666
1019.371	-2459
1019.441	-1764
1019.511	-1993
1019.581	-2472
1019.651	-1211
1019.721	-1521
1019.791	-1705
1019.861	-1381
1019.931	-1656
1020.001	-2149
1020.071	-1149
1020.141	-2400
1020.211	-1594
1020.281	-1770
1020.351	-1875
1020.421	-1794
1020.491	-1864
1020.560	-2100
1020.630	-1830
1020.700	-2159
1020.770	-1538
1020.839	-1532
1020.909	-2134
1020.979	-1660
1021.048	-1783
1021.118	-1923
1021.187	-2411
1021.257	-1230
1021.326	-1861
1021.396	-1992
1021.465	-1113
1021.535	-1106
1021.604	-2186
1021.674	-1904
1021.743	-2045
1021.812	-2309
1021.882	-1851
1021.951	-1704
1022.020	-1542
1022.089	-1515
1022.159	-2202
1022.228	-1865
1022.297	-2336
1022.366	-2372
1022.435	-1827
1022.504	-1114
1022.573	-1725
1022.642	-1349
1022.711	-2105
1022.781	-1127
1022.849	-1662
1022.918	-1231
1022.987	-1879
1023.056	-2029
1023.125	-2010
1023.194	-2487
1023.263	-1441
1023.331	-1123
1023.400	-3135
1023.469	-1825
1023.538	-1191
1023.606	-2552
1023.675	-1286
1023.744	-2671
1023.812	-2171
1023.881	-2152
1023.949	-1932
1024.018	-2748
1024.086	-1943
1024.155	-1874
1024.223	-2459
1024.292	-2596
1024.360	-2035
1024.429	-1606
1024.497	-2314
1024.565	-1311
1024.634	-1765
1024.702	-1878
1024.770	-1252
1024.838	-2231
1024.907	-1476
1024.975	-2050
1025.043	-1874
1025.111	-1835
1025.179	-1755
1025.247	-1994
1025.315	-1353
1025.383	-2064
1025.451	-2071
1025.519	-1955
1025.587	-2069
1025.655	-1844
1025.723	-2213
1025.791	-2439
1025.859	-1619
1025.927	-1213
1025.995	-2302
1026.062	-1744
1026.130	-1971
1026.198	-2204
1026.266	-2161
1026.333	-1374
1026.401	-2064
1026.469	-1752
1026.536	-1697
1026.604	-1609
1026.671	-1559
1026.739	-2488
1026.806	-1820
1026.874	-1613
1026.941	-1597
1027.009	-2484
1027.076	-1457
1027.144	-1431
1027.211	-1546
1027.278	-1964
1027.345	-1293
1027.413	-1270
1027.480	-2665
1027.547	-1785
1027.614	-2276
1027.682	-2248
1027.749	-2271
1027.816	-1589
1027.883	-2140
1027.950	-2497
1028.017	-2937
1028.084	-1231
1028.151	-2021
1028.218	-1745
1028.285	-2625
1028.352	-1828
1028.419	-2059
1028.486	-2020
1028.553	-1894
1028.619	-1970
1028.686	-1556
1028.753	-1955
1028.820	-1762
1028.886	-1788
1028.953	-1933
1029.020	-2486
1029.086	-1770
1029.153	-2531
1029.220	-2150
1029.286	-1817
1029.353	-2022
1029.419	-1798
1029.486	-1866
1029.552	-2039
1029.619	-2584
1029.685	-1412
1029.751	-2486
1029.818	-1391
1029.884	-2122
1029.951	-1427
1030.017	-1632
1030.083	-1725
1030.149	-1944
1030.216	-2295
1030.282	-1854
1030.348	-2434
1030.414	-2236
1030.480	-1602
1030.546	-2168
1030.612	-2484
1030.678	-2466
1030.744	-1619
1030.810	-2441
1030.876	-2094
1030.942	-2055
1031.008	-1999
1031.074	-2498
1031.140	-972
1031.206	-2499
1031.272	-1867
1031.337	-1630
1031.403	-2231
1031.469	-2153
1031.534	-1421
1031.600	-1557
1031.666	-2545
1031.731	-2407
1031.797	-1902
1031.863	-1803
1031.928	-2228
1031.994	-1592
1032.059	-2134
1032.125	-2078
1032.190	-2489
1032.256	-2325
1032.321	-2616
1032.386	-2860
1032.452	-1482
1032.517	-1856
1032.582	-2111
1032.647	-1784
1032.713	-1559
1032.778	-2048
1032.843	-2084
1032.908	-1280
1032.974	-1473
1033.039	-2536
1033.104	-1926
1033.169	-2608
1033.234	-1923
1033.299	-2196
1033.364	-2261
1033.429	-2358
1033.494	-1995
1033.559	-2284
1033.624	-1529
1033.688	-1903
1033.753	-2172
1033.818	-2291
1033.883	-1585
1033.948	-2248
1034.013	-1809
1034.077	-2294
1034.142	-1623
1034.207	-1517
1034.271	-1060
1034.336	-817
1034.400	-1057
1034.465	-1634
1034.530	-2316
1034.594	-1373
1034.658	-1647
1034.723	-2160
1034.787	-2301
1034.852	-2465
1034.916	-1665
1034.981	-1865
1035.045	-1833
1035.109	-1830
1035.173	-1544
1035.238	-2196
1035.302	-2186
1035.366	-2404
1035.430	-1726
1035.495	-2283
1035.559	-1309
1035.623	-1866
1035.687	-2294
1035.751	-1738
1035.815	-2344
1035.879	-1488
1035.943	-1631
1036.007	-1888
1036.071	-2041
1036.135	-2114
1036.198	-1418
1036.262	-2446
1036.326	-2299
1036.390	-1246
1036.454	-1322
1036.517	-1735
1036.581	-1637
1036.645	-801
1036.709	-878
1036.772	-2236
1036.836	-2118
1036.900	-2827
1036.963	-1289
1037.026	-2144
1037.090	-1711
1037.154	-2523
1037.217	-2454
1037.280	-2326
1037.344	-1635
1037.407	-2238
1037.471	-2119
1037.534	-2059
1037.597	-2302
1037.661	-1745
1037.724	-1949
1037.787	-2214
1037.850	-2134
1037.913	-2496
1037.977	-2107
1038.040	-2847
1038.103	-1613
1038.166	-1683
1038.229	-2029
1038.292	-1753
1038.355	-1531
1038.418	-1990
1038.481	-1752
1038.544	-1608
1038.607	-2436
1038.670	-1265
1038.732	-2224
1038.795	-2740
1038.858	-1417
1038.921	-2458
1038.984	-1958
1039.046	-2106
1039.109	-2464
1039.172	-2904
1039.234	-2295
1039.297	-2021
1039.360	-1365
1039.422	-2143
1039.485	-1835
1039.547	-1888
1039.610	-1780
1039.672	-2298
1039.734	-2434
1039.797	-2013
1039.859	-1823
1039.922	-1887
1039.984	-2312
1040.046	-1721
1040.109	-1940
1040.171	-2622
1040.233	-1054
1040.295	-1744
1040.358	-2528
1040.420	-1881
1040.482	-1870
1040.544	-2028
1040.606	-1455
1040.668	-1745
1040.730	-2437
1040.792	-2772
1040.854	-2632
1040.916	-1943
1040.978	-2521
1041.040	-1383
1041.102	-1288
1041.164	-2225
1041.225	-1915
1041.287	-2227
1041.349	-2203
1041.411	-2218
1041.472	-1893
1041.534	-2006
1041.596	-2419
1041.657	-1706
1041.719	-1650
1041.781	-1845
1041.842	-1942
1041.904	-1966
1041.965	-2464
1042.027	-1267
1042.088	-2259
1042.150	-2181
1042.211	-2083
1042.272	-1764
1042.334	-1917
1042.395	-2593
1042.456	-1641
1042.518	-2594
1042.579	-1938
1042.640	-1941
1042.701	-1572
1042.763	-1955
1042.824	-1554
1042.885	-2695
1042.946	-2023
1043.007	-2263
1043.068	-2244
1043.129	-1700
1043.190	-1866
1043.251	-1662
1043.312	-2359
1043.373	-1789
1043.434	-1847
1043.495	-1237
1043.556	-1460
1043.616	-1367
1043.677	-2024
1043.738	-2374
1043.799	-2531
1043.859	-1655
1043.920	-2131
1043.981	-2252
1044.041	-2396
1044.102	-2229
1044.162	-1735
1044.223	-1739
1044.284	-1684
1044.344	-1475
1044.405	-1877
1044.465	-1873
1044.525	-1493
1044.586	-1700
1044.646	-1511
1044.707	-1915
1044.767	-1311
1044.827	-1608
1044.887	-2471
1044.948	-1336
1045.008	-1709
1045.068	-1782
1045.128	-2196
1045.188	-1579
1045.249	-1701
1045.309	-2285
1045.369	-2187
1045.429	-1390
1045.489	-1693
1045.549	-2263
1045.609	-1645
1045.669	-1712
1045.729	-1730
1045.789	-1187
1045.848	-2082
1045.908	-1433
1045.968	-2120
1046.028	-1640
1046.088	-1541
1046.147	-855
1046.207	-2156
1046.267	-1877
1046.326	-759
1046.386	-843
1046.446	-940
1046.505	-1382
1046.565	-849
1046.624	-851
1046.684	-920
1046.743	-985
1046.803	-354
1046.862	-244
1046.922	0
