'Start Wavelength	183.907
'End Wavelength	1046.922
'Gate Delay	5.000
'Gate Width (ms)	1.050
'Laser Output Level	0.000
'X Position	0.000
'Y Position	0.000
'Z Position	0.000
'Grid Point Number	1.000
'Shot Number	100.000
183.907	1302.000
183.977	3.000
184.047	176
184.116	524
184.186	250
184.256	-180
184.325	206
184.395	-650
184.465	559
184.534	175
184.604	113
184.674	622
184.743	399
184.813	499
184.883	3
184.952	-507
185.022	257
185.092	762
185.161	303
185.231	334
185.301	268
185.370	650
185.440	-394
185.509	32
185.579	-164
185.649	358
185.718	120
185.788	474
185.857	161
185.927	690
185.996	364
186.066	-23
186.136	160
186.205	373
186.275	39
186.344	1048
186.414	96
186.483	198
186.553	757
186.622	1231
186.692	19
186.761	403
186.831	85
186.900	15
186.970	659
187.039	1140
187.109	561
187.178	256
187.248	49
187.317	568
187.387	642
187.456	188
187.526	791
187.595	322
187.664	461
187.734	1105
187.803	9
187.873	266
187.942	1092
188.012	385
188.081	568
188.150	-167
188.220	692
188.289	1276
188.358	1991
188.428	456
188.497	203
188.567	1213
188.636	725
188.705	321
188.775	1076
188.844	295
188.913	657
188.983	69
189.052	168
189.121	-264
189.191	-28
189.260	972
189.329	1006
189.399	277
189.468	838
189.537	378
189.606	1285
189.676	757
189.745	1136
189.814	1246
189.883	541
189.953	774
190.022	946
190.091	2736
190.161	2888
190.230	1144
190.299	962
190.368	1042
190.437	333
190.507	363
190.576	74
190.645	879
190.714	-16
190.783	398
190.853	505
190.922	1059
190.991	1009
191.060	218
191.129	593
191.198	485
191.268	309
191.337	611
191.406	961
191.475	652
191.544	181
191.613	121
191.682	549
191.752	102
191.821	707
191.890	720
191.959	826
192.028	389
192.097	1067
192.166	1148
192.235	488
192.304	1262
192.373	1233
192.442	-107
192.511	1200
192.580	-87
192.650	737
192.719	236
192.788	520
192.857	646
192.926	397
192.995	1253
193.064	1243
193.133	1416
193.202	2268
193.271	2037
193.340	1433
193.409	1279
193.478	2201
193.547	2338
193.615	3382
193.684	3560
193.753	2042
193.822	557
193.891	1212
193.960	1247
194.029	693
194.098	1470
194.167	777
194.236	902
194.305	302
194.374	439
194.443	966
194.512	1055
194.580	604
194.649	1515
194.718	1194
194.787	532
194.856	666
194.925	1563
194.994	1317
195.062	1161
195.131	1186
195.200	1865
195.269	1661
195.338	965
195.407	1383
195.475	997
195.544	1959
195.613	1728
195.682	1089
195.751	1663
195.819	2065
195.888	1434
195.957	2593
196.026	1083
196.094	2632
196.163	2439
196.232	2354
196.301	1426
196.369	1544
196.438	1761
196.507	1220
196.576	427
196.644	850
196.713	872
196.782	1503
196.850	991
196.919	547
196.988	1280
197.056	721
197.125	1029
197.194	1427
197.262	348
197.331	1452
197.400	1087
197.468	1257
197.537	616
197.606	1889
197.674	1832
197.743	3392
197.812	1796
197.880	3616
197.949	1873
198.017	2753
198.086	1101
198.155	786
198.223	1756
198.292	3577
198.360	1419
198.429	1910
198.497	1297
198.566	3437
198.635	3950
198.703	2230
198.772	2047
198.840	4660
198.909	3236
198.977	1322
199.046	1464
199.114	1749
199.183	1445
199.251	373
199.320	1415
199.388	497
199.457	1291
199.525	1718
199.594	949
199.662	794
199.731	1711
199.799	2551
199.867	1361
199.936	1447
200.004	1018
200.073	837
200.141	1054
200.210	492
200.278	1002
200.346	1335
200.415	1944
200.483	1994
200.552	1550
200.620	1838
200.688	1491
200.757	1610
200.825	1080
200.893	1409
200.962	1116
201.030	1230
201.098	1354
201.167	1422
201.235	1747
201.303	975
201.372	2435
201.440	1823
201.508	2375
201.577	1681
201.645	1479
201.713	943
201.781	1357
201.850	2474
201.918	1020
201.986	2109
202.055	1261
202.123	2131
202.191	1769
202.259	821
202.327	1740
202.396	1471
202.464	946
202.532	2759
202.600	5703
202.669	3381
202.737	1719
202.805	2232
202.873	1935
202.941	2235
203.009	1106
203.078	1237
203.146	1192
203.214	1491
203.282	530
203.350	2236
203.418	1959
203.487	1215
203.555	1645
203.623	1552
203.691	1684
203.759	1031
203.827	951
203.895	1375
203.963	2247
204.031	2442
204.099	1000
204.168	874
204.236	2444
204.304	2572
204.372	1096
204.440	1727
204.508	588
204.576	1439
204.644	1241
204.712	616
204.780	1415
204.848	1629
204.916	1360
204.984	2486
205.052	1407
205.120	1730
205.188	1805
205.256	1479
205.324	1879
205.392	1328
205.460	1698
205.528	2290
205.596	1863
205.664	1266
205.732	1592
205.799	4267
205.867	7674
205.935	2470
206.003	1990
206.071	1886
206.139	1352
206.207	1695
206.275	1772
206.343	1857
206.411	1138
206.478	1646
206.546	1710
206.614	1571
206.682	2333
206.750	1603
206.818	3125
206.885	2154
206.953	-65
207.021	1842
207.089	1271
207.157	1151
207.225	1386
207.292	1491
207.360	1590
207.428	1077
207.496	1361
207.563	1923
207.631	2186
207.699	1666
207.767	2026
207.834	1078
207.902	1765
207.970	2483
208.038	1817
208.105	1930
208.173	2675
208.241	3294
208.309	3316
208.376	3170
208.444	4360
208.512	3188
208.579	1941
208.647	2567
208.715	2996
208.782	2691
208.850	2331
208.918	2936
208.985	2132
209.053	2442
209.120	2693
209.188	2438
209.256	2167
209.323	2309
209.391	2363
209.459	3440
209.526	2545
209.594	2100
209.661	2414
209.729	2400
209.796	1840
209.864	2022
209.932	2430
209.999	3215
210.067	1711
210.134	3060
210.202	3060
210.269	4285
210.337	4056
210.404	2861
210.472	2509
210.539	2144
210.607	2429
210.674	2373
210.742	2969
210.809	2629
210.877	2671
210.944	3242
211.012	2290
211.079	3754
211.146	2444
211.214	2802
211.281	3338
211.349	3731
211.416	2662
211.484	3540
211.551	3261
211.618	3561
211.686	3491
211.753	2369
211.821	3300
211.888	3070
211.955	2244
212.023	2233
212.090	2418
212.157	2815
212.225	3387
212.292	5727
212.359	9276
212.427	19334
212.494	9099
212.561	4332
212.629	3572
212.696	3967
212.763	3330
212.831	2588
212.898	3118
212.965	2527
213.032	3324
213.100	2700
213.167	2631
213.234	3821
213.301	2919
213.369	2880
213.436	2461
213.503	2324
213.570	3278
213.638	3618
213.705	2756
213.772	1804
213.839	3475
213.906	4414
213.973	5140
214.041	2619
214.108	3518
214.175	3323
214.242	2792
214.309	3217
214.376	3623
214.444	3226
214.511	3628
214.578	2747
214.645	3516
214.712	4248
214.779	3531
214.846	3578
214.913	4494
214.980	3598
215.048	3946
215.115	5330
215.182	5272
215.249	3183
215.316	3223
215.383	3379
215.450	2966
215.517	2883
215.584	2790
215.651	3136
215.718	3655
215.785	4076
215.852	3540
215.919	4093
215.986	5069
216.053	3793
216.120	3164
216.187	3657
216.254	3770
216.321	3737
216.388	3786
216.455	3898
216.522	3738
216.589	4297
216.656	7690
216.722	6558
216.789	5175
216.856	4242
216.923	4771
216.990	5081
217.057	4029
217.124	6213
217.191	5354
217.258	6243
217.324	6232
217.391	6487
217.458	5281
217.525	4036
217.592	4549
217.659	3885
217.725	4775
217.792	5732
217.859	5225
217.926	3453
217.993	3257
218.059	4198
218.126	3178
218.193	2311
218.260	2752
218.327	3537
218.393	2907
218.460	3385
218.527	2491
218.594	3027
218.660	6109
218.727	6071
218.794	2761
218.860	3298
218.927	3688
218.994	2275
219.061	3662
219.127	4117
219.194	5873
219.261	3140
219.327	2234
219.394	2647
219.461	2091
219.527	2154
219.594	3977
219.661	3097
219.727	2136
219.794	3238
219.860	3086
219.927	2884
219.994	4770
220.060	7497
220.127	6352
220.193	5057
220.260	4170
220.326	6334
220.393	9077
220.460	9655
220.526	7278
220.593	6298
220.659	6834
220.726	6223
220.792	11945
220.859	11231
220.925	14599
220.992	16195
221.058	15248
221.125	15723
221.191	11200
221.258	6254
221.324	4275
221.391	4685
221.457	3444
221.524	4342
221.590	5398
221.657	13262
221.723	9327
221.789	9029
221.856	8928
221.922	5190
221.989	4126
222.055	3412
222.121	3003
222.188	5910
222.254	4589
222.321	3746
222.387	2930
222.453	2887
222.520	2751
222.586	2823
222.652	3507
222.719	2237
222.785	2948
222.851	2220
222.918	2136
222.984	3988
223.050	3601
223.116	1953
223.183	2981
223.249	2402
223.315	2108
223.382	3670
223.448	1695
223.514	2209
223.580	2619
223.647	2259
223.713	2159
223.779	2642
223.845	2396
223.911	3089
223.978	2047
224.044	3092
224.110	2466
224.176	2175
224.242	2405
224.309	2156
224.375	3169
224.441	2513
224.507	1917
224.573	2044
224.639	2839
224.705	1728
224.772	2247
224.838	2040
224.904	3525
224.970	2534
225.036	2257
225.102	1727
225.168	2464
225.234	2562
225.300	2333
225.366	2731
225.432	2499
225.499	2351
225.565	3123
225.631	2785
225.697	3213
225.763	4011
225.829	4846
225.895	4563
225.961	6759
226.027	5860
226.093	4736
226.159	6296
226.225	9301
226.291	18430
226.357	26287
226.423	15700
226.489	10495
226.554	7479
226.620	6566
226.686	8366
226.752	13052
226.818	19368
226.884	33263
226.950	28517
227.016	14392
227.082	9273
227.148	7186
227.214	7293
227.279	6009
227.345	5673
227.411	4764
227.477	5965
227.543	11055
227.609	11548
227.674	7879
227.740	4631
227.806	5099
227.872	4284
227.938	3959
228.003	5801
228.069	4120
228.135	2842
228.201	3545
228.267	3043
228.332	4531
228.398	5088
228.464	3790
228.530	2645
228.595	2221
228.661	3390
228.727	5624
228.792	5138
228.858	3693
228.924	2759
228.990	4866
229.055	4871
229.121	5304
229.187	3131
229.252	4163
229.318	3336
229.384	3422
229.449	4513
229.515	1574
229.581	1196
229.646	3380
229.712	3264
229.777	7367
229.843	7086
229.909	6199
229.974	7159
230.040	5771
230.105	5397
230.171	5597
230.236	7500
230.302	10121
230.368	7912
230.433	4386
230.499	4811
230.564	5807
230.630	3750
230.695	4286
230.761	4043
230.826	2403
230.892	7007
230.957	4080
231.023	3755
231.088	3449
231.154	3757
231.219	4369
231.284	5221
231.350	6261
231.415	4127
231.481	4359
231.546	3741
231.612	3578
231.677	2504
231.742	1918
231.808	4398
231.873	2448
231.939	1867
232.004	6511
232.069	6729
232.135	3081
232.200	3025
232.265	4049
232.331	3234
232.396	2371
232.461	2413
232.527	2998
232.592	2120
232.657	3548
232.723	4391
232.788	3624
232.853	2961
232.918	2294
232.984	2257
233.049	2363
233.114	4976
233.179	4111
233.245	5833
233.310	6886
233.375	2852
233.440	3161
233.506	2142
233.571	2992
233.636	2475
233.701	3564
233.766	4726
233.832	5558
233.897	3375
233.962	2970
234.027	5760
234.092	4461
234.157	4216
234.222	4222
234.288	5458
234.353	12725
234.418	11534
234.483	8544
234.548	6691
234.613	6018
234.678	5205
234.743	6402
234.808	15286
234.873	9458
234.938	6143
235.004	3964
235.069	4453
235.134	4072
235.199	4205
235.264	3937
235.329	3682
235.394	4246
235.459	5523
235.524	4198
235.589	3993
235.654	3110
235.719	2852
235.784	4367
235.849	4141
235.913	8240
235.978	8563
236.043	8184
236.108	5184
236.173	4483
236.238	5279
236.303	3519
236.368	4288
236.433	6702
236.498	9380
236.563	7619
236.627	14880
236.692	44480
236.757	36545
236.822	16223
236.887	11771
236.952	10134
237.017	7600
237.081	9937
237.146	11649
237.211	21778
237.276	44844
237.341	64322
237.405	34621
237.470	16273
237.535	11073
237.600	7464
237.664	6242
237.729	5371
237.794	7836
237.859	14587
237.923	9640
237.988	5571
238.053	8169
238.118	7178
238.182	18883
238.247	16357
238.312	8286
238.376	7043
238.441	4788
238.506	5798
238.570	3226
238.635	4602
238.700	4140
238.764	4235
238.829	9188
238.893	10119
238.958	6966
239.023	6145
239.087	4704
239.152	4232
239.216	3669
239.281	3747
239.346	4108
239.410	3459
239.475	4339
239.539	17912
239.604	12581
239.668	5674
239.733	3793
239.797	7492
239.862	17624
239.926	17896
239.991	7684
240.055	4372
240.120	4083
240.184	4663
240.249	2835
240.313	3379
240.378	3474
240.442	10967
240.507	16104
240.571	5662
240.635	8695
240.700	10309
240.764	4367
240.829	4478
240.893	2141
240.957	3254
241.022	10571
241.086	16291
241.151	7790
241.215	3791
241.279	5799
241.344	8977
241.408	6217
241.472	5330
241.537	6490
241.601	5701
241.665	3980
241.730	4974
241.794	5990
241.858	5860
241.922	5116
241.987	5378
242.051	4045
242.115	4773
242.179	5142
242.244	3883
242.308	4915
242.372	5183
242.436	5922
242.501	4828
242.565	4081
242.629	4058
242.693	5253
242.757	3615
242.822	4581
242.886	4941
242.950	4732
243.014	4550
243.078	6337
243.142	6698
243.206	4686
243.271	5668
243.335	5167
243.399	8604
243.463	29682
243.527	67245
243.591	24527
243.655	10028
243.719	6805
243.783	7567
243.847	11796
243.911	14335
243.975	17121
244.040	11114
244.104	8230
244.168	5464
244.232	9160
244.296	12480
244.360	13804
244.424	7455
244.488	5521
244.552	5528
244.615	3667
244.679	4297
244.743	6854
244.807	6226
244.871	5185
244.935	4850
244.999	3380
245.063	4240
245.127	6213
245.191	9734
245.255	9763
245.319	8218
245.383	6245
245.446	5712
245.510	4094
245.574	4935
245.638	6173
245.702	6612
245.766	13495
245.829	8793
245.893	4732
245.957	5338
246.021	6447
246.085	5906
246.149	7223
246.212	17895
246.276	25565
246.340	11622
246.404	8273
246.467	9075
246.531	12182
246.595	8048
246.659	8110
246.722	7159
246.786	10918
246.850	11385
246.913	12253
246.977	4894
247.041	6156
247.104	6288
247.168	6969
247.232	17340
247.295	33561
247.359	15793
247.423	9397
247.486	14754
247.550	10498
247.614	6710
247.677	9954
247.741	7141
247.804	6359
247.868	7424
247.932	15715
247.995	31067
248.059	11928
248.122	6845
248.186	8907
248.249	14537
248.313	51051
248.376	51888
248.440	34206
248.503	13003
248.567	11878
248.630	15908
248.694	23334
248.757	28742
248.821	54446
248.884	34213
248.948	31002
249.011	41811
249.075	62657
249.138	52485
249.202	22386
249.265	13930
249.328	13927
249.392	12408
249.455	11321
249.519	8816
249.582	11875
249.645	18431
249.709	14177
249.772	8753
249.835	9494
249.899	9414
249.962	8713
250.025	8620
250.089	21456
250.152	28630
250.215	15169
250.279	11415
250.342	11501
250.405	11177
250.468	10345
250.532	12691
250.595	20562
250.658	69709
250.721	98165
250.785	41888
250.848	21974
250.911	12273
250.974	12450
251.038	17920
251.101	34132
251.164	18138
251.227	18498
251.290	17639
251.354	26219
251.417	91832
251.480	86239
251.543	68721
251.606	148114
251.669	113183
251.732	52220
251.795	49548
251.859	49863
251.922	101928
251.985	59946
252.048	25932
252.111	19033
252.174	18570
252.237	32888
252.300	64058
252.363	74377
252.426	121640
252.489	57756
252.552	29472
252.615	20275
252.678	21291
252.741	49710
252.804	67650
252.867	128785
252.930	82636
252.993	43407
253.056	26876
253.119	19908
253.182	15670
253.245	28399
253.308	20654
253.371	18915
253.434	16535
253.497	17464
253.559	30980
253.622	22225
253.685	28117
253.748	28002
253.811	14400
253.874	16823
253.937	14063
254.000	13102
254.062	23047
254.125	32241
254.188	31955
254.251	25629
254.314	12272
254.376	24292
254.439	25689
254.502	22093
254.565	23673
254.628	39026
254.690	23666
254.753	13442
254.816	11040
254.878	11745
254.941	24011
255.004	23027
255.067	11223
255.129	11533
255.192	6687
255.255	6655
255.317	8875
255.380	6495
255.443	5224
255.505	5395
255.568	4707
255.631	5423
255.693	6527
255.756	5296
255.819	5384
255.881	4556
255.944	4159
256.006	4736
256.069	4387
256.132	4388
256.194	6686
256.257	15532
256.319	10727
256.382	10994
256.444	8324
256.507	6961
256.569	6342
256.632	6469
256.694	10048
256.757	26473
256.819	71221
256.882	31631
256.944	14066
257.007	11322
257.069	12180
257.132	8058
257.194	7351
257.257	7490
257.319	6999
257.381	7911
257.444	19241
257.506	82812
257.569	89784
257.631	46566
257.693	25133
257.756	12295
257.818	9708
257.880	7711
257.943	6806
258.005	6956
258.067	6535
258.130	6294
258.192	7956
258.254	15682
258.317	9639
258.379	6912
258.441	19979
258.503	16899
258.566	20951
258.628	23099
258.690	7451
258.753	9059
258.815	16047
258.877	10164
258.939	6363
259.001	6824
259.064	6279
259.126	7462
259.188	9654
259.250	7187
259.312	9733
259.375	23293
259.437	13650
259.499	7085
259.561	6764
259.623	7422
259.685	6303
259.747	6813
259.809	19951
259.872	31823
259.934	52271
259.996	45621
260.058	15350
260.120	7517
260.182	5542
260.244	6354
260.306	4114
260.368	5420
260.430	4955
260.492	14118
260.554	22938
260.616	15245
260.678	29993
260.740	34206
260.802	10363
260.864	8905
260.926	6799
260.988	7651
261.050	6668
261.112	17830
261.174	41069
261.236	26835
261.298	10408
261.359	16965
261.421	21163
261.483	7563
261.545	7415
261.607	4687
261.669	5345
261.731	11011
261.793	24915
261.854	12417
261.916	9124
261.978	8083
262.040	8241
262.102	6519
262.164	9684
262.225	7871
262.287	5709
262.349	17189
262.411	12253
262.472	6830
262.534	11074
262.596	20800
262.658	8670
262.719	5109
262.781	8342
262.843	19910
262.904	9442
262.966	7159
263.028	7876
263.090	45923
263.151	104332
263.213	37631
263.275	21497
263.336	9477
263.398	6902
263.459	3938
263.521	6471
263.583	16397
263.644	12072
263.706	5484
263.767	4052
263.829	4862
263.891	3371
263.952	2956
264.014	3812
264.075	9062
264.137	21284
264.198	10379
264.260	3811
264.321	4892
264.383	14122
264.444	33100
264.506	10993
264.567	6086
264.629	14062
264.690	27024
264.752	10799
264.813	7198
264.875	5146
264.936	5508
264.998	4670
265.059	4430
265.120	4243
265.182	8031
265.243	40565
265.305	37119
265.366	11662
265.427	6966
265.489	7164
265.550	3910
265.611	5847
265.673	6403
265.734	5353
265.795	4478
265.857	2937
265.918	4801
265.979	10296
266.040	63804
266.102	49153
266.163	17123
266.224	13502
266.286	7582
266.347	4934
266.408	5349
266.469	5037
266.530	3916
266.592	4251
266.653	11211
266.714	17895
266.775	7348
266.836	4795
266.898	4709
266.959	9417
267.020	6208
267.081	6119
267.142	4720
267.203	4556
267.264	4093
267.326	5748
267.387	5038
267.448	4084
267.509	5086
267.570	5236
267.631	4112
267.692	3751
267.753	4370
267.814	3547
267.875	10889
267.936	21914
267.997	14743
268.058	11735
268.119	7504
268.180	6910
268.241	4717
268.302	4753
268.363	4004
268.424	4840
268.485	5356
268.546	3620
268.607	3923
268.668	3508
268.729	3629
268.790	4253
268.851	5971
268.912	14452
268.972	16809
269.033	10113
269.094	4719
269.155	3947
269.216	3501
269.277	4438
269.338	3933
269.398	3948
269.459	5625
269.520	7957
269.581	10605
269.642	13021
269.702	8597
269.763	6975
269.824	5054
269.885	8298
269.945	12030
270.006	5328
270.067	4458
270.128	4224
270.188	4040
270.249	4205
270.310	3723
270.370	4452
270.431	3716
270.492	3858
270.553	4951
270.613	11783
270.674	22631
270.734	9693
270.795	5854
270.856	8500
270.916	6690
270.977	5210
271.038	6447
271.098	6328
271.159	11214
271.219	9737
271.280	5262
271.340	5124
271.401	5443
271.462	11516
271.522	7139
271.583	5789
271.643	5078
271.704	5024
271.764	6472
271.825	17177
271.885	54514
271.946	65111
272.006	23618
272.066	33098
272.127	50370
272.187	17389
272.248	9742
272.308	9938
272.369	35930
272.429	19386
272.489	16051
272.550	16178
272.610	17983
272.671	13036
272.731	10799
272.791	16702
272.852	10876
272.912	10294
272.972	6133
273.033	6055
273.093	10690
273.153	10143
273.214	7839
273.274	7731
273.334	29828
273.394	51088
273.455	22296
273.515	21899
273.575	46675
273.635	19128
273.696	25632
273.756	47104
273.816	19566
273.876	11878
273.936	21938
273.997	33745
274.057	10732
274.117	9387
274.177	14123
274.237	63823
274.297	47316
274.358	32119
274.418	40611
274.478	29592
274.538	11307
274.598	8767
274.658	27734
274.718	34401
274.778	14224
274.838	8067
274.898	17200
274.958	46130
275.018	49276
275.078	29777
275.138	13951
275.198	8110
275.258	5903
275.318	7769
275.378	16305
275.438	17075
275.498	10541
275.558	24247
275.618	48258
275.678	32398
275.738	23545
275.798	17506
275.858	9785
275.918	4576
275.978	8163
276.038	7560
276.098	4410
276.157	14479
276.217	38014
276.277	17308
276.337	12426
276.397	7537
276.457	9130
276.517	5990
276.576	4835
276.636	4672
276.696	9928
276.756	23104
276.815	16217
276.875	8396
276.935	9400
276.995	7849
277.055	5825
277.114	5690
277.174	9112
277.234	29515
277.293	13420
277.353	7601
277.413	6485
277.472	6838
277.532	6831
277.592	7414
277.651	29848
277.711	48583
277.771	17205
277.830	64384
277.890	43407
277.950	35216
278.009	89195
278.069	31745
278.128	39130
278.188	50830
278.248	22619
278.307	61036
278.367	31004
278.426	10800
278.486	8168
278.545	6704
278.605	5743
278.664	5739
278.724	6441
278.783	21504
278.843	47999
278.902	14261
278.962	10775
279.021	10922
279.081	11922
279.140	11618
279.199	12173
279.259	11769
279.318	11284
279.378	14050
279.437	24173
279.496	84877
279.556	230651
279.615	165260
279.675	48915
279.734	28253
279.793	42721
279.853	61254
279.912	23584
279.971	14561
280.031	12462
280.090	27027
280.149	41391
280.208	32858
280.268	161714
280.327	144307
280.386	39108
280.445	31419
280.505	26546
280.564	13155
280.623	11237
280.682	18091
280.742	24951
280.801	9869
280.860	7548
280.919	6551
280.978	7001
281.037	6332
281.097	5496
281.156	5151
281.215	5588
281.274	7298
281.333	33615
281.392	22863
281.451	8079
281.510	5954
281.569	5158
281.628	4528
281.688	4549
281.747	6995
281.806	6480
281.865	4837
281.924	5011
281.983	4903
282.042	4523
282.101	4200
282.160	4258
282.219	4206
282.278	5769
282.337	21140
282.396	13366
282.454	5834
282.513	8197
282.572	30784
282.631	16425
282.690	6683
282.749	5794
282.808	7539
282.867	7202
282.926	6767
282.985	5212
283.043	3941
283.102	4735
283.161	5564
283.220	15135
283.279	30445
283.338	10295
283.396	6915
283.455	6902
283.514	7653
283.573	11664
283.631	8570
283.690	6833
283.749	5793
283.808	15366
283.866	15468
283.925	6148
283.984	7134
284.043	9821
284.101	9760
284.160	7350
284.219	9941
284.277	8524
284.336	14717
284.395	43927
284.453	31650
284.512	15341
284.570	20880
284.629	18184
284.688	17922
284.746	20028
284.805	23460
284.863	29718
284.922	37124
284.981	43965
285.039	64279
285.098	108505
285.156	206595
285.215	225900
285.273	233002
285.332	204128
285.390	128126
285.449	82311
285.507	56682
285.566	41375
285.624	30633
285.683	24235
285.741	19584
285.799	17359
285.858	15375
285.916	14135
285.975	11879
286.033	11109
286.091	8628
286.150	8195
286.208	8696
286.267	10170
286.325	10035
286.383	15470
286.442	12068
286.500	7714
286.558	6329
286.616	6540
286.675	9344
286.733	8046
286.791	7064
286.850	8610
286.908	11466
286.966	16920
287.024	7743
287.083	6323
287.141	4740
287.199	5542
287.257	9444
287.315	7151
287.374	7545
287.432	19557
287.490	11449
287.548	7543
287.606	5630
287.664	6069
287.723	9508
287.781	11342
287.839	7605
287.897	8633
287.955	10176
288.013	14428
288.071	30316
288.129	142425
288.187	315602
288.245	145947
288.303	54101
288.361	29784
288.419	21312
288.477	13606
288.535	9305
288.593	7438
288.651	6727
288.709	5250
288.767	5662
288.825	5891
288.883	4761
288.941	5617
288.999	4743
289.057	3857
289.115	4060
289.173	4896
289.231	4822
289.289	4812
289.346	4857
289.404	6352
289.462	11168
289.520	9824
289.578	5228
289.636	3119
289.694	3865
289.751	2302
289.809	3975
289.867	3827
289.925	6387
289.983	6374
290.040	3250
290.098	3337
290.156	5745
290.214	6296
290.271	3480
290.329	3987
290.387	3733
290.444	3748
290.502	2001
290.560	3443
290.617	3513
290.675	3851
290.733	3462
290.790	4338
290.848	3460
290.906	4596
290.963	4661
291.021	3997
291.078	3496
291.136	3705
291.194	18815
291.251	33844
291.309	10013
291.366	4001
291.424	4249
291.481	5073
291.539	5207
291.596	4295
291.654	3031
291.711	2487
291.769	4220
291.826	10641
291.884	6537
291.941	4199
291.999	4027
292.056	5360
292.114	5179
292.171	3827
292.228	4585
292.286	5698
292.343	12600
292.401	13953
292.458	7666
292.515	5351
292.573	8090
292.630	6141
292.687	6203
292.745	4385
292.802	6812
292.859	19791
292.917	35330
292.974	18505
293.031	6279
293.089	5215
293.146	4490
293.203	3644
293.260	2318
293.318	5998
293.375	8656
293.432	5617
293.489	3911
293.546	3686
293.604	6197
293.661	21945
293.718	53266
293.775	25146
293.832	13541
293.889	11562
293.947	10420
294.004	7458
294.061	6857
294.118	16963
294.175	35643
294.232	42534
294.289	16558
294.346	9710
294.403	8019
294.460	6836
294.517	5373
294.574	5329
294.631	3620
294.688	4382
294.745	15967
294.802	63091
294.859	62106
294.916	24639
294.973	13684
295.030	11410
295.087	9270
295.144	6669
295.201	5570
295.258	3866
295.315	6481
295.372	24698
295.429	41053
295.486	16906
295.542	9851
295.599	30100
295.656	44915
295.713	32711
295.770	39451
295.827	14683
295.883	8344
295.940	8262
295.997	14958
296.054	12822
296.111	6846
296.167	5643
296.224	4319
296.281	4335
296.338	4145
296.394	4140
296.451	4726
296.508	20005
296.564	34498
296.621	21875
296.678	53527
296.734	66066
296.791	23209
296.848	12376
296.904	13703
296.961	33379
297.018	49511
297.074	32095
297.131	12911
297.187	9258
297.244	12051
297.301	51135
297.357	75818
297.414	25278
297.470	12041
297.527	8572
297.583	7098
297.640	7446
297.696	5325
297.753	4715
297.809	3704
297.866	3442
297.922	4084
297.979	3657
298.035	4388
298.092	9308
298.148	28615
298.204	24045
298.261	10865
298.317	24755
298.374	58168
298.430	30742
298.486	14756
298.543	10119
298.599	9964
298.656	12390
298.712	21402
298.768	54763
298.824	32822
298.881	12574
298.937	7869
298.993	7348
299.050	9056
299.106	7852
299.162	7277
299.218	7334
299.275	5518
299.331	5955
299.387	12856
299.443	54812
299.500	50609
299.556	21519
299.612	12163
299.668	11038
299.724	15535
299.780	13150
299.837	6912
299.893	12819
299.949	48047
300.005	47082
300.061	45526
300.117	70963
300.173	31070
300.229	15785
300.285	20118
300.341	22258
300.397	10083
300.453	7543
300.510	6598
300.566	6093
300.622	8342
300.678	30965
300.734	50140
300.790	43536
300.845	47743
300.901	32426
300.957	51138
301.013	32972
301.069	12898
301.125	10543
301.181	10725
301.237	8981
301.293	5429
301.349	5087
301.405	5898
301.461	6998
301.516	9841
301.572	9827
301.628	15342
301.684	11372
301.740	21764
301.796	30403
301.851	20037
301.907	34570
301.963	29015
302.019	54011
302.074	139144
302.130	126639
302.186	57246
302.242	25588
302.297	16462
302.353	15462
302.409	30435
302.464	22722
302.520	20666
302.576	54791
302.631	55695
302.687	32386
302.743	13520
302.798	8826
302.854	6608
302.910	6984
302.965	9639
303.021	17644
303.076	15869
303.132	23269
303.187	25244
303.243	12585
303.299	7436
303.354	6349
303.410	6595
303.465	5461
303.521	4575
303.576	5675
303.632	5167
303.687	15993
303.743	46308
303.798	33665
303.853	13949
303.909	8569
303.964	7157
304.020	14172
304.075	18818
304.130	17253
304.186	33133
304.241	32777
304.297	25327
304.352	12991
304.358	12570
304.407	9151
304.449	9184
304.463	9198
304.518	9363
304.539	8164
304.573	6226
304.629	7216
304.630	7320
304.684	12689
304.720	30204
304.739	38878
304.794	49622
304.811	42238
304.850	23997
304.902	11861
304.905	11136
304.960	8897
304.992	8262
305.015	7828
305.071	8389
305.083	8113
305.126	6895
305.173	4985
305.181	4712
305.236	4826
305.264	5136
305.292	5607
305.347	8372
305.354	8606
305.402	9764
305.445	9623
305.457	9635
305.512	11377
305.535	11442
305.567	11314
305.622	11326
305.626	11699
305.678	22837
305.716	47069
305.733	55157
305.788	52596
305.807	46096
305.843	35973
305.897	51403
305.898	51556
305.953	44569
305.988	30050
306.008	22645
306.063	16321
306.078	14747
306.118	11106
306.168	7848
306.173	7614
306.228	5996
306.259	5724
306.283	5622
306.338	5135
306.349	5253
306.393	6265
306.440	7442
306.448	7570
306.503	7635
306.530	8153
306.558	11512
306.613	27302
306.620	29416
306.668	44134
306.711	58145
306.723	58505
306.778	41306
306.801	31739
306.833	21746
306.888	11384
306.892	10858
306.943	8240
306.982	7593
306.997	7429
307.052	6687
307.072	6602
307.107	7196
307.162	9827
307.163	9868
307.217	15456
307.253	18694
307.272	19544
307.327	20684
307.343	19554
307.381	16488
307.434	14958
307.436	15494
307.491	33428
307.524	49100
307.546	53359
307.600	50066
307.614	45948
307.655	28467
307.704	13699
307.710	13463
307.765	16630
307.795	20871
307.819	25604
307.874	38977
307.885	39268
307.929	31324
307.975	23597
307.984	24419
308.038	34383
308.065	41722
308.093	71774
308.148	152765
308.156	169441
308.202	262209
308.246	311876
308.257	297756
308.312	167480
308.336	117851
308.366	94167
308.421	60001
308.426	56764
308.475	36613
308.517	24100
308.530	22749
308.585	20158
308.607	19413
308.639	19559
308.694	21473
308.697	21764
308.748	38204
308.787	53570
308.803	53498
308.857	41740
308.877	36582
308.912	33687
308.967	34124
308.967	34098
309.021	48601
309.058	60438
309.076	76496
309.130	131551
309.148	152502
309.185	241100
309.238	389657
309.239	391336
309.293	422155
309.328	407324
309.348	353909
309.402	190616
309.418	146784
309.457	108588
309.508	69312
309.511	68897
309.566	66230
309.598	67525
309.620	80765
309.674	119334
309.688	129196
309.729	125869
309.778	110628
309.783	108106
309.837	75281
309.868	58017
309.892	65204
309.946	88158
309.959	94856
310.001	120763
310.049	142946
310.055	137304
310.109	77276
310.139	44679
310.163	36625
310.218	22764
310.229	20309
310.272	16783
310.319	13160
310.326	12931
310.381	11772
310.409	11235
310.435	10594
310.489	9395
310.499	9232
310.543	10316
310.589	11452
310.598	11466
310.652	11395
310.679	11078
310.706	10172
310.760	8586
310.769	8338
310.814	7851
310.859	7366
310.868	7516
310.923	8341
310.948	8721
310.977	9614
311.031	11476
311.038	11697
311.085	11078
311.128	10326
311.139	10237
311.193	9542
311.218	9304
311.247	8944
311.301	8172
311.308	8063
311.356	8163
311.398	8253
311.410	8143
311.464	7462
311.488	7132
311.518	7711
311.572	8857
311.578	8982
311.626	13956
311.668	18190
311.680	17627
311.734	14759
311.758	13458
311.788	13465
311.842	13394
311.847	13365
311.896	17439
311.937	20982
311.950	21057
312.004	21040
312.027	20966
312.058	17732
312.112	11907
312.117	11299
312.165	10416
312.207	9626
312.297	15325
312.386	13283
312.476	12839
312.566	29298
312.656	14180
312.745	7797
312.835	9275
312.925	12004
313.015	9342
313.104	10243
313.194	8559
313.284	10138
313.374	14861
313.463	13724
313.553	9498
313.643	9008
313.732	7511
313.822	7784
313.912	9626
314.001	12124
314.091	12338
314.180	17802
314.270	15285
314.360	17171
314.449	14354
314.539	9151
314.628	8112
314.718	10674
314.808	12696
314.897	9198
314.987	9680
315.076	13688
315.166	17762
315.255	14544
315.345	16237
315.434	14079
315.524	12513
315.613	16733
315.703	21588
315.792	28788
315.881	64975
315.971	27815
316.060	28887
316.150	34616
316.239	34002
316.328	14441
316.418	9017
316.507	10788
316.597	15614
316.686	14520
316.775	17292
316.865	35564
316.954	9643
317.043	8406
317.133	10959
317.222	9076
317.311	8210
317.400	8451
317.490	13812
317.579	17888
317.668	11236
317.757	19217
317.847	41985
317.936	117419
318.025	60270
318.114	32355
318.203	23020
318.293	35028
318.382	75494
318.471	54968
318.560	69094
318.649	105717
318.738	23779
318.828	16474
318.917	17414
319.006	19434
319.095	50732
319.184	133857
319.273	82653
319.362	47180
319.451	14077
319.540	14948
319.629	38922
319.718	62363
319.807	21882
319.896	51509
319.985	165438
320.074	66046
320.163	17070
320.252	25562
320.341	21942
320.430	23642
320.519	33323
320.608	19577
320.697	14330
320.786	16034
320.875	20220
320.964	27899
321.053	43045
321.142	63987
321.230	65130
321.319	47276
321.408	113481
321.497	43741
321.586	42435
321.675	41902
321.764	41313
321.852	28157
321.941	64772
322.030	40902
322.119	44172
322.207	115844
322.296	61183
322.385	30970
322.474	43416
322.562	142883
322.651	68065
322.740	47813
322.829	66188
322.917	53131
323.006	37738
323.095	34959
323.183	19318
323.272	30409
323.361	57527
323.449	143113
323.538	47288
323.626	102179
323.715	61701
323.804	23874
323.892	93667
323.981	59633
324.069	16400
324.158	47118
324.246	43824
324.335	23818
324.424	42599
324.512	14354
324.601	18176
324.689	30793
324.778	53932
324.866	40266
324.954	12474
325.043	13543
325.131	24450
325.220	37461
325.308	42897
325.397	34579
325.485	22376
325.574	10154
325.662	9671
325.750	13172
325.839	10259
325.927	8690
326.015	12971
326.104	16165
326.192	22224
326.280	9578
326.369	9218
326.457	17938
326.545	35063
326.634	15064
326.722	7363
326.810	10246
326.898	9408
326.987	11549
327.075	31009
327.163	27321
327.251	10923
327.340	19187
327.428	26994
327.516	8647
327.604	9715
327.692	9402
327.781	9886
327.869	18537
327.957	13100
328.045	14948
328.133	7115
328.221	9979
328.309	10006
328.397	8678
328.485	12206
328.574	19392
328.662	73994
328.750	36853
328.838	12501
328.926	8604
329.014	8526
329.102	15409
329.190	39291
329.278	29094
329.366	8820
329.454	8064
329.542	8265
329.630	8494
329.718	10266
329.806	15782
329.893	15073
329.981	17298
330.069	30461
330.157	132993
330.245	360115
330.333	203489
330.421	37368
330.509	26056
330.597	93583
330.684	61231
330.772	19036
330.860	23418
330.948	31462
331.036	16180
331.123	7558
331.211	7930
331.299	10172
331.387	25699
331.475	50408
331.562	14822
331.650	7565
331.738	9991
331.825	13096
331.913	8048
332.001	6292
332.089	11014
332.176	20052
332.264	45042
332.352	39736
332.439	15969
332.527	11559
332.614	8721
332.702	10765
332.790	8379
332.877	23722
332.965	50558
333.052	21143
333.140	19624
333.228	55251
333.315	16921
333.403	10485
333.490	28138
333.578	32115
333.665	72925
333.753	36385
333.840	11143
333.928	12204
334.015	28298
334.103	43915
334.190	155730
334.278	43899
334.365	19409
334.452	15730
334.540	10701
334.627	13545
334.715	18164
334.802	30892
334.889	157181
334.977	166829
335.064	26244
335.151	15380
335.239	14012
335.326	17624
335.413	76669
335.501	114881
335.588	18090
335.675	12890
335.762	16906
335.850	29796
335.937	21453
336.024	46847
336.111	185560
336.199	86034
336.286	21676
336.373	12931
336.460	9444
336.547	9213
336.635	12584
336.722	12362
336.809	11206
336.896	16288
336.983	50198
337.070	121872
337.157	165267
337.245	107013
337.332	78245
337.419	11626
337.506	8650
337.593	10288
337.680	35033
337.767	124183
337.854	36699
337.941	39266
338.028	43184
338.115	16070
338.202	16933
338.289	28846
338.376	108990
338.463	35976
338.550	67087
338.637	76889
338.724	21677
338.811	33629
338.898	8826
338.984	7923
339.071	11405
339.158	12908
339.245	42301
339.332	25296
339.419	24077
339.506	24320
339.593	5947
339.679	8016
339.766	8365
339.853	12558
339.940	33231
340.027	10586
340.113	10917
340.200	15609
340.287	10792
340.374	14954
340.460	29503
340.547	11836
340.634	18841
340.720	79889
340.807	51699
340.894	7595
340.980	8962
341.067	8999
341.154	10756
341.240	16968
341.327	45205
341.414	13824
341.500	16585
341.587	9648
341.674	7939
341.760	26782
341.847	35733
341.933	11434
342.020	4799
342.106	5131
342.193	10896
342.279	22314
342.366	16396
342.452	29967
342.539	14767
342.625	33953
342.712	93275
342.798	39137
342.885	15751
342.971	5765
343.058	5581
343.144	7103
343.230	7112
343.317	8975
343.403	7775
343.490	4798
343.576	6357
343.662	7942
343.749	9947
343.835	11802
343.921	18951
344.008	119315
344.094	297838
344.180	68624
344.267	24561
344.353	79540
344.439	92213
344.525	43942
344.612	17332
344.698	15121
344.784	11556
344.870	6535
344.957	8590
345.043	16187
345.129	12561
345.215	27585
345.301	15956
345.387	10097
345.474	5278
345.560	6026
345.646	8161
345.732	7914
345.818	11567
345.904	9913
345.990	11146
346.076	9076
346.162	19108
346.249	9649
346.335	6565
346.421	7748
346.507	29720
346.593	119935
346.679	32624
346.765	9520
346.851	8971
346.937	10612
347.023	8046
347.108	10912
347.194	10027
347.280	7813
347.366	10987
347.452	30051
347.538	140250
347.624	106921
347.710	91729
347.796	15027
347.882	9020
347.967	7736
348.053	12419
348.139	8112
348.225	7081
348.311	8525
348.397	6941
348.482	9919
348.568	13866
348.654	7639
348.740	10586
348.825	13285
348.911	16064
348.997	59514
349.083	127645
349.168	22496
349.254	9391
349.340	10111
349.425	6705
349.511	11577
349.597	13698
349.682	26308
349.768	89639
349.854	46606
349.939	9354
350.025	6613
350.110	6799
350.196	6383
350.282	6013
350.367	4717
350.453	10785
350.538	12955
350.624	12641
350.709	12656
350.795	6645
350.880	8833
350.966	8704
351.051	13329
351.137	9235
351.222	7993
351.308	27377
351.393	86815
351.479	23871
351.564	9036
351.649	8488
351.735	6023
351.820	6018
351.906	7479
351.991	10803
352.076	48330
352.162	85862
352.247	18273
352.332	11854
352.418	24879
352.503	29206
352.588	116104
352.673	112720
352.759	24469
352.844	12412
352.929	12799
353.014	19946
353.100	11712
353.185	22734
353.270	34289
353.355	36572
353.441	9938
353.526	9791
353.611	27245
353.696	37020
353.781	20192
353.866	10594
353.952	9583
354.037	27893
354.122	67645
354.207	63486
354.292	24748
354.377	9819
354.462	7985
354.547	13905
354.632	12186
354.717	19036
354.802	28936
354.887	12119
354.972	6989
355.057	6255
355.142	5750
355.227	10288
355.312	18013
355.397	42700
355.482	105442
355.567	57240
355.652	33502
355.737	36469
355.822	97284
355.907	91889
355.991	14428
356.076	8747
356.161	7848
356.246	6574
356.331	8794
356.416	19795
356.501	134702
356.585	170505
356.670	27926
356.755	18129
356.840	23312
356.924	105887
357.009	374308
357.094	166009
357.179	37837
357.263	26436
357.348	23221
357.433	25067
357.517	21951
357.602	20137
357.687	13893
357.771	25891
357.856	90010
357.941	57169
358.025	76496
358.110	341402
358.195	191928
358.279	32413
358.364	21329
358.448	70505
358.533	201542
358.617	161075
358.702	143620
358.787	59443
358.871	32778
358.956	30089
359.040	8835
359.125	7652
359.209	9869
359.294	38718
359.378	79944
359.462	32446
359.547	16501
359.631	10404
359.716	8090
359.800	9148
359.885	15062
359.969	11598
360.053	9286
360.138	9029
360.222	14508
360.306	32815
360.391	26624
360.475	47596
360.559	114848
360.644	83949
360.728	64126
360.812	75911
360.896	225537
360.981	110356
361.065	64375
361.149	15931
361.233	16669
361.318	14023
361.402	15214
361.486	13994
361.570	11399
361.654	15837
361.739	37495
361.823	140164
361.907	235349
361.991	50285
362.075	27173
362.159	67291
362.243	50442
362.327	44560
362.411	50430
362.495	28683
362.580	17183
362.664	12079
362.748	12095
362.832	16774
362.916	29029
363.000	79166
363.084	198250
363.168	283912
363.252	80498
363.336	28709
363.420	33747
363.503	102239
363.587	138308
363.671	30409
363.755	21481
363.839	33384
363.923	16880
364.007	34124
364.091	42194
364.175	45753
364.258	175042
364.342	158013
364.426	161434
364.510	94629
364.594	46677
364.677	47957
364.761	182887
364.845	156561
364.929	55509
365.013	50235
365.096	36601
365.180	47881
365.264	42332
365.347	163049
365.431	84492
365.515	24180
365.598	13745
365.682	12182
365.766	19344
365.849	28009
365.933	15019
366.017	18081
366.100	15245
366.184	6485
366.267	9136
366.351	8897
366.435	8125
366.518	8051
366.602	6061
366.685	8672
366.769	11583
366.852	19426
366.936	37405
367.019	24318
367.103	15330
367.186	28952
367.270	10678
367.353	7104
367.436	8871
367.520	8582
367.603	12907
367.687	21154
367.770	39228
367.853	22543
367.937	53633
368.020	105622
368.104	30272
368.187	27384
368.270	42279
368.353	36361
368.437	39437
368.520	70247
368.603	55959
368.687	69635
368.770	146546
368.853	42561
368.936	34521
369.020	37137
369.103	16345
369.186	10788
369.269	12426
369.352	23684
369.436	38086
369.519	24349
369.602	13355
369.685	12706
369.768	15160
369.851	11262
369.934	8634
370.018	13015
370.101	31898
370.184	26403
370.267	16490
370.350	33198
370.433	49059
370.516	100056
370.599	135700
370.682	48188
370.765	80285
370.848	95103
370.931	162865
371.014	73131
371.097	15802
371.180	12265
371.263	7771
371.346	6395
371.429	8426
371.511	9408
371.594	19720
371.677	31575
371.760	34179
371.843	30197
371.926	117271
372.009	296015
372.091	112406
372.174	62318
372.257	140799
372.340	68446
372.423	45293
372.505	56491
372.588	26634
372.671	49579
372.754	160910
372.836	96380
372.919	51740
373.002	109780
373.085	42033
373.167	30709
373.250	71794
373.332	146267
373.415	186072
373.498	384853
373.580	172434
373.663	172727
373.746	265407
373.828	72238
373.911	30378
373.993	30395
374.076	93433
374.159	104580
374.241	45096
374.324	137180
374.406	108743
374.489	100564
374.571	303894
374.654	152480
374.736	61576
374.819	180416
374.901	266298
374.983	297593
375.066	65147
375.148	23436
375.231	71080
375.313	159355
375.395	70506
375.478	18509
375.560	11319
375.643	18658
375.725	53930
375.807	220960
375.890	196678
375.972	77110
376.054	43168
376.136	57457
376.219	31780
376.301	61444
376.383	200751
376.465	94385
376.548	59439
376.630	65658
376.712	170859
376.794	98369
376.877	14148
376.959	8886
377.041	11526
377.123	22176
377.205	30041
377.287	9303
377.369	7743
377.452	9260
377.534	8704
377.616	9001
377.698	8953
377.780	7190
377.862	10033
377.944	10511
378.026	6705
378.108	6878
378.190	6823
378.272	7091
378.354	5756
378.436	6367
378.518	13901
378.600	52470
378.682	49441
378.764	93179
378.846	88544
378.928	25336
379.010	36684
379.091	22015
379.173	9586
379.255	9107
379.337	13658
379.419	45202
379.501	136304
379.583	67528
379.664	16585
379.746	38198
379.828	97752
379.910	136623
379.991	123981
380.073	25802
380.155	14897
380.237	12806
380.318	9123
380.400	11386
380.482	23375
380.564	41654
380.645	38609
380.727	39905
380.809	22226
380.890	17023
380.972	12503
381.053	11713
381.135	13592
381.217	34270
381.298	103920
381.380	63866
381.461	42172
381.543	161846
381.624	236209
381.706	53610
381.787	26938
381.869	30138
381.951	74397
382.032	274351
382.113	212342
382.195	56445
382.276	35470
382.358	65233
382.439	162728
382.521	180800
382.602	275193
382.684	152306
382.765	245625
382.846	349137
382.928	519212
383.009	345483
383.090	233142
383.172	660620
383.253	1001603
383.334	405628
383.416	288686
383.497	183568
383.578	112321
383.659	204077
383.741	588342
383.822	1263609
383.903	794209
383.984	275788
384.066	338808
384.147	240907
384.228	62898
384.309	44956
384.390	36621
384.471	25966
384.553	26388
384.634	33656
384.715	37571
384.796	22316
384.877	25796
384.958	87066
385.039	126667
385.120	52068
385.201	23019
385.282	26873
385.363	27356
385.444	27365
385.525	43167
385.606	123312
385.687	121571
385.768	34232
385.849	38106
385.930	127444
386.011	242129
386.092	83512
386.173	21245
386.254	15256
386.335	16725
386.416	19655
386.496	58348
386.577	109446
386.658	43387
386.739	25781
386.820	22864
386.901	17706
386.981	16768
387.062	13106
387.143	23557
387.224	91516
387.304	101685
387.385	37674
387.466	23337
387.547	29397
387.627	22777
387.708	35755
387.789	150056
387.869	208602
387.950	64596
388.031	14425
388.111	11908
388.192	29392
388.273	43539
388.353	30195
388.434	18423
388.514	32137
388.595	130271
388.676	200287
388.756	110266
388.837	96742
388.917	72504
388.998	15894
389.078	13798
389.159	12057
389.239	12272
389.320	21820
389.400	19232
389.480	34376
389.561	98478
389.641	58879
389.722	19558
389.802	34193
389.883	42847
389.963	107028
390.043	79757
390.124	26113
390.204	37010
390.284	114656
390.365	88145
390.445	78210
390.525	212768
390.605	215825
390.686	74480
390.766	27104
390.846	14679
390.927	10847
391.007	11987
391.087	14006
391.167	16064
391.247	13398
391.328	16825
391.408	27143
391.488	22195
391.568	9607
391.648	16397
391.728	23888
391.808	21457
391.888	26324
391.969	51845
392.049	95621
392.129	45081
392.209	43494
392.289	108049
392.369	72004
392.449	49869
392.529	38040
392.609	30193
392.689	36159
392.769	102842
392.849	106609
392.929	64862
393.009	150787
393.089	139310
393.169	115367
393.248	313300
393.328	972320
393.408	1144129
393.488	410089
393.568	121249
393.648	61055
393.728	39054
393.807	29070
393.887	25280
393.967	22265
394.047	25915
394.127	32023
394.206	47598
394.286	139571
394.366	529646
394.446	663854
394.525	202387
394.605	53646
394.685	37954
394.764	66793
394.844	113628
394.924	95299
395.003	33452
395.083	22720
395.163	19775
395.242	18691
395.322	19854
395.402	15044
395.481	20168
395.561	46823
395.640	130674
395.720	119611
395.799	134600
395.879	122761
395.958	71900
396.038	203272
396.117	685740
396.197	860444
396.276	329485
396.356	113516
396.435	75985
396.515	55230
396.594	62567
396.673	107327
396.753	314752
396.832	908068
396.912	822071
396.991	249467
397.070	67239
397.150	38733
397.229	26804
397.308	32477
397.388	56755
397.467	36345
397.546	15276
397.625	12333
397.705	18180
397.784	20936
397.863	13124
397.942	9258
398.022	10544
398.101	34620
398.180	108372
398.259	68515
398.338	20076
398.417	14622
398.497	10283
398.576	11381
398.655	8147
398.734	8287
398.813	8164
398.892	31592
398.971	113308
399.050	72760
399.129	11067
399.208	6779
399.287	6822
399.366	6324
399.445	6764
399.524	6820
399.603	7722
399.682	16106
399.761	42713
399.840	118100
399.919	107891
399.998	18383
400.077	5829
400.156	5886
400.235	8491
400.313	7169
400.392	10814
400.471	48208
400.550	93406
400.629	30393
400.708	11982
400.786	11238
400.865	26328
400.944	33687
401.023	17693
401.102	5849
401.180	4866
401.259	4998
401.338	6837
401.416	11946
401.495	12014
401.574	8726
401.652	7376
401.731	10658
401.810	11366
401.888	6869
401.967	4571
402.046	7408
402.124	10477
402.203	15699
402.281	9754
402.360	12673
402.438	34719
402.517	28994
402.596	9810
402.674	8961
402.753	6806
402.831	6315
402.910	8358
402.988	32769
403.066	117695
403.145	84310
403.223	36507
403.302	100589
403.380	84629
403.459	78492
403.537	38459
403.615	14571
403.694	5026
403.772	4680
403.850	4603
403.929	4690
404.007	5715
404.085	14928
404.164	21307
404.242	8650
404.320	7532
404.398	18710
404.477	46891
404.555	195285
404.633	211884
404.711	40165
404.789	12657
404.868	9678
404.946	6325
405.024	4056
405.102	4520
405.180	4439
405.258	4101
405.336	4862
405.415	5813
405.493	14049
405.571	16117
405.649	6164
405.727	4848
405.805	9457
405.883	9682
405.961	10843
406.039	11429
406.117	7725
406.195	11490
406.273	47119
406.351	182731
406.429	136132
406.507	23437
406.585	9942
406.663	8935
406.740	13041
406.818	11301
406.896	6846
406.974	7216
407.052	17432
407.130	101919
407.208	173724
407.285	43626
407.363	8045
407.441	7330
407.519	6676
407.596	7919
407.674	16201
407.752	36945
407.830	46705
407.907	25480
407.985	10918
408.063	6289
408.141	4682
408.218	9543
408.296	12509
408.373	9554
408.451	10100
408.529	9688
408.606	5359
408.684	2776
408.762	3379
408.839	2564
408.917	2922
408.994	4139
409.072	5916
409.149	4853
409.227	9168
409.304	12429
409.382	9883
409.459	10046
409.537	14510
409.614	14826
409.692	11803
409.769	10505
409.846	14436
409.924	19606
410.001	18862
410.079	12915
410.156	10295
410.233	9096
410.311	8001
410.388	6569
410.465	8855
410.543	10742
410.620	6282
410.697	6893
410.775	10244
410.852	5276
410.929	8507
411.006	13836
411.083	9148
411.161	20421
411.238	23861
411.315	11300
411.392	6219
411.469	11034
411.547	14212
411.624	7398
411.701	6947
411.778	7508
411.855	18721
411.932	12249
412.009	5590
412.086	5113
412.163	6631
412.240	8334
412.317	10155
412.394	10099
412.471	4952
412.548	3993
412.625	4858
412.702	7615
412.779	16452
412.856	12679
412.933	3731
413.010	3883
413.087	8746
413.164	47092
413.241	82132
413.318	23810
413.395	11593
413.471	18667
413.548	9759
413.625	5309
413.702	7210
413.779	5737
413.855	2708
413.932	2301
414.009	2748
414.086	3373
414.162	4168
414.239	8411
414.316	43895
414.393	110922
414.469	50813
414.546	5602
414.623	3340
414.699	3948
414.776	6825
414.853	4156
414.929	4393
415.006	4617
415.082	5791
415.159	5378
415.236	4869
415.312	5495
415.389	11633
415.465	18523
415.542	10407
415.618	5128
415.695	12421
415.771	7988
415.848	7539
415.924	5698
416.000	5596
416.077	3205
416.153	2240
416.230	944
416.306	1820
416.383	2648
416.459	2765
416.535	2477
416.612	2647
416.688	2951
416.764	3565
416.841	2976
416.917	4148
416.993	4329
417.069	6049
417.146	8943
417.222	12232
417.298	8032
417.374	4534
417.451	5846
417.527	8493
417.603	9834
417.679	6910
417.755	4979
417.831	3488
417.908	2711
417.984	3057
418.060	3229
418.136	14003
418.212	21320
418.288	8405
418.364	4389
418.440	4460
418.516	8792
418.592	11703
418.668	23405
418.744	38077
418.820	30830
418.896	8855
418.972	2428
419.048	4621
419.124	14535
419.200	15415
419.276	4061
419.352	1870
419.428	2531
419.504	4870
419.579	8324
419.655	6102
419.731	7026
419.807	21478
419.883	44834
419.959	34632
420.034	9689
420.110	15518
420.186	64106
420.262	63242
420.337	11704
420.413	8595
420.489	4942
420.565	4794
420.640	3728
420.716	5935
420.792	2815
420.867	5567
420.943	4871
421.019	11287
421.094	9963
421.170	5577
421.245	3893
421.321	6259
421.397	5293
421.472	9546
421.548	20445
421.623	19476
421.699	11360
421.774	11742
421.850	9625
421.925	17323
422.001	17691
422.076	13407
422.152	16173
422.227	27192
422.302	31948
422.378	45129
422.453	80170
422.529	177925
422.604	441767
422.679	657446
422.755	532169
422.830	241446
422.905	94587
422.981	51508
423.056	33095
423.131	24213
423.207	18181
423.282	18265
423.357	27431
423.432	23141
423.508	19206
423.583	39945
423.658	35956
423.733	12518
423.808	12479
423.883	15139
423.959	13040
424.034	10562
424.109	8649
424.184	5651
424.259	4427
424.334	4854
424.409	3793
424.484	5511
424.559	6592
424.634	5177
424.709	7982
424.784	11354
424.859	6964
424.934	10664
425.009	45289
425.084	85504
425.159	37860
425.234	6512
425.309	4926
425.384	20294
425.459	43485
425.534	16517
425.609	4663
425.683	4009
425.758	3867
425.833	5615
425.908	7126
425.983	27793
426.058	86011
426.132	48182
426.207	8955
426.282	10022
426.357	10934
426.431	4360
426.506	3872
426.581	4124
426.655	4348
426.730	4422
426.805	3947
426.879	5565
426.954	5315
427.029	12540
427.103	65564
427.178	169893
427.253	91230
427.327	12986
427.402	14823
427.476	43850
427.551	27484
427.625	7270
427.700	6061
427.774	4518
427.849	5495
427.923	3851
427.998	4339
428.072	6219
428.147	13739
428.221	54322
428.296	163123
428.370	104260
428.444	15374
428.519	15129
428.593	26538
428.667	24695
428.742	26726
428.816	30748
428.890	95809
428.965	187198
429.039	71533
429.113	33508
429.188	15705
429.262	5391
429.336	11412
429.410	38336
429.485	29752
429.559	21782
429.633	21056
429.707	8454
429.781	19741
429.855	106131
429.930	188643
430.004	95851
430.078	117487
430.152	121306
430.226	193403
430.300	230521
430.374	46346
430.448	14444
430.522	34837
430.596	111106
430.670	83522
430.744	159187
430.818	274506
430.892	69118
430.966	11121
431.040	5615
431.114	3030
431.188	3400
431.262	3047
431.336	4604
431.410	11476
431.484	34619
431.557	28870
431.631	6122
431.705	6725
431.779	28489
431.853	131033
431.927	117068
432.000	15453
432.074	5229
432.148	5621
432.222	5228
432.295	3457
432.369	4002
432.443	8563
432.516	55868
432.590	162247
432.664	75175
432.737	9387
432.811	3105
432.885	1901
432.958	2502
433.032	2467
433.106	804
433.179	1659
433.253	2176
433.326	2219
433.400	1225
433.473	1528
433.547	1563
433.620	2555
433.694	8594
433.767	9308
433.841	2821
433.914	2465
433.988	2029
434.061	2768
434.134	2997
434.208	1658
434.281	1516
434.355	1612
434.428	2716
434.501	2381
434.575	1659
434.648	2741
434.721	1923
434.795	1066
434.868	1217
434.941	1032
435.014	1698
435.088	2435
435.161	6456
435.234	10557
435.307	14118
435.381	6664
435.454	5342
435.527	6406
435.600	6839
435.673	5760
435.746	4798
435.819	3992
435.892	3974
435.966	2646
436.039	2304
436.112	2786
436.185	2237
436.258	1468
436.331	934
436.404	848
436.477	788
436.550	1010
436.623	1652
436.696	1421
436.769	3140
436.842	2588
436.915	3039
436.987	5703
437.060	3195
437.133	1409
437.206	1943
437.279	1947
437.352	1618
437.425	1526
437.498	3164
437.570	9417
437.643	10836
437.716	2383
437.789	1781
437.861	8759
437.934	30168
438.007	15976
438.080	2802
438.152	3109
438.225	10312
438.298	68186
438.370	210946
438.443	110707
438.516	30334
438.588	6746
438.661	2767
438.734	2911
438.806	3686
438.879	4721
438.951	7131
439.024	15722
439.096	6703
439.169	2400
439.241	1912
439.314	1906
439.386	4950
439.459	8572
439.531	14449
439.604	6796
439.676	2409
439.749	1108
439.821	1420
439.893	1407
439.966	1543
440.038	4268
440.110	5818
440.183	3317
440.255	2066
440.327	4876
440.400	28964
440.472	133015
440.544	109468
440.617	14711
440.689	11206
440.761	13846
440.833	24958
440.905	17526
440.978	3172
441.050	1377
441.122	2261
441.194	1553
441.266	2413
441.338	2056
441.411	6622
441.483	43597
441.555	79159
441.627	18515
441.699	7357
441.771	7593
441.843	3560
441.915	2359
441.987	2347
442.059	1512
442.131	4786
442.203	7754
442.275	10141
442.347	9621
442.419	13399
442.491	61405
442.563	170426
442.635	86396
442.706	37893
442.778	32054
442.850	6922
442.922	3710
442.994	5893
443.066	9457
443.137	8539
443.209	6072
443.281	10458
443.353	22169
443.425	82395
443.496	293599
443.568	316072
443.640	122627
443.711	24647
443.783	9744
443.855	7523
443.926	4194
443.998	4325
444.070	5503
444.141	6055
444.213	10572
444.285	12486
444.356	8863
444.428	7544
444.499	4702
444.571	2669
444.642	2588
444.714	5405
444.785	8708
444.857	9867
444.928	21629
445.000	15533
445.071	15088
445.143	20989
445.214	15829
445.285	22788
445.357	61595
445.428	188386
445.500	451206
445.571	307213
445.642	160049
445.714	58383
445.785	46032
445.856	18357
445.928	12703
445.999	13124
446.070	11133
446.141	8740
446.213	12947
446.284	7533
446.355	5704
446.426	4445
446.497	3539
446.569	8265
446.640	13380
446.711	12060
446.782	3135
446.853	4116
446.924	5571
446.995	5699
447.066	4493
447.138	8954
447.209	5288
447.280	1481
447.351	696
447.422	1730
447.493	3565
447.564	5012
447.635	8675
447.706	4503
447.777	1988
447.847	1976
447.918	1263
447.989	4962
448.060	6109
448.131	15411
448.202	15114
448.273	12035
448.344	4735
448.414	2528
448.485	2308
448.556	1916
448.627	1878
448.698	2595
448.768	782
448.839	2786
448.910	7255
448.981	8806
449.051	3893
449.122	2432
449.193	1576
449.263	1706
449.334	2231
449.405	4767
449.475	12819
449.546	10222
449.616	9012
449.687	9200
449.758	3827
449.828	3038
449.899	1881
449.969	2386
450.040	1790
450.110	3461
450.181	3917
450.251	2805
450.322	1979
450.392	2334
450.463	2519
450.533	2160
450.604	1562
450.674	2581
450.744	1983
450.815	1677
450.885	1304
450.955	3077
451.026	1716
451.096	1849
451.166	2772
451.237	8431
451.307	22966
451.377	11042
451.447	1662
451.518	1389
451.588	2365
451.658	3130
451.728	4896
451.799	22407
451.869	29443
451.939	6277
452.009	1977
452.079	2759
452.149	1941
452.219	6146
452.289	27762
452.360	24023
452.430	4538
452.500	3782
452.570	5348
452.640	7831
452.710	22310
452.780	37461
452.850	26728
452.920	26782
452.990	7906
453.060	4421
453.129	6824
453.199	9086
453.269	26354
453.339	67184
453.409	108070
453.479	93077
453.549	145897
453.619	158872
453.688	64975
453.758	9677
453.828	3310
453.898	2824
453.968	3199
454.037	1828
454.087	2703
454.107	3061
454.168	1489
454.177	1253
454.247	1812
454.249	1813
454.316	1487
454.330	1836
454.386	3073
454.411	6551
454.456	12232
454.492	17244
454.525	21779
454.574	11610
454.595	7208
454.655	3411
454.665	2805
454.734	3906
454.736	4036
454.804	7403
454.817	10408
454.873	22328
454.898	24810
454.943	29236
454.979	18613
455.013	9108
455.060	5549
455.082	4113
455.141	5226
455.152	5289
455.221	14509
455.222	14776
455.291	32445
455.303	29108
455.360	14408
455.384	14721
455.430	15187
455.465	13525
455.499	11740
455.546	18924
455.569	21966
455.627	16470
455.638	15597
455.707	3893
455.708	3885
455.777	1964
455.789	2044
455.846	2280
455.869	2245
455.916	2265
455.950	2290
455.985	2231
456.031	2296
456.054	2290
456.112	2063
456.124	2046
456.193	1733
456.193	1721
456.262	2085
456.274	2391
456.332	3498
456.355	3702
456.401	3862
456.436	3257
456.470	2742
456.516	1922
456.540	1510
456.597	1209
456.609	1168
456.678	1096
456.678	1086
456.747	1313
456.759	1190
456.817	597
456.840	764
456.886	1088
456.920	1428
456.955	1972
457.001	1991
457.024	1960
457.082	2901
457.093	3051
457.162	4488
457.163	4509
457.232	5047
457.243	4666
457.301	2717
457.324	2154
457.370	1518
457.405	1587
457.439	1756
457.485	1938
457.508	2035
457.566	2660
457.577	2831
457.646	4110
457.647	4140
457.715	7374
457.727	7920
457.784	10821
457.808	13815
457.853	17905
457.889	23183
457.922	26478
457.969	19470
457.991	18286
458.050	18868
458.060	18986
458.129	29824
458.130	30255
458.198	37926
458.211	34429
458.267	21670
458.292	16003
458.336	9522
458.372	8614
458.405	10031
458.453	14138
458.474	16679
458.533	28768
458.543	29764
458.611	52413
458.614	52768
458.680	43892
458.694	36353
458.749	17186
458.775	12548
458.818	6300
458.855	4786
458.887	3678
458.936	3065
458.955	2900
459.016	3110
459.024	3167
459.093	3412
459.097	3423
459.162	3091
459.177	3090
459.230	3897
459.257	4577
459.299	5004
459.338	4677
459.368	4508
459.418	5981
459.437	6134
459.499	3977
459.505	3855
459.574	2618
459.579	2643
459.643	2989
459.659	2908
459.711	2788
459.740	3103
459.780	3572
459.820	3623
459.849	3488
459.900	3346
459.917	3411
459.981	4266
459.986	4296
460.054	3445
460.061	3509
460.123	4401
460.141	4378
460.191	4444
460.222	5022
460.260	5771
460.302	6684
460.328	6498
460.382	5071
460.397	5079
460.462	4331
460.465	4339
460.534	5884
460.543	6119
460.602	12821
460.623	15598
460.671	22416
460.703	30782
460.739	30441
460.783	26761
460.808	25527
460.864	8876
460.876	6510
460.944	3479
460.945	3448
461.013	3306
461.024	3284
461.081	3518
461.104	3808
461.150	3955
461.184	3738
461.218	3579
461.264	3117
461.286	2957
461.345	3352
461.355	3457
461.423	3862
461.425	3861
461.491	4115
461.505	4302
461.559	8592
461.585	10534
461.628	15399
461.665	20742
461.696	22182
461.745	29235
461.764	27560
461.825	9780
461.832	9287
461.901	5043
461.905	5104
461.969	4216
461.985	3954
462.037	4653
462.065	4617
462.105	4855
462.145	5864
462.173	7762
462.225	11013
462.241	11868
462.305	17852
462.310	17506
462.378	11846
462.385	10481
462.446	5632
462.465	4987
462.514	4360
462.545	4430
462.582	4180
462.625	3767
462.650	3719
462.705	3763
462.718	3901
462.785	4292
462.786	4326
462.854	6621
462.865	7048
462.922	8499
462.945	9401
462.990	7688
463.025	4881
463.058	4358
463.104	4210
463.126	3980
463.184	3789
463.194	3849
463.262	4343
463.264	4361
463.330	4665
463.344	4758
463.398	4803
463.424	4573
463.466	4611
463.504	5124
463.533	5334
463.583	5102
463.601	5228
463.663	5660
463.669	5847
463.737	8326
463.743	8600
463.805	13514
463.823	14816
463.873	21369
463.903	25575
463.940	25697
463.982	27572
464.008	23279
464.062	9854
464.076	9241
464.142	5263
464.144	5166
464.211	3981
464.221	3874
464.279	4308
464.301	4456
464.347	4828
464.381	5172
464.414	6187
464.461	7483
464.482	7701
464.540	8762
464.550	8765
464.617	8027
464.620	8000
464.685	6880
464.699	6581
464.753	7536
464.779	8133
464.820	8757
464.859	9199
464.888	9001
464.938	8783
464.956	8852
465.018	9028
465.023	8946
465.091	7699
465.098	7540
465.158	6944
465.177	6845
465.226	7010
465.257	7076
465.293	7611
465.336	8144
465.361	9000
465.416	11057
465.428	11940
465.495	16785
465.496	16863
465.563	25593
465.575	27177
465.631	30777
465.654	32747
465.698	21247
465.734	9972
465.765	8745
465.813	7203
465.833	7094
465.893	7637
465.900	7531
465.968	6637
465.972	6562
466.035	7092
466.052	7244
466.102	7745
466.131	8056
466.170	8127
466.210	8080
466.237	8303
466.290	8802
466.304	9065
466.369	10170
466.372	10201
466.439	10800
466.449	10866
466.506	12749
466.528	13439
466.573	18815
466.607	22844
466.641	30789
466.687	41794
466.708	44609
466.766	52744
466.775	48952
466.842	19669
466.845	18243
466.909	14212
466.925	13398
466.977	12848
467.004	12658
467.044	12474
467.083	12247
467.111	13190
467.163	14960
467.178	14814
467.242	14119
467.245	14115
467.312	13772
467.321	13714
467.379	13127
467.400	12885
467.446	13942
467.480	14677
467.559	12396
467.638	11250
467.717	10497
467.796	12590
467.875	13404
467.955	13202
468.034	22665
468.113	44966
468.192	61534
468.271	14522
468.350	11330
468.429	14647
468.508	14270
468.588	10781
468.667	9800
468.746	10453
468.825	9790
468.904	8560
468.983	11313
469.062	16832
469.141	18666
469.220	8521
469.299	8069
469.378	9141
469.456	9772
469.535	9820
469.614	9484
469.693	10517
469.772	13605
469.851	19496
469.930	12424
470.009	8733
470.088	10726
470.166	14505
470.245	22096
470.324	26783
470.403	16209
470.482	10925
470.560	10147
470.639	10348
470.718	11406
470.797	10360
470.875	11108
470.954	15870
471.033	15483
471.111	8405
471.190	6121
471.269	6825
471.347	6213
471.426	8915
471.505	8957
471.583	9524
471.662	8177
471.740	7196
471.819	7300
471.898	7049
471.976	7479
472.055	7695
472.133	8878
472.212	11893
472.290	11454
472.369	7837
472.447	6673
472.526	6573
472.604	6998
472.683	8866
472.761	8521
472.839	7463
472.918	7725
472.996	7732
473.075	9100
473.153	9498
473.231	7748
473.310	9147
473.388	9006
473.466	8701
473.545	9586
473.623	13484
473.701	12055
473.780	7861
473.858	6235
473.936	9336
474.014	7741
474.093	9541
474.171	14324
474.249	19009
474.327	11785
474.405	7203
474.484	5964
474.562	7091
474.640	6393
474.718	8547
474.796	8373
474.874	8007
474.952	6364
475.030	8145
475.108	7828
475.187	10483
475.265	11781
475.343	16210
475.421	15932
475.499	8423
475.577	8161
475.655	12703
475.733	26122
475.811	41832
475.889	34716
475.966	22508
476.044	8294
476.122	11127
476.200	13827
476.278	10484
476.356	6806
476.434	8211
476.512	10108
476.590	13918
476.667	10963
476.745	5656
476.823	7841
476.901	6849
476.979	7702
477.056	7792
477.134	7187
477.212	7218
477.290	7147
477.367	6687
477.445	6765
477.523	5967
477.601	6103
477.678	8240
477.756	8580
477.834	9923
477.911	6579
477.989	6738
478.066	7309
478.144	8230
478.222	10626
478.299	16806
478.377	13624
478.454	6536
478.532	5917
478.609	6148
478.687	8012
478.764	5637
478.842	5950
478.919	7406
478.997	6667
479.074	6388
479.152	8379
479.229	10492
479.307	5222
479.384	4605
479.461	5799
479.539	6092
479.616	7665
479.694	6604
479.771	7654
479.848	8281
479.926	11038
480.003	12253
480.080	6258
480.157	5938
480.235	5897
480.312	6164
480.389	7762
480.467	13298
480.544	15928
480.621	8342
480.698	7558
480.775	8504
480.853	8231
480.930	6893
481.007	6470
481.084	7774
481.161	8735
481.238	8142
481.315	5542
481.392	5667
481.470	6010
481.547	6470
481.624	6424
481.701	6279
481.778	5983
481.855	8198
481.932	13512
482.009	23158
482.086	13612
482.163	8261
482.240	12916
482.317	22784
482.393	14972
482.470	7530
482.547	7157
482.624	7075
482.701	7060
482.778	7433
482.855	5724
482.932	5754
483.009	6116
483.085	7658
483.162	9156
483.239	9856
483.316	6169
483.393	7251
483.469	6397
483.546	8022
483.623	8083
483.699	6159
483.776	6478
483.853	8305
483.930	15248
484.006	36996
484.083	60457
484.160	24844
484.236	30833
484.313	25401
484.389	17496
484.466	16982
484.543	16321
484.619	17424
484.696	19317
484.772	19278
484.849	18856
484.925	15590
485.002	14933
485.078	17587
485.155	17625
485.231	13487
485.308	13942
485.384	15002
485.461	21854
485.537	35550
485.614	41227
485.690	15340
485.766	14224
485.843	17350
485.919	23745
485.995	24350
486.072	12788
486.148	13209
486.224	12898
486.301	13946
486.377	17067
486.453	17811
486.530	15742
486.606	20629
486.682	23023
486.758	29129
486.835	35059
486.911	27632
486.987	48591
487.063	52315
487.139	64507
487.215	41710
487.292	17953
487.368	16278
487.444	18424
487.520	24041
487.596	25457
487.672	47170
487.748	112502
487.824	158684
487.900	51578
487.976	21994
488.052	20982
488.128	25305
488.204	18728
488.280	15260
488.356	21698
488.432	43859
488.508	65178
488.584	20041
488.660	13120
488.736	13678
488.812	14715
488.888	20105
488.964	29980
489.039	66393
489.115	95306
489.191	52996
489.267	15317
489.343	13544
489.418	11381
489.494	10465
489.570	9636
489.646	12218
489.722	10700
489.797	14375
489.873	23514
489.949	49088
490.024	37529
490.100	11273
490.176	11606
490.251	15441
490.327	20529
490.403	11918
490.478	10342
490.554	8549
490.629	9132
490.705	9482
490.781	11041
490.856	10266
490.932	12366
491.007	12870
491.083	12243
491.158	11980
491.234	18036
491.309	37165
491.385	36277
491.460	12117
491.536	12002
491.611	9970
491.686	12814
491.762	19429
491.837	42878
491.913	74590
491.988	100500
492.063	119102
492.139	30463
492.214	17650
492.289	9854
492.365	8860
492.440	11208
492.515	11100
492.590	9906
492.666	8921
492.741	13981
492.816	21500
492.891	10922
492.967	7934
493.042	7449
493.117	7055
493.192	7913
493.267	12887
493.342	22347
493.418	26519
493.493	8404
493.568	7334
493.643	8039
493.718	11426
493.793	19055
493.868	20204
493.943	11848
494.018	9027
494.093	7984
494.168	8046
494.243	7380
494.318	7313
494.393	7331
494.468	7226
494.543	8267
494.618	9747
494.693	7899
494.768	9073
494.842	7891
494.917	7020
494.992	7952
495.067	7422
495.142	6267
495.217	8653
495.292	7244
495.366	9724
495.441	11855
495.516	17019
495.591	31646
495.665	101104
495.740	211558
495.815	79898
495.890	13515
495.964	8921
496.039	11945
496.114	10130
496.188	11978
496.263	12810
496.338	10083
496.412	12744
496.487	14966
496.561	16731
496.636	16571
496.710	14169
496.785	14239
496.860	16831
496.934	13242
497.009	14287
497.083	13732
497.158	15251
497.232	17926
497.307	22995
497.381	20155
497.455	23730
497.530	29501
497.604	22523
497.679	25589
497.753	38363
497.827	49093
497.902	47663
497.976	59099
498.050	135686
498.125	390412
498.199	363390
498.273	70491
498.348	57429
498.422	47762
498.496	42418
498.570	37463
498.645	28820
498.719	26299
498.793	30313
498.867	43177
498.941	63889
499.016	174134
499.090	393538
499.164	125646
499.238	17566
499.312	17083
499.386	19616
499.460	17980
499.534	15752
499.609	20592
499.683	27523
499.757	32575
499.831	81185
499.905	266085
499.979	228695
500.053	33536
500.127	32819
500.201	24594
500.275	15596
500.349	14557
500.422	17798
500.496	29873
500.570	66896
500.644	156709
500.718	258891
500.792	50453
500.866	13288
500.940	17513
501.013	15022
501.087	16494
501.161	28661
501.235	42316
501.309	94143
501.382	235449
501.456	190797
501.530	43986
501.603	68388
501.677	23781
501.751	10738
501.825	15887
501.898	33074
501.972	86468
502.046	51454
502.119	16795
502.193	43997
502.266	95753
502.340	46086
502.413	43779
502.487	80791
502.561	42114
502.634	13461
502.708	10956
502.781	10170
502.855	8222
502.928	6683
503.002	6920
503.075	6491
503.149	7365
503.222	7515
503.295	8344
503.369	12558
503.442	21383
503.516	73077
503.589	167154
503.662	101519
503.736	33967
503.809	75447
503.882	65939
503.956	94837
504.029	86656
504.102	71554
504.175	87398
504.249	31154
504.322	17547
504.395	13720
504.468	8955
504.542	8489
504.615	5588
504.688	6705
504.761	5974
504.834	9975
504.907	12391
504.980	20583
505.053	9956
505.127	12087
505.200	16138
505.273	13344
505.346	7914
505.419	6155
505.492	5080
505.565	4760
505.638	4837
505.711	4663
505.784	4865
505.857	4370
505.930	6347
506.003	4896
506.076	7131
506.149	9210
506.221	11364
506.294	14436
506.367	40653
506.440	119761
506.513	59388
506.586	12413
506.659	6859
506.731	6314
506.804	9287
506.877	13552
506.950	9303
507.022	6355
507.095	8308
507.168	11352
507.241	6574
507.313	5037
507.386	6465
507.459	10667
507.531	6226
507.604	5467
507.677	5823
507.749	4087
507.822	8344
507.894	16283
507.967	17053
508.040	9587
508.112	8312
508.185	8392
508.257	7540
508.330	13856
508.402	7290
508.475	6473
508.547	8153
508.620	8524
508.692	13196
508.765	8089
508.837	5231
508.909	5217
508.982	6395
509.054	7383
509.127	5507
509.199	5240
509.271	4682
509.344	4609
509.416	6393
509.488	5696
509.560	5134
509.633	6813
509.705	7959
509.777	6955
509.849	11187
509.922	7344
509.994	4946
510.066	6409
510.138	5901
510.210	13524
510.283	10209
510.355	9270
510.427	7915
510.499	8207
510.571	8282
510.643	8152
510.715	15108
510.787	11921
510.859	9179
510.931	11174
511.003	14213
511.076	12804
511.148	6955
511.219	7568
511.291	13739
511.363	16341
511.435	6098
511.507	4731
511.579	6841
511.651	7074
511.723	6639
511.795	5858
511.867	6716
511.939	9803
512.010	20809
512.082	16126
512.154	6496
512.226	7771
512.298	11111
512.369	16443
512.441	13695
512.513	13100
512.585	9416
512.656	10085
512.728	11591
512.800	8317
512.871	8387
512.943	8178
513.015	6788
513.086	8126
513.158	8654
513.230	9644
513.301	14148
513.373	17925
513.444	9260
513.516	7436
513.588	6761
513.659	9912
513.731	11855
513.802	10858
513.874	26885
513.945	43703
514.016	13246
514.088	8077
514.159	8871
514.231	13378
514.302	16329
514.374	11099
514.445	10634
514.516	25611
514.588	17509
514.659	12607
514.730	22554
514.802	19490
514.873	16184
514.944	17857
515.016	13302
515.087	15314
515.158	19168
515.229	25918
515.301	18439
515.372	25397
515.443	16799
515.514	11612
515.585	8122
515.656	9374
515.728	8684
515.799	7794
515.870	8618
515.941	9950
516.012	9166
516.083	12850
516.154	14036
516.225	19981
516.296	18029
516.367	14853
516.438	19143
516.509	27783
516.580	55794
516.651	181352
516.722	517141
516.793	206362
516.864	33167
516.935	32747
517.006	40703
517.077	71751
517.148	193579
517.219	656405
517.289	878420
517.360	203826
517.431	54270
517.502	17028
517.573	15916
517.643	15804
517.714	15972
517.785	17651
517.856	18641
517.926	23009
517.997	28068
518.068	39092
518.138	63235
518.209	133047
518.280	481826
518.350	1356676
518.421	486707
518.492	49108
518.562	26403
518.633	26548
518.703	27392
518.774	52316
518.845	113701
518.915	102819
518.986	35517
519.056	25942
519.127	43746
519.197	69118
519.268	141484
519.338	80603
519.408	19443
519.479	24767
519.549	17679
519.620	12289
519.690	8434
519.760	9601
519.831	10022
519.901	9265
519.971	8484
520.042	10046
520.112	11419
520.182	14193
520.253	15496
520.323	10527
520.393	20015
520.463	30469
520.534	21893
520.604	45143
520.674	19327
520.744	20671
520.814	52272
520.885	46351
520.955	52261
521.025	156215
521.095	56062
521.165	10692
521.235	9169
521.305	7250
521.375	7625
521.445	9307
521.515	12949
521.585	16236
521.655	13710
521.725	10787
521.795	10144
521.865	6338
521.935	13104
522.005	10765
522.075	6398
522.145	8382
522.215	9052
522.285	15086
522.355	21593
522.424	40864
522.494	33146
522.564	18993
522.634	40359
522.704	103351
522.774	37520
522.843	9704
522.913	8773
522.983	12308
523.053	8733
523.122	10541
523.192	18075
523.262	57930
523.331	50940
523.401	9906
523.471	6097
523.540	7709
523.610	5470
523.680	5682
523.749	5793
523.819	9122
523.888	8621
523.958	5698
524.027	6406
524.097	7560
524.166	6575
524.236	7161
524.305	8359
524.375	6715
524.444	5660
524.514	8972
524.583	6423
524.653	9688
524.722	10791
524.791	7021
524.861	7311
524.930	5983
524.999	7741
525.069	11399
525.138	8826
525.207	10779
525.277	7080
525.346	7738
525.415	6811
525.484	7847
525.554	9526
525.623	9961
525.692	9373
525.761	9475
525.830	11551
525.900	14118
525.969	22301
526.038	41849
526.107	87876
526.176	229130
526.245	178455
526.314	63208
526.383	124599
526.452	169598
526.522	272922
526.591	256888
526.660	66973
526.729	34076
526.797	44843
526.867	108376
526.935	378384
527.004	620257
527.073	317802
527.142	26972
527.211	12662
527.280	13199
527.349	13132
527.418	5817
527.487	8430
527.555	5300
527.624	5946
527.693	4123
527.762	6970
527.831	4826
527.899	6189
527.968	5775
528.037	5206
528.106	10151
528.174	17881
528.243	15000
528.312	19577
528.380	26081
528.449	7846
528.518	6834
528.586	3532
528.655	5118
528.723	4755
528.792	4851
528.861	4512
528.929	3779
528.998	5203
529.066	4908
529.135	3469
529.203	4023
529.272	3464
529.340	4762
529.409	6232
529.477	4667
529.545	6516
529.614	9784
529.682	9526
529.751	11536
529.819	12760
529.887	7918
529.956	4398
530.024	5605
530.092	4667
530.161	7908
530.229	12251
530.297	5681
530.365	5140
530.434	5026
530.502	3224
530.570	4766
530.638	2276
530.707	5598
530.775	6952
530.843	3885
530.911	4257
530.979	4169
531.047	4150
531.115	4950
531.183	3709
531.252	4944
531.320	4190
531.388	4708
531.456	4880
531.524	2621
531.592	4979
531.660	5526
531.728	3832
531.796	4586
531.864	4478
531.932	5019
532.000	4623
532.067	4838
532.135	5522
532.203	7722
532.271	7552
532.339	17169
532.407	43813
532.475	24447
532.542	10367
532.610	14179
532.678	23966
532.746	92922
532.814	200432
532.881	46517
532.949	7802
533.017	6729
533.084	5407
533.152	5244
533.220	6207
533.287	5963
533.355	5606
533.423	5457
533.490	4183
533.558	4640
533.625	5565
533.693	6045
533.761	6834
533.828	6343
533.896	6399
533.963	14433
534.031	18598
534.098	26674
534.166	11471
534.233	5695
534.300	6545
534.368	7123
534.435	5732
534.503	7447
534.570	9006
534.637	7806
534.705	8302
534.772	14900
534.840	29276
534.907	111996
534.974	128698
535.041	15916
535.109	9904
535.176	5304
535.243	6024
535.310	6764
535.378	6052
535.445	5645
535.512	5325
535.579	5289
535.646	4424
535.714	5927
535.781	6979
535.848	7584
535.915	6439
535.982	5800
536.049	5849
536.116	7148
536.183	6385
536.250	6572
536.317	6966
536.384	9734
536.451	14084
536.518	14770
536.585	9124
536.652	13800
536.719	18360
536.786	14002
536.853	10468
536.920	18267
536.987	29795
537.053	32155
537.120	105559
537.187	85834
537.254	8052
537.321	7630
537.388	8052
537.454	5007
537.521	6329
537.588	6087
537.654	7703
537.721	9269
537.788	8560
537.855	6427
537.921	7208
537.988	6952
538.055	7214
538.121	7242
538.188	9156
538.254	14712
538.321	27980
538.388	16967
538.454	7435
538.521	7367
538.587	6376
538.654	6109
538.720	6515
538.787	7211
538.853	7676
538.920	9771
538.986	10123
539.053	7535
539.119	8474
539.185	8356
539.252	10777
539.318	15752
539.385	11467
539.451	8868
539.517	11209
539.583	15098
539.650	33472
539.716	75918
539.782	20286
539.849	7971
539.915	8367
539.981	8251
540.047	10531
540.114	9548
540.180	10332
540.246	9287
540.312	15433
540.378	29530
540.444	30588
540.510	36053
540.576	85907
540.643	25633
540.709	6198
540.775	7706
540.841	8079
540.907	13729
540.973	20903
541.039	17049
541.105	16330
541.171	9117
541.237	6910
541.303	9075
541.369	12375
541.435	14339
541.500	25518
541.566	14895
541.632	7323
541.698	6908
541.764	7039
541.830	7412
541.896	5219
541.961	7730
542.027	8101
542.093	8771
542.159	8383
542.224	9909
542.290	15178
542.356	25345
542.421	28531
542.487	12042
542.553	8811
542.618	9278
542.684	7801
542.750	9193
542.815	12648
542.881	24353
542.947	77695
543.012	52730
543.078	8892
543.143	7158
543.209	8712
543.274	9579
543.340	13579
543.405	29865
543.471	43869
543.536	10536
543.602	7861
543.667	6676
543.732	7795
543.798	6970
543.863	8354
543.928	6390
543.994	6168
544.059	7543
544.124	7833
544.190	7056
544.255	7336
544.320	8260
544.386	8896
544.451	13326
544.516	15779
544.581	18391
544.646	49658
544.712	72791
544.777	13853
544.842	10667
544.907	10542
544.972	8815
545.037	9230
545.102	10515
545.168	9659
545.233	11703
545.298	12324
545.363	14727
545.428	17608
545.493	31771
545.558	61507
545.623	24536
545.688	10997
545.753	10579
545.818	9586
545.883	11288
545.947	9675
546.012	13157
546.077	11254
546.142	10932
546.207	11924
546.272	16809
546.337	16717
546.401	14474
546.466	11999
546.531	11547
546.596	13542
546.661	13651
546.725	12845
546.790	11656
546.855	14007
546.919	12949
546.984	15558
547.049	16888
547.113	18866
547.178	18456
547.243	21744
547.307	24639
547.372	28678
547.436	29181
547.501	25914
547.565	28573
547.630	28323
547.695	29159
547.759	29141
547.823	26684
547.888	24192
547.952	25478
548.017	27714
548.081	29216
548.146	35356
548.210	30892
548.274	28354
548.339	26908
548.403	25962
548.468	23295
548.532	23729
548.596	24942
548.660	25484
548.725	29241
548.789	32244
548.853	31307
548.917	28045
548.982	31601
549.046	30526
549.110	22103
549.174	22010
549.238	25399
549.303	26295
549.367	28919
549.431	25834
549.495	25568
549.559	25320
549.623	30318
549.687	34030
549.751	40190
549.815	37926
549.879	37967
549.943	34909
550.007	37956
550.071	38261
550.135	38802
550.199	34078
550.263	31993
550.327	33804
550.391	37527
550.455	34193
550.519	35242
550.582	39151
550.646	48331
550.710	47742
550.774	42637
550.838	41607
550.901	42805
550.965	47293
551.029	49646
551.093	56922
551.156	69418
551.220	98342
551.284	108285
551.347	70547
551.411	85296
551.475	82526
551.538	47469
551.602	41460
551.666	38748
551.729	36662
551.793	36619
551.856	34384
551.920	34288
551.983	35276
552.047	33668
552.110	34086
552.174	34204
552.237	35592
552.301	32399
552.364	31688
552.428	31941
552.491	32335
552.554	34427
552.618	33576
552.681	38047
552.745	40475
552.808	58104
552.871	70599
552.934	46254
552.998	35744
553.061	34510
553.124	31959
553.187	31971
553.251	32818
553.314	32388
553.377	32519
553.440	37150
553.503	45566
553.567	51526
553.630	34412
553.693	33531
553.756	33156
553.819	32275
553.882	31082
553.945	31119
554.008	28987
554.071	30504
554.134	31744
554.197	30194
554.260	28626
554.323	31279
554.386	30640
554.449	31847
554.512	30789
554.575	29063
554.638	30374
554.701	30491
554.764	29070
554.827	28190
554.889	26014
554.952	25871
555.015	25652
555.078	25711
555.141	25988
555.203	25575
555.266	25879
555.329	26679
555.391	25450
555.454	26122
555.517	25559
555.580	24179
555.642	22652
555.705	22047
555.768	22952
555.830	22809
555.893	20166
555.955	21223
556.018	20203
556.080	21090
556.143	21193
556.206	20574
556.268	21565
556.330	21837
556.393	21510
556.455	21733
556.518	26189
556.580	26587
556.643	19484
556.705	18787
556.767	17129
556.830	19667
556.892	21024
556.955	27895
557.017	22878
557.079	18346
557.142	18431
557.204	22125
557.266	35917
557.328	30347
557.391	15916
557.453	16256
557.515	17092
557.577	18765
557.639	20233
557.701	16588
557.764	15020
557.826	17842
557.888	19882
557.950	20649
558.012	25841
558.074	36006
558.136	77406
558.198	174765
558.260	58945
558.322	21986
558.384	21695
558.446	25956
558.508	30458
558.570	42167
558.632	68587
558.694	105172
558.756	143027
558.818	377993
558.880	823931
558.942	251445
559.003	181081
559.065	83212
559.127	32231
559.189	34367
559.251	49854
559.312	79597
559.374	180003
559.436	536532
559.498	243905
559.559	38042
559.621	35419
559.683	50890
559.744	88080
559.806	258309
559.868	362158
559.929	66642
559.991	41361
560.052	66888
560.114	176830
560.176	114120
560.237	100973
560.299	159156
560.360	33380
560.422	15767
560.483	14604
560.545	13498
560.606	12740
560.667	12146
560.729	12634
560.790	11154
560.852	12268
560.913	11909
560.974	11789
561.036	11245
561.097	11806
561.158	11700
561.220	12508
561.281	12408
561.342	13168
561.403	16416
561.465	20958
561.526	44453
561.587	54195
561.648	16512
561.709	10970
561.771	12198
561.832	10898
561.893	11210
561.954	10399
562.015	11440
562.076	10672
562.137	11068
562.198	10666
562.259	11195
562.320	11331
562.381	14225
562.442	17947
562.503	15271
562.564	11173
562.625	10552
562.686	10928
562.747	13518
562.808	12060
562.869	11649
562.930	13183
562.991	13554
563.051	11763
563.112	10679
563.173	10924
563.234	10942
563.294	11237
563.355	10738
563.416	11574
563.477	10293
563.537	11578
563.598	11679
563.659	11381
563.720	11155
563.780	11390
563.841	12398
563.901	10644
563.962	11235
564.023	11795
564.083	11781
564.144	12324
564.204	12877
564.265	12389
564.325	15404
564.386	25864
564.446	22840
564.507	10974
564.567	11599
564.628	10866
564.688	11746
564.749	11874
564.809	13904
564.869	14608
564.930	12223
564.990	12220
565.050	10891
565.111	11563
565.171	11643
565.231	10627
565.292	12617
565.352	10409
565.412	12977
565.472	12257
565.532	12868
565.593	11816
565.653	12908
565.713	12939
565.773	14275
565.833	15956
565.893	20569
565.953	14090
566.013	13498
566.074	16041
566.134	18752
566.194	26972
566.254	26877
566.314	19868
566.374	15777
566.434	16084
566.494	16821
566.554	15498
566.614	17302
566.673	18104
566.733	20560
566.793	20670
566.853	21923
566.913	22181
566.973	22697
567.033	22423
567.092	23435
567.152	22460
567.212	23206
567.272	23187
567.331	26158
567.391	26414
567.451	28880
567.511	32338
567.570	31958
567.630	23696
567.690	22697
567.749	24035
567.809	26235
567.868	29345
567.928	33734
567.988	40419
568.047	48152
568.107	61050
568.166	85055
568.226	128279
568.285	171317
568.345	150026
568.404	121902
568.464	104619
568.523	96823
568.582	100958
568.642	115462
568.701	145388
568.761	203449
568.820	297298
568.879	291116
568.939	224068
568.998	167217
569.057	125973
569.116	100259
569.176	79474
569.235	66371
569.294	55278
569.353	48273
569.413	42162
569.472	37756
569.531	33925
569.590	31053
569.649	28301
569.708	26239
569.767	26678
569.827	28447
569.886	23560
569.945	20341
570.004	20103
570.063	19419
570.122	18618
570.181	19644
570.240	20547
570.299	19831
570.358	21471
570.417	17005
570.475	15215
570.534	15890
570.593	14977
570.652	16791
570.711	16631
570.770	14950
570.829	16244
570.887	15535
570.946	16129
571.005	14418
571.064	13741
571.122	15770
571.181	16443
571.240	13541
571.299	12722
571.357	13765
571.416	13313
571.475	15811
571.533	15024
571.592	13123
571.650	13783
571.709	12676
571.768	11828
571.826	13003
571.885	11572
571.943	11622
572.002	11291
572.060	11963
572.119	9695
572.177	10536
572.236	10319
572.294	10190
572.352	10940
572.411	11825
572.469	10275
572.528	11278
572.586	11030
572.644	13256
572.703	17666
572.761	11829
572.819	10339
572.877	9404
572.936	9394
572.994	10666
573.052	9273
573.110	10192
573.169	11352
573.227	10204
573.285	9258
573.343	9679
573.401	9451
573.459	10431
573.517	9666
573.576	10881
573.634	10646
573.692	10700
573.750	10239
573.808	10080
573.866	11225
573.924	13273
573.982	13110
574.040	10013
574.098	9537
574.155	9222
574.213	9619
574.271	9015
574.329	10331
574.387	9146
574.445	9740
574.503	9221
574.560	8558
574.618	8835
574.676	8807
574.734	9265
574.792	9895
574.849	9100
574.907	7749
574.965	8130
575.022	8292
575.080	8426
575.138	8737
575.195	9502
575.253	9650
575.311	10054
575.368	8596
575.426	9198
575.483	9104
575.541	9146
575.598	7833
575.656	9303
575.713	9559
575.771	10026
575.828	7488
575.886	9235
575.943	9834
576.001	9011
576.058	9062
576.115	10275
576.173	12158
576.230	13593
576.287	13232
576.345	11305
576.402	10839
576.459	10080
576.517	10452
576.574	11257
576.631	11128
576.688	10178
576.746	9438
576.803	9788
576.860	9647
576.917	9251
576.974	9239
577.031	9403
577.089	9273
577.146	10268
577.203	9062
577.260	11145
577.317	10651
577.374	11623
577.431	11349
577.488	9959
577.545	8709
577.602	9703
577.659	9944
577.716	9946
577.773	9649
577.830	9408
577.886	9556
577.943	9340
578.000	9657
578.057	10876
578.114	9879
578.171	10123
578.227	9885
578.284	9248
578.341	10776
578.398	10161
578.454	11621
578.511	11816
578.568	12387
578.625	11407
578.681	9836
578.738	10356
578.794	10646
578.851	9840
578.908	9819
578.964	11045
579.021	10946
579.077	9938
579.134	10200
579.190	10407
579.247	9597
579.303	10414
579.360	9905
579.416	9540
579.473	9793
579.529	9329
579.586	9811
579.642	10804
579.698	10901
579.755	11372
579.811	10492
579.867	10160
579.924	9784
579.980	9257
580.036	10921
580.093	10346
580.149	10853
580.205	11559
580.261	11092
580.317	11719
580.374	12547
580.430	13323
580.486	12745
580.542	12392
580.598	11424
580.619	11701
580.654	12185
580.692	11134
580.710	10613
580.765	11234
580.767	11251
580.823	11626
580.838	11584
580.879	11443
580.911	11218
580.935	11059
580.984	10823
580.991	10787
581.047	12176
581.057	12165
581.103	12082
581.130	11947
581.159	11806
581.203	12343
581.215	12474
581.270	12453
581.276	12443
581.326	12363
581.349	12491
581.382	12614
581.422	12506
581.438	12492
581.494	13575
581.494	13580
581.550	13387
581.567	13367
581.606	13312
581.640	13401
581.661	13453
581.713	13180
581.717	13146
581.773	12957
581.786	13095
581.829	13579
581.859	14150
581.885	14636
581.932	14390
581.940	14337
581.996	14077
582.004	14179
582.052	14587
582.077	14433
582.107	14280
582.150	14293
582.163	14318
582.219	14633
582.223	14683
582.274	15124
582.296	15088
582.330	14983
582.368	15592
582.386	15841
582.441	15488
582.441	15481
582.497	15425
582.514	15634
582.552	16220
582.587	15988
582.608	15791
582.659	15703
582.663	15692
582.719	16256
582.732	16245
582.774	16344
582.805	16655
582.830	16767
582.877	17040
582.885	17137
582.941	17650
582.950	17576
582.996	16842
583.023	17533
583.052	18415
583.095	17905
583.107	17737
583.162	18776
583.168	18851
583.218	19482
583.240	19179
583.273	18817
583.313	18342
583.328	18123
583.384	19019
583.385	19034
583.439	19482
583.458	19699
583.494	20151
583.531	19850
583.549	19733
583.603	21016
583.605	21054
583.660	20722
583.676	20833
583.715	21288
583.748	22027
583.770	22568
583.820	23064
583.825	23081
583.881	22484
583.893	22610
583.936	23245
583.965	23080
583.991	22933
584.038	23354
584.046	23492
584.101	24504
584.110	24581
584.156	24831
584.183	24982
584.211	25097
584.255	25442
584.266	25560
584.321	25456
584.328	25519
584.376	26604
584.400	26964
584.431	27285
584.472	27611
584.486	27794
584.541	29140
584.545	29105
584.596	28694
584.617	29000
584.651	29821
584.689	30580
584.706	31007
584.761	32041
584.762	32016
584.816	32626
584.834	33154
584.871	33980
584.906	34129
584.926	34516
584.978	35696
584.980	35778
585.035	37424
585.051	37918
585.090	39555
585.123	40296
585.145	41012
585.195	43145
585.200	43425
585.254	45536
585.267	46415
585.309	49698
585.340	52206
585.364	54449
585.412	58880
585.419	59687
585.473	67633
585.484	69918
585.528	83176
585.556	92982
585.583	113255
585.628	155407
585.637	174851
585.692	329643
585.700	355803
585.747	467596
585.772	441543
585.801	302060
585.845	137301
585.856	119926
585.910	76890
585.917	72199
585.965	66941
585.989	64392
586.019	63349
586.061	63163
586.074	63708
586.128	64924
586.133	64954
586.183	67105
586.205	67621
586.237	68494
586.277	69261
586.292	69662
586.346	71100
586.349	71072
586.401	74119
586.421	74859
586.455	76849
586.493	79454
586.509	82593
586.564	92920
586.565	93111
586.618	116279
586.637	120059
586.672	111139
586.709	100194
586.727	97981
586.781	97294
586.781	97514
586.835	97534
586.853	97510
586.889	98137
586.925	98848
586.944	100723
586.996	105368
586.998	105753
587.052	110790
587.068	112012
587.106	116346
587.140	119562
587.161	121733
587.212	126921
587.215	127601
587.269	134994
587.284	136740
587.323	142730
587.356	146655
587.377	150133
587.427	158275
587.431	159303
587.485	167864
587.499	169743
587.539	178164
587.571	184465
587.593	190122
587.643	200301
587.648	202206
587.702	219537
587.715	223079
587.755	237028
587.786	246888
587.810	255816
587.858	272261
587.864	275566
587.917	302589
587.930	307968
587.971	332548
588.001	349222
588.025	365700
588.073	396991
588.079	402906
588.133	447615
588.145	456554
588.187	502863
588.217	533838
588.241	566648
588.288	629191
588.295	641217
588.348	730325
588.360	747950
588.402	841496
588.431	905187
588.456	977010
588.503	1113570
588.510	1142534
588.564	1359226
588.575	1402658
588.617	1643170
588.646	1806996
588.671	1994444
588.718	2345950
588.725	2408227
588.778	2859352
588.789	2945059
588.832	3164769
588.861	3285142
588.886	3103914
588.932	2617652
588.939	2566938
588.993	2131736
589.004	2081117
589.047	2839203
589.075	3281621
589.100	3313185
589.147	3265298
589.154	3224749
589.207	2847832
589.218	2767853
589.261	2608925
589.290	2503967
589.314	2538416
589.361	2601277
589.368	2643692
589.421	2957142
589.433	3018676
589.475	3159538
589.504	3214442
589.528	2991536
589.576	2440391
589.582	2484808
589.635	2954889
589.647	3032181
589.689	3020615
589.718	2965385
589.742	2696105
589.790	2148962
589.795	2107964
589.849	1672762
589.861	1568930
589.902	1365285
589.932	1207353
589.955	1125055
590.004	943761
590.009	935341
590.062	810384
590.075	777242
590.115	711972
590.146	657347
590.168	631478
590.218	567141
590.222	565230
590.275	514519
590.289	499561
590.328	472051
590.360	446377
590.381	434278
590.431	400553
590.435	400358
590.488	372558
590.503	363347
590.541	347782
590.574	332024
590.594	326200
590.645	307190
590.647	307693
590.700	290139
590.716	283899
590.753	275213
590.787	265066
590.806	262449
590.859	251509
590.859	252276
590.912	240108
590.930	235155
590.965	230260
591.001	223872
591.018	222304
591.071	214596
591.072	213683
591.124	206608
591.143	202962
591.177	200066
591.214	195517
591.230	194999
591.283	190533
591.285	189608
591.336	186902
591.356	184839
591.389	181913
591.427	176716
591.442	175410
591.495	168096
591.498	166891
591.547	164134
591.569	161988
591.600	160529
591.640	157146
591.653	157344
591.706	155436
591.711	154622
591.759	153883
591.782	152644
591.811	154621
591.853	155897
591.864	154695
591.917	145392
591.924	143481
591.969	142512
591.995	141011
592.022	140875
592.066	139188
592.075	140044
592.127	141877
592.137	141666
592.180	146179
592.208	148037
592.233	144085
592.279	134873
592.285	134753
592.338	129183
592.350	127386
592.390	127400
592.421	126519
592.443	126343
592.491	124308
592.495	124727
592.548	123543
592.562	122717
592.600	122563
592.633	121488
592.653	121100
592.704	118124
592.705	118807
592.775	118692
592.846	117602
592.916	117607
592.987	118491
593.058	115359
593.128	110557
593.199	108083
593.270	106465
593.341	105325
593.411	106936
593.482	106941
593.553	104621
593.623	101954
593.694	103475
593.764	105345
593.835	100976
593.906	99829
593.976	98521
594.047	101803
594.117	107823
594.188	108104
594.258	98660
594.329	95451
594.399	96315
594.470	96055
594.540	96380
594.611	95496
594.681	95145
594.751	94867
594.822	97767
594.892	99635
594.963	100390
595.033	98165
595.103	100245
595.174	103347
595.244	118731
595.314	135655
595.384	103679
595.455	97423
595.525	102303
595.595	104308
595.665	101761
595.736	100118
595.806	101478
595.876	100241
595.946	99894
596.016	100552
596.087	103520
596.157	100892
596.227	101545
596.297	106620
596.367	110358
596.437	114643
596.507	128032
596.577	141257
596.647	118805
596.717	114908
596.787	115363
596.857	115381
596.927	116229
596.997	114105
597.067	115509
597.137	117926
597.207	119517
597.277	118294
597.347	116613
597.417	111719
597.487	114787
597.557	116839
597.626	117140
597.696	121345
597.766	125782
597.836	138565
597.906	115687
597.975	105779
598.045	105311
598.115	108040
598.185	113013
598.254	123305
598.324	132291
598.394	133807
598.464	130948
598.533	126879
598.603	121555
598.672	120116
598.742	119983
598.812	118744
598.881	121744
598.951	119777
599.020	120558
599.090	121683
599.159	124194
599.229	119801
599.299	118016
599.368	119998
599.437	118835
599.507	112234
599.576	111581
599.646	109346
599.715	109989
599.785	109593
599.854	109038
599.924	111415
599.993	108582
600.062	105633
600.132	107399
600.201	111395
600.270	127085
600.340	131648
600.409	126259
600.478	125607
600.547	128011
600.617	120776
600.686	103558
600.755	98984
600.824	97518
600.894	95429
600.963	91485
601.032	90617
601.101	88674
601.170	86916
601.239	85556
601.308	89415
601.378	89737
601.447	84605
601.516	85526
601.585	88226
601.654	94829
601.723	87906
601.792	89587
601.861	90622
601.930	97423
601.999	100169
602.068	96460
602.137	101214
602.206	104004
602.275	97658
602.343	104313
602.412	106086
602.481	97632
602.550	95144
602.619	97264
602.688	101150
602.756	100640
602.825	98090
602.894	100326
602.963	100580
603.032	103232
603.100	101452
603.169	101319
603.238	104521
603.307	102904
603.375	101896
603.444	104640
603.513	107345
603.581	107095
603.650	109776
603.719	105512
603.787	104789
603.856	108640
603.924	112643
603.993	117023
604.061	116080
604.130	120459
604.198	123933
604.267	123937
604.335	125543
604.404	125269
604.472	126691
604.541	129259
604.609	128493
604.678	130942
604.746	130308
604.815	134227
604.883	137318
604.951	137926
605.020	135586
605.088	139200
605.156	140663
605.225	141544
605.293	141769
605.361	143345
605.429	144668
605.498	145709
605.566	151351
605.634	155655
605.702	159729
605.771	163666
605.839	164025
605.907	161205
605.975	154631
606.043	152737
606.111	152237
606.180	153842
606.248	151558
606.316	151117
606.384	151201
606.452	159197
606.520	169788
606.588	160975
606.656	154642
606.724	154129
606.792	143000
606.860	131173
606.928	120223
606.996	118037
607.064	113187
607.132	117206
607.200	123601
607.267	129108
607.335	129445
607.403	132005
607.471	127438
607.539	124693
607.607	126151
607.674	113798
607.742	115248
607.810	116601
607.878	113844
607.946	115408
608.013	119338
608.081	123321
608.149	125124
608.216	125102
608.284	128942
608.352	128226
608.419	130607
608.487	138954
608.555	129637
608.622	124812
608.690	130873
608.757	144176
608.825	149180
608.893	147499
608.960	147607
609.028	151155
609.095	148979
609.163	135715
609.230	122590
609.298	111759
609.365	112717
609.432	122415
609.500	132502
609.567	150230
609.635	167979
609.702	179089
609.769	174024
609.837	147861
609.904	128088
609.971	130707
610.039	151110
610.106	203800
610.173	398790
610.241	950982
610.308	751923
610.375	283249
610.442	159474
610.509	133528
610.577	128189
610.644	127367
610.711	130920
610.778	132593
610.845	135361
610.912	144132
610.980	148964
611.047	150950
611.114	150107
611.181	143802
611.248	140229
611.315	147507
611.382	149744
611.449	154996
611.516	157224
611.583	157331
611.650	159326
611.717	161117
611.784	167634
611.851	179804
611.918	198495
611.984	238096
612.051	349107
612.118	744370
612.185	1883365
612.252	1513857
612.319	346363
612.386	227469
612.452	199958
612.519	189578
612.586	194380
612.653	185671
612.719	183656
612.786	179117
612.853	163981
612.919	158776
612.986	159962
613.053	153474
613.120	144007
613.186	137980
613.253	140950
613.319	139455
613.386	140961
613.453	144839
613.519	151502
613.586	160936
613.652	186096
613.719	168469
613.785	164468
613.852	145827
613.918	142318
613.985	145134
614.051	153778
614.118	161932
614.184	157095
614.250	142254
614.317	146203
614.383	142817
614.449	145598
614.516	146226
614.582	146158
614.648	144717
614.715	142761
614.781	141195
614.847	141490
614.914	143046
614.980	141738
615.046	141262
615.112	146296
615.179	151784
615.245	165169
615.311	190408
615.377	271668
615.443	332901
615.509	233840
615.575	187635
615.642	172326
615.708	175409
615.774	185824
615.840	209977
615.906	254199
615.972	374942
616.038	690488
616.104	1241148
616.170	2368866
616.236	2428482
616.302	588674
616.368	339256
616.434	245850
616.500	211529
616.565	219089
616.631	272953
616.697	238016
616.763	231241
616.829	325557
616.895	590969
616.961	643365
617.026	305750
617.092	183412
617.158	162754
617.224	153020
617.289	143344
617.355	135721
617.421	134959
617.487	134172
617.552	124292
617.618	122063
617.684	122589
617.749	124167
617.815	118671
617.880	116069
617.946	117274
618.012	118790
618.077	119940
618.143	116286
618.208	117133
618.274	123127
618.339	127644
618.405	108439
618.470	106630
618.536	108748
618.601	109898
618.667	104355
618.732	98197
618.798	96374
618.863	95912
618.928	94409
618.994	99750
619.059	104007
619.124	124712
619.190	107366
619.255	95049
619.320	93311
619.386	94614
619.451	92938
619.516	90904
619.581	90353
619.647	94156
619.712	93598
619.777	90349
619.842	92273
619.907	95560
619.972	94901
620.038	95672
620.103	91262
620.168	89460
620.233	89833
620.298	90742
620.363	91467
620.428	92135
620.493	95454
620.558	95568
620.623	97449
620.688	96615
620.753	93734
620.818	96877
620.883	97458
620.948	99032
621.013	97176
621.078	98755
621.143	97821
621.207	101571
621.272	100494
621.337	102365
621.402	100569
621.467	109936
621.532	114143
621.596	106656
621.661	99402
621.726	94807
621.791	95048
621.855	98541
621.920	101231
621.985	100680
622.049	106933
622.114	106024
622.179	102263
622.243	105661
622.308	104038
622.373	109091
622.437	107832
622.502	101524
622.566	100496
622.631	100522
622.695	101928
622.760	102365
622.824	101819
622.889	104711
622.953	109637
623.018	137428
623.082	142255
623.147	109867
623.211	105435
623.276	108176
623.340	99691
623.404	95831
623.469	94749
623.533	97956
623.597	96474
623.662	95929
623.726	90091
623.790	85885
623.854	84748
623.919	86895
623.983	86068
624.047	89275
624.111	87835
624.176	91312
624.240	97738
624.304	104944
624.368	91805
624.432	89678
624.496	92845
624.560	98879
624.625	106056
624.689	96748
624.753	96617
624.817	93425
624.881	90582
624.945	85514
625.009	82630
625.073	85045
625.137	94144
625.201	105356
625.265	107200
625.329	88821
625.393	91110
625.456	90828
625.520	91277
625.584	99573
625.648	107946
625.712	130112
625.776	211976
625.839	243469
625.903	130220
625.967	86023
626.031	109251
626.095	161162
626.158	99929
626.222	72950
626.286	67069
626.349	65908
626.413	62126
626.477	67132
626.540	63077
626.604	62609
626.668	61474
626.731	61522
626.795	62931
626.858	64609
626.922	61529
626.986	61438
627.049	59753
627.113	62418
627.176	60192
627.240	58280
627.303	59123
627.366	59376
627.430	61449
627.493	61405
627.557	60743
627.620	60724
627.684	61234
627.747	62824
627.810	58281
627.874	55740
627.937	52796
628.000	56932
628.064	55651
628.127	48958
628.190	49643
628.253	50282
628.317	47272
628.380	46874
628.443	46865
628.506	49796
628.569	45781
628.632	43478
628.696	43046
628.759	43769
628.822	40940
628.885	40789
628.948	41598
629.011	41748
629.074	41466
629.137	40476
629.200	40480
629.263	44583
629.326	39257
629.389	40312
629.452	38642
629.515	40411
629.578	39116
629.641	42358
629.704	41829
629.767	42462
629.830	38112
629.892	38089
629.955	36898
630.018	40770
630.081	42965
630.144	51561
630.207	42441
630.269	43314
630.332	41994
630.395	39743
630.458	36804
630.520	37111
630.583	36753
630.646	36090
630.708	34978
630.771	35757
630.834	36600
630.896	36159
630.959	34855
631.021	35463
631.084	36195
631.146	38879
631.209	42795
631.272	36581
631.334	36493
631.397	36041
631.459	36489
631.522	39210
631.584	39332
631.646	41872
631.709	43132
631.771	52057
631.834	44383
631.896	39730
631.958	35277
632.021	36727
632.083	34410
632.145	36773
632.208	34019
632.270	36620
632.332	33015
632.395	33736
632.457	35005
632.519	33541
632.581	33031
632.643	32671
632.706	33493
632.768	32533
632.830	32489
632.892	32668
632.954	32834
633.016	35166
633.078	32079
633.141	34180
633.203	33130
633.265	33109
633.327	32149
633.389	32937
633.451	36283
633.513	42979
633.575	40607
633.637	39509
633.698	39681
633.760	36284
633.822	35042
633.884	36581
633.946	36188
634.008	37139
634.070	36913
634.132	40305
634.193	41131
634.255	44018
634.317	43852
634.379	45764
634.441	40860
634.502	38015
634.564	36237
634.626	33291
634.687	32342
634.749	31764
634.811	31395
634.873	30757
634.934	30949
634.996	32053
635.057	31407
635.119	31744
635.181	32700
635.242	33035
635.304	29621
635.365	33710
635.427	31819
635.488	34152
635.550	31379
635.611	32680
635.673	31022
635.734	36018
635.796	36751
635.857	39622
635.918	39114
635.980	43184
636.041	43198
636.102	45956
636.164	46715
636.225	45834
636.286	41100
636.348	39025
636.409	34855
636.470	32890
636.531	32614
636.593	33329
636.654	31906
636.715	29459
636.776	28105
636.838	27966
636.899	27814
636.960	27760
637.021	25917
637.082	26186
637.143	26144
637.204	25245
637.265	24983
637.326	26724
637.387	25763
637.448	25191
637.509	26102
637.570	26071
637.631	25411
637.692	24453
637.753	23536
637.814	24209
637.875	24208
637.936	26127
637.997	24429
638.058	26426
638.119	25265
638.179	24497
638.240	23964
638.301	24422
638.362	23464
638.423	24705
638.483	24569
638.544	22275
638.605	23288
638.666	21725
638.726	23153
638.787	23209
638.848	21995
638.908	22689
638.969	21563
639.030	22314
639.090	21928
639.151	22191
639.211	24778
639.272	30222
639.332	46383
639.393	32375
639.453	23763
639.514	24883
639.574	22611
639.635	22148
639.695	21740
639.756	21470
639.816	23034
639.877	26874
639.937	39254
639.997	54283
640.058	27717
640.118	22632
640.178	21463
640.239	20885
640.299	19563
640.359	20058
640.420	21974
640.480	23569
640.540	24525
640.600	25651
640.661	25243
640.721	24772
640.781	30108
640.841	25271
640.901	22645
640.961	22400
641.021	23492
641.082	27220
641.142	34651
641.202	27707
641.262	19085
641.322	21168
641.382	19078
641.442	19527
641.502	18695
641.562	21421
641.622	19960
641.682	21764
641.742	23020
641.802	24379
641.861	21606
641.921	22220
641.981	24099
642.041	24064
642.101	28136
642.161	23443
642.221	18302
642.280	17677
642.340	17582
642.400	17550
642.460	19266
642.519	19862
642.579	18490
642.639	19770
642.698	17786
642.758	21255
642.818	20024
642.877	18924
642.937	22080
642.997	24150
643.056	33230
643.116	24410
643.175	21593
643.235	21789
643.294	20951
643.354	23089
643.414	25089
643.473	30665
643.532	35171
643.592	49664
643.651	77348
643.711	135879
643.770	260734
643.830	610751
643.889	1492533
643.948	461569
644.008	71703
644.067	41882
644.126	31625
644.186	27861
644.245	23614
644.304	21457
644.363	23155
644.423	20457
644.482	19936
644.541	21072
644.600	20308
644.659	26701
644.719	31003
644.778	46365
644.837	74851
644.896	146464
644.955	372642
645.014	157781
645.073	34635
645.132	24568
645.191	24507
645.250	21976
645.309	22261
645.368	24066
645.427	28885
645.486	42039
645.545	78333
645.604	32389
645.663	20705
645.722	21376
645.781	22070
645.840	26394
645.898	32228
645.957	46738
646.016	71018
646.075	125846
646.134	248179
646.192	627316
646.251	1134426
646.310	209111
646.369	48550
646.427	36457
646.486	28271
646.545	23284
646.603	21196
646.662	20018
646.721	18882
646.779	19077
646.838	20028
646.896	24121
646.955	30247
647.014	47106
647.072	79550
647.131	225090
647.189	141085
647.248	24485
647.306	18291
647.365	17675
647.423	14680
647.481	17369
647.540	13653
647.598	16313
647.657	14085
647.715	15216
647.773	13787
647.832	15219
647.890	12996
647.948	14026
648.007	14891
648.065	13156
648.123	13683
648.181	15946
648.240	13879
648.298	13049
648.356	13466
648.414	15412
648.472	13236
648.531	14402
648.589	13220
648.647	13551
648.705	13452
648.763	13795
648.821	14959
648.879	14966
648.937	16985
648.995	20010
649.053	24067
649.111	36141
649.169	58587
649.227	102296
649.285	199921
649.343	616607
649.401	386418
649.459	79924
649.516	51948
649.574	24395
649.632	27129
649.690	30210
649.748	29238
649.806	35439
649.863	61345
649.921	153492
649.979	131565
650.037	23268
650.094	14259
650.152	15533
650.210	12401
650.268	13922
650.325	13264
650.383	14117
650.440	11506
650.498	12476
650.556	12421
650.613	10863
650.671	11217
650.728	11892
650.786	12884
650.843	14244
650.901	11798
650.958	11477
651.016	10804
651.073	11283
651.131	10728
651.188	11167
651.246	11013
651.303	9678
651.360	11304
651.418	10593
651.475	10412
651.532	9650
651.590	10684
651.647	10437
651.704	10647
651.762	11441
651.819	11123
651.876	9956
651.933	10006
651.990	10252
652.048	8568
652.105	9900
652.162	9935
652.219	8830
652.276	9265
652.333	10394
652.390	8164
652.448	10628
652.505	9713
652.562	9447
652.619	9686
652.676	11095
652.733	10891
652.790	9231
652.847	7654
652.904	9226
652.961	8262
653.017	8668
653.074	9759
653.131	11200
653.188	8460
653.245	9966
653.302	9059
653.359	10031
653.415	9418
653.472	9231
653.529	9880
653.586	8928
653.642	7977
653.699	9292
653.756	9160
653.813	8602
653.869	8763
653.926	8369
653.983	8789
654.039	8758
654.096	8898
654.152	9974
654.209	8354
654.266	10095
654.322	9062
654.379	10819
654.435	11989
654.492	11116
654.548	14992
654.605	23118
654.661	13349
654.717	9317
654.774	9784
654.830	9958
654.887	10179
654.943	9173
655.000	10177
655.056	10262
655.112	9240
655.168	8704
655.225	9682
655.281	10874
655.337	12004
655.394	20054
655.450	15299
655.506	13880
655.562	18667
655.618	17858
655.675	8853
655.731	9489
655.787	8614
655.843	10116
655.899	8054
655.955	9406
656.011	8511
656.067	8091
656.123	9305
656.179	9582
656.235	10799
656.291	8780
656.347	9962
656.403	10144
656.459	9319
656.515	10797
656.571	10113
656.627	10675
656.683	8734
656.739	10095
656.795	9204
656.850	10508
656.906	11946
656.962	10879
657.018	8723
657.074	10140
657.129	10836
657.185	13369
657.241	22214
657.297	17728
657.352	10088
657.408	9780
657.464	10815
657.519	9354
657.575	7125
657.630	8730
657.686	8134
657.742	8144
657.797	8414
657.853	8429
657.908	9530
657.964	8027
658.019	7550
658.075	8789
658.130	8550
658.186	7798
658.241	7978
658.297	7949
658.352	7620
658.407	8961
658.463	7357
658.518	9095
658.573	8266
658.629	7583
658.684	7436
658.739	8041
658.795	6790
658.850	8408
658.905	7057
658.960	9174
659.016	7267
659.071	7580
659.126	9397
659.181	10242
659.236	14870
659.291	17566
659.346	10858
659.401	10527
659.457	8112
659.512	8962
659.567	9119
659.622	8802
659.677	8019
659.732	8004
659.787	9008
659.842	10113
659.897	11040
659.952	8480
660.007	8482
660.061	8021
660.116	7397
660.171	7629
660.226	7660
660.281	8374
660.336	6038
660.391	8568
660.445	6973
660.500	8326
660.555	7933
660.610	7696
660.664	8193
660.719	7479
660.774	7835
660.828	9159
660.883	8734
660.938	8462
660.992	6941
661.047	8039
661.101	7249
661.156	7639
661.211	7086
661.265	8218
661.320	7280
661.374	8254
661.429	6766
661.483	7502
661.538	6300
661.592	7975
661.647	7162
661.701	7831
661.755	7610
661.810	8886
661.864	6936
661.919	7199
661.973	7800
662.027	7867
662.081	6848
662.136	8284
662.190	7947
662.244	7970
662.299	8340
662.353	7785
662.407	7066
662.461	9068
662.515	7782
662.569	7351
662.624	8105
662.678	8145
662.732	7485
662.786	7852
662.840	7437
662.894	7938
662.948	6922
663.002	8377
663.056	7940
663.110	7382
663.164	7065
663.218	7826
663.272	8592
663.326	8417
663.380	8033
663.434	8729
663.488	8303
663.542	7767
663.595	7871
663.649	7305
663.703	7336
663.757	8432
663.811	6100
663.864	7030
663.918	7981
663.972	7214
664.026	6493
664.079	7694
664.133	8139
664.187	7949
664.240	6677
664.294	7345
664.348	8279
664.401	8067
664.455	6849
664.508	7025
664.562	7574
664.615	7758
664.669	6857
664.722	6627
664.776	7239
664.829	7315
664.883	7582
664.936	7458
664.990	7944
665.043	8437
665.097	8890
665.150	10105
665.203	8320
665.257	8150
665.310	7608
665.363	7873
665.417	8300
665.470	7749
665.523	7591
665.576	7803
665.630	7219
665.683	7793
665.736	7254
665.789	8556
665.842	7141
665.895	8396
665.949	7678
666.002	7657
666.055	7736
666.108	9030
666.161	7706
666.214	8222
666.267	9103
666.320	10258
666.373	8562
666.426	8591
666.479	7458
666.532	9674
666.585	8995
666.638	10736
666.691	10035
666.744	10366
666.796	9103
666.849	9521
666.902	9032
666.955	7802
667.008	7421
667.060	7195
667.113	6769
667.166	7139
667.219	7457
667.271	7695
667.324	7452
667.377	8081
667.430	7346
667.482	7845
667.535	8495
667.587	8815
667.640	8855
667.693	11245
667.745	15059
667.798	18149
667.850	9278
667.903	8328
667.955	8402
668.008	7419
668.060	9307
668.113	9404
668.165	8985
668.218	9712
668.270	8150
668.322	8791
668.375	7557
668.427	8867
668.479	7658
668.532	8773
668.584	8312
668.636	8178
668.689	8429
668.741	8606
668.793	7537
668.845	7525
668.898	8085
668.950	8169
669.002	7866
669.054	7972
669.106	7882
669.158	9796
669.211	8428
669.263	8523
669.315	8695
669.367	10048
669.419	8659
669.471	10473
669.523	10652
669.575	12856
669.627	11478
669.679	9547
669.731	8918
669.783	10443
669.835	9909
669.886	10071
669.938	10114
669.990	8995
670.042	9324
670.094	8969
670.146	10162
670.197	11376
670.249	12710
670.301	15379
670.353	19179
670.404	26800
670.456	37182
670.508	57085
670.560	92769
670.611	160189
670.663	279245
670.715	620294
670.766	1097766
670.818	393888
670.869	67513
670.921	35084
670.972	25495
671.024	20146
671.075	15084
671.127	13823
671.178	11418
671.230	12634
671.281	11432
671.333	12223
671.384	12728
671.436	14180
671.487	14988
671.538	17665
671.590	23608
671.641	33025
671.692	50004
671.744	94670
671.795	79335
671.846	34356
671.897	18874
671.949	14784
672.000	11362
672.051	11319
672.102	10084
672.153	9332
672.204	8959
672.256	9753
672.307	9597
672.358	9245
672.409	9078
672.460	7916
672.511	8463
672.562	9211
672.613	7480
672.664	8462
672.715	7213
672.766	7898
672.817	6220
672.868	7869
672.919	6655
672.970	7959
673.021	7865
673.071	6944
673.122	7561
673.173	8034
673.224	7105
673.275	7443
673.326	7005
673.376	7238
673.427	6432
673.478	7311
673.528	7458
673.579	7256
673.630	6523
673.680	7716
673.731	6533
673.782	6684
673.832	7315
673.883	7583
673.934	7123
673.984	6825
674.035	7002
674.085	6986
674.136	7151
674.186	8436
674.237	8791
674.287	12390
674.338	8806
674.388	7373
674.438	6742
674.489	7456
674.539	7226
674.589	7267
674.640	6845
674.690	7269
674.740	7299
674.791	8085
674.841	8132
674.891	8150
674.942	5630
674.992	7441
675.042	6926
675.092	6649
675.142	6480
675.193	6198
675.243	6475
675.293	6817
675.343	6958
675.393	7790
675.443	7065
675.493	6533
675.543	5989
675.593	6777
675.643	6000
675.693	7990
675.743	7146
675.793	6302
675.843	5459
675.893	8027
675.943	6028
675.993	5452
676.043	6020
676.093	7370
676.142	5579
676.192	6738
676.242	5486
676.292	5761
676.341	5667
676.391	6430
676.441	5561
676.491	6244
676.540	5429
676.590	6232
676.640	5698
676.689	5795
676.739	4198
676.789	5794
676.838	5828
676.888	5787
676.937	5402
676.987	5644
677.037	5219
677.086	5456
677.136	5294
677.185	5481
677.235	4742
677.284	5611
677.333	4629
677.383	5003
677.432	4492
677.482	5061
677.531	4975
677.580	5030
677.630	4624
677.679	3908
677.728	5525
677.778	5683
677.827	4483
677.876	5013
677.925	4502
677.975	5568
678.024	4745
678.073	5429
678.122	6235
678.171	6071
678.220	5713
678.269	6333
678.319	6717
678.368	5722
678.417	6023
678.466	6250
678.515	5900
678.564	6869
678.613	5411
678.662	6613
678.711	6112
678.760	5776
678.809	4982
678.857	5430
678.906	5252
678.955	5749
679.004	5684
679.053	5520
679.102	4533
679.151	5836
679.199	5062
679.248	5269
679.297	5397
679.346	5831
679.394	5301
679.443	5006
679.492	4875
679.540	5138
679.589	4273
679.638	5351
679.686	4142
679.735	5410
679.784	5442
679.832	6326
679.881	5548
679.929	4705
679.978	4091
680.026	4876
680.075	4435
680.123	5345
680.172	4133
680.220	3809
680.268	4981
680.317	4525
680.365	4768
680.414	3590
680.462	4487
680.510	5198
680.559	4113
680.607	5208
680.655	4338
680.703	4933
680.752	4315
680.800	3800
680.848	4228
680.896	4319
680.945	4547
680.993	4708
681.041	4706
681.089	4335
681.137	4051
681.185	4727
681.233	4060
681.258	4197
681.281	4281
681.329	4380
681.377	4720
681.380	4746
681.425	4357
681.473	4752
681.502	4805
681.521	4750
681.569	5874
681.617	4986
681.624	5093
681.665	5430
681.713	5062
681.745	5633
681.761	5846
681.809	4902
681.857	6215
681.867	5924
681.904	4727
681.952	5627
681.989	5204
682.000	5010
682.048	5768
682.096	5375
682.111	5816
682.143	6653
682.191	5780
682.233	6711
682.239	6796
682.286	6321
682.334	6557
682.354	6465
682.382	6240
682.430	7138
682.476	6776
682.477	6730
682.525	5937
682.572	6943
682.598	7019
682.620	7002
682.667	6967
682.715	7354
682.720	7381
682.763	7206
682.810	6857
682.841	7292
682.857	7454
682.905	7174
682.952	7360
682.963	7366
683.000	7240
683.047	7009
683.085	8629
683.095	9006
683.142	7397
683.190	8344
683.206	7977
683.237	7310
683.284	8709
683.328	8439
683.332	8371
683.379	8708
683.426	7201
683.449	7570
683.473	7908
683.521	7941
683.568	8542
683.571	8548
683.615	8086
683.662	8759
683.693	8584
683.709	8492
683.757	8143
683.804	8485
683.814	8650
683.851	9014
683.898	8810
683.936	9627
683.945	9820
683.992	9519
684.039	9777
684.057	9844
684.086	9805
684.133	10028
684.179	9287
684.180	9231
684.227	10563
684.274	9940
684.300	10586
684.321	11063
684.368	10199
684.415	10144
684.422	10152
684.462	9952
684.509	9969
684.543	10041
684.556	10066
684.603	10064
684.649	9701
684.665	9963
684.696	10474
684.743	9534
684.786	10832
684.790	10924
684.837	10291
684.883	12085
684.908	11976
684.930	11809
684.977	12451
685.023	12182
685.029	12253
685.070	12309
685.117	11529
685.150	11849
685.164	12114
685.210	12339
685.257	13040
685.272	13354
685.303	13571
685.350	12802
685.393	13045
685.396	13074
685.443	13208
685.490	14282
685.514	14270
685.536	14082
685.583	13202
685.629	13230
685.636	13252
685.675	13227
685.722	13262
685.757	12958
685.768	12885
685.815	13730
685.861	13169
685.878	13352
685.908	13716
685.954	13492
686.000	14656
686.000	14668
686.047	14376
686.093	16412
686.121	16211
686.139	15790
686.185	15148
686.232	14118
686.242	14167
686.278	14265
686.324	14184
686.363	13783
686.370	13696
686.416	14330
686.463	14283
686.484	13872
686.509	13641
686.555	13632
686.601	13392
686.606	13478
686.647	14134
686.693	14393
686.727	14598
686.739	14613
686.785	13878
686.831	14558
686.848	14524
686.877	14486
686.923	14162
686.969	13684
686.969	13680
687.015	13914
687.061	14695
687.090	14812
687.107	14822
687.153	14554
687.199	14615
687.211	14384
687.245	13902
687.291	14975
687.332	15348
687.336	15394
687.382	15432
687.428	15643
687.453	15880
687.474	15805
687.520	15274
687.565	14796
687.574	14807
687.611	15277
687.657	15023
687.695	15714
687.702	15873
687.748	15840
687.794	16330
687.816	16590
687.839	16523
687.885	15937
687.931	15999
687.937	15803
687.976	15064
688.022	15993
688.058	16182
688.067	16213
688.113	16099
688.158	15006
688.179	15373
688.204	15911
688.249	15901
688.295	16487
688.300	16538
688.340	17164
688.386	17737
688.421	17055
688.431	16777
688.477	17072
688.522	17145
688.542	17185
688.567	17299
688.613	17364
688.658	17245
688.663	17210
688.703	17128
688.749	17600
688.784	17208
688.794	17087
688.839	16903
688.884	16892
688.905	17113
688.930	17477
688.975	17154
689.020	17438
689.026	17406
689.065	17428
689.110	17688
689.146	17487
689.155	17379
689.201	17563
689.246	17210
689.267	16974
689.291	16911
689.336	17032
689.381	17909
689.388	17856
689.426	17569
689.471	17656
689.509	17589
689.516	17603
689.561	17746
689.606	17470
689.630	17423
689.651	17398
689.696	17342
689.741	17074
689.750	17085
689.785	17387
689.830	17912
689.871	17394
689.875	17320
689.920	17565
689.965	17146
689.992	17015
690.010	17142
690.054	17016
690.099	17622
690.112	17559
690.144	17414
690.189	17796
690.233	16674
690.233	16690
690.278	17064
690.323	17205
690.354	17296
690.367	17481
690.412	17512
690.457	18054
690.474	18111
690.501	17973
690.546	17297
690.590	17703
690.595	17611
690.635	17340
690.680	17607
690.716	17554
690.724	17613
690.769	17783
690.813	18630
690.836	18471
690.857	18481
690.902	19176
690.946	19944
690.957	20105
690.991	21327
691.035	22938
691.077	24281
691.080	24365
691.124	24963
691.168	25672
691.198	25954
691.213	25477
691.257	24294
691.301	23139
691.318	22693
691.346	22231
691.390	20970
691.434	20133
691.439	19965
691.478	19822
691.522	20040
691.559	19889
691.567	19926
691.611	20628
691.655	20146
691.680	20467
691.699	20661
691.743	20457
691.787	20691
691.800	20566
691.831	20545
691.875	20741
691.919	20894
691.921	20867
691.964	21463
692.008	21998
692.041	22249
692.052	22193
692.096	21512
692.139	21914
692.162	21412
692.183	21047
692.227	21027
692.271	21027
692.282	20874
692.315	20931
692.359	21095
692.402	21781
692.403	21824
692.447	21445
692.490	21834
692.523	21718
692.534	21771
692.578	22459
692.622	22307
692.643	22467
692.666	22395
692.709	21801
692.753	21282
692.763	21146
692.797	21054
692.840	20889
692.884	20567
692.884	20609
692.928	21209
692.971	21361
693.004	21616
693.015	21676
693.059	21550
693.102	21941
693.124	21724
693.146	21698
693.189	21999
693.233	22260
693.245	22332
693.276	22729
693.320	22623
693.363	22702
693.365	22672
693.407	23031
693.450	23506
693.485	23125
693.493	23113
693.537	23563
693.580	23739
693.605	23949
693.624	24349
693.667	24912
693.710	25594
693.725	25791
693.753	28069
693.797	31527
693.840	35383
693.845	35705
693.883	36140
693.926	36638
693.966	36980
693.970	36672
694.013	32714
694.056	29071
694.086	26303
694.099	26182
694.142	25846
694.185	25177
694.206	24930
694.229	24806
694.272	24442
694.315	24228
694.326	24027
694.358	24027
694.401	24360
694.444	24368
694.446	24326
694.487	24575
694.530	24359
694.566	24596
694.573	24535
694.616	23468
694.659	22492
694.686	21897
694.702	21943
694.745	21864
694.787	21451
694.806	21463
694.830	21651
694.873	21811
694.916	21648
694.926	21567
694.959	21693
695.002	22240
695.044	22101
695.046	22073
695.087	23031
695.130	23521
695.166	24004
695.172	24030
695.215	23858
695.258	23670
695.286	23378
695.301	23368
695.343	23289
695.386	23153
695.406	23160
695.428	23298
695.471	23155
695.514	23052
695.526	22973
695.556	23207
695.599	23836
695.641	23989
695.646	23989
695.684	23926
695.726	23482
695.766	23113
695.769	23165
695.811	23055
695.854	23099
695.886	23086
695.896	23169
695.938	23135
695.981	23150
696.005	22980
696.023	22955
696.065	23115
696.108	23376
696.125	23318
696.150	23800
696.192	24506
696.235	25309
696.245	25464
696.277	25374
696.319	24925
696.361	24744
696.365	24655
696.404	24564
696.446	24388
696.485	24285
696.488	24345
696.530	24278
696.572	24276
696.604	24099
696.614	24169
696.656	24201
696.698	24383
696.724	24397
696.740	24415
696.783	24439
696.825	24319
696.844	24241
696.867	24418
696.909	24432
696.951	24766
696.964	24701
696.992	24444
697.034	24151
697.076	23876
697.083	23779
697.118	24260
697.160	24575
697.202	25104
697.203	25053
697.244	25063
697.286	25052
697.323	24875
697.327	24899
697.369	24710
697.411	24396
697.442	24195
697.453	24447
697.494	24974
697.536	25783
697.562	26133
697.578	26187
697.620	26187
697.661	26160
697.682	26108
697.703	26332
697.744	26619
697.786	26990
697.801	27005
697.828	27426
697.869	28000
697.911	28609
697.921	28687
697.952	27985
697.994	26922
698.035	25896
698.040	25702
698.077	25523
698.118	25249
698.160	24990
698.160	24923
698.201	25036
698.243	25039
698.279	25014
698.284	25120
698.325	25496
698.367	25857
698.399	26064
698.408	26089
698.449	25898
698.491	25707
698.518	25514
698.532	25612
698.573	25712
698.614	25833
698.638	25798
698.656	25953
698.697	26197
698.738	26417
698.757	26466
698.779	26763
698.820	27163
698.862	27589
698.877	27672
698.903	27661
698.944	27536
698.985	27389
698.996	27283
699.026	27200
699.067	26983
699.116	26658
699.235	27082
699.354	26707
699.474	26687
699.593	27770
699.713	28438
699.832	25999
699.951	27008
700.070	26367
700.190	25978
700.309	26052
700.428	26122
700.547	25878
700.667	24847
700.786	26981
700.905	24945
701.024	26103
701.143	26036
701.262	23733
701.381	24229
701.500	24879
701.619	26099
701.738	23796
701.857	23153
701.976	22511
702.095	22938
702.214	24673
702.333	25306
702.452	23243
702.571	24247
702.690	23812
702.809	22846
702.928	23643
703.047	22676
703.165	21719
703.284	22382
703.403	22122
703.522	24200
703.640	23579
703.759	25086
703.878	30385
703.997	24717
704.115	21538
704.234	21929
704.353	21414
704.471	21235
704.590	19791
704.708	20345
704.827	20371
704.946	20874
705.064	22620
705.183	21259
705.301	23849
705.420	31962
705.538	30641
705.656	26811
705.775	24684
705.893	28256
706.012	32203
706.130	26176
706.249	26230
706.367	26807
706.485	27286
706.604	26127
706.722	26845
706.840	29701
706.958	29584
707.077	26710
707.195	24913
707.313	24126
707.431	23801
707.549	24096
707.668	23880
707.786	24879
707.904	23844
708.022	23853
708.140	24153
708.258	22471
708.376	22981
708.494	23046
708.612	24987
708.730	31869
708.848	33951
708.966	29903
709.084	28911
709.202	27130
709.320	28547
709.438	27920
709.556	27502
709.674	28066
709.791	28169
709.909	27103
710.027	27334
710.145	26870
710.263	27449
710.380	27255
710.498	25871
710.616	27174
710.733	26291
710.851	26324
710.969	28581
711.086	26608
711.204	26193
711.322	25029
711.439	26162
711.557	26035
711.674	25443
711.792	24168
711.909	25445
712.027	24682
712.144	24231
712.262	23932
712.379	26354
712.497	33882
712.614	37861
712.732	31528
712.849	29761
712.966	29386
713.084	34790
713.201	31480
713.318	31235
713.436	30036
713.553	29676
713.670	31010
713.787	33138
713.905	33199
714.022	31119
714.139	30217
714.256	34869
714.373	40387
714.490	58727
714.608	120150
714.725	497912
714.842	744788
714.959	73871
715.076	35728
715.193	31270
715.310	29797
715.427	26768
715.544	25780
715.661	26925
715.778	26868
715.895	28680
716.011	27953
716.128	27091
716.245	26574
716.362	28205
716.479	29034
716.596	25588
716.713	25786
716.829	24315
716.946	25635
717.063	23749
717.180	23932
717.296	23196
717.413	24276
717.530	23338
717.646	23165
717.763	22761
717.880	21189
717.996	22525
718.113	22169
718.229	21977
718.346	21461
718.462	21189
718.579	24529
718.695	33856
718.812	30959
718.928	27153
719.045	23368
719.161	20935
719.277	19910
719.394	20156
719.510	21852
719.626	22270
719.743	26394
719.859	30316
719.975	47764
720.092	141329
720.208	410026
720.324	77208
720.440	25852
720.557	26121
720.673	29729
720.789	37843
720.905	66167
721.021	36797
721.137	19989
721.253	19750
721.369	20417
721.486	22447
721.602	28205
721.718	20937
721.834	18636
721.950	19943
722.066	18366
722.181	18971
722.297	18991
722.413	18331
722.529	17547
722.645	17640
722.761	17387
722.877	17839
722.993	18048
723.108	19026
723.224	18432
723.340	18102
723.456	16881
723.571	16227
723.687	17021
723.803	16408
723.918	16623
724.034	16911
724.150	16226
724.265	18077
724.381	26872
724.497	39559
724.612	16940
724.728	15140
724.843	15133
724.959	17148
725.074	26323
725.190	35720
725.305	16309
725.421	16865
725.536	14687
725.651	14754
725.767	14148
725.882	14267
725.997	14622
726.113	15040
726.228	13976
726.343	13912
726.459	13651
726.574	14831
726.689	14495
726.804	14837
726.920	14594
727.035	14698
727.150	14580
727.265	14285
727.380	14581
727.495	13057
727.610	13234
727.725	13266
727.841	14180
727.956	15011
728.071	17170
728.186	13938
728.301	12614
728.416	14339
728.531	13005
728.645	12837
728.760	13588
728.875	14451
728.990	13084
729.105	13824
729.220	13458
729.335	13771
729.449	13536
729.564	11962
729.679	11238
729.794	12806
729.908	12812
730.023	13178
730.138	11508
730.253	12266
730.367	12468
730.482	11700
730.596	12559
730.711	12357
730.826	13186
730.940	12930
731.055	12476
731.169	12228
731.284	12060
731.398	11635
731.513	13692
731.627	13879
731.742	14714
731.856	16726
731.970	13755
732.085	16535
732.199	20172
732.313	28505
732.428	62833
732.542	186063
732.656	147099
732.771	30269
732.885	18459
732.999	16553
733.113	15092
733.227	15130
733.342	13631
733.456	13898
733.570	13474
733.684	12783
733.798	13059
733.912	12384
734.026	12731
734.140	12574
734.254	12562
734.368	17169
734.482	23551
734.596	12652
734.710	13125
734.824	11167
734.938	11523
735.052	12320
735.166	12935
735.280	12193
735.393	10965
735.507	12009
735.621	13790
735.735	21106
735.849	15003
735.962	11557
736.076	11765
736.190	12165
736.303	14366
736.417	18939
736.531	11691
736.644	11160
736.758	10413
736.872	10133
736.985	10662
737.099	11003
737.212	9867
737.326	10709
737.439	10504
737.553	10906
737.666	10807
737.780	9695
737.893	9632
738.007	10045
738.120	10236
738.233	10686
738.347	9883
738.460	9810
738.573	10824
738.687	10353
738.800	11046
738.913	11977
739.026	10571
739.140	10267
739.253	10311
739.366	9705
739.479	8809
739.592	8883
739.705	9439
739.818	9482
739.932	8880
740.045	10414
740.158	10209
740.271	9770
740.384	9473
740.497	10165
740.610	10404
740.723	8927
740.836	9917
740.949	9607
741.062	11623
741.174	12129
741.287	9909
741.400	9852
741.513	9237
741.626	10714
741.739	9975
741.851	8621
741.964	9857
742.077	9187
742.189	9525
742.302	10068
742.415	9106
742.527	8898
742.640	9164
742.753	8803
742.865	7752
742.978	8959
743.090	8517
743.203	7879
743.316	8253
743.428	8280
743.541	7733
743.653	7735
743.766	8393
743.878	9088
743.990	8901
744.103	11438
744.215	7854
744.327	7951
744.440	10360
744.552	13147
744.664	10043
744.777	8470
744.889	6762
745.001	8068
745.113	7921
745.226	7688
745.338	7999
745.450	7966
745.562	7617
745.674	8196
745.786	7995
745.898	7452
746.010	7621
746.122	8301
746.234	8998
746.347	7606
746.459	8075
746.570	7320
746.682	7537
746.794	7675
746.906	6641
747.018	7766
747.130	7543
747.242	6759
747.354	7046
747.466	8872
747.577	7350
747.689	7081
747.801	7354
747.913	6778
748.024	7036
748.136	7308
748.248	6320
748.359	7082
748.471	7512
748.583	6869
748.694	6729
748.806	7736
748.918	8375
749.029	7767
749.141	7524
749.252	7935
749.364	8436
749.475	13932
749.587	11043
749.698	7063
749.809	7497
749.921	7458
750.032	6680
750.144	6278
750.255	5961
750.366	6753
750.478	6864
750.589	6699
750.700	6155
750.811	8115
750.923	8475
751.034	13826
751.145	16424
751.256	7089
751.367	6661
751.479	6413
751.590	6921
751.701	6983
751.812	6422
751.923	6111
752.034	5991
752.145	6398
752.256	6572
752.367	5566
752.478	6042
752.589	6948
752.700	6206
752.811	5862
752.922	6199
753.032	6591
753.143	8113
753.254	6194
753.365	7177
753.476	7202
753.586	6424
753.697	5693
753.808	5862
753.919	6436
754.029	4901
754.140	5661
754.251	5450
754.361	6211
754.472	6055
754.582	5903
754.693	5852
754.804	5836
754.914	5593
755.025	5121
755.135	6163
755.246	6277
755.356	5532
755.466	5998
755.577	5502
755.687	5612
755.798	5069
755.908	5912
756.018	4731
756.129	5303
756.239	6175
756.349	5413
756.460	5883
756.570	5986
756.680	6123
756.790	5803
756.900	6699
757.011	5496
757.121	5644
757.231	5368
757.341	6189
757.451	5118
757.561	4706
757.671	5753
757.781	5846
757.891	6446
758.001	6080
758.111	5899
758.221	5832
758.331	6013
758.441	6792
758.551	7963
758.661	8972
758.771	6603
758.880	6139
758.990	7374
759.100	6311
759.210	6351
759.320	6054
759.429	6726
759.539	7120
759.649	5514
759.758	6326
759.868	6945
759.978	6757
760.087	7049
760.197	7147
760.307	6627
760.416	6298
760.526	7148
760.635	7415
760.745	8264
760.854	7286
760.964	8146
761.073	8238
761.182	7864
761.292	7199
761.401	7579
761.511	5871
761.620	6457
761.729	6409
761.839	6778
761.948	6338
762.057	6395
762.166	6121
762.276	6084
762.385	6902
762.494	6482
762.603	6507
762.712	6813
762.822	6596
762.931	7140
763.040	6011
763.149	6281
763.258	5933
763.367	6644
763.476	6813
763.585	7687
763.694	6916
763.803	7090
763.912	7148
764.021	7335
764.130	6743
764.238	7274
764.347	6984
764.456	6909
764.565	8296
764.674	8095
764.783	7538
764.891	7776
765.000	9266
765.109	9836
765.217	9609
765.326	12150
765.435	13675
765.543	14918
765.652	16594
765.761	18766
765.869	27101
765.978	40835
766.086	68635
766.195	131412
766.303	315574
766.412	824200
766.520	828036
766.629	309997
766.737	106354
766.846	57999
766.954	38275
767.062	28038
767.171	22530
767.279	18855
767.387	14924
767.496	13177
767.604	12590
767.712	11553
767.820	10806
767.928	10046
768.037	9263
768.145	9736
768.253	10582
768.361	9456
768.469	8658
768.577	9632
768.685	9924
768.793	9920
768.901	10539
769.009	11372
769.117	11135
769.225	13940
769.333	18673
769.441	29563
769.549	52846
769.657	113475
769.765	333959
769.873	748334
769.981	375298
770.088	89862
770.196	39388
770.304	25969
770.412	20615
770.519	16451
770.627	13443
770.735	11242
770.842	10327
770.950	10075
771.058	9177
771.165	9855
771.273	9132
771.380	7773
771.488	8756
771.595	7648
771.703	8646
771.810	7817
771.918	7967
772.025	8227
772.133	9363
772.240	8147
772.348	9204
772.455	8372
772.562	7757
772.670	7518
772.777	8234
772.884	7472
772.991	7767
773.099	7208
773.206	7157
773.313	8173
773.420	6968
773.528	7251
773.635	6626
773.742	7635
773.849	7152
773.956	7427
774.063	6872
774.170	6538
774.277	7256
774.384	6982
774.491	6897
774.598	7075
774.705	6746
774.812	8606
774.919	7891
775.026	7145
775.133	6615
775.239	6926
775.346	6880
775.453	6163
775.560	6308
775.667	6651
775.773	6845
775.880	6489
775.987	6044
776.093	7048
776.200	6546
776.307	5834
776.413	5788
776.520	6975
776.627	6052
776.733	6849
776.840	6114
776.946	7714
777.053	6009
777.159	6440
777.266	5823
777.372	6912
777.478	6024
777.585	6176
777.691	6032
777.798	6397
777.904	6841
778.010	8226
778.117	7625
778.223	6474
778.329	5596
778.435	5864
778.542	5958
778.648	6213
778.754	5117
778.860	6912
778.966	5891
779.072	5430
779.178	5906
779.284	5529
779.391	5649
779.497	5641
779.603	6872
779.708	5986
779.815	7737
779.920	15844
780.026	34091
780.132	10358
780.238	5844
780.344	5465
780.450	5379
780.556	5382
780.661	5393
780.767	5264
780.873	4713
780.979	6508
781.085	5150
781.190	5125
781.296	4365
781.402	5010
781.507	4781
781.613	5619
781.719	5094
781.824	5234
781.930	5602
782.035	5410
782.141	5777
782.246	5037
782.352	4788
782.457	4552
782.563	4729
782.668	5069
782.773	5184
782.879	5007
782.984	5269
783.090	6326
783.195	7408
783.300	6182
783.405	4991
783.511	4673
783.616	4914
783.721	5279
783.826	4057
783.932	5157
784.037	4941
784.142	4318
784.247	5470
784.352	4769
784.457	4622
784.562	4892
784.667	4939
784.772	4906
784.877	4351
784.982	5264
785.087	4899
785.192	4869
785.297	4359
785.402	4415
785.507	4576
785.611	5022
785.716	4110
785.821	5032
785.926	4479
786.031	4547
786.135	4119
786.240	4232
786.345	3525
786.450	4258
786.554	4608
786.659	3739
786.763	3881
786.868	4403
786.973	4513
787.077	4221
787.182	4246
787.286	4636
787.391	3774
787.495	4433
787.600	3994
787.704	4507
787.809	4350
787.913	3914
788.017	4022
788.122	4271
788.226	3912
788.330	4238
788.435	3568
788.539	4662
788.643	3621
788.747	3462
788.852	2955
788.956	3887
789.060	4328
789.164	3444
789.268	2779
789.372	3939
789.476	3870
789.580	3790
789.684	2718
789.788	4122
789.892	3461
789.996	3652
790.100	4134
790.204	3239
790.308	4444
790.412	2944
790.516	2973
790.620	3451
790.724	3748
790.828	3593
790.931	3932
791.035	4395
791.139	4080
791.242	3687
791.346	4685
791.450	3956
791.554	3729
791.657	2786
791.761	4393
791.864	4044
791.968	3540
792.072	4097
792.175	4060
792.279	3557
792.382	3783
792.486	3475
792.589	3601
792.693	3703
792.796	2749
792.899	3950
793.003	3431
793.106	3141
793.209	3172
793.313	3898
793.416	3114
793.519	4574
793.623	5331
793.726	7185
793.829	4091
793.932	3592
794.035	3028
794.138	4238
794.242	4007
794.345	3843
794.448	4933
794.551	6148
794.654	10427
794.757	16074
794.860	7235
794.963	4399
795.066	2733
795.169	2944
795.272	2189
795.375	3427
795.477	2237
795.580	3252
795.683	1826
795.786	3607
795.889	1688
795.991	3526
796.094	4120
796.197	2728
796.300	4008
796.402	2964
796.505	2826
796.608	2348
796.710	3244
796.813	3746
796.915	3029
797.018	3868
797.120	2944
797.223	2079
797.326	3644
797.428	2560
797.530	2695
797.633	2405
797.735	3854
797.838	5618
797.940	5116
798.042	3241
798.145	2623
798.247	2411
798.349	2392
798.452	2957
798.554	2587
798.656	2227
798.758	3925
798.860	3279
798.962	3123
799.065	2137
799.167	2704
799.269	3421
799.371	3703
799.473	4347
799.575	3745
799.677	4579
799.779	4981
799.881	4548
799.983	4707
800.085	3622
800.187	2306
800.289	2290
800.390	2590
800.492	2986
800.594	2714
800.696	2027
800.798	1781
800.899	1872
801.001	2145
801.103	3047
801.205	1887
801.306	2151
801.408	1706
801.509	2627
801.611	2883
801.713	2670
801.814	2147
801.916	2133
802.017	2281
802.119	1754
802.220	2659
802.322	1588
802.423	4035
802.525	2602
802.626	2741
802.727	3093
802.829	3209
802.930	1778
803.031	3214
803.133	2279
803.234	1929
803.335	2399
803.436	2234
803.538	1593
803.639	1088
803.740	2829
803.841	1443
803.942	2793
804.043	2421
804.144	1795
804.245	2538
804.346	1958
804.447	1661
804.548	3176
804.649	4276
804.750	2404
804.851	1848
804.952	2145
805.053	2202
805.154	768
805.255	2694
805.355	1673
805.456	1404
805.557	1542
805.658	886
805.758	2737
805.859	2732
805.960	2196
806.061	929
806.161	1472
806.262	1289
806.362	2163
806.463	1780
806.564	1910
806.664	2265
806.765	2865
806.865	3675
806.966	2726
807.066	1575
807.166	2834
807.267	2373
807.367	2485
807.468	2270
807.568	2260
807.668	2253
807.769	2701
807.869	1702
807.969	3308
808.069	2339
808.170	2617
808.270	2175
808.370	2587
808.470	3554
808.570	2501
808.670	2017
808.770	2060
808.870	1985
808.970	2884
809.070	1558
809.170	2250
809.271	2243
809.370	988
809.470	1912
809.570	1929
809.670	1685
809.770	2524
809.870	1681
809.970	2054
810.070	1563
810.169	2074
810.269	1461
810.369	2424
810.469	1900
810.568	1851
810.668	1920
810.768	1747
810.867	1987
810.967	1853
811.066	2169
811.166	2306
811.265	2325
811.365	1874
811.464	2656
811.564	2251
811.663	2253
811.763	965
811.862	2740
811.962	3527
812.061	2277
812.160	2102
812.260	2396
812.359	2540
812.458	2940
812.557	6292
812.657	9425
812.756	5297
812.855	2405
812.954	1994
813.053	3233
813.153	2998
813.252	2419
813.351	2604
813.450	2967
813.549	2264
813.648	2791
813.747	2223
813.846	3018
813.945	3094
814.044	2506
814.143	3431
814.242	3469
814.341	2985
814.439	3262
814.538	3930
814.637	3459
814.736	3261
814.835	4252
814.933	4158
815.032	4414
815.131	4134
815.229	4729
815.328	6360
815.427	5214
815.525	5656
815.624	5402
815.722	5160
815.821	5888
815.919	5689
816.018	5931
816.116	6440
816.215	6516
816.313	7246
816.412	7488
816.510	8378
816.609	10370
816.707	9400
816.805	10237
816.904	10392
817.002	11657
817.100	13730
817.198	15228
817.296	15663
817.395	18934
817.493	22879
817.591	27231
817.689	35290
817.787	47655
817.885	69045
817.983	112747
818.081	207742
818.179	410922
818.277	809557
818.375	829496
818.473	424402
818.571	205193
818.669	127347
818.767	101069
818.865	95229
818.963	107826
819.061	138419
819.158	210184
819.256	361768
819.354	659643
819.452	1051031
819.549	893599
819.647	512660
819.745	273215
819.842	165669
819.940	111335
820.038	78953
820.135	61454
820.233	49060
820.330	39390
820.428	32533
820.525	30075
820.623	24285
820.720	20939
820.818	19584
820.915	16818
821.012	15901
821.110	12732
821.207	13927
821.304	12030
821.402	10647
821.499	10753
821.596	9388
821.693	9362
821.791	8902
821.888	8865
821.985	12007
822.082	10786
822.179	8331
822.276	7362
822.373	7252
822.470	6306
822.567	6102
822.664	5630
822.761	5408
822.858	4601
822.955	5266
823.052	5596
823.149	4627
823.246	5261
823.343	3850
823.440	4348
823.536	4162
823.633	4597
823.730	4339
823.827	4594
823.923	3996
824.020	5050
824.117	3178
824.213	2905
824.310	4323
824.407	2730
824.503	3209
824.600	3580
824.696	3229
824.793	4077
824.889	3019
824.986	3174
825.082	3629
825.179	3281
825.275	2291
825.371	2632
825.468	2717
825.564	2098
825.660	2814
825.757	2634
825.853	3126
825.949	2137
826.045	2466
826.142	2334
826.238	2887
826.334	2876
826.430	2356
826.526	2685
826.622	2299
826.718	2920
826.814	2174
826.910	2943
827.006	1780
827.102	1284
827.198	2389
827.294	2601
827.390	2760
827.486	2836
827.582	1419
827.678	668
827.774	2881
827.869	880
827.965	3385
828.061	748
828.157	2843
828.252	1925
828.348	1589
828.444	1921
828.539	987
828.635	1453
828.731	2586
828.826	1861
828.922	1724
829.017	1989
829.113	2409
829.208	1945
829.304	1175
829.399	2528
829.495	2105
829.590	1482
829.685	1831
829.781	1797
829.876	1458
829.971	1172
830.066	1296
830.162	2074
830.257	1086
830.352	1925
830.447	2442
830.543	2479
830.638	573
830.733	2255
830.828	848
830.923	2031
831.018	2022
831.113	2334
831.208	1703
831.303	1780
831.398	1555
831.493	964
831.588	2077
831.683	1244
831.778	2196
831.873	1265
831.967	2047
832.062	1452
832.157	964
832.252	2321
832.346	951
832.441	2168
832.536	3939
832.631	6256
832.725	7825
832.820	850
832.914	1874
833.009	1117
833.104	1734
833.198	2557
833.293	1689
833.387	2311
833.482	1500
833.576	828
833.670	1822
833.765	844
833.859	1761
833.954	2097
834.048	1554
834.142	885
834.237	934
834.331	845
834.425	1400
834.519	-1
834.613	1403
834.708	1018
834.802	1670
834.896	386
834.990	1255
835.084	1621
835.178	1327
835.272	1392
835.366	1391
835.460	1560
835.554	1264
835.648	1446
835.742	948
835.836	1381
835.930	472
836.024	1916
836.117	1247
836.211	1721
836.305	1676
836.399	3140
836.493	1324
836.586	1638
836.680	1055
836.774	547
836.867	2184
836.961	718
837.055	780
837.148	1062
837.242	1368
837.335	446
837.429	1491
837.522	262
837.616	2073
837.709	2972
837.803	2213
837.896	1332
837.989	1189
838.083	2441
838.176	3325
838.269	4170
838.363	1851
838.456	712
838.549	2456
838.642	2805
838.735	8168
838.829	4762
838.922	937
839.015	448
839.108	454
839.201	913
839.294	1195
839.387	667
839.480	734
839.573	1119
839.666	2356
839.759	986
839.852	164
839.945	434
840.038	532
840.131	1493
840.223	1136
840.316	1650
840.409	1285
840.502	644
840.594	1741
840.687	513
840.780	1187
840.873	147
840.965	919
841.058	1241
841.150	2885
841.243	3331
841.336	1710
841.428	594
841.521	1008
841.613	705
841.706	1328
841.798	1303
841.890	1394
841.983	117
842.075	1627
842.167	1068
842.260	723
842.352	2137
842.444	2039
842.537	3685
842.629	6532
842.721	2893
842.813	1336
842.905	35
842.997	2237
843.090	1245
843.182	2237
843.274	3733
843.366	8916
843.458	18048
843.550	14572
843.642	3044
843.734	1513
843.826	1128
843.918	1552
844.009	1416
844.101	229
844.193	627
844.285	459
844.377	261
844.469	894
844.560	-189
844.652	-296
844.744	941
844.835	534
844.927	760
845.019	2085
845.110	1716
845.202	981
845.293	9
845.385	0
845.476	204
845.568	1834
845.659	863
845.751	1236
845.842	259
845.934	-55
846.025	124
846.116	568
846.208	322
846.299	1512
846.390	155
846.482	1434
846.573	763
846.664	1550
846.755	2632
846.846	2704
846.937	95
847.029	1283
847.120	433
847.211	340
847.302	885
847.393	-339
847.484	1158
847.575	386
847.666	220
847.757	531
847.847	1482
847.938	1663
848.029	725
848.120	546
848.211	200
848.302	49
848.392	156
848.483	591
848.574	368
848.664	-108
848.755	431
848.846	812
848.936	510
849.027	398
849.118	590
849.208	428
849.299	1157
849.389	2443
849.480	4709
849.570	9080
849.661	16666
849.751	31514
849.841	16551
849.932	2368
850.022	727
850.112	787
850.203	1320
850.293	495
850.383	77
850.474	84
850.564	582
850.654	561
850.744	973
850.834	1603
850.924	463
851.014	572
851.104	247
851.194	497
851.284	1108
851.374	1980
851.464	1838
851.554	1010
851.644	834
851.734	1814
851.824	2014
851.914	323
852.004	554
852.094	-51
852.183	-383
852.273	967
852.363	91
852.452	865
852.542	168
852.632	1149
852.721	836
852.811	160
852.901	1483
852.990	376
853.080	843
853.169	1227
853.259	1337
853.348	550
853.438	1446
853.527	2453
853.617	2467
853.706	7197
853.795	12755
853.885	28564
853.974	55879
854.063	97144
854.152	175325
854.242	91356
854.331	15779
854.420	5309
854.509	3072
854.598	3057
854.687	1628
854.777	2301
854.866	1385
854.955	777
855.044	400
855.133	1879
855.222	1270
855.311	396
855.400	1030
855.488	5
855.577	26
855.666	740
855.755	1165
855.844	298
855.933	731
856.021	526
856.110	1230
856.199	982
856.288	-4
856.376	-183
856.465	603
856.554	827
856.642	760
856.731	1198
856.819	973
856.908	806
856.996	868
857.085	891
857.173	770
857.262	419
857.350	1014
857.438	218
857.527	559
857.615	45
857.703	501
857.792	-341
857.880	384
857.968	-388
858.056	1035
858.145	464
858.233	-397
858.321	-180
858.409	476
858.497	152
858.585	240
858.673	348
858.761	-193
858.849	-215
858.937	-97
859.025	1263
859.113	511
859.201	432
859.289	508
859.377	275
859.465	623
859.552	320
859.640	-436
859.728	497
859.816	838
859.903	1022
859.991	-95
860.079	473
860.166	-60
860.254	-132
860.342	611
860.429	-434
860.517	-443
860.604	801
860.692	574
860.779	-294
860.867	210
860.954	121
861.042	351
861.129	626
861.216	366
861.304	-719
861.391	142
861.478	521
861.565	610
861.653	1019
861.740	-967
861.827	-49
861.914	619
862.001	-506
862.089	1435
862.176	-154
862.263	-753
862.350	639
862.437	58
862.524	-419
862.611	-27
862.698	524
862.785	-360
862.871	184
862.958	-138
863.045	-275
863.132	918
863.219	47
863.306	-1013
863.392	624
863.479	360
863.566	854
863.652	1123
863.739	408
863.826	691
863.912	628
863.999	-447
864.086	228
864.172	130
864.259	397
864.345	765
864.432	911
864.518	473
864.604	583
864.691	718
864.777	1468
864.863	1723
864.950	1058
865.036	1075
865.122	1728
865.209	2777
865.295	1337
865.381	2320
865.467	2786
865.553	3018
865.639	4025
865.726	6842
865.812	13904
865.898	29252
865.984	44262
866.070	71727
866.156	101859
866.242	35780
866.328	6978
866.414	3579
866.499	2867
866.585	2100
866.671	2364
866.757	2493
866.843	1611
866.928	1354
867.014	1198
867.100	1786
867.186	937
867.271	1433
867.357	2610
867.442	2740
867.528	2280
867.614	1361
867.699	1537
867.785	1552
867.870	1483
867.956	1238
868.041	2360
868.127	963
868.212	1380
868.297	1409
868.383	1202
868.468	2499
868.553	4364
868.639	4701
868.724	7714
868.809	10321
868.894	3146
868.979	2122
869.065	1598
869.150	738
869.235	1537
869.320	684
869.405	1296
869.490	1724
869.575	790
869.660	525
869.745	981
869.830	986
869.915	923
870.000	-73
870.085	425
870.169	844
870.254	608
870.339	272
870.424	-196
870.509	1010
870.593	1270
870.678	1836
870.763	916
870.847	169
870.932	222
871.016	985
871.101	996
871.186	859
871.270	675
871.355	-72
871.439	615
871.523	1506
871.608	962
871.692	519
871.777	1703
871.861	1261
871.945	768
872.030	458
872.114	304
872.198	320
872.282	277
872.367	751
872.451	867
872.535	65
872.619	1181
872.703	214
872.787	745
872.871	656
872.955	808
873.039	-92
873.123	1051
873.207	899
873.291	541
873.375	980
873.459	675
873.543	551
873.627	796
873.711	-478
873.794	502
873.878	146
873.962	-30
874.045	797
874.129	414
874.137	372
874.213	-48
874.245	-242
874.296	-563
874.352	102
874.380	427
874.460	903
874.464	924
874.547	-154
874.568	123
874.631	932
874.676	854
874.714	778
874.784	848
874.798	871
874.881	1395
874.892	1232
874.965	68
874.999	326
875.048	692
875.107	623
875.131	582
875.215	870
875.215	869
875.298	283
875.323	503
875.381	981
875.430	609
875.465	397
875.538	547
875.548	553
875.631	1293
875.646	1003
875.714	-344
875.753	-217
875.798	-85
875.861	143
875.881	219
875.964	355
875.968	339
876.047	84
876.076	254
876.130	561
876.183	147
876.213	-106
876.291	849
876.296	916
876.379	490
876.398	596
876.462	942
876.506	748
876.545	597
876.613	700
876.628	700
876.711	684
876.721	695
876.794	948
876.828	796
876.877	441
876.935	68
876.960	8
877.043	452
877.043	456
877.125	1108
877.150	1020
877.208	812
877.258	662
877.291	575
877.365	71
877.374	3
877.456	1086
877.472	989
877.539	705
877.579	870
877.622	1013
877.687	1027
877.704	1018
877.787	501
877.794	479
877.869	364
877.901	576
877.952	832
878.008	659
878.034	578
878.115	359
878.117	357
878.199	479
878.222	473
878.282	512
878.329	999
878.364	1274
878.437	909
878.447	864
878.529	329
878.544	342
878.611	334
878.651	145
878.694	49
878.758	770
878.776	948
878.858	558
878.865	538
878.941	183
878.972	49
879.023	-196
879.078	-353
879.105	-237
879.185	1317
879.187	1339
879.269	700
879.292	580
879.351	330
879.399	412
879.433	495
879.506	674
879.516	689
879.598	153
879.613	104
879.680	-147
879.720	180
879.762	593
879.827	566
879.844	501
879.926	128
879.933	156
880.007	1111
880.040	1331
880.089	1205
880.147	1508
880.171	1804
880.253	3578
880.254	3589
880.335	4700
880.360	4968
880.417	6336
880.467	9313
880.499	11368
880.574	16056
880.580	16170
880.662	7310
880.680	6048
880.744	2506
880.787	1427
880.825	694
880.893	630
880.907	643
880.989	-86
881.000	-43
881.070	602
881.106	471
881.152	143
881.213	38
881.233	40
881.315	632
881.319	634
881.396	550
881.426	307
881.478	6
881.532	430
881.559	544
881.639	359
881.641	361
881.722	142
881.745	166
881.803	233
881.852	325
881.885	291
881.958	190
881.966	213
882.047	766
882.064	792
882.129	1143
882.171	1553
882.210	1651
882.277	2263
882.291	2394
882.372	1492
882.383	1409
882.454	744
882.489	434
882.535	175
882.596	325
882.616	321
882.697	-105
882.702	-131
882.778	227
882.808	462
882.859	68
882.914	-316
882.940	-115
883.020	144
883.021	143
883.102	-68
883.127	-26
883.183	287
883.233	378
883.264	473
883.339	743
883.345	736
883.426	103
883.445	124
883.507	201
883.551	101
883.587	286
883.657	474
883.668	513
883.749	1263
883.763	1258
883.830	375
883.869	107
883.910	264
883.975	617
883.991	659
884.072	515
884.081	472
884.152	-112
884.187	-55
884.233	341
884.292	433
884.314	388
884.394	206
884.398	201
884.475	379
884.504	351
884.555	174
884.610	182
884.636	249
884.716	704
884.716	708
884.797	801
884.821	662
884.877	574
884.927	602
884.958	371
885.033	246
885.038	283
885.118	234
885.139	305
885.199	42
885.244	-69
885.279	-118
885.350	-450
885.359	-381
885.439	573
885.456	676
885.520	518
885.561	568
885.600	535
885.667	364
885.680	394
885.760	453
885.773	470
885.840	101
885.878	-22
885.920	367
885.984	908
886.000	752
886.080	-257
886.089	-321
886.160	479
886.195	672
886.240	710
886.300	911
886.320	905
886.400	820
886.406	804
886.480	184
886.511	85
886.560	779
886.616	1174
886.640	959
886.720	414
886.722	401
886.800	182
886.827	49
886.879	-347
886.932	-619
886.959	-120
887.038	983
887.039	977
887.119	351
887.143	124
887.198	370
887.248	573
887.278	539
887.354	386
887.358	399
887.437	663
887.459	754
887.517	914
887.564	946
887.596	626
887.669	58
887.676	83
887.755	250
887.774	281
887.835	326
887.880	478
887.914	411
887.985	131
887.994	158
888.073	400
888.090	458
888.153	680
888.195	818
888.232	609
888.300	179
888.311	162
888.391	63
888.405	49
888.470	3
888.510	-84
888.549	23
888.615	322
888.628	386
888.708	764
888.720	806
888.787	832
888.825	851
888.866	562
888.930	129
888.945	159
889.024	349
889.035	367
889.103	1153
889.140	1572
889.182	1055
889.245	351
889.261	407
889.340	610
889.349	637
889.419	313
889.454	149
889.498	97
889.559	35
889.577	-25
889.656	-270
889.664	-290
889.735	-153
889.768	-81
889.814	-26
889.873	49
889.978	23
890.083	377
890.187	299
890.292	263
890.397	396
890.501	665
890.606	239
890.710	1072
890.815	514
890.919	411
891.024	461
891.128	425
891.233	613
891.337	27
891.442	92
891.546	-406
891.650	225
891.755	635
891.859	1489
891.963	202
892.068	1175
892.172	-2
892.276	410
892.380	-71
892.484	333
892.589	-123
892.693	850
892.797	137
892.901	533
893.005	-445
893.109	630
893.213	-227
893.317	546
893.421	162
893.525	353
893.629	-129
893.733	592
893.837	178
893.941	1033
894.045	216
894.148	0
894.252	-398
894.356	423
894.460	494
894.564	621
894.667	-487
894.771	540
894.875	248
894.978	826
895.082	-3
895.186	507
895.289	282
895.393	430
895.496	137
895.600	82
895.703	131
895.807	827
895.910	52
896.014	-261
896.117	-144
896.221	-101
896.324	21
896.427	1409
896.531	-160
896.634	-398
896.737	203
896.840	458
896.944	17
897.047	-293
897.150	-136
897.253	138
897.356	360
897.460	76
897.563	-33
897.666	-280
897.769	719
897.872	271
897.975	32
898.078	441
898.181	-375
898.284	-149
898.387	-142
898.490	284
898.593	-209
898.695	44
898.798	-398
898.901	480
899.004	-807
899.107	121
899.209	-514
899.312	841
899.415	-769
899.518	-130
899.620	-234
899.723	435
899.826	-88
899.928	1479
900.031	-252
900.133	851
900.236	-41
900.338	-95
900.441	-253
900.543	582
900.646	-18
900.748	420
900.851	-761
900.953	-429
901.055	-451
901.158	-72
901.260	254
901.362	2
901.465	-671
901.567	-25
901.669	-527
901.771	357
901.873	146
901.976	319
902.078	625
902.180	-132
902.282	178
902.384	-48
902.486	191
902.588	-62
902.690	-139
902.792	-114
902.894	472
902.996	-126
903.098	-404
903.200	264
903.302	-978
903.404	46
903.505	-656
903.607	706
903.709	-126
903.811	270
903.913	-548
904.014	-375
904.116	204
904.218	-327
904.319	-155
904.421	719
904.523	-644
904.624	488
904.726	-74
904.827	-319
904.929	22
905.030	-252
905.132	-277
905.233	-56
905.335	-1389
905.436	-1083
905.537	461
905.639	171
905.740	193
905.841	231
905.943	-81
906.044	465
906.145	-149
906.247	234
906.348	-51
906.449	-162
906.550	-133
906.651	-14
906.752	-282
906.854	506
906.955	-476
907.056	-518
907.157	667
907.258	529
907.359	67
907.460	341
907.561	-688
907.662	-161
907.762	-654
907.863	-361
907.964	-617
908.065	-301
908.166	291
908.267	25
908.367	-857
908.468	-290
908.569	-87
908.670	750
908.770	896
908.871	672
908.971	-453
909.072	102
909.173	-763
909.273	-373
909.374	-216
909.474	814
909.575	-442
909.675	-101
909.776	-176
909.876	91
909.977	-510
910.077	1020
910.177	-655
910.278	248
910.378	-577
910.478	-77
910.579	-571
910.679	-278
910.779	-759
910.879	-154
910.980	-247
911.080	524
911.180	-798
911.280	-581
911.380	-226
911.480	95
911.580	-471
911.680	-138
911.780	-998
911.880	346
911.980	-173
912.080	-682
912.180	-578
912.280	869
912.380	-133
912.480	-53
912.580	98
912.679	-15
912.779	4
912.879	102
912.979	-333
913.078	-752
913.178	-96
913.278	-136
913.377	-855
913.477	-669
913.577	-135
913.676	348
913.776	-529
913.875	359
913.975	68
914.074	454
914.174	-198
914.273	-969
914.373	-275
914.472	369
914.572	-358
914.671	20
914.770	-546
914.870	213
914.969	-1150
915.068	-299
915.167	335
915.267	-733
915.366	-415
915.465	376
915.564	-842
915.663	424
915.763	-610
915.862	-804
915.961	-695
916.060	-141
916.159	-393
916.258	-538
916.357	158
916.456	398
916.555	-1088
916.654	-698
916.752	-568
916.851	120
916.950	444
917.049	-152
917.148	-539
917.247	-16
917.345	45
917.444	258
917.543	-311
917.642	278
917.740	-744
917.839	374
917.937	-733
918.036	73
918.135	-82
918.233	-34
918.332	-644
918.430	-122
918.529	-218
918.627	-240
918.726	-235
918.824	599
918.923	19
919.021	315
919.119	-429
919.218	575
919.316	-134
919.414	-317
919.512	-240
919.611	-984
919.709	-336
919.807	242
919.905	-451
920.003	-270
920.102	-1330
920.200	902
920.298	183
920.396	-404
920.494	-1012
920.592	-213
920.690	-33
920.788	-317
920.886	-328
920.984	364
921.082	118
921.180	969
921.277	-303
921.375	-357
921.473	622
921.571	-361
921.669	-590
921.766	-695
921.864	-84
921.962	609
922.060	-954
922.157	73
922.255	-257
922.352	398
922.450	204
922.548	271
922.645	-123
922.743	-101
922.840	212
922.938	2358
923.035	502
923.133	1510
923.230	938
923.327	1948
923.425	1410
923.522	1712
923.619	552
923.717	777
923.814	2102
923.911	764
924.008	1496
924.106	1164
924.203	212
924.300	802
924.397	1067
924.494	1715
924.591	1288
924.688	875
924.786	1320
924.883	1054
924.979	748
925.077	1428
925.173	812
925.270	993
925.367	247
925.464	1631
925.561	683
925.658	1759
925.755	889
925.852	2052
925.948	1371
926.045	1515
926.142	482
926.239	1485
926.335	637
926.432	1451
926.529	760
926.625	1006
926.722	-139
926.818	1333
926.915	1086
927.011	2015
927.108	952
927.204	935
927.301	1083
927.397	1258
927.494	270
927.590	1402
927.687	-411
927.783	549
927.879	205
927.976	602
928.072	375
928.168	2123
928.264	907
928.361	997
928.457	687
928.553	912
928.649	-442
928.745	624
928.841	909
928.937	1022
929.033	681
929.129	721
929.225	754
929.321	872
929.417	37
929.513	597
929.609	580
929.705	526
929.801	156
929.897	440
929.993	652
930.089	770
930.184	399
930.280	451
930.376	610
930.471	375
930.567	-157
930.663	736
930.758	-394
930.854	1188
930.950	452
931.045	799
931.141	586
931.236	561
931.332	505
931.427	1268
931.523	605
931.618	1154
931.714	-91
931.809	380
931.905	470
932.000	101
932.095	145
932.191	1073
932.286	188
932.381	866
932.476	249
932.572	885
932.667	-161
932.762	275
932.857	-126
932.952	-290
933.047	105
933.142	260
933.237	-59
933.332	1004
933.427	1375
933.522	1189
933.617	187
933.712	254
933.807	238
933.902	882
933.997	387
934.092	143
934.187	760
934.282	352
934.376	398
934.471	1108
934.566	323
934.661	494
934.755	152
934.850	979
934.945	1048
935.039	336
935.134	187
935.228	529
935.323	496
935.417	52
935.512	-322
935.606	-519
935.701	638
935.795	654
935.890	434
935.984	1340
936.079	-486
936.173	646
936.267	223
936.362	670
936.456	-14
936.550	1217
936.644	328
936.738	223
936.833	3
936.927	-89
937.021	-145
937.115	361
937.209	-361
937.303	1332
937.397	713
937.491	454
937.585	644
937.679	622
937.773	703
937.867	471
937.961	-110
938.055	587
938.149	729
938.243	205
938.337	142
938.430	431
938.524	443
938.618	-71
938.712	517
938.805	342
938.899	323
938.993	1204
939.086	49
939.180	173
939.274	283
939.367	924
939.461	617
939.554	-186
939.648	545
939.741	-72
939.835	324
939.928	800
940.022	541
940.115	911
940.208	209
940.302	764
940.395	166
940.488	121
940.582	941
940.675	16
940.768	1
940.861	436
940.954	-57
941.048	-210
941.141	372
941.234	419
941.327	274
941.420	1588
941.513	715
941.606	38
941.699	528
941.792	590
941.885	-169
941.978	462
942.071	522
942.164	100
942.257	-762
942.349	-374
942.442	-254
942.535	409
942.628	-320
942.721	-85
942.813	-563
942.906	-238
942.999	-88
943.091	264
943.184	71
943.277	217
943.369	-239
943.462	33
943.554	-767
943.647	-147
943.739	183
943.832	150
943.924	-8
944.017	505
944.109	-905
944.201	520
944.294	329
944.386	145
944.478	-235
944.571	436
944.663	-571
944.755	-80
944.847	279
944.940	105
945.032	-626
945.124	-482
945.216	570
945.308	-134
945.400	-284
945.492	133
945.584	-717
945.676	149
945.768	207
945.860	-112
945.952	58
946.044	475
946.136	286
946.228	313
946.320	-247
946.412	181
946.503	-172
946.595	584
946.687	-553
946.779	-2
946.870	-776
946.962	-915
947.054	449
947.145	-336
947.237	-316
947.329	127
947.420	155
947.512	94
947.603	-636
947.695	148
947.786	-963
947.878	-138
947.969	-632
948.061	-849
948.152	-981
948.243	-134
948.335	261
948.426	-318
948.517	-528
948.609	-122
948.700	-543
948.791	-813
948.882	-485
948.973	433
949.065	-530
949.156	311
949.247	-550
949.338	371
949.429	-1110
949.520	-107
949.611	-712
949.702	280
949.793	38
949.884	-379
949.975	-527
950.066	-313
950.157	-1002
950.247	-507
950.338	-715
950.429	50
950.520	-127
950.611	-316
950.701	-706
950.792	-42
950.883	118
950.973	345
951.064	-516
951.155	-135
951.245	-362
951.336	-176
951.427	-924
951.517	32
951.608	-120
951.698	-821
951.788	102
951.879	2
951.969	-1066
952.060	-578
952.150	-664
952.240	-307
952.331	-1475
952.421	355
952.511	-1083
952.602	-508
952.692	65
952.782	414
952.872	-675
952.962	-322
953.052	-525
953.143	300
953.233	-716
953.323	973
953.413	-1038
953.503	453
953.593	151
953.683	-586
953.773	-1121
953.863	-199
953.953	-950
954.042	-121
954.132	-531
954.222	488
954.312	-840
954.402	302
954.492	-429
954.581	1108
954.671	-879
954.761	-600
954.850	52
954.940	-1052
955.030	258
955.119	-760
955.209	-1101
955.298	-749
955.388	-453
955.477	-26
955.567	75
955.656	-435
955.746	-1027
955.835	-397
955.925	-1195
956.014	-261
956.103	-969
956.193	-733
956.282	-520
956.371	-192
956.461	-1462
956.550	17
956.639	-562
956.728	-672
956.817	-365
956.906	-778
956.995	-427
957.085	-295
957.174	-354
957.263	-806
957.352	-974
957.441	-66
957.530	-517
957.619	-121
957.708	-1054
957.796	-137
957.885	-763
957.974	-739
958.063	-249
958.152	-657
958.241	-126
958.329	-172
958.418	-1032
958.507	-266
958.596	-431
958.684	-705
958.773	-365
958.861	-255
958.950	-480
959.039	-253
959.127	-673
959.216	-434
959.304	-1346
959.393	-355
959.481	-1186
959.570	-260
959.658	-927
959.746	-889
959.835	-259
959.923	142
960.011	-1191
960.100	453
960.188	-300
960.276	-696
960.365	-54
960.453	-1467
960.541	-1020
960.629	-780
960.717	-1048
960.805	-1065
960.893	-594
960.981	-1741
961.069	-589
961.158	-351
961.245	20
961.333	367
961.421	-593
961.509	-1039
961.597	-59
961.685	-290
961.773	-598
961.861	-186
961.949	103
962.036	-671
962.124	-677
962.212	-286
962.299	-754
962.387	-974
962.475	-1169
962.562	-989
962.650	-34
962.738	-290
962.825	-667
962.913	-686
963.000	-1487
963.088	48
963.175	-476
963.263	-299
963.350	-1133
963.438	-630
963.525	-1193
963.612	356
963.700	898
963.787	4410
963.874	2510
963.962	210
964.049	-430
964.136	-80
964.223	-1178
964.310	-328
964.398	-1192
964.485	-630
964.572	-933
964.659	-182
964.746	-221
964.833	177
964.920	-1794
965.007	-662
965.094	-573
965.181	-1385
965.268	-1144
965.355	-1147
965.441	-227
965.528	-1376
965.615	-93
965.702	-80
965.789	-847
965.875	-547
965.962	-1055
966.049	-1149
966.136	-1321
966.222	-597
966.309	-1435
966.395	-873
966.482	278
966.569	-619
966.655	-690
966.742	-887
966.828	-1285
966.915	-354
967.001	-1255
967.087	-1096
967.174	-851
967.260	-611
967.347	-349
967.433	501
967.519	2529
967.605	924
967.692	-198
967.778	-839
967.864	-990
967.950	-1165
968.036	-917
968.123	-447
968.209	-1641
968.295	-1039
968.381	-572
968.467	-895
968.553	-990
968.639	-18
968.725	-1503
968.811	645
968.897	-165
968.983	-754
969.069	-1192
969.154	-357
969.240	-1166
969.326	-917
969.412	-1053
969.497	-526
969.583	-2384
969.669	-343
969.755	-1081
969.840	-708
969.926	-535
970.012	-1294
970.097	-731
970.183	-767
970.268	-238
970.354	-173
970.439	-18
970.525	1457
970.610	129
970.696	668
970.781	-1570
970.866	-1444
970.952	-1362
971.037	-939
971.122	-665
971.208	128
971.293	-1369
971.378	-2171
971.463	-378
971.549	-761
971.634	-1070
971.719	-877
971.804	-1903
971.889	-242
971.974	-1030
972.059	-669
972.144	-795
972.229	-907
972.314	-1238
972.399	-210
972.484	-1087
972.569	-249
972.654	-1362
972.739	414
972.824	-549
972.908	554
972.993	-1174
973.078	-1381
973.163	-783
973.247	-695
973.332	-2511
973.417	-265
973.501	-1984
973.586	-1114
973.671	-1589
973.755	-1049
973.840	-850
973.924	-553
974.009	-882
974.093	-1052
974.178	-732
974.262	54
974.346	-283
974.431	-504
974.515	-1755
974.600	-754
974.684	-569
974.768	-1361
974.852	-739
974.937	-1349
975.021	94
975.105	-868
975.189	-1487
975.273	-731
975.358	-2108
975.442	-1512
975.526	-583
975.610	-1378
975.694	-1429
975.778	-343
975.862	-1400
975.946	-2131
976.030	-874
976.114	-1235
976.198	-1764
976.281	-539
976.365	-1762
976.449	-644
976.533	-1100
976.617	-1931
976.700	-1254
976.784	-1157
976.868	-1316
976.951	-1142
977.035	-2175
977.119	-1468
977.202	-1531
977.286	-600
977.369	-511
977.453	-261
977.536	-1256
977.620	-789
977.703	-655
977.787	-1459
977.870	-656
977.953	-280
978.037	-1760
978.120	-628
978.203	-1508
978.287	759
978.370	-1226
978.453	-1396
978.536	-1237
978.620	-846
978.703	-466
978.786	-781
978.869	-1349
978.952	-1581
979.035	510
979.118	-1098
979.201	-1846
979.284	-1129
979.367	-1501
979.450	-1201
979.533	-1953
979.616	-1546
979.699	-1104
979.782	-1428
979.865	-1678
979.948	-1297
980.030	-1833
980.113	-1368
980.196	-2149
980.279	-391
980.361	-1709
980.444	-901
980.526	-1309
980.609	-1029
980.692	-1846
980.774	-1278
980.857	-2290
980.939	-528
981.022	-1888
981.104	-1254
981.187	-2086
981.269	-214
981.352	-877
981.434	-1252
981.516	-1662
981.599	-594
981.681	-1979
981.763	-1392
981.846	-1622
981.928	-1705
982.010	-1407
982.092	-1771
982.174	-782
982.256	-1047
982.339	-1963
982.421	-1471
982.503	-1662
982.585	-1132
982.667	-1940
982.749	-941
982.831	-1079
982.913	-2175
982.995	-397
983.077	-1775
983.158	122
983.240	-1459
983.322	-717
983.404	-118
983.486	-1778
983.568	-573
983.649	-1745
983.731	-817
983.813	-1444
983.894	-568
983.976	-1910
984.058	-1295
984.139	-887
984.221	-1684
984.302	-1080
984.384	-1246
984.465	-1752
984.547	-1138
984.628	-1798
984.710	-1360
984.791	-1845
984.872	-1685
984.954	-1756
985.035	-747
985.116	-1741
985.198	-1875
985.279	-548
985.360	-2151
985.441	-1510
985.522	-290
985.604	-1978
985.685	-2786
985.766	-1366
985.847	-486
985.928	-1802
986.009	-1263
986.090	-1744
986.171	-664
986.252	-1847
986.333	-765
986.414	-1707
986.495	-1633
986.576	-1692
986.656	-1034
986.737	-1709
986.818	-909
986.899	-2323
986.980	-1324
987.060	-954
987.141	-1665
987.222	-1502
987.302	-575
987.383	-1804
987.464	-1173
987.544	-1163
987.625	-1133
987.705	-985
987.786	-1262
987.866	-1535
987.947	-1187
988.027	-2067
988.108	-1298
988.188	-1326
988.268	-1097
988.349	-1370
988.429	-902
988.509	-1211
988.589	-1300
988.670	-2760
988.750	-174
988.830	-1780
988.910	-779
988.990	-1245
989.070	-1824
989.151	-854
989.231	-2188
989.311	-1733
989.391	-1230
989.471	-1231
989.551	-1676
989.631	-1931
989.711	-429
989.791	-1406
989.870	-1342
989.950	-1300
990.030	-1663
990.110	-1999
990.190	-1605
990.269	-1265
990.349	-1365
990.429	-2093
990.509	-548
990.588	-2009
990.668	-1126
990.747	-1198
990.827	-897
990.907	-1276
990.986	-1340
991.066	-1346
991.145	-1175
991.225	-1852
991.304	-1164
991.383	-1942
991.463	-815
991.542	-1167
991.622	-1370
991.701	-1956
991.780	-1270
991.859	-1100
991.939	-920
992.018	-947
992.097	-1721
992.176	-1725
992.256	-1786
992.335	-2345
992.414	-890
992.493	-1571
992.572	-1453
992.651	-1297
992.730	-877
992.809	-964
992.888	-1826
992.967	-1711
993.046	-803
993.125	-1750
993.203	-1948
993.282	-1760
993.361	-1183
993.440	-1970
993.519	-2064
993.597	-1083
993.676	-1257
993.755	-1920
993.834	-1172
993.912	-2080
993.991	-1136
994.069	-2195
994.148	-1536
994.226	-1358
994.305	-1081
994.384	-2250
994.462	-1171
994.540	-1614
994.619	-1918
994.697	-1213
994.776	-1918
994.854	-1939
994.932	-2112
995.011	-2112
995.089	-2020
995.167	-1445
995.245	-1091
995.324	-2605
995.402	-1060
995.480	-2969
995.558	-1982
995.636	-2548
995.714	-2105
995.792	-806
995.870	-1967
995.948	-1461
996.026	-945
996.104	-2917
996.182	-1000
996.260	-2402
996.338	-1503
996.416	-1687
996.494	-1379
996.572	-922
996.649	-1356
996.727	-1725
996.805	-1888
996.883	-1948
996.960	-1808
997.038	-2216
997.116	-1826
997.193	-2503
997.271	-1216
997.348	-2489
997.426	-1377
997.504	-2325
997.581	-988
997.658	-1283
997.736	-1892
997.813	-2293
997.891	-756
997.968	-2270
998.046	-1721
998.123	-2088
998.200	-726
998.277	-2242
998.355	-1358
998.432	-3227
998.509	-1735
998.586	-1495
998.663	-914
998.741	-2199
998.818	-3003
998.895	-2962
998.972	-423
999.049	-1906
999.126	-1711
999.203	-1646
999.280	-1416
999.357	-2635
999.434	-850
999.511	-2034
999.587	-726
999.664	-1725
999.741	-1683
999.818	-1565
999.895	-1341
999.971	-1670
1000.048	-1455
1000.125	-1436
1000.202	-1690
1000.278	-1854
1000.355	-2342
1000.431	-1861
1000.508	-1909
1000.584	-1443
1000.661	-559
1000.738	-2356
1000.814	-1270
1000.890	-1624
1000.967	-1727
1001.043	-2057
1001.120	-1477
1001.196	-1485
1001.272	-2234
1001.349	-2352
1001.425	-1460
1001.501	-1818
1001.577	-1851
1001.654	-2030
1001.730	-1049
1001.806	-1728
1001.882	-1497
1001.958	-1564
1002.034	-845
1002.110	-1550
1002.186	-2284
1002.262	-1894
1002.338	-2147
1002.414	-1288
1002.490	-804
1002.566	-1400
1002.642	-1164
1002.718	-1272
1002.794	-1818
1002.870	-1095
1002.945	-1644
1003.021	-1792
1003.097	-1796
1003.173	-1623
1003.248	-2024
1003.324	-1633
1003.400	-1394
1003.475	-2370
1003.551	-1264
1003.626	-1738
1003.702	-1930
1003.777	-1600
1003.853	-2161
1003.928	-2034
1004.004	-1804
1004.079	-1021
1004.155	-1763
1004.230	-2494
1004.305	-1273
1004.381	-2607
1004.456	-1333
1004.531	-2064
1004.607	-2075
1004.682	-2135
1004.757	-1116
1004.832	-1890
1004.907	-1683
1004.982	-1442
1005.057	-1540
1005.133	-2591
1005.208	-1542
1005.283	-1627
1005.358	-1459
1005.433	-1943
1005.508	-1724
1005.583	-2809
1005.657	-1879
1005.732	-1355
1005.807	-2280
1005.882	-1601
1005.957	-1655
1006.032	-1591
1006.106	-1438
1006.181	-1890
1006.256	-1479
1006.331	-2011
1006.405	-2043
1006.480	-1448
1006.554	-2329
1006.629	-1453
1006.704	-2079
1006.778	-1871
1006.853	-1101
1006.927	-2368
1007.002	-1549
1007.076	-1466
1007.150	-1344
1007.225	-1737
1007.299	-1043
1007.373	-2010
1007.448	-778
1007.522	-1085
1007.596	-1293
1007.671	-1950
1007.745	-1240
1007.819	-2422
1007.893	-1091
1007.967	-1792
1008.041	-2056
1008.115	-1048
1008.190	-2091
1008.264	-1399
1008.338	-1744
1008.412	-2231
1008.486	-1535
1008.560	-2128
1008.633	-1469
1008.707	-1870
1008.781	-1707
1008.855	-1475
1008.929	-1268
1009.003	-2213
1009.076	-1218
1009.150	-1925
1009.224	-1222
1009.298	-2433
1009.371	-1562
1009.445	-1036
1009.519	-1944
1009.592	-3013
1009.666	-1509
1009.739	-1490
1009.813	-2306
1009.886	-2050
1009.960	-1667
1010.033	-1529
1010.107	-793
1010.180	-3081
1010.253	-1655
1010.327	-2844
1010.400	-2002
1010.473	-2089
1010.547	-165
1010.620	-1583
1010.693	-1250
1010.766	-1912
1010.840	-956
1010.913	-752
1010.986	-2170
1011.059	-2055
1011.132	-1710
1011.205	-1860
1011.278	-2032
1011.351	-2667
1011.424	-1974
1011.497	-3040
1011.570	-2104
1011.643	-2234
1011.716	-1946
1011.789	-2179
1011.862	-459
1011.934	-1460
1012.007	-2622
1012.080	-1319
1012.153	-1412
1012.225	-1382
1012.298	-1664
1012.371	-1464
1012.443	-794
1012.516	-2235
1012.588	-1067
1012.661	-1616
1012.733	-1683
1012.806	-1637
1012.879	-1502
1012.951	-1930
1013.023	-1709
1013.096	-1531
1013.168	-1784
1013.241	-1225
1013.313	-1385
1013.385	-1806
1013.458	-1246
1013.530	-1003
1013.602	-2338
1013.674	-1359
1013.746	-1797
1013.819	-1825
1013.891	-1938
1013.963	-2841
1014.035	-987
1014.107	-1756
1014.179	-2000
1014.251	-2511
1014.323	-1297
1014.395	-2117
1014.467	-1843
1014.539	-1834
1014.611	-1371
1014.683	-2180
1014.754	-1415
1014.826	-2785
1014.898	-1581
1014.970	-2631
1015.042	-682
1015.113	-1965
1015.185	-2421
1015.257	-3388
1015.328	-2055
1015.400	-1732
1015.471	-2006
1015.543	-2715
1015.615	-1981
1015.686	-2261
1015.757	-1838
1015.829	-1599
1015.901	-1544
1015.972	-2036
1016.043	-1997
1016.115	-1444
1016.186	-2149
1016.257	-2408
1016.328	-184
1016.400	-1675
1016.471	-1724
1016.542	-1401
1016.613	-1566
1016.685	-1671
1016.756	-1567
1016.827	-2723
1016.898	-2707
1016.969	-1820
1017.040	-2157
1017.111	-2097
1017.182	-2086
1017.253	-1834
1017.324	-754
1017.395	-2039
1017.466	-1698
1017.537	-2345
1017.608	-1927
1017.678	-2443
1017.749	-1492
1017.820	-2726
1017.891	-1821
1017.961	-2603
1018.032	-1209
1018.103	-1696
1018.173	-2010
1018.244	-2198
1018.315	-1877
1018.385	-1816
1018.456	-1871
1018.526	-2208
1018.597	-1797
1018.667	-2655
1018.738	-1899
1018.808	-2524
1018.878	-1228
1018.949	-2138
1019.019	-1711
1019.089	-2392
1019.160	-1637
1019.230	-2072
1019.300	-1746
1019.371	-2922
1019.441	-2319
1019.511	-2556
1019.581	-1374
1019.651	-2200
1019.721	-1204
1019.791	-1936
1019.861	-2066
1019.931	-1625
1020.001	-1366
1020.071	-2784
1020.141	-1488
1020.211	-2375
1020.281	-2416
1020.351	-3060
1020.421	-1710
1020.491	-1780
1020.560	-2380
1020.630	-2781
1020.700	-2154
1020.770	-3018
1020.839	-1853
1020.909	-2566
1020.979	-2252
1021.048	-2561
1021.118	-1985
1021.187	-2160
1021.257	-1579
1021.326	-2613
1021.396	-1785
1021.465	-1984
1021.535	-1853
1021.604	-2861
1021.674	-2100
1021.743	-2288
1021.812	-2963
1021.882	-2911
1021.951	-1760
1022.020	-2025
1022.089	-1649
1022.159	-2784
1022.228	-1755
1022.297	-2579
1022.366	-1667
1022.435	-1919
1022.504	-1321
1022.573	-3519
1022.642	-1492
1022.711	-3039
1022.781	-1665
1022.849	-2187
1022.918	-2162
1022.987	-1416
1023.056	-1693
1023.125	-2733
1023.194	-2151
1023.263	-1302
1023.331	-1595
1023.400	-3416
1023.469	-2169
1023.538	-2331
1023.606	-2291
1023.675	-2571
1023.744	-3047
1023.812	-3017
1023.881	-2024
1023.949	-2499
1024.018	-2449
1024.086	-1745
1024.155	-2194
1024.223	-3037
1024.292	-2269
1024.360	-2066
1024.429	-1988
1024.497	-2212
1024.565	-2207
1024.634	-1782
1024.702	-2404
1024.770	-2352
1024.838	-1737
1024.907	-2482
1024.975	-1940
1025.043	-2373
1025.111	-1474
1025.179	-1617
1025.247	-2651
1025.315	-2281
1025.383	-2444
1025.451	-2849
1025.519	-2563
1025.587	-2382
1025.655	-1756
1025.723	-2591
1025.791	-1881
1025.859	-2981
1025.927	-1730
1025.995	-2668
1026.062	-2390
1026.130	-2315
1026.198	-1529
1026.266	-2658
1026.333	-1854
1026.401	-1631
1026.469	-1877
1026.536	-2355
1026.604	-2681
1026.671	-3022
1026.739	-2545
1026.806	-2894
1026.874	-2062
1026.941	-2373
1027.009	-1789
1027.076	-2663
1027.144	-1622
1027.211	-2455
1027.278	-2024
1027.345	-3072
1027.413	-2470
1027.480	-3280
1027.547	-2216
1027.614	-2854
1027.682	-1690
1027.749	-1983
1027.816	-2036
1027.883	-1865
1027.950	-2466
1028.017	-3042
1028.084	-1553
1028.151	-2726
1028.218	-3083
1028.285	-2924
1028.352	-1461
1028.419	-1609
1028.486	-2148
1028.553	-2460
1028.619	-1960
1028.686	-2295
1028.753	-1820
1028.820	-3003
1028.886	-2448
1028.953	-2871
1029.020	-2017
1029.086	-2451
1029.153	-2561
1029.220	-2246
1029.286	-1557
1029.353	-1374
1029.419	-2754
1029.486	-2185
1029.552	-1931
1029.619	-2245
1029.685	-2536
1029.751	-1448
1029.818	-1986
1029.884	-2981
1029.951	-745
1030.017	-2074
1030.083	-2032
1030.149	-2972
1030.216	-1839
1030.282	-1636
1030.348	-2720
1030.414	-2678
1030.480	-1385
1030.546	-1682
1030.612	-1711
1030.678	-2766
1030.744	-1029
1030.810	-2344
1030.876	-1979
1030.942	-2559
1031.008	-1464
1031.074	-2592
1031.140	-2036
1031.206	-3320
1031.272	-2934
1031.337	-2974
1031.403	-1708
1031.469	-1859
1031.534	-2060
1031.600	-2118
1031.666	-1838
1031.731	-2683
1031.797	-2457
1031.863	-2890
1031.928	-2328
1031.994	-2377
1032.059	-2430
1032.125	-2926
1032.190	-2264
1032.256	-2280
1032.321	-2932
1032.386	-2419
1032.452	-2137
1032.517	-2610
1032.582	-2078
1032.647	-1783
1032.713	-2279
1032.778	-2829
1032.843	-2067
1032.908	-2288
1032.974	-2559
1033.039	-3099
1033.104	-2046
1033.169	-2782
1033.234	-2006
1033.299	-2083
1033.364	-1262
1033.429	-1817
1033.494	-2435
1033.559	-2031
1033.624	-1882
1033.688	-2119
1033.753	-2227
1033.818	-2434
1033.883	-1842
1033.948	-2465
1034.013	-1512
1034.077	-2065
1034.142	-2068
1034.207	-2150
1034.271	-1067
1034.336	-1444
1034.400	-643
1034.465	-1275
1034.530	-1819
1034.594	-1870
1034.658	-2276
1034.723	-2182
1034.787	-2113
1034.852	-1548
1034.916	-1617
1034.981	-3002
1035.045	-1388
1035.109	-2625
1035.173	-1209
1035.238	-2523
1035.302	-2418
1035.366	-1941
1035.430	-2395
1035.495	-3164
1035.559	-1324
1035.623	-2443
1035.687	-2039
1035.751	-2185
1035.815	-2236
1035.879	-2905
1035.943	-1824
1036.007	-2174
1036.071	-1232
1036.135	-2518
1036.198	-1978
1036.262	-2243
1036.326	-1964
1036.390	-2158
1036.454	-2499
1036.517	-2031
1036.581	-1714
1036.645	-1652
1036.709	-876
1036.772	-2013
1036.836	-1373
1036.900	-2581
1036.963	-2858
1037.026	-2813
1037.090	-2426
1037.154	-2564
1037.217	-2384
1037.280	-2239
1037.344	-2044
1037.407	-2453
1037.471	-1934
1037.534	-2543
1037.597	-2121
1037.661	-1858
1037.724	-1931
1037.787	-2451
1037.850	-2413
1037.913	-2236
1037.977	-1103
1038.040	-2546
1038.103	-1946
1038.166	-3616
1038.229	-2318
1038.292	-2526
1038.355	-1942
1038.418	-2147
1038.481	-1852
1038.544	-2959
1038.607	-1450
1038.670	-1980
1038.732	-2009
1038.795	-2584
1038.858	-1516
1038.921	-1858
1038.984	-1217
1039.046	-2661
1039.109	-2427
1039.172	-1775
1039.234	-1990
1039.297	-2256
1039.360	-1821
1039.422	-1898
1039.485	-1939
1039.547	-2344
1039.610	-1661
1039.672	-2329
1039.734	-2147
1039.797	-2558
1039.859	-1825
1039.922	-2308
1039.984	-1996
1040.046	-2389
1040.109	-1859
1040.171	-2669
1040.233	-2055
1040.295	-2096
1040.358	-1738
1040.420	-2146
1040.482	-2410
1040.544	-2287
1040.606	-1644
1040.668	-2206
1040.730	-2195
1040.792	-2341
1040.854	-1334
1040.916	-1500
1040.978	-2348
1041.040	-1503
1041.102	-2062
1041.164	-2238
1041.225	-2071
1041.287	-2568
1041.349	-2079
1041.411	-2641
1041.472	-2224
1041.534	-2806
1041.596	-2439
1041.657	-1856
1041.719	-1416
1041.781	-2552
1041.842	-2359
1041.904	-2774
1041.965	-1797
1042.027	-2587
1042.088	-2049
1042.150	-1944
1042.211	-1873
1042.272	-1588
1042.334	-1776
1042.395	-2040
1042.456	-2199
1042.518	-1461
1042.579	-1577
1042.640	-1417
1042.701	-2144
1042.763	-2333
1042.824	-2137
1042.885	-2072
1042.946	-2431
1043.007	-2183
1043.068	-1601
1043.129	-2372
1043.190	-2084
1043.251	-1589
1043.312	-1804
1043.373	-1947
1043.434	-2210
1043.495	-2370
1043.556	-453
1043.616	-2238
1043.677	-1523
1043.738	-1650
1043.799	-2026
1043.859	-3002
1043.920	-1800
1043.981	-1389
1044.041	-2076
1044.102	-1419
1044.162	-1649
1044.223	-1913
1044.284	-1211
1044.344	-1753
1044.405	-2130
1044.465	-1016
1044.525	-1326
1044.586	-2503
1044.646	-1797
1044.707	-1534
1044.767	-1722
1044.827	-1549
1044.887	-1631
1044.948	-2033
1045.008	-940
1045.068	-2132
1045.128	-761
1045.188	-1972
1045.249	-1439
1045.309	-1174
1045.369	-1401
1045.429	-1738
1045.489	-1707
1045.549	-1222
1045.609	-1249
1045.669	-1559
1045.729	-1904
1045.789	-1832
1045.848	-1046
1045.908	-1858
1045.968	-1182
1046.028	-1335
1046.088	-1268
1046.147	-1177
1046.207	-930
1046.267	-1604
1046.326	-1030
1046.386	-692
1046.446	-227
1046.505	143
1046.565	-596
1046.624	-1728
1046.684	-552
1046.743	-644
1046.803	-496
1046.862	-914
1046.922	0
