'Start Wavelength	183.907
'End Wavelength	1046.922
'Gate Delay	5.000
'Gate Width (ms)	1.050
'Laser Output Level	0.000
'X Position	0.000
'Y Position	0.000
'Z Position	0.000
'Grid Point Number	1.000
'Shot Number	100.000
183.907	-372.000
183.977	246.000
184.047	-88
184.116	-405
184.186	-42
184.256	62
184.325	-565
184.395	-964
184.465	889
184.534	124
184.604	-8
184.674	-222
184.743	63
184.813	193
184.883	199
184.952	177
185.022	502
185.092	61
185.161	408
185.231	-581
185.301	741
185.370	557
185.440	-513
185.509	-35
185.579	313
185.649	-246
185.718	-74
185.788	535
185.857	-678
185.927	-257
185.996	-349
186.066	-286
186.136	-410
186.205	262
186.275	237
186.344	-526
186.414	49
186.483	29
186.553	1243
186.622	739
186.692	431
186.761	-218
186.831	592
186.900	862
186.970	464
187.039	557
187.109	1078
187.178	208
187.248	669
187.317	793
187.387	774
187.456	664
187.526	886
187.595	809
187.664	419
187.734	472
187.803	615
187.873	559
187.942	1277
188.012	535
188.081	467
188.150	189
188.220	1080
188.289	1070
188.358	607
188.428	668
188.497	326
188.567	688
188.636	174
188.705	1297
188.775	214
188.844	10
188.913	722
188.983	500
189.052	1825
189.121	280
189.191	485
189.260	569
189.329	842
189.399	511
189.468	21
189.537	-25
189.606	1224
189.676	513
189.745	1561
189.814	1004
189.883	2
189.953	169
190.022	1438
190.091	3090
190.161	3602
190.230	1322
190.299	644
190.368	785
190.437	-509
190.507	-157
190.576	401
190.645	375
190.714	-91
190.783	-37
190.853	684
190.922	569
190.991	572
191.060	536
191.129	387
191.198	923
191.268	840
191.337	59
191.406	69
191.475	813
191.544	-460
191.613	305
191.682	581
191.752	161
191.821	468
191.890	490
191.959	283
192.028	696
192.097	952
192.166	641
192.235	614
192.304	337
192.373	331
192.442	-167
192.511	535
192.580	393
192.650	784
192.719	270
192.788	514
192.857	879
192.926	-218
192.995	930
193.064	1105
193.133	1653
193.202	2138
193.271	1554
193.340	2309
193.409	1928
193.478	2408
193.547	3257
193.615	4142
193.684	3869
193.753	2448
193.822	1796
193.891	1286
193.960	1288
194.029	1078
194.098	925
194.167	215
194.236	894
194.305	583
194.374	754
194.443	580
194.512	435
194.580	1240
194.649	1254
194.718	1524
194.787	1084
194.856	862
194.925	1683
194.994	950
195.062	1199
195.131	1132
195.200	1006
195.269	1661
195.338	891
195.407	1475
195.475	1183
195.544	1634
195.613	1280
195.682	1283
195.751	1257
195.819	1182
195.888	864
195.957	1802
196.026	2143
196.094	2278
196.163	965
196.232	1185
196.301	1803
196.369	768
196.438	984
196.507	488
196.576	610
196.644	783
196.713	1597
196.782	134
196.850	624
196.919	1525
196.988	791
197.056	993
197.125	938
197.194	2138
197.262	348
197.331	1588
197.400	1116
197.468	759
197.537	488
197.606	564
197.674	2488
197.743	3668
197.812	1304
197.880	3643
197.949	2374
198.017	3489
198.086	3143
198.155	1373
198.223	1538
198.292	3412
198.360	1926
198.429	2014
198.497	1220
198.566	2257
198.635	3322
198.703	1103
198.772	1534
198.840	4700
198.909	4483
198.977	1517
199.046	2599
199.114	1408
199.183	1202
199.251	798
199.320	1105
199.388	847
199.457	1149
199.525	1305
199.594	1337
199.662	579
199.731	708
199.799	1639
199.867	1580
199.936	1374
200.004	1437
200.073	1405
200.141	1479
200.210	921
200.278	1004
200.346	1534
200.415	1499
200.483	2243
200.552	1430
200.620	667
200.688	1410
200.757	973
200.825	1828
200.893	1551
200.962	1306
201.030	1314
201.098	1343
201.167	1624
201.235	268
201.303	1620
201.372	1434
201.440	1524
201.508	2097
201.577	2315
201.645	1434
201.713	542
201.781	1350
201.850	2225
201.918	1337
201.986	1473
202.055	1861
202.123	1032
202.191	1270
202.259	1691
202.327	1682
202.396	601
202.464	1006
202.532	2226
202.600	5001
202.669	2866
202.737	1513
202.805	1309
202.873	1375
202.941	1874
203.009	2048
203.078	1131
203.146	1161
203.214	1019
203.282	300
203.350	2003
203.418	1172
203.487	1649
203.555	1459
203.623	1721
203.691	1326
203.759	902
203.827	1347
203.895	2075
203.963	1540
204.031	1488
204.099	1103
204.168	1118
204.236	2154
204.304	1730
204.372	1756
204.440	893
204.508	1778
204.576	1460
204.644	2028
204.712	1259
204.780	1734
204.848	1940
204.916	772
204.984	2563
205.052	1647
205.120	1423
205.188	1210
205.256	1783
205.324	1769
205.392	1581
205.460	3005
205.528	1877
205.596	1523
205.664	1680
205.732	1551
205.799	6119
205.867	8383
205.935	2243
206.003	2005
206.071	1586
206.139	2020
206.207	1745
206.275	1443
206.343	1540
206.411	1858
206.478	2119
206.546	2360
206.614	1561
206.682	1892
206.750	2454
206.818	2209
206.885	2283
206.953	819
207.021	2558
207.089	1931
207.157	1057
207.225	2341
207.292	1730
207.360	2304
207.428	2452
207.496	1647
207.563	2173
207.631	2140
207.699	2046
207.767	1438
207.834	2126
207.902	1496
207.970	2306
208.038	2509
208.105	2475
208.173	2634
208.241	2976
208.309	3377
208.376	3027
208.444	5204
208.512	3259
208.579	2003
208.647	2646
208.715	2490
208.782	1255
208.850	2124
208.918	1907
208.985	1946
209.053	2111
209.120	2297
209.188	1931
209.256	2516
209.323	1854
209.391	3035
209.459	3452
209.526	1614
209.594	2355
209.661	1963
209.729	1645
209.796	3281
209.864	2853
209.932	1709
209.999	3680
210.067	2767
210.134	3052
210.202	3048
210.269	4342
210.337	4041
210.404	2459
210.472	2108
210.539	3107
210.607	1923
210.674	2629
210.742	2538
210.809	2557
210.877	3111
210.944	3602
211.012	2013
211.079	3684
211.146	3022
211.214	3581
211.281	3465
211.349	3680
211.416	3109
211.484	3223
211.551	2623
211.618	3151
211.686	2145
211.753	1951
211.821	3402
211.888	2523
211.955	3037
212.023	3098
212.090	3085
212.157	3941
212.225	3922
212.292	6448
212.359	10729
212.427	21318
212.494	10591
212.561	5759
212.629	3949
212.696	3676
212.763	4088
212.831	3082
212.898	2993
212.965	3434
213.032	3202
213.100	3490
213.167	3439
213.234	3920
213.301	3360
213.369	3208
213.436	2441
213.503	2818
213.570	2951
213.638	3496
213.705	2787
213.772	2845
213.839	3215
213.906	4114
213.973	4506
214.041	3098
214.108	3074
214.175	2775
214.242	3450
214.309	3145
214.376	3796
214.444	3888
214.511	4157
214.578	4101
214.645	3590
214.712	3802
214.779	4497
214.846	3865
214.913	4368
214.980	4910
215.048	4794
215.115	5197
215.182	5400
215.249	3356
215.316	4146
215.383	4123
215.450	3264
215.517	2603
215.584	2995
215.651	3127
215.718	2859
215.785	3803
215.852	3402
215.919	4036
215.986	4007
216.053	3291
216.120	2525
216.187	3141
216.254	3725
216.321	2355
216.388	4015
216.455	3815
216.522	3550
216.589	4719
216.656	6495
216.722	6448
216.789	6102
216.856	6151
216.923	5789
216.990	4459
217.057	4967
217.124	5989
217.191	5667
217.258	8050
217.324	8982
217.391	8763
217.458	6853
217.525	5365
217.592	5196
217.659	4060
217.725	5539
217.792	4872
217.859	4807
217.926	3684
217.993	2744
218.059	3800
218.126	2829
218.193	3816
218.260	2496
218.327	2052
218.393	2594
218.460	2271
218.527	1927
218.594	2946
218.660	4787
218.727	5175
218.794	2498
218.860	3018
218.927	2926
218.994	2517
219.061	2400
219.127	2573
219.194	4131
219.261	3450
219.327	2242
219.394	2811
219.461	2055
219.527	2597
219.594	3586
219.661	2742
219.727	2005
219.794	3349
219.860	3053
219.927	2589
219.994	4554
220.060	7006
220.127	5197
220.193	4626
220.260	4417
220.326	7571
220.393	11790
220.460	14031
220.526	9085
220.593	6671
220.659	6501
220.726	6892
220.792	13814
220.859	13562
220.925	18492
220.992	21991
221.058	20500
221.125	17793
221.191	13463
221.258	5751
221.324	4714
221.391	3984
221.457	3340
221.524	4337
221.590	4543
221.657	15374
221.723	10260
221.789	10440
221.856	8891
221.922	5800
221.989	4213
222.055	3485
222.121	2947
222.188	4397
222.254	4264
222.321	3439
222.387	2057
222.453	2901
222.520	3007
222.586	2623
222.652	2797
222.719	2455
222.785	3040
222.851	3121
222.918	2582
222.984	2041
223.050	2748
223.116	2144
223.183	2082
223.249	2309
223.315	2176
223.382	1918
223.448	2366
223.514	2032
223.580	1690
223.647	1998
223.713	1336
223.779	2094
223.845	1991
223.911	2311
223.978	1371
224.044	2118
224.110	2319
224.176	2886
224.242	1666
224.309	2126
224.375	1684
224.441	2435
224.507	1830
224.573	1576
224.639	2020
224.705	1203
224.772	1393
224.838	1800
224.904	2562
224.970	1970
225.036	1579
225.102	2002
225.168	1955
225.234	1554
225.300	2278
225.366	1441
225.432	2532
225.499	1945
225.565	2515
225.631	3567
225.697	3407
225.763	3779
225.829	3525
225.895	5065
225.961	6225
226.027	6290
226.093	4794
226.159	6513
226.225	9608
226.291	23596
226.357	33982
226.423	18933
226.489	10248
226.554	7454
226.620	7090
226.686	8155
226.752	12657
226.818	21996
226.884	42085
226.950	36277
227.016	16997
227.082	10345
227.148	6731
227.214	5840
227.279	5973
227.345	4840
227.411	4137
227.477	4919
227.543	10034
227.609	9572
227.674	6153
227.740	4758
227.806	4222
227.872	3659
227.938	3843
228.003	6724
228.069	3608
228.135	2915
228.201	2874
228.267	3116
228.332	3953
228.398	3498
228.464	3448
228.530	1676
228.595	2073
228.661	2683
228.727	4375
228.792	3687
228.858	2312
228.924	2106
228.990	5029
229.055	3921
229.121	4147
229.187	2308
229.252	3003
229.318	2014
229.384	3632
229.449	3496
229.515	892
229.581	1180
229.646	3263
229.712	2936
229.777	6179
229.843	5458
229.909	5269
229.974	5101
230.040	5204
230.105	4157
230.171	4572
230.236	6944
230.302	10180
230.368	7383
230.433	3777
230.499	3421
230.564	6002
230.630	3625
230.695	3253
230.761	3309
230.826	1729
230.892	5841
230.957	3013
231.023	2682
231.088	2964
231.154	3104
231.219	3128
231.284	3901
231.350	4956
231.415	2874
231.481	3291
231.546	2532
231.612	2114
231.677	2352
231.742	1414
231.808	3507
231.873	2378
231.939	1351
232.004	5084
232.069	5700
232.135	2311
232.200	2817
232.265	2421
232.331	1762
232.396	1951
232.461	2507
232.527	2174
232.592	1927
232.657	3031
232.723	4259
232.788	3601
232.853	2580
232.918	3017
232.984	1944
233.049	1817
233.114	4365
233.179	4495
233.245	6421
233.310	6777
233.375	2425
233.440	3208
233.506	2252
233.571	1561
233.636	2749
233.701	2282
233.766	3899
233.832	5877
233.897	3286
233.962	2323
234.027	3568
234.092	3003
234.157	3187
234.222	2301
234.288	5029
234.353	14431
234.418	12921
234.483	7248
234.548	5950
234.613	4888
234.678	4392
234.743	4911
234.808	14822
234.873	8972
234.938	5353
235.004	3483
235.069	4207
235.134	3583
235.199	3990
235.264	3599
235.329	2780
235.394	3063
235.459	4587
235.524	4082
235.589	3252
235.654	3124
235.719	2962
235.784	3701
235.849	3836
235.913	9090
235.978	9761
236.043	10084
236.108	4826
236.173	3976
236.238	5126
236.303	3611
236.368	3514
236.433	7158
236.498	10365
236.563	8567
236.627	16559
236.692	52737
236.757	43643
236.822	18704
236.887	12572
236.952	10297
237.017	8379
237.081	9296
237.146	12496
237.211	26250
237.276	52944
237.341	76715
237.405	39792
237.470	17921
237.535	12266
237.600	7496
237.664	6872
237.729	5542
237.794	8664
237.859	17673
237.923	11338
237.988	6722
238.053	7925
238.118	7485
238.182	20446
238.247	16896
238.312	7921
238.376	6623
238.441	4067
238.506	5633
238.570	2555
238.635	4270
238.700	3918
238.764	3376
238.829	9876
238.893	10096
238.958	6265
239.023	5131
239.087	3381
239.152	4683
239.216	3668
239.281	2948
239.346	3754
239.410	3027
239.475	4918
239.539	18420
239.604	13712
239.668	5292
239.733	3912
239.797	6846
239.862	14671
239.926	17151
239.991	7182
240.055	4486
240.120	3197
240.184	3268
240.249	2502
240.313	2575
240.378	3665
240.442	10616
240.507	16369
240.571	5563
240.635	8207
240.700	10382
240.764	4867
240.829	3554
240.893	2088
240.957	3883
241.022	10867
241.086	17263
241.151	7638
241.215	3503
241.279	6397
241.344	9256
241.408	6112
241.472	4964
241.537	4996
241.601	4413
241.665	3352
241.730	4649
241.794	5173
241.858	4585
241.922	4184
241.987	3999
242.051	3517
242.115	3778
242.179	4682
242.244	3506
242.308	4516
242.372	4639
242.436	5181
242.501	3948
242.565	3565
242.629	3245
242.693	4052
242.757	3235
242.822	3629
242.886	3868
242.950	4628
243.014	4124
243.078	4820
243.142	5228
243.206	2892
243.271	4856
243.335	5101
243.399	7995
243.463	32330
243.527	72113
243.591	24333
243.655	9380
243.719	5562
243.783	6660
243.847	10453
243.911	14551
243.975	14720
244.040	8713
244.104	5950
244.168	3871
244.232	6836
244.296	10149
244.360	11801
244.424	6622
244.488	5362
244.552	4419
244.615	3102
244.679	3895
244.743	4773
244.807	4890
244.871	3564
244.935	3461
244.999	3250
245.063	2827
245.127	4469
245.191	9416
245.255	9091
245.319	6480
245.383	4560
245.446	5161
245.510	2893
245.574	3804
245.638	3751
245.702	4682
245.766	11712
245.829	7319
245.893	4493
245.957	3377
246.021	5254
246.085	4526
246.149	5838
246.212	13909
246.276	18771
246.340	8307
246.404	6608
246.467	7966
246.531	10194
246.595	6949
246.659	5548
246.722	4958
246.786	6694
246.850	8435
246.913	9441
246.977	4083
247.041	4556
247.104	5428
247.168	5022
247.232	12811
247.295	25755
247.359	13438
247.423	6797
247.486	11682
247.550	7429
247.614	6128
247.677	7493
247.741	4864
247.804	4427
247.868	5798
247.932	11871
247.995	23832
248.059	9936
248.122	5629
248.186	7713
248.249	11314
248.313	40753
248.376	39692
248.440	25645
248.503	9272
248.567	9413
248.630	12120
248.694	17225
248.757	21759
248.821	42164
248.884	24552
248.948	22897
249.011	32586
249.075	49713
249.138	40798
249.202	17233
249.265	11352
249.328	14843
249.392	10170
249.455	9650
249.519	7951
249.582	9559
249.645	14977
249.709	11332
249.772	8158
249.835	8029
249.899	8188
249.962	7621
250.025	7618
250.089	18695
250.152	22187
250.215	12490
250.279	8972
250.342	10252
250.405	9323
250.468	8721
250.532	11076
250.595	18717
250.658	70076
250.721	103883
250.785	40044
250.848	19922
250.911	12229
250.974	10577
251.038	14576
251.101	26647
251.164	16136
251.227	16572
251.290	15509
251.354	24075
251.417	94072
251.480	88071
251.543	69087
251.606	159054
251.669	118414
251.732	50121
251.795	42984
251.859	45293
251.922	106163
251.985	59372
252.048	24918
252.111	17289
252.174	15064
252.237	24884
252.300	51791
252.363	66723
252.426	123779
252.489	55302
252.552	29624
252.615	19506
252.678	18899
252.741	39257
252.804	63417
252.867	131584
252.930	75299
252.993	40062
253.056	23652
253.119	17454
253.182	14101
253.245	28229
253.308	19127
253.371	16696
253.434	14370
253.497	15322
253.559	25223
253.622	17070
253.685	21199
253.748	21533
253.811	10634
253.874	14099
253.937	12216
254.000	9459
254.062	17288
254.125	24773
254.188	26336
254.251	19891
254.314	10059
254.376	18361
254.439	19799
254.502	15907
254.565	17928
254.628	28693
254.690	18280
254.753	9631
254.816	8726
254.878	9627
254.941	17698
255.004	18246
255.067	8118
255.129	8552
255.192	5765
255.255	4306
255.317	6364
255.380	4393
255.443	4326
255.505	3673
255.568	4072
255.631	4551
255.693	5567
255.756	3305
255.819	5129
255.881	3430
255.944	4088
256.006	3406
256.069	4122
256.132	4161
256.194	5752
256.257	16329
256.319	11842
256.382	11726
256.444	7922
256.507	5908
256.569	5296
256.632	6142
256.694	10293
256.757	31648
256.819	84751
256.882	36377
256.944	14334
257.007	10389
257.069	11355
257.132	7749
257.194	6583
257.257	6891
257.319	7444
257.381	7663
257.444	22649
257.506	98523
257.569	101243
257.631	48563
257.693	23510
257.756	12614
257.818	10864
257.880	6744
257.943	6767
258.005	5428
258.067	4950
258.130	6010
258.192	6882
258.254	13242
258.317	7903
258.379	7062
258.441	15541
258.503	14609
258.566	20361
258.628	24356
258.690	7496
258.753	6498
258.815	12655
258.877	7459
258.939	5583
259.001	6568
259.064	5650
259.126	7369
259.188	8662
259.250	7082
259.312	8344
259.375	22530
259.437	13115
259.499	6463
259.561	5995
259.623	6336
259.685	5762
259.747	5228
259.809	18990
259.872	33008
259.934	53218
259.996	45707
260.058	14004
260.120	6863
260.182	5000
260.244	4673
260.306	3734
260.368	4441
260.430	4460
260.492	11876
260.554	23541
260.616	14786
260.678	27290
260.740	34518
260.802	9720
260.864	8185
260.926	5318
260.988	6865
261.050	6214
261.112	17655
261.174	42537
261.236	27274
261.298	9605
261.359	17081
261.421	21573
261.483	6311
261.545	6532
261.607	3363
261.669	4178
261.731	10267
261.793	23456
261.854	10418
261.916	7593
261.978	7062
262.040	7911
262.102	5499
262.164	9711
262.225	7887
262.287	5753
262.349	13655
262.411	9856
262.472	6161
262.534	10143
262.596	21024
262.658	7751
262.719	4050
262.781	7510
262.843	20706
262.904	9474
262.966	6308
263.028	7904
263.090	49219
263.151	116210
263.213	37608
263.275	19291
263.336	8502
263.398	5584
263.459	3680
263.521	5470
263.583	11824
263.644	8407
263.706	4286
263.767	2700
263.829	3400
263.891	3347
263.952	2582
264.014	3553
264.075	8377
264.137	20271
264.198	9381
264.260	4043
264.321	4356
264.383	12089
264.444	29201
264.506	9651
264.567	4868
264.629	13099
264.690	25436
264.752	9135
264.813	5283
264.875	3533
264.936	5928
264.998	3806
265.059	3848
265.120	4153
265.182	7523
265.243	48610
265.305	45446
265.366	11306
265.427	7146
265.489	5044
265.550	3192
265.611	4325
265.673	4363
265.734	4517
265.795	3470
265.857	3518
265.918	4399
265.979	12197
266.040	77473
266.102	58152
266.163	17306
266.224	12358
266.286	6725
266.347	3610
266.408	4871
266.469	5210
266.530	4693
266.592	3907
266.653	8259
266.714	14060
266.775	5620
266.836	4065
266.898	3118
266.959	8056
267.020	5107
267.081	4212
267.142	3357
267.203	3260
267.264	2890
267.326	5124
267.387	3379
267.448	2734
267.509	3597
267.570	4086
267.631	3449
267.692	3161
267.753	3523
267.814	3352
267.875	8551
267.936	17573
267.997	12045
268.058	10370
268.119	5969
268.180	4949
268.241	3026
268.302	3261
268.363	3006
268.424	3897
268.485	4293
268.546	2586
268.607	2772
268.668	2200
268.729	2843
268.790	3411
268.851	4217
268.912	11714
268.972	11961
269.033	5449
269.094	3535
269.155	3360
269.216	3054
269.277	3449
269.338	2301
269.398	3406
269.459	4136
269.520	6045
269.581	7562
269.642	9043
269.702	6113
269.763	6484
269.824	4114
269.885	5147
269.945	7989
270.006	4468
270.067	3347
270.128	3156
270.188	3479
270.249	2688
270.310	2172
270.370	3005
270.431	3567
270.492	3296
270.553	3325
270.613	8359
270.674	16887
270.734	6749
270.795	3779
270.856	6099
270.916	4980
270.977	3222
271.038	4828
271.098	4949
271.159	8153
271.219	7673
271.280	4187
271.340	3755
271.401	4842
271.462	12048
271.522	5999
271.583	4334
271.643	5014
271.704	3899
271.764	4795
271.825	11255
271.885	40132
271.946	48327
272.006	15489
272.066	24203
272.127	37334
272.187	12285
272.248	7525
272.308	7328
272.369	27353
272.429	14340
272.489	12349
272.550	11944
272.610	13232
272.671	9305
272.731	9939
272.791	15950
272.852	8046
272.912	7955
272.972	5196
273.033	5295
273.093	8723
273.153	8594
273.214	5971
273.274	5643
273.334	25644
273.394	42972
273.455	17787
273.515	17867
273.575	37920
273.635	14685
273.696	20836
273.756	37678
273.816	15041
273.876	9244
273.936	22626
273.997	36355
274.057	10335
274.117	7239
274.177	10397
274.237	51065
274.297	41354
274.358	30038
274.418	32872
274.478	22867
274.538	9276
274.598	7861
274.658	30116
274.718	37576
274.778	13306
274.838	6862
274.898	17284
274.958	51825
275.018	40703
275.078	23961
275.138	10638
275.198	6147
275.258	4562
275.318	6341
275.378	12003
275.438	12016
275.498	7576
275.558	25213
275.618	49011
275.678	28320
275.738	18407
275.798	14590
275.858	9056
275.918	5168
275.978	6431
276.038	5623
276.098	5025
276.157	10377
276.217	28718
276.277	13106
276.337	10233
276.397	5482
276.457	7395
276.517	4941
276.576	4275
276.636	4056
276.696	7936
276.756	18537
276.815	13157
276.875	6517
276.935	7301
276.995	6587
277.055	5088
277.114	5602
277.174	7742
277.234	23280
277.293	9333
277.353	6160
277.413	5115
277.472	5955
277.532	6087
277.592	5964
277.651	26064
277.711	45117
277.771	15231
277.830	55427
277.890	39425
277.950	29988
278.009	83565
278.069	29021
278.128	33937
278.188	45260
278.248	19590
278.307	55543
278.367	29585
278.426	10164
278.486	7181
278.545	5399
278.605	5945
278.664	5911
278.724	6515
278.783	16997
278.843	40619
278.902	12052
278.962	8973
279.021	10287
279.081	15577
279.140	13562
279.199	10172
279.259	10964
279.318	10262
279.378	13113
279.437	22197
279.496	82456
279.556	245353
279.615	181823
279.675	54325
279.734	30669
279.793	43512
279.853	61749
279.912	22117
279.971	13675
280.031	11204
280.090	23439
280.149	39232
280.208	35256
280.268	176370
280.327	160003
280.386	42695
280.445	30050
280.505	24227
280.564	12888
280.623	9862
280.682	15832
280.742	21177
280.801	7491
280.860	5536
280.919	7253
280.978	6817
281.037	7007
281.097	5441
281.156	5421
281.215	4494
281.274	6448
281.333	29491
281.392	19201
281.451	6591
281.510	5405
281.569	5203
281.628	4054
281.688	3957
281.747	5385
281.806	5450
281.865	4714
281.924	4684
281.983	3994
282.042	3185
282.101	3596
282.160	4010
282.219	3355
282.278	4858
282.337	17094
282.396	10178
282.454	5091
282.513	6991
282.572	24630
282.631	13482
282.690	5228
282.749	3821
282.808	6465
282.867	5386
282.926	6348
282.985	3520
283.043	3905
283.102	3914
283.161	4894
283.220	14173
283.279	27721
283.338	9229
283.396	6085
283.455	5896
283.514	5651
283.573	9922
283.631	8185
283.690	5143
283.749	5430
283.808	11683
283.866	11751
283.925	5853
283.984	5456
284.043	8191
284.101	7742
284.160	6424
284.219	10710
284.277	8127
284.336	11146
284.395	35006
284.453	28265
284.512	12110
284.570	16158
284.629	14225
284.688	13199
284.746	14899
284.805	17989
284.863	23113
284.922	28072
284.981	31464
285.039	46457
285.098	80868
285.156	179141
285.215	235723
285.273	240782
285.332	183776
285.390	101826
285.449	63744
285.507	41296
285.566	31543
285.624	24145
285.683	18214
285.741	14839
285.799	12666
285.858	12689
285.916	11986
285.975	8900
286.033	7857
286.091	7917
286.150	6990
286.208	8094
286.267	8891
286.325	7821
286.383	12118
286.442	9528
286.500	5752
286.558	5939
286.616	5433
286.675	7352
286.733	7034
286.791	5489
286.850	7007
286.908	8856
286.966	13870
287.024	7185
287.083	5153
287.141	4392
287.199	5573
287.257	7371
287.315	5634
287.374	6390
287.432	15284
287.490	10278
287.548	8224
287.606	5944
287.664	5652
287.723	8784
287.781	11643
287.839	7296
287.897	7987
287.955	9775
288.013	14387
288.071	32581
288.129	153629
288.187	352593
288.245	162697
288.303	57733
288.361	32285
288.419	23477
288.477	15768
288.535	11025
288.593	7664
288.651	6974
288.709	6309
288.767	6327
288.825	5812
288.883	4959
288.941	5404
288.999	4879
289.057	4585
289.115	5117
289.173	5247
289.231	5247
289.289	4807
289.346	5101
289.404	5240
289.462	9093
289.520	9022
289.578	5327
289.636	3850
289.694	3545
289.751	3669
289.809	3567
289.867	3809
289.925	5803
289.983	5824
290.040	4052
290.098	3300
290.156	4157
290.214	5943
290.271	3134
290.329	2976
290.387	2836
290.444	2874
290.502	2291
290.560	2660
290.617	4281
290.675	3697
290.733	3553
290.790	3797
290.848	4000
290.906	5115
290.963	4856
291.021	4228
291.078	3686
291.136	3232
291.194	17485
291.251	33725
291.309	9514
291.366	4189
291.424	4930
291.481	4733
291.539	4725
291.596	3743
291.654	2910
291.711	2592
291.769	4672
291.826	8690
291.884	5148
291.941	3018
291.999	3582
292.056	3852
292.114	4308
292.171	3122
292.228	3278
292.286	4794
292.343	9908
292.401	12252
292.458	7662
292.515	5583
292.573	6263
292.630	6050
292.687	5536
292.745	4875
292.802	7379
292.859	21325
292.917	33002
292.974	17071
293.031	7334
293.089	4286
293.146	4421
293.203	3922
293.260	4065
293.318	6864
293.375	10593
293.432	5606
293.489	3597
293.546	4092
293.604	5837
293.661	20864
293.718	46623
293.775	24337
293.832	12546
293.889	10560
293.947	10722
294.004	6944
294.061	6500
294.118	15429
294.175	34152
294.232	45808
294.289	17650
294.346	9602
294.403	7509
294.460	7380
294.517	5576
294.574	4809
294.631	5028
294.688	4811
294.745	14606
294.802	59673
294.859	64108
294.916	25523
294.973	14872
295.030	11114
295.087	8549
295.144	6537
295.201	6078
295.258	5084
295.315	6299
295.372	21003
295.429	36733
295.486	15364
295.542	10860
295.599	33164
295.656	50608
295.713	34100
295.770	37757
295.827	14378
295.883	8603
295.940	8007
295.997	12806
296.054	11901
296.111	6700
296.167	5455
296.224	4458
296.281	4990
296.338	4467
296.394	4243
296.451	4719
296.508	19555
296.564	32243
296.621	21129
296.678	44246
296.734	57173
296.791	21828
296.848	11611
296.904	11521
296.961	26656
297.018	44376
297.074	32262
297.131	12538
297.187	8490
297.244	10369
297.301	44252
297.357	68438
297.414	23047
297.470	11324
297.527	8442
297.583	7345
297.640	7151
297.696	5718
297.753	4810
297.809	5011
297.866	3446
297.922	3952
297.979	3632
298.035	4140
298.092	8047
298.148	27219
298.204	22978
298.261	9834
298.317	22057
298.374	51517
298.430	26198
298.486	14298
298.543	10774
298.599	9875
298.656	11396
298.712	20625
298.768	57794
298.824	39031
298.881	14129
298.937	7725
298.993	7627
299.050	9147
299.106	7674
299.162	7251
299.218	6897
299.275	5785
299.331	5465
299.387	11836
299.443	46064
299.500	45590
299.556	19176
299.612	10574
299.668	10342
299.724	13496
299.780	13229
299.837	7434
299.893	10852
299.949	43062
300.005	44055
300.061	41098
300.117	64668
300.173	28716
300.229	14540
300.285	18137
300.341	19207
300.397	10015
300.453	6684
300.510	6472
300.566	5994
300.622	7328
300.678	27495
300.734	45328
300.790	39470
300.845	42933
300.901	28856
300.957	43929
301.013	30269
301.069	12435
301.125	10062
301.181	9718
301.237	7399
301.293	4733
301.349	4522
301.405	5164
301.461	6352
301.516	8626
301.572	8863
301.628	12894
301.684	11401
301.740	20238
301.796	27549
301.851	18805
301.907	29431
301.963	25357
302.019	47200
302.074	124381
302.130	111524
302.186	51272
302.242	23106
302.297	14278
302.353	14469
302.409	28320
302.464	21744
302.520	18658
302.576	48510
302.631	50654
302.687	28697
302.743	14275
302.798	9461
302.854	7035
302.910	7385
302.965	11382
303.021	17309
303.076	15353
303.132	20499
303.187	22343
303.243	12939
303.299	7957
303.354	6329
303.410	5841
303.465	6329
303.521	5147
303.576	5921
303.632	6565
303.687	14492
303.743	40790
303.798	31484
303.853	13757
303.909	8439
303.964	7496
304.020	12339
304.075	16387
304.130	15470
304.186	27738
304.241	27746
304.297	22223
304.352	13225
304.358	12722
304.407	8641
304.449	8602
304.463	8596
304.518	8233
304.539	7845
304.573	7248
304.629	7398
304.630	7483
304.684	11589
304.720	25846
304.739	33023
304.794	42152
304.811	36172
304.850	21811
304.902	11362
304.905	10708
304.960	9584
304.992	10023
305.015	10283
305.071	9082
305.083	8639
305.126	7070
305.173	5477
305.181	5223
305.236	4119
305.264	4955
305.292	5852
305.347	7643
305.354	7770
305.402	8561
305.445	9625
305.457	9925
305.512	11339
305.535	10981
305.567	10425
305.622	10372
305.626	10838
305.678	20779
305.716	42473
305.733	50511
305.788	49239
305.807	42542
305.843	30902
305.897	41389
305.898	41502
305.953	37352
305.988	26314
306.008	20392
306.063	14173
306.078	12767
306.118	9259
306.168	7017
306.173	6850
306.228	5561
306.259	5506
306.283	5453
306.338	5028
306.349	5399
306.393	7132
306.440	7831
306.448	7884
306.503	7295
306.530	8280
306.558	11253
306.613	30347
306.620	31980
306.668	40312
306.711	46355
306.723	46733
306.778	33551
306.801	26380
306.833	18207
306.888	10163
306.892	9867
306.943	7768
306.982	7442
306.997	7304
307.052	6655
307.072	6590
307.107	7268
307.162	10910
307.163	10985
307.217	18574
307.253	23212
307.272	24578
307.327	25057
307.343	22611
307.381	16843
307.434	13281
307.436	13486
307.491	29958
307.524	43519
307.546	47973
307.600	40459
307.614	35867
307.655	21814
307.704	12484
307.710	12153
307.765	14244
307.795	20055
307.819	25939
307.874	43205
307.885	42687
307.929	31733
307.975	21959
307.984	21963
308.038	27829
308.065	34602
308.093	56815
308.148	127691
308.156	144349
308.202	232813
308.246	268551
308.257	259797
308.312	144067
308.336	102226
308.366	77546
308.421	47196
308.426	44892
308.475	29858
308.517	21153
308.530	19450
308.585	16398
308.607	15883
308.639	16153
308.694	17387
308.697	17792
308.748	33208
308.787	50921
308.803	52415
308.857	38551
308.877	32670
308.912	27445
308.967	25101
308.967	25110
309.021	32386
309.058	40322
309.076	49903
309.130	86327
309.148	102598
309.185	174135
309.238	305305
309.239	306349
309.293	335290
309.328	310683
309.348	269897
309.402	139679
309.418	107350
309.457	75709
309.508	46980
309.511	46099
309.566	40808
309.598	40561
309.620	45879
309.674	66160
309.688	71255
309.729	69156
309.778	57259
309.783	55802
309.837	38009
309.868	29516
309.892	31106
309.946	40998
309.959	44653
310.001	57764
310.049	68049
310.055	65896
310.109	39102
310.139	24721
310.163	20032
310.218	13649
310.229	12710
310.272	10846
310.319	9164
310.326	8954
310.381	8339
310.409	7878
310.435	7620
310.489	7249
310.499	7222
310.543	7547
310.589	8163
310.598	8166
310.652	8438
310.679	8203
310.706	7361
310.760	5842
310.769	5633
310.814	5244
310.859	4975
310.868	4987
310.923	5048
310.948	5215
310.977	5872
311.031	7196
311.038	7385
311.085	7143
311.128	6556
311.139	6426
311.193	5993
311.218	5847
311.247	5314
311.301	4066
311.308	3948
311.356	4493
311.398	5069
311.410	4995
311.464	4535
311.488	4323
311.518	4289
311.572	4300
311.578	4318
311.626	6038
311.668	7578
311.680	7721
311.734	8311
311.758	8597
311.788	8580
311.842	8438
311.847	8437
311.896	10719
311.937	12813
311.950	12584
312.004	11478
312.027	10979
312.058	8799
312.112	4980
312.117	4616
312.165	5279
312.207	5883
312.297	8264
312.386	6574
312.476	6409
312.566	11930
312.656	6050
312.745	4367
312.835	4858
312.925	6054
313.015	5598
313.104	7094
313.194	4591
313.284	4900
313.374	5996
313.463	6159
313.553	4374
313.643	4742
313.732	3513
313.822	3892
313.912	4740
314.001	6037
314.091	7078
314.180	10032
314.270	7185
314.360	9515
314.449	7006
314.539	5292
314.628	4574
314.718	6234
314.808	8628
314.897	4284
314.987	4345
315.076	6662
315.166	8035
315.255	8158
315.345	8182
315.434	8572
315.524	7654
315.613	8022
315.703	9056
315.792	15396
315.881	41844
315.971	15948
316.060	15014
316.150	25564
316.239	25650
316.328	10109
316.418	4848
316.507	5449
316.597	6875
316.686	7000
316.775	12178
316.865	28134
316.954	6317
317.043	4476
317.133	4469
317.222	4451
317.311	4794
317.400	3575
317.490	6438
317.579	7496
317.668	4456
317.757	9544
317.847	25038
317.936	74570
318.025	27820
318.114	16448
318.203	10820
318.293	14661
318.382	28822
318.471	22721
318.560	33446
318.649	61546
318.738	12057
318.828	7261
318.917	7533
319.006	12122
319.095	34919
319.184	76486
319.273	37900
319.362	16566
319.451	5925
319.540	6162
319.629	14111
319.718	20928
319.807	9568
319.896	28792
319.985	92874
320.074	30214
320.163	8480
320.252	16945
320.341	13246
320.430	11051
320.519	11431
320.608	8036
320.697	6622
320.786	6977
320.875	7539
320.964	10119
321.053	14240
321.142	22117
321.230	22626
321.319	19793
321.408	42603
321.497	19006
321.586	18021
321.675	25883
321.764	22338
321.852	14401
321.941	22444
322.030	15012
322.119	18132
322.207	45601
322.296	38246
322.385	17593
322.474	18996
322.562	51238
322.651	27165
322.740	19002
322.829	30325
322.917	35583
323.006	17443
323.095	14408
323.183	11709
323.272	15583
323.361	35074
323.449	105038
323.538	33072
323.626	76018
323.715	42668
323.804	17344
323.892	67735
323.981	32992
324.069	9873
324.158	40459
324.246	34000
324.335	10805
324.424	14285
324.512	6132
324.601	7120
324.689	9870
324.778	17077
324.866	26300
324.954	6953
325.043	6637
325.131	14798
325.220	29320
325.308	33332
325.397	23065
325.485	12989
325.574	5274
325.662	4142
325.750	5044
325.839	4045
325.927	4020
326.015	5549
326.104	12862
326.192	17450
326.280	5336
326.369	4176
326.457	6764
326.545	12097
326.634	5389
326.722	3921
326.810	4040
326.898	3633
326.987	5738
327.075	12430
327.163	14887
327.251	7063
327.340	6947
327.428	7125
327.516	4036
327.604	4383
327.692	5089
327.781	6913
327.869	13136
327.957	7397
328.045	6123
328.133	3732
328.221	6725
328.309	4988
328.397	4186
328.485	5537
328.574	7991
328.662	25861
328.750	17389
328.838	7604
328.926	4117
329.014	3644
329.102	6446
329.190	19179
329.278	11211
329.366	3540
329.454	3195
329.542	3350
329.630	3596
329.718	4399
329.806	5713
329.893	6488
329.981	7394
330.069	10798
330.157	54096
330.245	162647
330.333	85860
330.421	13342
330.509	10431
330.597	31091
330.684	21388
330.772	7711
330.860	14110
330.948	17641
331.036	7612
331.123	3310
331.211	3911
331.299	4772
331.387	14310
331.475	26497
331.562	7528
331.650	3034
331.738	4959
331.825	8626
331.913	3595
332.001	3403
332.089	5834
332.176	13223
332.264	37254
332.352	27558
332.439	7282
332.527	5377
332.614	4318
332.702	6812
332.790	4471
332.877	14961
332.965	35919
333.052	8544
333.140	9092
333.228	25190
333.315	7120
333.403	6086
333.490	21312
333.578	17958
333.665	28288
333.753	13164
333.840	4391
333.928	5948
334.015	21644
334.103	32060
334.190	103541
334.278	24910
334.365	11387
334.452	8325
334.540	5614
334.627	7612
334.715	10646
334.802	21341
334.889	131133
334.977	127123
335.064	16041
335.151	6781
335.239	6998
335.326	9370
335.413	48816
335.501	67000
335.588	8140
335.675	5264
335.762	9279
335.850	15492
335.937	10268
336.024	31399
336.111	136589
336.199	56412
336.286	11663
336.373	6024
336.460	4690
336.547	3983
336.635	6473
336.722	5175
336.809	4311
336.896	7383
336.983	26874
337.070	69880
337.157	103417
337.245	84537
337.332	58675
337.419	6544
337.506	4644
337.593	5432
337.680	22427
337.767	73114
337.854	18536
337.941	21390
338.028	28423
338.115	9756
338.202	10196
338.289	21359
338.376	83648
338.463	24464
338.550	41121
338.637	44155
338.724	16104
338.811	25750
338.898	5177
338.984	3275
339.071	5222
339.158	5883
339.245	15695
339.332	10237
339.419	16989
339.506	17053
339.593	2607
339.679	3596
339.766	3764
339.853	5411
339.940	11445
340.027	4384
340.113	4118
340.200	6048
340.287	4564
340.374	5150
340.460	9760
340.547	3771
340.634	7058
340.720	29305
340.807	17936
340.894	3369
340.980	3998
341.067	3152
341.154	4240
341.240	5729
341.327	14402
341.414	4668
341.500	5166
341.587	3591
341.674	3691
341.760	8660
341.847	11113
341.933	3944
342.020	1863
342.106	1959
342.193	3440
342.279	7458
342.366	5080
342.452	9289
342.539	5174
342.625	10761
342.712	31485
342.798	12723
342.885	5873
342.971	2132
343.058	2035
343.144	2987
343.230	2870
343.317	2414
343.403	2815
343.490	1783
343.576	2375
343.662	2992
343.749	3922
343.835	4233
343.921	8963
344.008	55872
344.094	136888
344.180	28703
344.267	9993
344.353	37157
344.439	45496
344.525	15749
344.612	6050
344.698	4175
344.784	3896
344.870	2131
344.957	3154
345.043	4788
345.129	4082
345.215	9757
345.301	5498
345.387	3379
345.474	2081
345.560	2525
345.646	4061
345.732	3464
345.818	4175
345.904	3340
345.990	4401
346.076	4844
346.162	11069
346.249	4775
346.335	2663
346.421	2880
346.507	14437
346.593	55451
346.679	12821
346.765	4191
346.851	3859
346.937	2702
347.023	3319
347.108	3175
347.194	3530
347.280	3417
347.366	4092
347.452	15017
347.538	65564
347.624	48017
347.710	41008
347.796	6659
347.882	3285
347.967	3415
348.053	6449
348.139	3404
348.225	2589
348.311	2587
348.397	2326
348.482	3422
348.568	5529
348.654	2580
348.740	4922
348.825	4353
348.911	6708
348.997	28014
349.083	61548
349.168	10864
349.254	3963
349.340	3799
349.425	2297
349.511	4247
349.597	5161
349.682	9889
349.768	37126
349.854	19091
349.939	4150
350.025	2645
350.110	3246
350.196	2306
350.282	1762
350.367	1605
350.453	7748
350.538	6822
350.624	4718
350.709	4574
350.795	2342
350.880	2378
350.966	3815
351.051	6468
351.137	5713
351.222	2803
351.308	10897
351.393	32188
351.479	8880
351.564	2550
351.649	3741
351.735	2260
351.820	2265
351.906	2199
351.991	4925
352.076	19198
352.162	32429
352.247	5519
352.332	3774
352.418	7550
352.503	10721
352.588	42108
352.673	37634
352.759	7692
352.844	4023
352.929	4664
353.014	7125
353.100	3874
353.185	9129
353.270	10675
353.355	10807
353.441	2867
353.526	4289
353.611	9338
353.696	12021
353.781	6450
353.866	4089
353.952	2875
354.037	9068
354.122	21126
354.207	19590
354.292	8085
354.377	2910
354.462	3516
354.547	5182
354.632	4009
354.717	8187
354.802	9880
354.887	4779
354.972	2535
355.057	2383
355.142	1710
355.227	3697
355.312	6034
355.397	14006
355.482	34125
355.567	18178
355.652	11443
355.737	14197
355.822	41664
355.907	36340
355.991	5615
356.076	3003
356.161	3177
356.246	2744
356.331	3392
356.416	9089
356.501	65651
356.585	77995
356.670	10008
356.755	7306
356.840	9064
356.924	45229
357.009	167027
357.094	67320
357.179	13283
357.263	9192
357.348	8224
357.433	9776
357.517	7125
357.602	7046
357.687	5926
357.771	10561
357.856	35180
357.941	22213
358.025	34053
358.110	157051
358.195	78105
358.279	11186
358.364	7787
358.448	26719
358.533	78281
358.617	59093
358.702	57177
358.787	21883
358.871	11165
358.956	10554
359.040	3652
359.125	2907
359.209	4460
359.294	16229
359.378	30779
359.462	11214
359.547	6040
359.631	5206
359.716	2214
359.800	3573
359.885	7286
359.969	4133
360.053	3718
360.138	4555
360.222	5276
360.306	11048
360.391	9281
360.475	18090
360.559	42336
360.644	31258
360.728	22822
360.812	35343
360.896	106363
360.981	46714
361.065	24262
361.149	6841
361.233	6202
361.318	5600
361.402	5837
361.486	5891
361.570	3258
361.654	5673
361.739	13696
361.823	63675
361.907	109447
361.991	19837
362.075	9613
362.159	21148
362.243	16480
362.327	16878
362.411	24370
362.495	12733
362.580	6722
362.664	5205
362.748	4287
362.832	6312
362.916	10591
363.000	38318
363.084	99916
363.168	133224
363.252	32354
363.336	11787
363.420	15450
363.503	62906
363.587	81885
363.671	14643
363.755	8984
363.839	12773
363.923	6140
364.007	12873
364.091	15663
364.175	25435
364.258	105580
364.342	82333
364.426	84702
364.510	50479
364.594	19814
364.677	22300
364.761	87544
364.845	70081
364.929	19560
365.013	15637
365.096	12626
365.180	18465
365.264	25970
365.347	106700
365.431	50000
365.515	11921
365.598	3474
365.682	4946
365.766	10135
365.849	15125
365.933	5896
366.017	9437
366.100	7797
366.184	2910
366.267	3693
366.351	3931
366.435	2669
366.518	2434
366.602	2407
366.685	3017
366.769	3690
366.852	9881
366.936	14983
367.019	8785
367.103	7731
367.186	16254
367.270	5055
367.353	2357
367.436	3082
367.520	3562
367.603	4224
367.687	6435
367.770	13078
367.853	8566
367.937	25128
368.020	47512
368.104	11430
368.187	9336
368.270	13703
368.353	12679
368.437	19552
368.520	55700
368.603	30540
368.687	30398
368.770	60738
368.853	15815
368.936	12820
369.020	16207
369.103	5064
369.186	4196
369.269	4094
369.352	9149
369.436	12617
369.519	9425
369.602	3622
369.685	5726
369.768	4999
369.851	4392
369.934	3298
370.018	4980
370.101	9799
370.184	10361
370.267	6632
370.350	12315
370.433	19179
370.516	48244
370.599	68546
370.682	21089
370.765	30780
370.848	39005
370.931	72665
371.014	33614
371.097	6489
371.180	4669
371.263	2889
371.346	2105
371.429	3385
371.511	3473
371.594	7478
371.677	13200
371.760	17392
371.843	12611
371.926	53197
372.009	130641
372.091	46426
372.174	29750
372.257	69232
372.340	32066
372.423	21175
372.505	28824
372.588	12668
372.671	20763
372.754	69368
372.836	41430
372.919	29558
373.002	65396
373.085	20171
373.167	12238
373.250	29478
373.332	68426
373.415	85245
373.498	178031
373.580	73769
373.663	84247
373.746	123311
373.828	28779
373.911	12353
373.993	14275
374.076	56465
374.159	63496
374.241	20731
374.324	57908
374.406	42924
374.489	48524
374.571	145972
374.654	67284
374.736	27839
374.819	88600
374.901	125961
374.983	136090
375.066	25968
375.148	11661
375.231	45779
375.313	97075
375.395	36175
375.478	8188
375.560	5026
375.643	8694
375.725	26592
375.807	112402
375.890	106450
375.972	52241
376.054	25346
376.136	45125
376.219	21268
376.301	31113
376.383	98270
376.465	42426
376.548	20239
376.630	28510
376.712	80263
376.794	45487
376.877	5870
376.959	3632
377.041	4765
377.123	12431
377.205	16564
377.287	3495
377.369	3355
377.452	3401
377.534	2656
377.616	4200
377.698	3488
377.780	2871
377.862	3336
377.944	4181
378.026	2195
378.108	3487
378.190	3193
378.272	3852
378.354	2826
378.436	2242
378.518	6701
378.600	25772
378.682	21166
378.764	38923
378.846	36014
378.928	11081
379.010	12604
379.091	8008
379.173	3548
379.255	3389
379.337	6247
379.419	19079
379.501	57739
379.583	27709
379.664	7122
379.746	13637
379.828	38224
379.910	56197
379.991	50788
380.073	10949
380.155	5709
380.237	4837
380.318	3193
380.400	4682
380.482	8170
380.564	14556
380.645	14158
380.727	14461
380.809	8355
380.890	6716
380.972	4545
381.053	4943
381.135	6073
381.217	14109
381.298	42570
381.380	24950
381.461	18173
381.543	76270
381.624	108129
381.706	22181
381.787	11421
381.869	13775
381.951	35928
382.032	130283
382.113	94792
382.195	21331
382.276	14597
382.358	28541
382.439	74578
382.521	86507
382.602	132235
382.684	66868
382.765	106488
382.846	142818
382.928	212355
383.009	133186
383.090	84305
383.172	280089
383.253	447132
383.334	164658
383.416	127495
383.497	76800
383.578	38981
383.659	73322
383.741	243987
383.822	599510
383.903	352387
383.984	107823
384.066	146860
384.147	100717
384.228	25109
384.309	15930
384.390	13396
384.471	9914
384.553	10449
384.634	13141
384.715	14187
384.796	9072
384.877	10121
384.958	37050
385.039	49458
385.120	18733
385.201	9208
385.282	11906
385.363	12743
385.444	11775
385.525	18613
385.606	58559
385.687	57365
385.768	15780
385.849	17238
385.930	59498
386.011	109290
386.092	34486
386.173	8251
386.254	7485
386.335	7143
386.416	8911
386.496	25405
386.577	44391
386.658	18976
386.739	10611
386.820	11574
386.901	9778
386.981	8262
387.062	6060
387.143	10618
387.224	38679
387.304	43187
387.385	16586
387.466	11062
387.547	14349
387.627	9851
387.708	17453
387.789	68222
387.869	91866
387.950	28305
388.031	7185
388.111	5837
388.192	17816
388.273	25654
388.353	16442
388.434	8445
388.514	16010
388.595	62919
388.676	88830
388.756	43967
388.837	36242
388.917	25116
388.998	6561
389.078	6437
389.159	5224
389.239	4531
389.320	8898
389.400	6931
389.480	17311
389.561	44871
389.641	25933
389.722	8104
389.802	12887
389.883	19079
389.963	52107
390.043	40369
390.124	13941
390.204	15815
390.284	45710
390.365	34523
390.445	45481
390.525	121633
390.605	112735
390.686	31434
390.766	12638
390.846	7083
390.927	4706
391.007	4374
391.087	7031
391.167	7551
391.247	6084
391.328	10749
391.408	15456
391.488	12379
391.568	4836
391.648	6606
391.728	9959
391.808	9644
391.888	10922
391.969	23246
392.049	41985
392.129	21496
392.209	20808
392.289	50525
392.369	33954
392.449	28171
392.529	20757
392.609	13566
392.689	17906
392.769	49884
392.849	51212
392.929	35093
393.009	78266
393.089	68318
393.169	60915
393.248	182163
393.328	619473
393.408	718788
393.488	224212
393.568	60988
393.648	31436
393.728	18941
393.807	14955
393.887	13160
393.967	12650
394.047	13550
394.127	18054
394.206	30249
394.286	98564
394.366	380826
394.446	458593
394.525	125707
394.605	31748
394.685	21747
394.764	41376
394.844	67280
394.924	52680
395.003	15999
395.083	11077
395.163	9529
395.242	9309
395.322	9373
395.402	7142
395.481	12197
395.561	28743
395.640	73028
395.720	64657
395.799	82353
395.879	77066
395.958	47375
396.038	147608
396.117	498330
396.197	598470
396.276	209643
396.356	67040
396.435	44046
396.515	30817
396.594	30630
396.673	56185
396.753	191625
396.832	574479
396.912	473433
396.991	120096
397.070	33052
397.150	17715
397.229	14740
397.308	16762
397.388	28354
397.467	17794
397.546	7722
397.625	5060
397.705	8594
397.784	8283
397.863	5166
397.942	5017
398.022	6175
398.101	22702
398.180	67374
398.259	41056
398.338	10412
398.417	7421
398.497	4968
398.576	5637
398.655	3466
398.734	4635
398.813	4575
398.892	21050
398.971	73396
399.050	42772
399.129	5587
399.208	3940
399.287	3658
399.366	3162
399.445	2606
399.524	3291
399.603	2354
399.682	7563
399.761	21320
399.840	74526
399.919	66787
399.998	10157
400.077	2386
400.156	1589
400.235	4780
400.313	3599
400.392	4789
400.471	20059
400.550	35240
400.629	11206
400.708	4371
400.786	5877
400.865	14889
400.944	18084
401.023	7864
401.102	2415
401.180	1932
401.259	3039
401.338	3944
401.416	5445
401.495	3801
401.574	4902
401.652	2570
401.731	5517
401.810	4256
401.888	3096
401.967	1565
402.046	3053
402.124	5410
402.203	6169
402.281	4527
402.360	6889
402.438	20776
402.517	16303
402.596	5465
402.674	4947
402.753	2775
402.831	3568
402.910	4216
402.988	15745
403.066	55579
403.145	38797
403.223	16536
403.302	45820
403.380	36885
403.459	33612
403.537	15484
403.615	6038
403.694	1440
403.772	2239
403.850	2070
403.929	2158
404.007	1642
404.085	6693
404.164	6483
404.242	3286
404.320	3488
404.398	11341
404.477	24176
404.555	97925
404.633	100213
404.711	17372
404.789	5863
404.868	3931
404.946	2359
405.024	2561
405.102	1450
405.180	1010
405.258	824
405.336	3055
405.415	2054
405.493	6871
405.571	6494
405.649	2732
405.727	1001
405.805	4967
405.883	3947
405.961	4634
406.039	6137
406.117	3258
406.195	5810
406.273	22795
406.351	85576
406.429	61268
406.507	10930
406.585	4070
406.663	2881
406.740	4534
406.818	4285
406.896	2291
406.974	3743
407.052	7817
407.130	46506
407.208	76175
407.285	17503
407.363	3196
407.441	2088
407.519	2891
407.596	2633
407.674	9873
407.752	34924
407.830	38661
407.907	14272
407.985	4504
408.063	2490
408.141	1950
408.218	6097
408.296	5958
408.373	2701
408.451	3908
408.529	3065
408.606	1994
408.684	1065
408.762	2000
408.839	415
408.917	1008
408.994	1606
409.072	1694
409.149	1797
409.227	4824
409.304	5417
409.382	4879
409.459	4545
409.537	7462
409.614	6165
409.692	5370
409.769	4529
409.846	7516
409.924	9979
410.001	7838
410.079	6021
410.156	5417
410.233	3839
410.311	3297
410.388	1683
410.465	3663
410.543	3757
410.620	3595
410.697	2464
410.775	4717
410.852	1945
410.929	3884
411.006	5627
411.083	3640
411.161	8657
411.238	10429
411.315	5194
411.392	3071
411.469	4209
411.547	5471
411.624	1853
411.701	2091
411.778	2979
411.855	6614
411.932	4111
412.009	1988
412.086	2040
412.163	3100
412.240	3874
412.317	5070
412.394	4443
412.471	1992
412.548	1050
412.625	1104
412.702	3088
412.779	6419
412.856	5383
412.933	2422
413.010	1520
413.087	3062
413.164	17842
413.241	30913
413.318	8180
413.395	4152
413.471	6484
413.548	3087
413.625	1824
413.702	2723
413.779	2478
413.855	1851
413.932	302
414.009	460
414.086	441
414.162	2044
414.239	4258
414.316	17589
414.393	42608
414.469	19555
414.546	1691
414.623	2118
414.699	1189
414.776	2679
414.853	1790
414.929	2409
415.006	1758
415.082	3482
415.159	1891
415.236	2273
415.312	2060
415.389	4703
415.465	5597
415.542	4031
415.618	719
415.695	4026
415.771	2416
415.848	2302
415.924	2852
416.000	2270
416.077	2106
416.153	377
416.230	108
416.306	1448
416.383	1352
416.459	1774
416.535	1130
416.612	1548
416.688	915
416.764	1946
416.841	652
416.917	2219
416.993	1630
417.069	3348
417.146	2972
417.222	5029
417.298	3074
417.374	1709
417.451	2705
417.527	3149
417.603	2982
417.679	2306
417.755	1728
417.831	1291
417.908	1464
417.984	818
418.060	823
418.136	5732
418.212	7590
418.288	3308
418.364	1585
418.440	1628
418.516	4546
418.592	5286
418.668	9374
418.744	13358
418.820	10665
418.896	3375
418.972	808
419.048	1737
419.124	5958
419.200	4877
419.276	1551
419.352	1245
419.428	1911
419.504	1569
419.579	2872
419.655	2670
419.731	2230
419.807	8212
419.883	14374
419.959	11915
420.034	3645
420.110	6468
420.186	26548
420.262	24733
420.337	4486
420.413	3860
420.489	2269
420.565	2553
420.640	1066
420.716	2816
420.792	549
420.867	3417
420.943	2104
421.019	4743
421.094	3780
421.170	2506
421.245	1841
421.321	2945
421.397	2541
421.472	7100
421.548	18758
421.623	15979
421.699	6033
421.774	5564
421.850	4487
421.925	7200
422.001	7380
422.076	6788
422.152	7318
422.227	11469
422.302	15328
422.378	21501
422.453	40686
422.529	95671
422.604	270338
422.679	452972
422.755	325007
422.830	123962
422.905	46162
422.981	24817
423.056	16009
423.131	11483
423.207	9089
423.282	8410
423.357	10789
423.432	9932
423.508	8084
423.583	15317
423.658	13196
423.733	5237
423.808	5958
423.883	7193
423.959	5204
424.034	4917
424.109	4735
424.184	2807
424.259	2549
424.334	2754
424.409	2116
424.484	2410
424.559	2786
424.634	2496
424.709	3627
424.784	4607
424.859	3272
424.934	4393
425.009	17270
425.084	32387
425.159	14872
425.234	3574
425.309	1516
425.384	9521
425.459	16523
425.534	6885
425.609	2877
425.683	2115
425.758	1456
425.833	2219
425.908	3646
425.983	10521
426.058	32581
426.132	18335
426.207	3808
426.282	6930
426.357	5529
426.431	2501
426.506	2366
426.581	2884
426.655	2677
426.730	2421
426.805	1637
426.879	3228
426.954	2915
427.029	6965
427.103	28939
427.178	76959
427.253	42312
427.327	6370
427.402	7061
427.476	20260
427.551	12193
427.625	4325
427.700	3002
427.774	2471
427.849	3613
427.923	2661
427.998	2570
428.072	3245
428.147	8304
428.221	29809
428.296	90794
428.370	58307
428.444	9021
428.519	9199
428.593	16418
428.667	16024
428.742	17317
428.816	19438
428.890	57021
428.965	103149
429.039	39228
429.113	20806
429.188	8375
429.262	2812
429.336	5120
429.410	16438
429.485	13552
429.559	13443
429.633	12755
429.707	5072
429.781	12359
429.855	62755
429.930	104219
430.004	56481
430.078	76250
430.152	75867
430.226	115931
430.300	136917
430.374	25912
430.448	8750
430.522	23161
430.596	72288
430.670	52032
430.744	90433
430.818	145152
430.892	36012
430.966	4750
431.040	3813
431.114	1770
431.188	1903
431.262	2225
431.336	2926
431.410	7762
431.484	20164
431.557	14667
431.631	2566
431.705	3393
431.779	16074
431.853	76512
431.927	68175
432.000	9111
432.074	3333
432.148	3718
432.222	3562
432.295	2012
432.369	2474
432.443	4282
432.516	29090
432.590	82135
432.664	39361
432.737	4750
432.811	1317
432.885	-92
432.958	1182
433.032	1137
433.106	1467
433.179	891
433.253	2004
433.326	1505
433.400	785
433.473	648
433.547	1028
433.620	697
433.694	3391
433.767	4503
433.841	2091
433.914	1537
433.988	1846
434.061	1546
434.134	1154
434.208	1049
434.281	173
434.355	1034
434.428	1946
434.501	1675
434.575	1916
434.648	842
434.721	1229
434.795	451
434.868	1165
434.941	1276
435.014	1174
435.088	776
435.161	2671
435.234	5162
435.307	6959
435.381	3599
435.454	3776
435.527	4240
435.600	4235
435.673	3551
435.746	2531
435.819	1823
435.892	2073
435.966	1512
436.039	1671
436.112	1628
436.185	1006
436.258	652
436.331	386
436.404	751
436.477	747
436.550	431
436.623	477
436.696	875
436.769	1841
436.842	1276
436.915	1553
436.987	2682
437.060	2398
437.133	1305
437.206	784
437.279	1535
437.352	1065
437.425	1516
437.498	1758
437.570	4861
437.643	6048
437.716	1835
437.789	1388
437.861	4775
437.934	14608
438.007	8887
438.080	2633
438.152	2789
438.225	5812
438.298	38904
438.370	118834
438.443	62741
438.516	15790
438.588	4105
438.661	1382
438.734	1862
438.806	2958
438.879	2059
438.951	3950
439.024	7286
439.096	4159
439.169	1548
439.241	2004
439.314	1569
439.386	4195
439.459	6335
439.531	9491
439.604	5875
439.676	2120
439.749	741
439.821	1049
439.893	1303
439.966	1251
440.038	2677
440.110	3886
440.183	2539
440.255	1333
440.327	3728
440.400	17711
440.472	71235
440.544	62708
440.617	9200
440.689	6504
440.761	8116
440.833	12880
440.905	9556
440.978	2501
441.050	1741
441.122	2154
441.194	340
441.266	1837
441.338	1174
441.411	3688
441.483	20269
441.555	39812
441.627	12214
441.699	6191
441.771	5858
441.843	2940
441.915	1060
441.987	986
442.059	1400
442.131	3280
442.203	5563
442.275	6495
442.347	6008
442.419	8564
442.491	37406
442.563	103711
442.635	57249
442.706	25270
442.778	20805
442.850	5352
442.922	3038
442.994	4080
443.066	5736
443.137	5916
443.209	4600
443.281	6060
443.353	13396
443.425	50762
443.496	179521
443.568	201594
443.640	79764
443.711	16680
443.783	6355
443.855	4733
443.926	2124
443.998	3197
444.070	4483
444.141	5011
444.213	5247
444.285	7374
444.356	6934
444.428	6717
444.499	3370
444.571	2359
444.642	2536
444.714	3484
444.785	5460
444.857	7732
444.928	15694
445.000	12482
445.071	10889
445.143	14912
445.214	9952
445.285	13981
445.357	39571
445.428	118477
445.500	292012
445.571	206342
445.642	106462
445.714	41615
445.785	32288
445.856	12789
445.928	8283
445.999	7658
446.070	6070
446.141	5921
446.213	7279
446.284	4990
446.355	3891
446.426	3844
446.497	3386
446.569	5836
446.640	7863
446.711	6948
446.782	3092
446.853	4786
446.924	4885
446.995	3979
447.066	3695
447.138	7029
447.209	4447
447.280	1541
447.351	2008
447.422	2175
447.493	2414
447.564	4544
447.635	5089
447.706	3872
447.777	981
447.847	1538
447.918	1056
447.989	4035
448.060	5584
448.131	11511
448.202	10855
448.273	8116
448.344	4054
448.414	2417
448.485	2395
448.556	2575
448.627	1723
448.698	2022
448.768	1850
448.839	2284
448.910	5007
448.981	7762
449.051	3715
449.122	2634
449.193	1828
449.263	2432
449.334	2649
449.405	4285
449.475	7708
449.546	8554
449.616	8156
449.687	8627
449.758	4196
449.828	3344
449.899	2585
449.969	3070
450.040	2937
450.110	4441
450.181	4842
450.251	3549
450.322	2443
450.392	3461
450.463	2709
450.533	3124
450.604	2877
450.674	2441
450.744	2974
450.815	2977
450.885	2251
450.955	2529
451.026	1470
451.096	2455
451.166	3891
451.237	8395
451.307	19760
451.377	10828
451.447	3308
451.518	2386
451.588	2175
451.658	2748
451.728	4588
451.799	18168
451.869	25150
451.939	8119
452.009	2996
452.079	2419
452.149	2320
452.219	5838
452.289	21724
452.360	21140
452.430	5226
452.500	4161
452.570	4323
452.640	8050
452.710	17454
452.780	29713
452.850	19965
452.920	17443
452.990	8017
453.060	4552
453.129	5309
453.199	8614
453.269	21910
453.339	59194
453.409	96524
453.479	78217
453.549	119988
453.619	130987
453.688	64297
453.758	11378
453.828	4041
453.898	3660
453.968	3008
454.037	3235
454.087	3064
454.107	2978
454.168	2620
454.177	2549
454.247	3128
454.249	3147
454.316	3030
454.330	3317
454.386	4154
454.411	6929
454.456	10982
454.492	15179
454.525	18969
454.574	12417
454.595	9640
454.655	4738
454.665	3979
454.734	5338
454.736	5514
454.804	8777
454.817	11365
454.873	20070
454.898	22833
454.943	27488
454.979	19231
455.013	12260
455.060	7596
455.082	5736
455.141	7451
455.152	7581
455.221	15828
455.222	16170
455.291	29716
455.303	27732
455.360	19834
455.384	21633
455.430	24309
455.465	21446
455.499	18402
455.546	20011
455.569	19962
455.627	15590
455.638	15124
455.707	5049
455.708	5059
455.777	3164
455.789	3260
455.846	3675
455.869	3508
455.916	3275
455.950	3559
455.985	3695
456.031	3029
456.054	2678
456.112	3090
456.124	3203
456.193	3558
456.193	3536
456.262	4186
456.274	4426
456.332	5256
456.355	5919
456.401	6411
456.436	5137
456.470	4036
456.516	3193
456.540	2887
456.597	2450
456.609	2373
456.678	3171
456.678	3156
456.747	2266
456.759	2271
456.817	2576
456.840	2861
456.886	3424
456.920	3416
456.955	3413
457.001	3549
457.024	3837
457.082	5407
457.093	5693
457.162	7860
457.163	7905
457.232	8381
457.243	7905
457.301	5432
457.324	4456
457.370	3528
457.405	3466
457.439	3578
457.485	3951
457.508	4054
457.566	4161
457.577	4319
457.646	6724
457.647	6764
457.715	9804
457.727	10660
457.784	15414
457.808	18521
457.853	21478
457.889	24802
457.922	25776
457.969	19921
457.991	20240
458.050	23202
458.060	23800
458.129	35832
458.130	36281
458.198	34482
458.211	30863
458.267	20197
458.292	15363
458.336	11365
458.372	10849
458.405	13529
458.453	19714
458.474	23810
458.533	38035
458.543	38602
458.611	55180
458.614	55513
458.680	37667
458.694	30364
458.749	17245
458.775	12957
458.818	7597
458.855	6847
458.887	6420
458.936	5570
458.955	5389
459.016	5675
459.024	5606
459.093	5532
459.097	5511
459.162	5394
459.177	5486
459.230	6324
459.257	6953
459.299	7566
459.338	7686
459.368	7771
459.418	8745
459.437	8487
459.499	6899
459.505	6886
459.574	5700
459.579	5661
459.643	4986
459.659	4876
459.711	5036
459.740	5461
459.780	5909
459.820	6242
459.849	6437
459.900	6761
459.917	6814
459.981	6807
459.986	6761
460.054	5812
460.061	5812
460.123	6364
460.141	6496
460.191	7528
460.222	8179
460.260	8297
460.302	8638
460.328	8473
460.382	7967
460.397	8124
460.462	7335
460.465	7491
460.534	12608
460.543	13264
460.602	27305
460.623	32777
460.671	49310
460.703	64779
460.739	55207
460.783	40677
460.808	37173
460.864	12700
460.876	10243
460.944	6858
460.945	6813
461.013	6500
461.024	6492
461.081	6345
461.104	6402
461.150	6210
461.184	6456
461.218	6775
461.264	5971
461.286	5875
461.345	6336
461.355	6335
461.423	6652
461.425	6654
461.491	8361
461.505	8711
461.559	16016
461.585	19634
461.628	29165
461.665	38320
461.696	38960
461.745	43702
461.764	38616
461.825	14030
461.832	13786
461.901	8542
461.905	8486
461.969	7269
461.985	7276
462.037	7895
462.065	7855
462.105	9246
462.145	10935
462.173	14155
462.225	20324
462.241	22116
462.305	31121
462.310	30181
462.378	15770
462.385	13550
462.446	9222
462.465	8282
462.514	7109
462.545	7310
462.582	7669
462.625	7553
462.650	7309
462.705	7138
462.718	7480
462.785	8614
462.786	8680
462.854	12982
462.865	13732
462.922	15235
462.945	16120
462.990	12140
463.025	7910
463.058	7227
463.104	6294
463.126	6162
463.184	6363
463.194	6449
463.262	7235
463.264	7261
463.330	7605
463.344	7736
463.398	8887
463.424	9097
463.466	8172
463.504	7862
463.533	8216
463.583	8277
463.601	8552
463.663	9966
463.669	10400
463.737	14788
463.743	15259
463.805	24699
463.823	27288
463.873	39388
463.903	47192
463.940	45802
463.982	45335
464.008	36366
464.062	14128
464.076	13382
464.142	7944
464.144	7864
464.211	7365
464.221	7331
464.279	7727
464.301	7928
464.347	9220
464.381	10214
464.414	11550
464.461	13314
464.482	13526
464.540	14270
464.550	13945
464.617	11335
464.620	11233
464.685	12501
464.699	12727
464.753	15066
464.779	16296
464.820	18350
464.859	20345
464.888	19497
464.938	17776
464.956	17835
465.018	17958
465.023	17738
465.091	14563
465.098	14228
465.158	14054
465.177	13970
465.226	14337
465.257	14521
465.293	14922
465.336	15290
465.361	16312
465.416	18858
465.428	20714
465.495	30539
465.496	30697
465.563	48604
465.575	51707
465.631	55967
465.654	58142
465.698	36899
465.734	17843
465.765	16599
465.813	14509
465.833	14216
465.893	14418
465.900	14463
465.968	14806
465.972	14803
466.035	14301
466.052	14175
466.102	15472
466.131	16176
466.170	16232
466.210	16269
466.237	16962
466.290	18136
466.304	18376
466.369	19381
466.372	19451
466.439	20779
466.449	20934
466.506	24222
466.528	25436
466.573	34874
466.607	41897
466.641	56438
466.687	76535
466.708	80680
466.766	92077
466.775	85351
466.842	33475
466.845	30958
466.909	26364
466.925	25314
466.977	24487
467.004	24163
467.044	25038
467.083	25814
467.111	27347
467.163	30131
467.178	30796
467.242	33346
467.245	33112
467.312	27193
467.321	26367
467.379	26627
467.400	26656
467.446	27763
467.480	28482
467.559	24460
467.638	21268
467.717	22409
467.796	22768
467.875	24202
467.955	25501
468.034	43133
468.113	84205
468.192	111298
468.271	26219
468.350	22498
468.429	24512
468.508	23949
468.588	21255
468.667	19466
468.746	19881
468.825	19864
468.904	17918
468.983	22727
469.062	32837
469.141	35400
469.220	16501
469.299	17473
469.378	20001
469.456	23754
469.535	20641
469.614	20971
469.693	22303
469.772	27946
469.851	37858
469.930	23012
470.009	19087
470.088	19286
470.166	24149
470.245	34071
470.324	38676
470.403	24585
470.482	18541
470.560	18044
470.639	17745
470.718	20503
470.797	18504
470.875	21857
470.954	28713
471.033	29243
471.111	14158
471.190	14806
471.269	13991
471.347	14823
471.426	15858
471.505	19874
471.583	20050
471.662	18580
471.740	16720
471.819	16095
471.898	15618
471.976	15619
472.055	15739
472.133	19429
472.212	24467
472.290	24783
472.369	14949
472.447	14887
472.526	13265
472.604	15477
472.683	16093
472.761	15654
472.839	15060
472.918	15674
472.996	15385
473.075	19264
473.153	15989
473.231	14776
473.310	18210
473.388	16985
473.466	16835
473.545	17640
473.623	22467
473.701	20004
473.780	14195
473.858	14926
473.936	17247
474.014	14863
474.093	18485
474.171	27287
474.249	37031
474.327	19923
474.405	12971
474.484	13594
474.562	14036
474.640	14598
474.718	15986
474.796	17919
474.874	14898
474.952	13632
475.030	14189
475.108	16557
475.187	19362
475.265	19959
475.343	24439
475.421	23004
475.499	14532
475.577	16926
475.655	23744
475.733	47137
475.811	74916
475.889	67577
475.966	35107
476.044	15103
476.122	17521
476.200	21208
476.278	17176
476.356	13194
476.434	14631
476.512	17374
476.590	21285
476.667	18129
476.745	12621
476.823	14230
476.901	13637
476.979	14935
477.056	13903
477.134	14505
477.212	14042
477.290	12788
477.367	12705
477.445	12930
477.523	12573
477.601	12730
477.678	13289
477.756	17246
477.834	16771
477.911	12022
477.989	13128
478.066	12798
478.144	16024
478.222	16359
478.299	24406
478.377	19681
478.454	11200
478.532	10922
478.609	12085
478.687	13447
478.764	11434
478.842	12009
478.919	13334
478.997	12772
479.074	11715
479.152	15087
479.229	19976
479.307	11632
479.384	9428
479.461	10758
479.539	11940
479.616	14228
479.694	11583
479.771	14824
479.848	14219
479.926	21244
480.003	20533
480.080	11290
480.157	9786
480.235	10425
480.312	11365
480.389	15708
480.467	24171
480.544	28481
480.621	13220
480.698	13895
480.775	15627
480.853	15328
480.930	12545
481.007	13318
481.084	15542
481.161	16401
481.238	14135
481.315	11099
481.392	10252
481.470	11391
481.547	11992
481.624	11478
481.701	10722
481.778	12042
481.855	15027
481.932	24989
482.009	40452
482.086	22045
482.163	12873
482.240	18965
482.317	29455
482.393	20215
482.470	12653
482.547	12647
482.624	11379
482.701	11656
482.778	11225
482.855	10065
482.932	9252
483.009	10336
483.085	13050
483.162	15861
483.239	14564
483.316	11177
483.393	11348
483.469	11027
483.546	13504
483.623	14126
483.699	10817
483.776	11159
483.853	14919
483.930	26348
484.006	67393
484.083	107091
484.160	53215
484.236	76393
484.313	54729
484.389	41910
484.466	38453
484.543	35993
484.619	38017
484.696	39900
484.772	41120
484.849	41072
484.925	34337
485.002	34958
485.078	35942
485.155	36104
485.231	31928
485.308	31779
485.384	33871
485.461	43400
485.537	69208
485.614	72640
485.690	31433
485.766	30975
485.843	31832
485.919	39439
485.995	37935
486.072	28260
486.148	26231
486.224	28263
486.301	30770
486.377	33784
486.453	35252
486.530	33658
486.606	45706
486.682	51535
486.758	59383
486.835	66182
486.911	55289
486.987	86288
487.063	73250
487.139	80379
487.215	57036
487.292	33472
487.368	32178
487.444	38120
487.520	44241
487.596	43429
487.672	72849
487.748	163113
487.824	206531
487.900	63577
487.976	37705
488.052	38200
488.128	41878
488.204	33701
488.280	31553
488.356	42172
488.432	82706
488.508	110499
488.584	34367
488.660	26398
488.736	25963
488.812	29301
488.888	35227
488.964	46291
489.039	84082
489.115	109589
489.191	58186
489.267	27938
489.343	26562
489.418	22919
489.494	23393
489.570	21527
489.646	23265
489.722	24618
489.797	27342
489.873	46915
489.949	90656
490.024	61669
490.100	21782
490.176	24533
490.251	26152
490.327	31671
490.403	20419
490.478	21525
490.554	17602
490.629	19509
490.705	18548
490.781	21095
490.856	19670
490.932	24181
491.007	22194
491.083	22778
491.158	21854
491.234	34306
491.309	67261
491.385	58478
491.460	20432
491.536	21883
491.611	19131
491.686	21820
491.762	28684
491.837	54872
491.913	85670
491.988	116206
492.063	119701
492.139	42814
492.214	27910
492.289	16091
492.365	16638
492.440	20132
492.515	20118
492.590	20688
492.666	16346
492.741	25547
492.816	36454
492.891	18893
492.967	14206
493.042	12723
493.117	14463
493.192	14167
493.267	24022
493.342	50821
493.418	53066
493.493	17126
493.568	12723
493.643	14999
493.718	19034
493.793	30223
493.868	27643
493.943	17407
494.018	15085
494.093	14195
494.168	14558
494.243	12885
494.318	11671
494.393	12282
494.468	12235
494.543	13104
494.618	15328
494.693	12854
494.768	13621
494.842	14248
494.917	10568
494.992	14213
495.067	10388
495.142	11155
495.217	13165
495.292	12740
495.366	15235
495.441	19033
495.516	24979
495.591	40186
495.665	112617
495.740	219215
495.815	67948
495.890	19831
495.964	16567
496.039	19625
496.114	17863
496.188	19612
496.263	19459
496.338	17944
496.412	22208
496.487	24535
496.561	23261
496.636	23477
496.710	20561
496.785	23186
496.860	26473
496.934	20939
497.009	21141
497.083	21739
497.158	22260
497.232	28576
497.307	35095
497.381	31023
497.455	39549
497.530	47153
497.604	33929
497.679	41006
497.753	61649
497.827	80822
497.902	77783
497.976	97120
498.050	223869
498.125	648731
498.199	499720
498.273	105646
498.348	88395
498.422	73008
498.496	63991
498.570	52167
498.645	42052
498.719	40363
498.793	45578
498.867	67382
498.941	102353
499.016	290102
499.090	623682
499.164	145635
499.238	23631
499.312	22812
499.386	28131
499.460	25356
499.534	23006
499.609	31648
499.683	44932
499.757	50201
499.831	139299
499.905	447066
499.979	310239
500.053	50043
500.127	45144
500.201	28013
500.275	20721
500.349	21775
500.422	25232
500.496	41623
500.570	93323
500.644	252139
500.718	396441
500.792	58381
500.866	20886
500.940	28539
501.013	21893
501.087	23156
501.161	40175
501.235	61278
501.309	159747
501.382	395278
501.456	256272
501.530	66997
501.603	112915
501.677	33457
501.751	15969
501.825	25117
501.898	58589
501.972	149518
502.046	67512
502.119	26691
502.193	70895
502.266	156024
502.340	60261
502.413	77385
502.487	129082
502.561	63865
502.634	17783
502.708	14959
502.781	13373
502.855	12202
502.928	11046
503.002	11418
503.075	11119
503.149	12245
503.222	12126
503.295	14760
503.369	19867
503.442	37391
503.516	127743
503.589	274412
503.662	144058
503.736	54151
503.809	128318
503.882	94805
503.956	153435
504.029	116945
504.102	92237
504.175	103411
504.249	33193
504.322	23320
504.395	18405
504.468	13392
504.542	13148
504.615	9088
504.688	9542
504.761	9494
504.834	12885
504.907	15928
504.980	21855
505.053	12634
505.127	16022
505.200	20048
505.273	19954
505.346	10861
505.419	8805
505.492	9044
505.565	7233
505.638	7842
505.711	7615
505.784	7801
505.857	6645
505.930	9514
506.003	7385
506.076	10746
506.149	15251
506.221	19038
506.294	23075
506.367	70607
506.440	198828
506.513	72111
506.586	17544
506.659	10230
506.731	9091
506.804	11576
506.877	16549
506.950	11190
507.022	9696
507.095	14715
507.168	15227
507.241	8930
507.313	6646
507.386	9061
507.459	12952
507.531	7628
507.604	6847
507.677	8002
507.749	5442
507.822	12602
507.894	25942
507.967	28555
508.040	16243
508.112	15937
508.185	14062
508.257	13601
508.330	18669
508.402	12867
508.475	12570
508.547	13676
508.620	16079
508.692	24629
508.765	12790
508.837	10425
508.909	9522
508.982	11473
509.054	12935
509.127	10243
509.199	9639
509.271	10273
509.344	8973
509.416	9334
509.488	9479
509.560	9574
509.633	10386
509.705	12466
509.777	12272
509.849	15449
509.922	10159
509.994	8962
510.066	11486
510.138	13870
510.210	29387
510.283	24462
510.355	18355
510.427	15823
510.499	14940
510.571	13266
510.643	15697
510.715	21914
510.787	16889
510.859	16221
510.931	18493
511.003	21014
511.076	18227
511.148	13948
511.219	14063
511.291	25678
511.363	25127
511.435	12580
511.507	12336
511.579	12291
511.651	12330
511.723	11374
511.795	12158
511.867	13105
511.939	18538
512.010	36827
512.082	23041
512.154	12814
512.226	13347
512.298	22325
512.369	29746
512.441	22789
512.513	21188
512.585	16406
512.656	18119
512.728	18034
512.800	14956
512.871	15900
512.943	14624
513.015	12606
513.086	14705
513.158	16201
513.230	15301
513.301	21749
513.373	21586
513.444	14324
513.516	12389
513.588	12890
513.659	15113
513.731	17153
513.802	16595
513.874	32335
513.945	43515
514.016	15831
514.088	12648
514.159	15217
514.231	20707
514.302	26393
514.374	20593
514.445	21638
514.516	43419
514.588	26841
514.659	21486
514.730	38166
514.802	27710
514.873	27527
514.944	26406
515.016	20808
515.087	21441
515.158	30347
515.229	37892
515.301	33733
515.372	40448
515.443	22899
515.514	17137
515.585	14157
515.656	14272
515.728	14263
515.799	12701
515.870	13520
515.941	14721
516.012	16014
516.083	21663
516.154	21857
516.225	27013
516.296	23962
516.367	21304
516.438	25452
516.509	36211
516.580	66183
516.651	208303
516.722	555704
516.793	164857
516.864	39645
516.935	41034
517.006	52062
517.077	85251
517.148	227438
517.219	775378
517.289	870833
517.360	241473
517.431	63539
517.502	24329
517.573	24170
517.643	24022
517.714	25887
517.785	26822
517.856	26774
517.926	31794
517.997	36762
518.068	49106
518.138	77902
518.209	159438
518.280	574612
518.350	1483203
518.421	391205
518.492	47625
518.562	34200
518.633	35251
518.703	36493
518.774	66291
518.845	145835
518.915	113596
518.986	38586
519.056	35113
519.127	54738
519.197	92244
519.268	212007
519.338	102291
519.408	28799
519.479	29008
519.549	20583
519.620	17033
519.690	13713
519.760	14059
519.831	14607
519.901	13736
519.971	13308
520.042	14808
520.112	18434
520.182	18041
520.253	18897
520.323	16324
520.393	27211
520.463	35158
520.534	28820
520.604	52137
520.674	21087
520.744	28071
520.814	64637
520.885	51534
520.955	86948
521.025	245520
521.095	64059
521.165	14985
521.235	14968
521.305	12289
521.375	12125
521.445	14362
521.515	15622
521.585	19494
521.655	16023
521.725	16418
521.795	14940
521.865	11557
521.935	21741
522.005	15632
522.075	10525
522.145	13421
522.215	15640
522.285	23618
522.355	35579
522.424	62278
522.494	45394
522.564	24752
522.634	45962
522.704	101082
522.774	30213
522.843	12929
522.913	11423
522.983	13993
523.053	11468
523.122	13116
523.192	20556
523.262	60155
523.331	42755
523.401	11563
523.471	9376
523.540	10397
523.610	7791
523.680	8923
523.749	10539
523.819	15414
523.888	13381
523.958	9293
524.027	10273
524.097	10902
524.166	9883
524.236	11235
524.305	11670
524.375	7682
524.444	9310
524.514	11261
524.583	12206
524.653	14430
524.722	16444
524.791	10430
524.861	10260
524.930	8174
524.999	9704
525.069	14793
525.138	14235
525.207	15336
525.277	10383
525.346	10992
525.415	9853
525.484	11141
525.554	15048
525.623	13446
525.692	12497
525.761	12347
525.830	14329
525.900	17238
525.969	30100
526.038	50564
526.107	112657
526.176	268565
526.245	181324
526.314	71269
526.383	154491
526.452	186687
526.522	336715
526.591	257810
526.660	63414
526.729	35433
526.797	53053
526.867	127278
526.935	423572
527.004	701373
527.073	287637
527.142	24512
527.211	14747
527.280	15112
527.349	14244
527.418	8156
527.487	9826
527.555	8260
527.624	7704
527.693	6398
527.762	8587
527.831	6093
527.899	7949
527.968	7052
528.037	6933
528.106	10474
528.174	18988
528.243	16635
528.312	26404
528.380	26105
528.449	8480
528.518	7139
528.586	5428
528.655	5835
528.723	6189
528.792	4986
528.861	7045
528.929	5372
528.998	6373
529.066	6031
529.135	5503
529.203	5083
529.272	4672
529.340	6586
529.409	7782
529.477	7190
529.545	10705
529.614	12772
529.682	13587
529.751	14749
529.819	16673
529.887	9304
529.956	6834
530.024	7564
530.092	5336
530.161	8690
530.229	13041
530.297	6261
530.365	6385
530.434	4594
530.502	5292
530.570	5867
530.638	3912
530.707	6675
530.775	7594
530.843	4954
530.911	5568
530.979	5755
531.047	5644
531.115	6025
531.183	6058
531.252	6413
531.320	6308
531.388	5452
531.456	6812
531.524	4214
531.592	5741
531.660	8113
531.728	5452
531.796	5880
531.864	6384
531.932	6098
532.000	4952
532.067	6949
532.135	7125
532.203	9322
532.271	9830
532.339	18587
532.407	41838
532.475	18676
532.542	11753
532.610	15292
532.678	26186
532.746	102124
532.814	178976
532.881	34941
532.949	8660
533.017	7915
533.084	7074
533.152	6734
533.220	6939
533.287	7214
533.355	6572
533.423	5829
533.490	5335
533.558	7050
533.625	8188
533.693	8877
533.761	9128
533.828	8729
533.896	7721
533.963	16483
534.031	18323
534.098	25515
534.166	11483
534.233	6902
534.300	9657
534.368	9022
534.435	8153
534.503	8978
534.570	11212
534.637	8963
534.705	11685
534.772	18349
534.840	36017
534.907	136155
534.974	126776
535.041	15807
535.109	13268
535.176	6451
535.243	7703
535.310	7636
535.378	7041
535.445	7004
535.512	7829
535.579	7663
535.646	5963
535.714	8830
535.781	10773
535.848	10426
535.915	9920
535.982	8342
536.049	8637
536.116	9473
536.183	7330
536.250	8540
536.317	8499
536.384	11517
536.451	15404
536.518	15583
536.585	10196
536.652	15424
536.719	20091
536.786	14149
536.853	12813
536.920	20868
536.987	31642
537.053	32375
537.120	107810
537.187	66790
537.254	9887
537.321	8986
537.388	10063
537.454	7444
537.521	7872
537.588	8266
537.654	11095
537.721	12552
537.788	11243
537.855	9236
537.921	10341
537.988	10095
538.055	9920
538.121	9075
538.188	10749
538.254	15834
538.321	28076
538.388	15402
538.454	10312
538.521	9833
538.587	8321
538.654	8299
538.720	9149
538.787	8779
538.853	10240
538.920	13820
538.986	12971
539.053	10146
539.119	12182
539.185	10795
539.252	12884
539.318	17328
539.385	15156
539.451	13351
539.517	14409
539.583	17717
539.650	38861
539.716	70829
539.782	17740
539.849	9744
539.915	11571
539.981	9968
540.047	12038
540.114	11528
540.180	12459
540.246	11309
540.312	16748
540.378	29682
540.444	28837
540.510	37901
540.576	78887
540.643	20483
540.709	10315
540.775	10423
540.841	12150
540.907	17472
540.973	26714
541.039	19884
541.105	17817
541.171	11611
541.237	11726
541.303	12626
541.369	14615
541.435	17311
541.500	25211
541.566	14076
541.632	9064
541.698	8540
541.764	10333
541.830	9688
541.896	9537
541.961	9536
542.027	10064
542.093	11303
542.159	11495
542.224	13065
542.290	19890
542.356	26876
542.421	27504
542.487	13503
542.553	11254
542.618	13324
542.684	11113
542.750	11928
542.815	17321
542.881	28180
542.947	76266
543.012	42202
543.078	9712
543.143	9622
543.209	12074
543.274	11901
543.340	15068
543.405	32638
543.471	39089
543.536	11693
543.602	12146
543.667	9596
543.732	11102
543.798	10112
543.863	11676
543.928	9760
543.994	8677
544.059	9595
544.124	9553
544.190	9961
544.255	10694
544.320	10622
544.386	11557
544.451	16018
544.516	18029
544.581	21997
544.646	53933
544.712	61010
544.777	16643
544.842	14277
544.907	14845
544.972	12584
545.037	14341
545.102	13834
545.168	14828
545.233	15001
545.298	18379
545.363	19499
545.428	21322
545.493	35276
545.558	58304
545.623	23137
545.688	14752
545.753	14270
545.818	15149
545.883	15793
545.947	15254
546.012	17453
546.077	17256
546.142	17212
546.207	16499
546.272	20579
546.337	20262
546.401	18706
546.466	18339
546.531	17142
546.596	19825
546.661	18233
546.725	18072
546.790	18072
546.855	18706
546.919	19214
546.984	22082
547.049	23248
547.113	29357
547.178	26563
547.243	32011
547.307	34922
547.372	40053
547.436	40501
547.501	36096
547.565	38159
547.630	38761
547.695	38304
547.759	42483
547.823	37642
547.888	35743
547.952	36741
548.017	39148
548.081	42019
548.146	48013
548.210	43200
548.274	41190
548.339	38437
548.403	36219
548.468	34265
548.532	33696
548.596	35608
548.660	36380
548.725	40364
548.789	45921
548.853	44113
548.917	39337
548.982	47657
549.046	42089
549.110	31615
549.174	33707
549.238	36272
549.303	37772
549.367	41603
549.431	38349
549.495	36015
549.559	37593
549.623	43451
549.687	48668
549.751	52293
549.815	54310
549.879	54064
549.943	49598
550.007	54846
550.071	52568
550.135	51695
550.199	47140
550.263	45502
550.327	46662
550.391	53805
550.455	49187
550.519	50459
550.582	55109
550.646	64414
550.710	63668
550.774	58675
550.838	59036
550.901	61392
550.965	64235
551.029	69375
551.093	78850
551.156	91271
551.220	132716
551.284	134983
551.347	89704
551.411	119903
551.475	108743
551.538	63834
551.602	57241
551.666	54231
551.729	49932
551.793	50032
551.856	49486
551.920	49476
551.983	48417
552.047	47924
552.110	48416
552.174	49981
552.237	50807
552.301	45771
552.364	45109
552.428	43960
552.491	45617
552.554	47093
552.618	48302
552.681	50066
552.745	52534
552.808	70272
552.871	80189
552.934	55129
552.998	48495
553.061	47581
553.124	44391
553.187	42728
553.251	45832
553.314	46709
553.377	47414
553.440	54215
553.503	73349
553.567	80769
553.630	50148
553.693	47348
553.756	47475
553.819	44974
553.882	45245
553.945	43209
554.008	44265
554.071	44042
554.134	44520
554.197	42105
554.260	41302
554.323	44208
554.386	44060
554.449	43629
554.512	44069
554.575	41770
554.638	43162
554.701	41333
554.764	41719
554.827	38940
554.889	36941
554.952	34668
555.015	34442
555.078	35650
555.141	36425
555.203	35153
555.266	35244
555.329	36331
555.391	35466
555.454	34976
555.517	33520
555.580	32069
555.642	31117
555.705	30651
555.768	30870
555.830	29502
555.893	28378
555.955	27917
556.018	27782
556.080	27899
556.143	29086
556.206	27911
556.268	29669
556.330	28948
556.393	28205
556.455	29554
556.518	35522
556.580	32858
556.643	25883
556.705	23941
556.767	23846
556.830	24547
556.892	26252
556.955	31684
557.017	25468
557.079	23904
557.142	24044
557.204	25824
557.266	37604
557.328	29280
557.391	19903
557.453	19764
557.515	21356
557.577	23566
557.639	23285
557.701	19339
557.764	20055
557.826	21410
557.888	24379
557.950	24502
558.012	30490
558.074	41616
558.136	89845
558.198	177841
558.260	53750
558.322	24123
558.384	25776
558.446	29005
558.508	34403
558.570	45993
558.632	73099
558.694	105183
558.756	157934
558.818	436171
558.880	831221
558.942	217644
559.003	184528
559.065	73106
559.127	35404
559.189	39374
559.251	53795
559.312	89630
559.374	204409
559.436	562194
559.498	202892
559.559	38214
559.621	39631
559.683	56323
559.744	100310
559.806	289228
559.868	340555
559.929	56956
559.991	46119
560.052	75927
560.114	185530
560.176	104081
560.237	112053
560.299	151609
560.360	30756
560.422	17432
560.483	17551
560.545	16017
560.606	15570
560.667	15701
560.729	14894
560.790	14042
560.852	14495
560.913	14600
560.974	14666
561.036	13428
561.097	14461
561.158	14636
561.220	14819
561.281	14045
561.342	15518
561.403	17663
561.465	21577
561.526	43339
561.587	43973
561.648	15944
561.709	14924
561.771	13174
561.832	14313
561.893	13408
561.954	13445
562.015	13419
562.076	13224
562.137	12803
562.198	12929
562.259	13943
562.320	14497
562.381	14896
562.442	20748
562.503	16509
562.564	13880
562.625	12333
562.686	13445
562.747	15219
562.808	14815
562.869	13240
562.930	17073
562.991	15446
563.051	15906
563.112	13308
563.173	12954
563.234	12833
563.294	12606
563.355	13615
563.416	13857
563.477	13051
563.537	13375
563.598	15212
563.659	14403
563.720	14186
563.780	13578
563.841	14085
563.901	14401
563.962	13702
564.023	13521
564.083	13564
564.144	14221
564.204	14064
564.265	15567
564.325	18878
564.386	34203
564.446	26322
564.507	13631
564.567	13038
564.628	13691
564.688	13254
564.749	14535
564.809	16944
564.869	18253
564.930	14350
564.990	13503
565.050	13756
565.111	13505
565.171	12969
565.231	14506
565.292	13909
565.352	12837
565.412	14118
565.472	14068
565.532	14646
565.593	14366
565.653	13930
565.713	15244
565.773	15158
565.833	17708
565.893	19390
565.953	15986
566.013	15654
566.074	17214
566.134	22374
566.194	33278
566.254	29300
566.314	21648
566.374	17280
566.434	17790
566.494	18365
566.554	18093
566.614	19863
566.673	20537
566.733	22029
566.793	23912
566.853	24000
566.913	25233
566.973	25259
567.033	26001
567.092	24871
567.152	24901
567.212	24857
567.272	27367
567.331	28249
567.391	30201
567.451	32659
567.511	39315
567.570	35463
567.630	27017
567.690	26667
567.749	27543
567.809	29242
567.868	35162
567.928	39534
567.988	48127
568.047	58821
568.107	77222
568.166	110808
568.226	180299
568.285	234692
568.345	185224
568.404	137033
568.464	114583
568.523	107699
568.582	113571
568.642	137547
568.701	181993
568.761	275005
568.820	416481
568.879	373451
568.939	256419
568.998	178051
569.057	130553
569.116	101072
569.176	80290
569.235	66498
569.294	57508
569.353	47754
569.413	43257
569.472	38090
569.531	33883
569.590	32345
569.649	28921
569.708	26973
569.767	27768
569.827	28952
569.886	25025
569.945	21457
570.004	21483
570.063	20829
570.122	20489
570.181	22185
570.240	23355
570.299	21751
570.358	21775
570.417	17476
570.475	16772
570.534	17226
570.593	17779
570.652	18657
570.711	18270
570.770	16883
570.829	18944
570.887	16385
570.946	17910
571.005	15005
571.064	16156
571.122	17404
571.181	18483
571.240	15984
571.299	14394
571.357	15653
571.416	16665
571.475	17861
571.533	17631
571.592	15309
571.650	15869
571.709	14242
571.768	13944
571.826	14232
571.885	14232
571.943	13322
572.002	12729
572.060	14035
572.119	12470
572.177	11906
572.236	11478
572.294	12116
572.352	13206
572.411	12027
572.469	12451
572.528	12765
572.586	13169
572.644	14669
572.703	17666
572.761	13996
572.819	11833
572.877	11207
572.936	11679
572.994	12348
573.052	12390
573.110	12860
573.169	12211
573.227	10319
573.285	11826
573.343	11422
573.401	11393
573.459	10748
573.517	11918
573.576	11417
573.634	12449
573.692	12386
573.750	12266
573.808	11022
573.866	12277
573.924	16267
573.982	14408
574.040	10422
574.098	11483
574.155	11026
574.213	10856
574.271	11822
574.329	11726
574.387	9392
574.445	9782
574.503	11142
574.560	9887
574.618	10518
574.676	11187
574.734	10017
574.792	10799
574.849	9893
574.907	9596
574.965	10295
575.022	9554
575.080	10236
575.138	10342
575.195	10218
575.253	11733
575.311	11866
575.368	10107
575.426	9349
575.483	10133
575.541	10564
575.598	9953
575.656	11147
575.713	10283
575.771	10557
575.828	10666
575.886	9871
575.943	11316
576.001	10299
576.058	12056
576.115	11875
576.173	14432
576.230	15041
576.287	15442
576.345	13131
576.402	12046
576.459	11661
576.517	12296
576.574	12643
576.631	12554
576.688	11899
576.746	10868
576.803	11176
576.860	11623
576.917	11451
576.974	11298
577.031	11467
577.089	11338
577.146	12421
577.203	12088
577.260	12776
577.317	13510
577.374	13526
577.431	13488
577.488	12620
577.545	11588
577.602	10940
577.659	12258
577.716	10854
577.773	11758
577.830	10050
577.886	11186
577.943	10992
578.000	11142
578.057	11453
578.114	11339
578.171	11138
578.227	11509
578.284	10527
578.341	12034
578.398	12102
578.454	12526
578.511	13709
578.568	14882
578.625	12869
578.681	11121
578.738	12063
578.794	11549
578.851	11681
578.908	12983
578.964	12509
579.021	13205
579.077	12315
579.134	11289
579.190	11723
579.247	11533
579.303	10864
579.360	11902
579.416	11385
579.473	11903
579.529	10371
579.586	11361
579.642	11344
579.698	13156
579.755	12786
579.811	11877
579.867	11316
579.924	11687
579.980	12506
580.036	13283
580.093	12347
580.149	13411
580.205	13467
580.261	12957
580.317	12935
580.374	14199
580.430	16717
580.486	15057
580.542	12794
580.598	13500
580.619	13444
580.654	13358
580.692	13668
580.710	13844
580.765	13181
580.767	13172
580.823	13940
580.838	13706
580.879	13131
580.911	13303
580.935	13460
580.984	13227
580.991	13206
581.047	13553
581.057	13553
581.103	13606
581.130	13669
581.159	13752
581.203	13516
581.215	13463
581.270	13777
581.276	13736
581.326	13496
581.349	13397
581.382	13215
581.422	14099
581.438	14497
581.494	15116
581.494	15093
581.550	13360
581.567	13939
581.606	15229
581.640	14585
581.661	14208
581.713	13978
581.717	13967
581.773	14246
581.786	14322
581.829	14555
581.859	14626
581.885	14744
581.932	14886
581.940	14909
581.996	15164
582.004	15235
582.052	15651
582.077	14995
582.107	14224
582.150	14837
582.163	15045
582.219	15411
582.223	15362
582.274	14820
582.296	15151
582.330	15680
582.368	16165
582.386	16399
582.441	15010
582.441	15010
582.497	15834
582.514	15810
582.552	15766
582.587	15353
582.608	15110
582.659	15524
582.663	15547
582.719	15877
582.732	15751
582.774	15586
582.805	15819
582.830	15872
582.877	16623
582.885	16783
582.941	16378
582.950	16418
582.996	16517
583.023	16719
583.052	17088
583.095	16923
583.107	16823
583.162	17325
583.168	17349
583.218	17554
583.240	17370
583.273	17117
583.313	17476
583.328	17671
583.384	18040
583.385	18030
583.439	17337
583.458	17261
583.494	17326
583.531	17668
583.549	17820
583.603	18534
583.605	18557
583.660	18232
583.676	18206
583.715	18201
583.748	18684
583.770	18899
583.820	19118
583.825	19149
583.881	18674
583.893	18657
583.936	18826
583.965	19375
583.991	19611
584.038	19398
584.046	19400
584.101	19230
584.110	19383
584.156	20244
584.183	19947
584.211	19658
584.255	20728
584.266	20947
584.321	20018
584.328	20214
584.376	21942
584.400	21772
584.431	21389
584.472	21556
584.486	21673
584.541	22403
584.545	22428
584.596	22775
584.617	22566
584.651	22425
584.689	23249
584.706	23494
584.761	23671
584.762	23679
584.816	24979
584.834	25107
584.871	25101
584.906	25174
584.926	25260
584.978	25266
584.980	25281
585.035	26971
585.051	27220
585.090	28083
585.123	29537
585.145	30250
585.195	29902
585.200	29972
585.254	32099
585.267	32852
585.309	35067
585.340	37342
585.364	39069
585.412	41678
585.419	42111
585.473	48575
585.484	50297
585.528	58545
585.556	65789
585.583	77975
585.628	105722
585.637	116411
585.692	221541
585.700	237932
585.747	306727
585.772	263630
585.801	166392
585.845	75710
585.856	64910
585.910	46232
585.917	44440
585.965	41808
585.989	40894
586.019	40567
586.061	40933
586.074	41098
586.128	41793
586.133	41874
586.183	43199
586.205	43731
586.237	44386
586.277	44419
586.292	44556
586.346	46037
586.349	46074
586.401	46709
586.421	47519
586.455	49249
586.493	51284
586.509	52994
586.564	58693
586.565	58989
586.618	74951
586.637	75082
586.672	68084
586.709	61511
586.727	59621
586.781	59746
586.781	59767
586.835	59023
586.853	58960
586.889	59522
586.925	60147
586.944	60809
586.996	63416
586.998	63508
587.052	66334
587.068	67078
587.106	69456
587.140	71237
587.161	72101
587.212	74175
587.215	74339
587.269	78514
587.284	79385
587.323	81986
587.356	84167
587.377	85952
587.427	91322
587.431	91763
587.485	96729
587.499	98192
587.539	102579
587.571	106079
587.593	108912
587.643	115388
587.648	116163
587.702	124411
587.715	126603
587.755	133573
587.786	138808
587.810	143285
587.858	152831
587.864	154274
587.917	169102
587.930	172576
587.971	185497
588.001	195284
588.025	204390
588.073	223426
588.079	226151
588.133	250684
588.145	256444
588.187	280954
588.217	299067
588.241	316496
588.288	352533
588.295	358558
588.348	411049
588.360	423084
588.402	473923
588.431	511872
588.456	552291
588.503	634700
588.510	649386
588.564	776254
588.575	804585
588.617	947656
588.646	1051895
588.671	1174226
588.718	1416997
588.725	1463848
588.778	1837194
588.789	1913852
588.832	2177469
588.861	2328861
588.886	2289323
588.932	2048132
588.939	2003869
588.993	1686091
589.004	1678135
589.047	2152334
589.075	2375499
589.100	2326812
589.147	2125342
589.154	2078694
589.207	1715977
589.218	1647888
589.261	1516011
589.290	1441439
589.314	1462908
589.361	1522736
589.368	1554126
589.421	1835856
589.433	1897936
589.475	2113629
589.504	2215713
589.528	2125212
589.576	1848957
589.582	1855335
589.635	2091563
589.647	2111433
589.689	1944795
589.718	1785268
589.742	1561742
589.790	1135864
589.795	1106894
589.849	845855
589.861	787656
589.902	676366
589.932	595496
589.955	550587
590.004	458438
590.009	452777
590.062	390766
590.075	375830
590.115	341414
590.146	314991
590.168	301652
590.218	271358
590.222	269562
590.275	244140
590.289	237484
590.328	222934
590.360	210876
590.381	204747
590.431	189783
590.435	189132
590.488	175326
590.503	171388
590.541	163598
590.574	156631
590.594	152877
590.645	142741
590.647	142606
590.700	135546
590.716	133310
590.753	128590
590.787	123976
590.806	122052
590.859	116554
590.859	116597
590.912	111284
590.930	109587
590.965	106957
591.001	104003
591.018	102899
591.071	99215
591.072	99061
591.124	95227
591.143	93677
591.177	92247
591.214	90486
591.230	90066
591.283	88675
591.285	88494
591.336	85722
591.356	84546
591.389	83763
591.427	82275
591.442	81338
591.495	77675
591.498	77299
591.547	75189
591.569	74200
591.600	72999
591.640	71044
591.653	71355
591.706	72501
591.711	72507
591.759	71111
591.782	70363
591.811	70508
591.853	70373
591.864	69884
591.917	66726
591.924	66204
591.969	64549
591.995	63457
592.022	63494
592.066	63371
592.075	63671
592.127	64971
592.137	65142
592.180	66232
592.208	66645
592.233	64716
592.279	60797
592.285	60618
592.338	58414
592.350	57838
592.390	57526
592.421	57122
592.443	57245
592.491	57269
592.495	57279
592.548	56245
592.562	55878
592.600	54766
592.633	53666
592.653	53407
592.704	52243
592.705	52531
592.775	51952
592.846	52066
592.916	52616
592.987	53083
593.058	50955
593.128	49722
593.199	48356
593.270	48370
593.341	47047
593.411	47557
593.482	46200
593.553	48285
593.623	44827
593.694	46433
593.764	46822
593.835	45946
593.906	44911
593.976	45118
594.047	45345
594.117	48330
594.188	49200
594.258	44552
594.329	43327
594.399	44659
594.470	43984
594.540	43778
594.611	43875
594.681	42441
594.751	43575
594.822	46318
594.892	45805
594.963	45806
595.033	44440
595.103	45079
595.174	45728
595.244	54456
595.314	61179
595.384	47036
595.455	45348
595.525	47381
595.595	45769
595.665	48090
595.736	45458
595.806	45882
595.876	45735
595.946	46308
596.016	45492
596.087	47460
596.157	46732
596.227	47530
596.297	48383
596.367	50708
596.437	53252
596.507	59358
596.577	66380
596.647	54517
596.717	53490
596.787	54833
596.857	53972
596.927	53689
596.997	54520
597.067	54559
597.137	56821
597.207	55991
597.277	55205
597.347	52666
597.417	53343
597.487	52861
597.557	55128
597.626	55720
597.696	56632
597.766	59951
597.836	62689
597.906	54553
597.975	48972
598.045	49918
598.115	49278
598.185	52268
598.254	56748
598.324	61566
598.394	62715
598.464	61350
598.533	58233
598.603	56706
598.672	54588
598.742	56522
598.812	55064
598.881	56416
598.951	55482
599.020	55355
599.090	57350
599.159	57882
599.229	55803
599.299	54546
599.368	56009
599.437	55500
599.507	53333
599.576	53774
599.646	51311
599.715	50725
599.785	49056
599.854	50245
599.924	51007
599.993	49275
600.062	48507
600.132	49708
600.201	50924
600.270	59632
600.340	60588
600.409	58649
600.478	57190
600.547	58966
600.617	55652
600.686	48161
600.755	44038
600.824	42817
600.894	41017
600.963	39922
601.032	39721
601.101	40394
601.170	38745
601.239	37689
601.308	38582
601.378	39113
601.447	37794
601.516	38044
601.585	38710
601.654	39834
601.723	38829
601.792	39756
601.861	40034
601.930	43086
601.999	43376
602.068	41899
602.137	43539
602.206	43266
602.275	42404
602.343	44200
602.412	45130
602.481	42863
602.550	41616
602.619	43642
602.688	43529
602.756	44721
602.825	43532
602.894	43973
602.963	44133
603.032	45415
603.100	44355
603.169	45119
603.238	46311
603.307	45097
603.375	45998
603.444	47694
603.513	47072
603.581	47640
603.650	48177
603.719	47025
603.787	48033
603.856	49482
603.924	51238
603.993	52484
604.061	52358
604.130	55337
604.198	55122
604.267	56802
604.335	57274
604.404	58317
604.472	57852
604.541	59586
604.609	59258
604.678	59009
604.746	59320
604.815	60837
604.883	60731
604.951	62298
605.020	62065
605.088	62575
605.156	63473
605.225	64858
605.293	65831
605.361	65494
605.429	65829
605.498	66944
605.566	69182
605.634	72428
605.702	73732
605.771	75939
605.839	75253
605.907	74460
605.975	72412
606.043	69675
606.111	70429
606.180	71850
606.248	70178
606.316	71060
606.384	69684
606.452	73099
606.520	76402
606.588	74155
606.656	72727
606.724	71880
606.792	66886
606.860	61530
606.928	56641
606.996	55302
607.064	52860
607.132	55806
607.200	56440
607.267	59812
607.335	60503
607.403	62339
607.471	60225
607.539	58353
607.607	58377
607.674	53901
607.742	52005
607.810	53176
607.878	52844
607.946	53078
608.013	55470
608.081	57058
608.149	57490
608.216	58207
608.284	61483
608.352	60040
608.419	60797
608.487	64369
608.555	59694
608.622	59056
608.690	61692
608.757	69183
608.825	71327
608.893	69318
608.960	69201
609.028	69377
609.095	69616
609.163	62795
609.230	56238
609.298	52378
609.365	54147
609.432	58030
609.500	62800
609.567	70999
609.635	79766
609.702	85406
609.769	82463
609.837	69513
609.904	59670
609.971	60187
610.039	69404
610.106	94588
610.173	178405
610.241	432126
610.308	318303
610.375	119309
610.442	68752
610.509	61283
610.577	58478
610.644	59739
610.711	59343
610.778	62811
610.845	62574
610.912	66993
610.980	71040
611.047	73751
611.114	71496
611.181	66965
611.248	65592
611.315	69208
611.382	69338
611.449	73403
611.516	74187
611.583	74937
611.650	75018
611.717	75879
611.784	78129
611.851	84547
611.918	92636
611.984	111217
612.051	164443
612.118	347452
612.185	887730
612.252	663832
612.319	144351
612.386	102795
612.452	92141
612.519	88430
612.586	89869
612.653	87830
612.719	85657
612.786	83321
612.853	78145
612.919	74880
612.986	77187
613.053	72386
613.120	67227
613.186	65035
613.253	68088
613.319	66072
613.386	66213
613.453	68075
613.519	70354
613.586	72351
613.652	80099
613.719	74982
613.785	73693
613.852	69454
613.918	65905
613.985	69966
614.051	75178
614.118	85584
614.184	84755
614.250	69113
614.317	68947
614.383	67858
614.449	68802
614.516	69274
614.582	69503
614.648	68817
614.715	67364
614.781	66386
614.847	66876
614.914	67852
614.980	65944
615.046	66593
615.112	67286
615.179	70269
615.245	75744
615.311	88600
615.377	128793
615.443	147106
615.509	95368
615.575	81466
615.642	77331
615.708	79376
615.774	84665
615.840	96354
615.906	117459
615.972	172670
616.038	323591
616.104	567316
616.170	1116654
616.236	1096218
616.302	234269
616.368	145185
616.434	104856
616.500	93508
616.565	99344
616.631	125426
616.697	103887
616.763	104321
616.829	148858
616.895	273199
616.961	285722
617.026	125174
617.092	79167
617.158	73307
617.224	70663
617.289	66634
617.355	62995
617.421	62324
617.487	62081
617.552	59376
617.618	57340
617.684	57144
617.749	58417
617.815	54994
617.880	53630
617.946	53612
618.012	54879
618.077	56791
618.143	55445
618.208	53654
618.274	58260
618.339	60421
618.405	50197
618.470	50121
618.536	50400
618.601	51266
618.667	48061
618.732	45154
618.798	44636
618.863	43592
618.928	44035
618.994	44756
619.059	47196
619.124	52662
619.190	47449
619.255	43137
619.320	43574
619.386	43288
619.451	42375
619.516	41050
619.581	42755
619.647	43418
619.712	43391
619.777	41869
619.842	42097
619.907	43382
619.972	43283
620.038	43922
620.103	41710
620.168	42011
620.233	42156
620.298	41962
620.363	42503
620.428	43219
620.493	44950
620.558	44598
620.623	45047
620.688	45154
620.753	44378
620.818	44604
620.883	45706
620.948	46057
621.013	45147
621.078	44102
621.143	44821
621.207	48675
621.272	46113
621.337	46446
621.402	46696
621.467	50106
621.532	50718
621.596	49027
621.661	44116
621.726	43963
621.791	43514
621.855	46344
621.920	46574
621.985	46332
622.049	49472
622.114	48731
622.179	47092
622.243	48772
622.308	48522
622.373	50092
622.437	50609
622.502	46693
622.566	46538
622.631	45093
622.695	47817
622.760	47098
622.824	46471
622.889	47502
622.953	48662
623.018	58160
623.082	59264
623.147	50522
623.211	47597
623.276	49141
623.340	45317
623.404	44861
623.469	44172
623.533	45086
623.597	44156
623.662	43471
623.726	41383
623.790	41447
623.854	38989
623.919	39566
623.983	38536
624.047	40259
624.111	40772
624.176	41503
624.240	41928
624.304	46244
624.368	41676
624.432	41070
624.496	41864
624.560	45141
624.625	46417
624.689	43690
624.753	44703
624.817	42929
624.881	40665
624.945	39894
625.009	38629
625.073	38966
625.137	41253
625.201	45820
625.265	46020
625.329	39936
625.393	41715
625.456	40795
625.520	42956
625.584	44878
625.648	48591
625.712	60217
625.776	95115
625.839	106993
625.903	59578
625.967	37292
626.031	50205
626.095	71415
626.158	45848
626.222	31889
626.286	31395
626.349	29190
626.413	28514
626.477	29974
626.540	28249
626.604	28570
626.668	27644
626.731	27326
626.795	27815
626.858	28662
626.922	27184
626.986	28026
627.049	26032
627.113	28116
627.176	27803
627.240	27225
627.303	26013
627.366	26234
627.430	27060
627.493	27164
627.557	25938
627.620	28243
627.684	26930
627.747	27829
627.810	24539
627.874	24234
627.937	22109
628.000	26209
628.064	24666
628.127	21950
628.190	22055
628.253	22155
628.317	20392
628.380	21166
628.443	20378
628.506	21071
628.569	19781
628.632	18736
628.696	18961
628.759	18458
628.822	17209
628.885	18414
628.948	18348
629.011	18016
629.074	18250
629.137	17108
629.200	16160
629.263	19047
629.326	17328
629.389	17009
629.452	16498
629.515	16966
629.578	16368
629.641	18058
629.704	17956
629.767	17544
629.830	16955
629.892	15790
629.955	14833
630.018	18811
630.081	17610
630.144	20332
630.207	15653
630.269	18260
630.332	17522
630.395	18162
630.458	15502
630.520	14679
630.583	16110
630.646	15260
630.708	15318
630.771	14592
630.834	16723
630.896	15297
630.959	15747
631.021	14961
631.084	15164
631.146	16475
631.209	18129
631.272	15855
631.334	15057
631.397	15003
631.459	15270
631.522	16832
631.584	16132
631.646	17739
631.709	18440
631.771	20734
631.834	18332
631.896	16694
631.958	14878
632.021	15671
632.083	13531
632.145	15069
632.208	14725
632.270	14826
632.332	13695
632.395	13669
632.457	14995
632.519	13519
632.581	14688
632.643	14096
632.706	14382
632.768	13489
632.830	13767
632.892	13692
632.954	13877
633.016	15280
633.078	12830
633.141	13363
633.203	13715
633.265	14323
633.327	13158
633.389	13556
633.451	15577
633.513	16562
633.575	16320
633.637	16228
633.698	15508
633.760	15463
633.822	14877
633.884	15151
633.946	15929
634.008	14808
634.070	15491
634.132	17112
634.193	17731
634.255	18813
634.317	18594
634.379	19638
634.441	16998
634.502	16719
634.564	14997
634.626	14236
634.687	14061
634.749	13876
634.811	13586
634.873	13293
634.934	13592
634.996	14118
635.057	12014
635.119	12768
635.181	13165
635.242	14312
635.304	12662
635.365	14860
635.427	12704
635.488	13218
635.550	12595
635.611	13785
635.673	12176
635.734	15870
635.796	13751
635.857	17620
635.918	15791
635.980	18747
636.041	18324
636.102	20610
636.164	19500
636.225	20185
636.286	16976
636.348	16409
636.409	14513
636.470	13679
636.531	13357
636.593	13209
636.654	14130
636.715	11428
636.776	11580
636.838	11139
636.899	11905
636.960	11384
637.021	11068
637.082	11706
637.143	10840
637.204	9727
637.265	10547
637.326	11393
637.387	10744
637.448	9854
637.509	11209
637.570	11680
637.631	11142
637.692	10050
637.753	8826
637.814	10670
637.875	10438
637.936	10853
637.997	9461
638.058	10686
638.119	10925
638.179	9942
638.240	9659
638.301	10693
638.362	9673
638.423	10550
638.483	10190
638.544	9184
638.605	9251
638.666	8764
638.726	10593
638.787	9810
638.848	8858
638.908	9333
638.969	8776
639.030	9436
639.090	7762
639.151	9297
639.211	9886
639.272	12374
639.332	15983
639.393	12549
639.453	8498
639.514	10588
639.574	8767
639.635	8679
639.695	9645
639.756	8142
639.816	9491
639.877	10214
639.937	13747
639.997	18373
640.058	10097
640.118	8578
640.178	9038
640.239	8693
640.299	8384
640.359	8527
640.420	8865
640.480	9874
640.540	10848
640.600	10303
640.661	10298
640.721	9584
640.781	12224
640.841	9322
640.901	9654
640.961	9382
641.021	8895
641.082	10470
641.142	12700
641.202	10566
641.262	7853
641.322	9343
641.382	6903
641.442	8484
641.502	8547
641.562	8685
641.622	8634
641.682	8336
641.742	10056
641.802	9259
641.861	9473
641.921	9187
641.981	8768
642.041	9325
642.101	10065
642.161	8219
642.221	6452
642.280	7921
642.340	6733
642.400	7031
642.460	7906
642.519	7792
642.579	7913
642.639	8976
642.698	5509
642.758	10078
642.818	8460
642.877	8087
642.937	8300
642.997	9218
643.056	12153
643.116	8158
643.175	9923
643.235	7942
643.294	8631
643.354	9617
643.414	10328
643.473	13396
643.532	16679
643.592	22379
643.651	35750
643.711	65336
643.770	124361
643.830	294554
643.889	719566
643.948	212155
644.008	30929
644.067	17404
644.126	13418
644.186	11115
644.245	9844
644.304	8075
644.363	10758
644.423	7307
644.482	9177
644.541	9328
644.600	7641
644.659	11827
644.719	13280
644.778	19930
644.837	32768
644.896	64792
644.955	163468
645.014	69536
645.073	14060
645.132	9723
645.191	9892
645.250	8731
645.309	9595
645.368	8985
645.427	12471
645.486	17523
645.545	33524
645.604	13146
645.663	9007
645.722	8484
645.781	10364
645.840	11301
645.898	14328
645.957	21471
646.016	32004
646.075	58616
646.134	117717
646.192	296333
646.251	531680
646.310	93251
646.369	20396
646.427	15160
646.486	11118
646.545	10050
646.603	8618
646.662	8704
646.721	7792
646.779	7395
646.838	6595
646.896	10560
646.955	13008
647.014	19841
647.072	34212
647.131	98927
647.189	60582
647.248	9382
647.306	7009
647.365	6811
647.423	5098
647.481	8054
647.540	4638
647.598	6339
647.657	5587
647.715	6757
647.773	5149
647.832	5915
647.890	3758
647.948	5763
648.007	6158
648.065	4446
648.123	5033
648.181	6983
648.240	6077
648.298	5807
648.356	4644
648.414	5834
648.472	5291
648.531	5815
648.589	4908
648.647	5384
648.705	5204
648.763	5746
648.821	5927
648.879	5890
648.937	6623
648.995	8886
649.053	9600
649.111	16211
649.169	25843
649.227	45667
649.285	90387
649.343	279793
649.401	170796
649.459	29738
649.516	18531
649.574	11381
649.632	15537
649.690	19004
649.748	13258
649.806	15252
649.863	27628
649.921	67248
649.979	57173
650.037	9455
650.094	4137
650.152	6249
650.210	5077
650.268	5446
650.325	5172
650.383	6393
650.440	4179
650.498	5252
650.556	4114
650.613	4253
650.671	4889
650.728	4532
650.786	4962
650.843	6060
650.901	3855
650.958	4850
651.016	3223
651.073	4074
651.131	3154
651.188	3407
651.246	4209
651.303	3322
651.360	5049
651.418	3847
651.475	3988
651.532	3608
651.590	4177
651.647	2989
651.704	3673
651.762	3575
651.819	3881
651.876	3915
651.933	3565
651.990	3937
652.048	2671
652.105	3524
652.162	4223
652.219	2925
652.276	3311
652.333	4470
652.390	1880
652.448	3585
652.505	3191
652.562	3893
652.619	3172
652.676	5403
652.733	5028
652.790	3736
652.847	2708
652.904	3458
652.961	2343
653.017	2821
653.074	3984
653.131	3433
653.188	2236
653.245	3819
653.302	3242
653.359	3098
653.415	3756
653.472	3235
653.529	3607
653.586	2802
653.642	2573
653.699	3685
653.756	1639
653.813	3044
653.869	3339
653.926	2713
653.983	2965
654.039	4431
654.096	3175
654.152	4081
654.209	1777
654.266	3508
654.322	1762
654.379	3969
654.435	4205
654.492	4108
654.548	5117
654.605	8171
654.661	4859
654.717	3668
654.774	4125
654.830	3944
654.887	3784
654.943	3243
655.000	4409
655.056	3872
655.112	3314
655.168	2399
655.225	2965
655.281	4265
655.337	4590
655.394	7079
655.450	6130
655.506	5500
655.562	7481
655.618	7411
655.675	2675
655.731	3379
655.787	3616
655.843	4507
655.899	2649
655.955	3648
656.011	3010
656.067	2863
656.123	3378
656.179	3553
656.235	4844
656.291	2761
656.347	4647
656.403	3129
656.459	3399
656.515	4292
656.571	3501
656.627	3923
656.683	2941
656.739	3451
656.795	3604
656.850	3620
656.906	3689
656.962	4427
657.018	2473
657.074	3601
657.129	4070
657.185	5551
657.241	9475
657.297	6781
657.352	3468
657.408	2392
657.464	3769
657.519	2994
657.575	1652
657.630	2684
657.686	2672
657.742	2702
657.797	2294
657.853	2735
657.908	3531
657.964	3015
658.019	2479
658.075	3008
658.130	3200
658.186	1910
658.241	2831
658.297	1651
658.352	2591
658.407	2953
658.463	2564
658.518	2738
658.573	3275
658.629	2112
658.684	2412
658.739	3425
658.795	1882
658.850	2736
658.905	1754
658.960	3435
659.016	1980
659.071	3666
659.126	2981
659.181	3088
659.236	4820
659.291	6018
659.346	3647
659.401	3810
659.457	2871
659.512	3466
659.567	3987
659.622	2249
659.677	1895
659.732	1958
659.787	2892
659.842	3071
659.897	4338
659.952	3657
660.007	3118
660.061	3081
660.116	1575
660.171	2142
660.226	2392
660.281	3511
660.336	1262
660.391	3133
660.445	1804
660.500	2418
660.555	2503
660.610	1799
660.664	2715
660.719	1918
660.774	3399
660.828	3543
660.883	2153
660.938	2978
660.992	2323
661.047	2305
661.101	2124
661.156	2606
661.211	1443
661.265	1358
661.320	2792
661.374	2077
661.429	2173
661.483	2421
661.538	1412
661.592	1730
661.647	2325
661.701	3417
661.755	3218
661.810	2566
661.864	2099
661.919	1532
661.973	2012
662.027	2399
662.081	2789
662.136	2518
662.190	2914
662.244	2731
662.299	1810
662.353	2346
662.407	2008
662.461	2293
662.515	2562
662.569	2175
662.624	3237
662.678	2974
662.732	1887
662.786	2606
662.840	2186
662.894	3248
662.948	1892
663.002	2564
663.056	2194
663.110	2535
663.164	1374
663.218	2615
663.272	2253
663.326	3023
663.380	3011
663.434	2105
663.488	1476
663.542	2371
663.595	2235
663.649	2252
663.703	2334
663.757	2074
663.811	2010
663.864	1965
663.918	2280
663.972	2014
664.026	2686
664.079	2718
664.133	2674
664.187	2401
664.240	2800
664.294	2732
664.348	2704
664.401	3116
664.455	2188
664.508	1832
664.562	2318
664.615	2039
664.669	1673
664.722	2979
664.776	2232
664.829	2219
664.883	2445
664.936	1976
664.990	2824
665.043	2410
665.097	2192
665.150	3621
665.203	2487
665.257	2107
665.310	2354
665.363	2660
665.417	2846
665.470	2979
665.523	2295
665.576	3169
665.630	2204
665.683	3081
665.736	3090
665.789	3576
665.842	2087
665.895	2722
665.949	2939
666.002	2995
666.055	2622
666.108	2957
666.161	2155
666.214	3826
666.267	2594
666.320	3198
666.373	2873
666.426	2550
666.479	2041
666.532	2650
666.585	3191
666.638	4114
666.691	3693
666.744	3338
666.796	3263
666.849	3199
666.902	3521
666.955	2597
667.008	2292
667.060	3023
667.113	1469
667.166	2985
667.219	1970
667.271	2905
667.324	2832
667.377	2719
667.430	2223
667.482	2838
667.535	2279
667.587	2873
667.640	3083
667.693	3550
667.745	4895
667.798	6218
667.850	2867
667.903	2614
667.955	2727
668.008	2727
668.060	2199
668.113	3671
668.165	2067
668.218	3119
668.270	2626
668.322	2686
668.375	3013
668.427	3389
668.479	2075
668.532	3094
668.584	3254
668.636	2403
668.689	2566
668.741	2481
668.793	2399
668.845	2456
668.898	3100
668.950	2534
669.002	2205
669.054	2576
669.106	2001
669.158	2817
669.211	2579
669.263	2983
669.315	3836
669.367	3485
669.419	3793
669.471	4518
669.523	4878
669.575	5546
669.627	4615
669.679	3390
669.731	3871
669.783	4261
669.835	4698
669.886	4500
669.938	3924
669.990	2519
670.042	2987
670.094	3884
670.146	3885
670.197	4989
670.249	5211
670.301	6585
670.353	9201
670.404	13389
670.456	17615
670.508	29045
670.560	47250
670.611	82635
670.663	141995
670.715	320242
670.766	592469
670.818	213247
670.869	32387
670.921	15913
670.972	11042
671.024	9114
671.075	5993
671.127	5998
671.178	5103
671.230	4693
671.281	5000
671.333	4827
671.384	4279
671.436	4973
671.487	5460
671.538	7265
671.590	9636
671.641	15147
671.692	22671
671.744	45815
671.795	35808
671.846	12541
671.897	6704
671.949	5477
672.000	4489
672.051	3203
672.102	4227
672.153	3226
672.204	3550
672.256	2729
672.307	3165
672.358	3017
672.409	3202
672.460	3725
672.511	2710
672.562	2060
672.613	1703
672.664	3013
672.715	2867
672.766	2872
672.817	2240
672.868	2944
672.919	2817
672.970	1549
673.021	2161
673.071	2650
673.122	2844
673.173	2574
673.224	1444
673.275	2502
673.326	1947
673.376	1989
673.427	2137
673.478	2118
673.528	2571
673.579	2133
673.630	1749
673.680	2929
673.731	1294
673.782	2144
673.832	1649
673.883	2306
673.934	2199
673.984	1830
674.035	1953
674.085	2536
674.136	2259
674.186	2842
674.237	2745
674.287	4528
674.338	2982
674.388	2143
674.438	2275
674.489	2408
674.539	2159
674.589	2722
674.640	2462
674.690	2887
674.740	1483
674.791	2273
674.841	2463
674.891	2636
674.942	2390
674.992	1701
675.042	1845
675.092	2462
675.142	1935
675.193	1982
675.243	2221
675.293	2048
675.343	1819
675.393	2448
675.443	2274
675.493	2593
675.543	1603
675.593	2427
675.643	1948
675.693	2472
675.743	2020
675.793	2529
675.843	1421
675.893	1396
675.943	1574
675.993	2012
676.043	663
676.093	2553
676.142	1121
676.192	2123
676.242	1596
676.292	1846
676.341	1769
676.391	2546
676.441	1051
676.491	1388
676.540	1134
676.590	2015
676.640	1995
676.689	1864
676.739	1389
676.789	2156
676.838	659
676.888	1876
676.937	787
676.987	1671
677.037	847
677.086	1630
677.136	1641
677.185	1682
677.235	995
677.284	1649
677.333	1299
677.383	944
677.432	184
677.482	1165
677.531	1441
677.580	1554
677.630	2044
677.679	1147
677.728	1571
677.778	1697
677.827	1400
677.876	1282
677.925	979
677.975	1502
678.024	1135
678.073	1645
678.122	1835
678.171	1968
678.220	1334
678.269	2410
678.319	1799
678.368	2675
678.417	1447
678.466	2048
678.515	2619
678.564	1573
678.613	955
678.662	809
678.711	475
678.760	849
678.809	703
678.857	1510
678.906	2097
678.955	1370
679.004	1556
679.053	1339
679.102	1089
679.151	1423
679.199	773
679.248	1442
679.297	903
679.346	1478
679.394	1665
679.443	2480
679.492	1397
679.540	726
679.589	1628
679.638	1745
679.686	863
679.735	1767
679.784	1036
679.832	1807
679.881	802
679.929	1280
679.978	496
680.026	1582
680.075	352
680.123	1589
680.172	689
680.220	794
680.268	796
680.317	1622
680.365	1182
680.414	1376
680.462	1335
680.510	1442
680.559	981
680.607	1482
680.655	498
680.703	1405
680.752	1247
680.800	1048
680.848	1247
680.896	795
680.945	371
680.993	1309
681.041	569
681.089	1477
681.137	674
681.185	708
681.233	1027
681.258	938
681.281	811
681.329	1197
681.377	1158
681.380	1202
681.425	1242
681.473	2408
681.502	1475
681.521	759
681.569	2283
681.617	1380
681.624	1494
681.665	1896
681.713	2024
681.745	2223
681.761	2261
681.809	2148
681.857	2177
681.867	2169
681.904	1953
681.952	2721
681.989	2442
682.000	2312
682.048	1973
682.096	2383
682.111	2457
682.143	2478
682.191	2174
682.233	3321
682.239	3451
682.286	2492
682.334	2893
682.354	2706
682.382	2353
682.430	2470
682.476	2697
682.477	2666
682.525	2402
682.572	2580
682.598	2688
682.620	2724
682.667	2960
682.715	3817
682.720	3834
682.763	3576
682.810	4335
682.841	4198
682.857	4069
682.905	4416
682.952	3428
682.963	3707
683.000	4587
683.047	3969
683.085	4706
683.095	4844
683.142	4614
683.190	4655
683.206	4351
683.237	3809
683.284	4782
683.328	4372
683.332	4293
683.379	4801
683.426	4033
683.449	4549
683.473	5088
683.521	4038
683.568	4529
683.571	4550
683.615	4251
683.662	4772
683.693	4666
683.709	4632
683.757	4899
683.804	4924
683.814	5163
683.851	5738
683.898	5405
683.936	5527
683.945	5552
683.992	5753
684.039	6708
684.057	6474
684.086	6013
684.133	5679
684.179	5801
684.180	5777
684.227	6331
684.274	6441
684.300	6746
684.321	6943
684.368	5894
684.415	7212
684.422	7152
684.462	6632
684.509	6526
684.543	6598
684.556	6576
684.603	6893
684.649	6124
684.665	6361
684.696	6941
684.743	6881
684.786	7309
684.790	7328
684.837	6532
684.883	7918
684.908	7875
684.930	7764
684.977	8438
685.023	8495
685.029	8480
685.070	7897
685.117	7047
685.150	7374
685.164	7608
685.210	8349
685.257	8747
685.272	8810
685.303	8687
685.350	8172
685.393	8829
685.396	8888
685.443	9124
685.490	9652
685.514	9924
685.536	9877
685.583	8667
685.629	8843
685.636	8860
685.675	9073
685.722	9080
685.757	8786
685.768	8694
685.815	9169
685.861	9313
685.878	9572
685.908	10087
685.954	9776
686.000	11058
686.000	11067
686.047	10277
686.093	11267
686.121	11403
686.139	11390
686.185	10545
686.232	10824
686.242	10782
686.278	10315
686.324	9824
686.363	9527
686.370	9545
686.416	9291
686.463	10280
686.484	10266
686.509	10171
686.555	10060
686.601	10504
686.606	10485
686.647	10213
686.693	9880
686.727	10287
686.739	10449
686.785	10057
686.831	10528
686.848	10347
686.877	10053
686.923	10421
686.969	10415
686.969	10413
687.015	10053
687.061	10512
687.090	10766
687.107	10922
687.153	11258
687.199	10849
687.211	10734
687.245	10297
687.291	10868
687.332	10781
687.336	10804
687.382	11323
687.428	11563
687.453	11907
687.474	11923
687.520	11202
687.565	11158
687.574	10976
687.611	10590
687.657	11530
687.695	11516
687.702	11588
687.748	12365
687.794	12656
687.816	13024
687.839	12908
687.885	12285
687.931	12023
687.937	11929
687.976	11775
688.022	11896
688.058	11900
688.067	11926
688.113	12174
688.158	11949
688.179	12193
688.204	12409
688.249	11977
688.295	11960
688.300	11934
688.340	12242
688.386	13391
688.421	13102
688.431	12897
688.477	13115
688.522	12681
688.542	12670
688.567	12906
688.613	12801
688.658	13346
688.663	13324
688.703	12918
688.749	13275
688.784	13245
688.794	13269
688.839	12832
688.884	12842
688.905	12942
688.930	13153
688.975	12570
689.020	12760
689.026	12760
689.065	13018
689.110	13358
689.146	13668
689.155	13704
689.201	13588
689.246	13375
689.267	13414
689.291	13483
689.336	13598
689.381	13177
689.388	13201
689.426	13480
689.471	13324
689.509	13247
689.516	13261
689.561	13312
689.606	13448
689.630	13640
689.651	13810
689.696	12980
689.741	13599
689.750	13600
689.785	13728
689.830	13430
689.871	13748
689.875	13751
689.920	13146
689.965	12447
689.992	12343
690.010	12670
690.054	12973
690.099	13666
690.112	13835
690.144	13947
690.189	14085
690.233	13439
690.233	13456
690.278	13997
690.323	13927
690.354	13933
690.367	13948
690.412	14340
690.457	14295
690.474	14265
690.501	14192
690.546	14080
690.590	14118
690.595	14090
690.635	14106
690.680	13862
690.716	13947
690.724	14086
690.769	14555
690.813	15405
690.836	15289
690.857	15244
690.902	16268
690.946	16734
690.957	16837
690.991	18703
691.035	20852
691.077	23222
691.080	23295
691.124	23708
691.168	24621
691.198	24851
691.213	24172
691.257	22100
691.301	19681
691.318	18932
691.346	18467
691.390	17116
691.434	16345
691.439	16165
691.478	15911
691.522	16406
691.559	16114
691.567	16133
691.611	16433
691.655	16385
691.680	16508
691.699	16450
691.743	16276
691.787	16209
691.800	16049
691.831	16027
691.875	16139
691.919	16611
691.921	16583
691.964	16834
692.008	16973
692.041	17061
692.052	17094
692.096	17223
692.139	17491
692.162	17409
692.183	17234
692.227	17283
692.271	16860
692.282	16799
692.315	17062
692.359	17184
692.402	17403
692.403	17439
692.447	17709
692.490	17856
692.523	17943
692.534	17898
692.578	17479
692.622	17241
692.643	17105
692.666	17246
692.709	17555
692.753	17428
692.763	17397
692.797	17171
692.840	17165
692.884	17042
692.884	17079
692.928	17207
692.971	17173
693.004	17612
693.015	17776
693.059	17957
693.102	17817
693.124	17899
693.146	17976
693.189	18098
693.233	17932
693.245	17936
693.276	18316
693.320	18717
693.363	18773
693.365	18740
693.407	19008
693.450	19249
693.485	19630
693.493	19773
693.537	19981
693.580	20232
693.605	20520
693.624	21378
693.667	22810
693.710	24539
693.725	25108
693.753	28262
693.797	33069
693.840	37846
693.845	38353
693.883	39043
693.926	39491
693.966	39844
693.970	39409
694.013	34406
694.056	29138
694.086	25234
694.099	24787
694.142	23468
694.185	22132
694.206	21489
694.229	21357
694.272	20918
694.315	20740
694.326	20498
694.358	20419
694.401	20652
694.444	20731
694.446	20692
694.487	20769
694.530	20785
694.566	20594
694.573	20488
694.616	19587
694.659	18796
694.686	18200
694.702	18124
694.745	17937
694.787	17412
694.806	17305
694.830	17588
694.873	17667
694.916	18167
694.926	18195
694.959	18320
695.002	18264
695.044	18132
695.046	18096
695.087	18747
695.130	19341
695.166	19573
695.172	19551
695.215	19077
695.258	18851
695.286	18538
695.301	18675
695.343	18970
695.386	19305
695.406	19412
695.428	19209
695.471	18631
695.514	18340
695.526	18101
695.556	18735
695.599	20017
695.641	20885
695.646	20939
695.684	20351
695.726	19802
695.766	19003
695.769	19073
695.811	19581
695.854	20034
695.886	20337
695.896	20261
695.938	19615
695.981	19226
696.005	18810
696.023	18938
696.065	19173
696.108	19489
696.125	19540
696.150	19780
696.192	20233
696.235	20504
696.245	20533
696.277	20546
696.319	20574
696.361	20578
696.365	20514
696.404	20397
696.446	20383
696.485	20221
696.488	20300
696.530	20585
696.572	20949
696.604	21249
696.614	21255
696.656	20908
696.698	20662
696.724	20357
696.740	20362
696.783	20319
696.825	20347
696.844	20332
696.867	20487
696.909	20459
696.951	20436
696.964	20451
696.992	20545
697.034	20357
697.076	20257
697.083	20191
697.118	20132
697.160	19943
697.202	19827
697.203	19769
697.244	20181
697.286	20677
697.323	20854
697.327	20849
697.369	20455
697.411	20023
697.442	19679
697.453	19929
697.494	20600
697.536	21463
697.562	21851
697.578	21946
697.620	22151
697.661	22227
697.682	22273
697.703	22533
697.744	22779
697.786	23273
697.801	23303
697.828	23584
697.869	23977
697.911	24396
697.921	24438
697.952	23889
697.994	23063
698.035	22239
698.040	22073
698.077	21794
698.118	21491
698.160	21093
698.160	21032
698.201	21427
698.243	21691
698.279	21874
698.284	21938
698.325	21939
698.367	22027
698.399	21994
698.408	22062
698.449	22130
698.491	22154
698.518	22126
698.532	22119
698.573	21916
698.614	21722
698.638	21522
698.656	21704
698.697	22046
698.738	22348
698.757	22437
698.779	22569
698.820	22684
698.862	22822
698.877	22812
698.903	23121
698.944	23506
698.985	23888
698.996	23930
699.026	23638
699.067	23144
699.116	22493
699.235	23035
699.354	21109
699.474	22374
699.593	22313
699.713	24362
699.832	21944
699.951	23597
700.070	22858
700.190	22061
700.309	22083
700.428	22804
700.547	21445
700.667	21657
700.786	22350
700.905	22362
701.024	20998
701.143	22166
701.262	19900
701.381	20315
701.500	19979
701.619	23390
701.738	20961
701.857	20241
701.976	19627
702.095	19698
702.214	21736
702.333	21850
702.452	20912
702.571	20965
702.690	19720
702.809	19994
702.928	19082
703.047	20179
703.165	18782
703.284	19109
703.403	19596
703.522	20792
703.640	20193
703.759	21697
703.878	25576
703.997	19746
704.115	18141
704.234	18921
704.353	17650
704.471	17463
704.590	17531
704.708	18658
704.827	17479
704.946	18678
705.064	18852
705.183	17718
705.301	19890
705.420	25511
705.538	23781
705.656	21858
705.775	20446
705.893	26146
706.012	31405
706.130	21863
706.249	21086
706.367	20988
706.485	21596
706.604	22104
706.722	21462
706.840	24324
706.958	25708
707.077	23449
707.195	19974
707.313	21721
707.431	18602
707.549	19200
707.668	19740
707.786	19824
707.904	19056
708.022	18798
708.140	18537
708.258	18901
708.376	19227
708.494	18842
708.612	20439
708.730	25600
708.848	25760
708.966	24598
709.084	23593
709.202	22063
709.320	21516
709.438	22917
709.556	22858
709.674	22800
709.791	22024
709.909	21188
710.027	21265
710.145	21833
710.263	21509
710.380	21937
710.498	21662
710.616	21745
710.733	20583
710.851	21228
710.969	21349
711.086	20786
711.204	20906
711.322	20324
711.439	19898
711.557	21134
711.674	21133
711.792	20012
711.909	19056
712.027	19997
712.144	19143
712.262	19889
712.379	19643
712.497	27517
712.614	28629
712.732	24900
712.849	23085
712.966	23961
713.084	27755
713.201	25117
713.318	24616
713.436	23295
713.553	23152
713.670	24952
713.787	24974
713.905	27218
714.022	23282
714.139	23833
714.256	26471
714.373	31685
714.490	44948
714.608	87995
714.725	358271
714.842	547778
714.959	53390
715.076	27849
715.193	23388
715.310	22856
715.427	21026
715.544	20441
715.661	20701
715.778	20069
715.895	21719
716.011	22167
716.128	21257
716.245	21025
716.362	22439
716.479	24189
716.596	20384
716.713	20508
716.829	18771
716.946	20350
717.063	17663
717.180	19677
717.296	17668
717.413	18599
717.530	17415
717.646	17469
717.763	17552
717.880	18195
717.996	16913
718.113	18380
718.229	17155
718.346	17322
718.462	17412
718.579	19797
718.695	28604
718.812	25663
718.928	21392
719.045	19183
719.161	16351
719.277	17126
719.394	16366
719.510	17719
719.626	16489
719.743	20385
719.859	23256
719.975	34489
720.092	97640
720.208	284352
720.324	55243
720.440	20557
720.557	18628
720.673	25041
720.789	30632
720.905	51144
721.021	28134
721.137	15631
721.253	16394
721.369	16182
721.486	16725
721.602	21496
721.718	15204
721.834	14363
721.950	14801
722.066	15403
722.181	14081
722.297	15144
722.413	14273
722.529	15235
722.645	14707
722.761	13931
722.877	13428
722.993	13372
723.108	14404
723.224	14563
723.340	13049
723.456	14759
723.571	13975
723.687	13522
723.803	13158
723.918	13577
724.034	13232
724.150	13527
724.265	14858
724.381	20643
724.497	30681
724.612	14182
724.728	11726
724.843	12486
724.959	13890
725.074	21351
725.190	28423
725.305	13703
725.421	12477
725.536	11644
725.651	11655
725.767	12134
725.882	11733
725.997	11196
726.113	12086
726.228	10916
726.343	11443
726.459	10457
726.574	11338
726.689	11734
726.804	10991
726.920	11560
727.035	11124
727.150	12431
727.265	10385
727.380	12224
727.495	11328
727.610	10796
727.725	11283
727.841	11108
727.956	13262
728.071	15530
728.186	11176
728.301	10914
728.416	11531
728.531	10836
728.645	9638
728.760	11332
728.875	12037
728.990	11940
729.105	11442
729.220	11396
729.335	11660
729.449	10867
729.564	9820
729.679	9239
729.794	10333
729.908	10757
730.023	10603
730.138	9554
730.253	8889
730.367	9797
730.482	8496
730.596	10388
730.711	9924
730.826	10861
730.940	10793
731.055	11191
731.169	9590
731.284	9836
731.398	9077
731.513	10657
731.627	9660
731.742	12558
731.856	13082
731.970	11334
732.085	12462
732.199	15098
732.313	20486
732.428	44272
732.542	122448
732.656	99558
732.771	21720
732.885	13101
732.999	11996
733.113	12666
733.227	11537
733.342	10498
733.456	10255
733.570	10512
733.684	9439
733.798	10732
733.912	10336
734.026	9674
734.140	9992
734.254	10976
734.368	13471
734.482	18291
734.596	10142
734.710	9657
734.824	9150
734.938	9169
735.052	9368
735.166	10609
735.280	9832
735.393	10050
735.507	8920
735.621	12069
735.735	15734
735.849	11839
735.962	9367
736.076	10738
736.190	8743
736.303	11382
736.417	14614
736.531	8836
736.644	9580
736.758	8679
736.872	8777
736.985	9498
737.099	9044
737.212	9027
737.326	8981
737.439	8510
737.553	8107
737.666	9164
737.780	7741
737.893	8163
738.007	7841
738.120	8596
738.233	7822
738.347	8604
738.460	7772
738.573	9411
738.687	8820
738.800	9620
738.913	10140
739.026	10098
739.140	8234
739.253	8496
739.366	7867
739.479	8367
739.592	7129
739.705	8119
739.818	7749
739.932	7827
740.045	7988
740.158	8164
740.271	8003
740.384	8191
740.497	7559
740.610	8384
740.723	8325
740.836	8884
740.949	9786
741.062	10250
741.174	9954
741.287	8883
741.400	7199
741.513	8251
741.626	9422
741.739	8805
741.851	7271
741.964	8142
742.077	8245
742.189	7279
742.302	7656
742.415	9105
742.527	8003
742.640	7600
742.753	7190
742.865	7072
742.978	6229
743.090	7304
743.203	6550
743.316	6852
743.428	6946
743.541	7868
743.653	6712
743.766	6622
743.878	6947
743.990	7638
744.103	8415
744.215	7971
744.327	6542
744.440	8351
744.552	11626
744.664	7619
744.777	6396
744.889	6391
745.001	6426
745.113	6509
745.226	6739
745.338	6688
745.450	6387
745.562	6539
745.674	5916
745.786	6148
745.898	6818
746.010	6381
746.122	6054
746.234	6475
746.347	6783
746.459	6289
746.570	5915
746.682	6495
746.794	6024
746.906	5283
747.018	5457
747.130	6246
747.242	5019
747.354	6744
747.466	5959
747.577	5574
747.689	5236
747.801	6439
747.913	5776
748.024	5933
748.136	5400
748.248	5396
748.359	5277
748.471	5762
748.583	4184
748.694	5854
748.806	7318
748.918	6460
749.029	5454
749.141	6595
749.252	6145
749.364	7083
749.475	11038
749.587	9949
749.698	5500
749.809	5692
749.921	5233
750.032	6504
750.144	5264
750.255	5615
750.366	5174
750.478	5662
750.589	5607
750.700	6593
750.811	6714
750.923	7621
751.034	11208
751.145	14440
751.256	6362
751.367	5455
751.479	5174
751.590	5838
751.701	6261
751.812	6518
751.923	5303
752.034	5509
752.145	5153
752.256	5469
752.367	5260
752.478	5769
752.589	5082
752.700	5935
752.811	4798
752.922	4745
753.032	5424
753.143	6620
753.254	4684
753.365	5769
753.476	4717
753.586	5395
753.697	5207
753.808	4140
753.919	4248
754.029	4723
754.140	5052
754.251	5251
754.361	4259
754.472	6107
754.582	4427
754.693	6017
754.804	5069
754.914	5187
755.025	4787
755.135	4590
755.246	5609
755.356	4604
755.466	4907
755.577	4987
755.687	4519
755.798	4766
755.908	5399
756.018	4636
756.129	4662
756.239	4712
756.349	5279
756.460	4863
756.570	5044
756.680	5516
756.790	4456
756.900	6570
757.011	4808
757.121	4719
757.231	4756
757.341	5205
757.451	4734
757.561	3998
757.671	4132
757.781	4518
757.891	4805
758.001	5389
758.111	5061
758.221	5512
758.331	5352
758.441	7094
758.551	6612
758.661	7366
758.771	5745
758.880	5808
758.990	6256
759.100	4888
759.210	4733
759.320	5753
759.429	4870
759.539	5312
759.649	4810
759.758	6298
759.868	5851
759.978	5605
760.087	6127
760.197	6349
760.307	5517
760.416	5714
760.526	5059
760.635	5686
760.745	5063
760.854	5932
760.964	5238
761.073	6671
761.182	6471
761.292	6045
761.401	6202
761.511	6548
761.620	4467
761.729	5648
761.839	5770
761.948	6668
762.057	5895
762.166	5935
762.276	5159
762.385	6410
762.494	5475
762.603	4901
762.712	5370
762.822	5982
762.931	5578
763.040	5216
763.149	5363
763.258	6318
763.367	5330
763.476	6033
763.585	6297
763.694	6444
763.803	6415
763.912	7426
764.021	6664
764.130	6373
764.238	6306
764.347	7690
764.456	7577
764.565	7618
764.674	8517
764.783	8884
764.891	8606
765.000	10049
765.109	9828
765.217	11714
765.326	13455
765.435	16507
765.543	15599
765.652	19679
765.761	25204
765.869	34669
765.978	53253
766.086	89079
766.195	168092
766.303	389964
766.412	923034
766.520	932071
766.629	413206
766.737	150731
766.846	80650
766.954	54035
767.062	38047
767.171	29498
767.279	23294
767.387	18751
767.496	16232
767.604	14059
767.712	12338
767.820	12218
767.928	11567
768.037	10987
768.145	11461
768.253	10947
768.361	9572
768.469	9700
768.577	9727
768.685	10728
768.793	10327
768.901	11020
769.009	12642
769.117	14380
769.225	16323
769.333	23382
769.441	35906
769.549	65635
769.657	139173
769.765	394147
769.873	832308
769.981	472696
770.088	126021
770.196	55067
770.304	33738
770.412	25256
770.519	18909
770.627	15345
770.735	12661
770.842	11332
770.950	10412
771.058	9645
771.165	8947
771.273	9274
771.380	8216
771.488	8360
771.595	8321
771.703	7897
771.810	7238
771.918	7089
772.025	7383
772.133	8130
772.240	7699
772.348	7880
772.455	7454
772.562	6964
772.670	6514
772.777	6802
772.884	6308
772.991	6104
773.099	6931
773.206	6190
773.313	6501
773.420	6109
773.528	5417
773.635	5495
773.742	6941
773.849	6708
773.956	5897
774.063	6654
774.170	5406
774.277	6383
774.384	5900
774.491	5761
774.598	5592
774.705	5914
774.812	6760
774.919	7288
775.026	6076
775.133	6441
775.239	4714
775.346	5889
775.453	5533
775.560	4701
775.667	5369
775.773	5147
775.880	5133
775.987	5943
776.093	5304
776.200	5540
776.307	4864
776.413	6322
776.520	5248
776.627	5559
776.733	5134
776.840	4210
776.946	6693
777.053	6023
777.159	7199
777.266	5871
777.372	7588
777.478	6526
777.585	6050
777.691	4862
777.798	4496
777.904	5792
778.010	6844
778.117	6975
778.223	4420
778.329	5067
778.435	4541
778.542	5076
778.648	4793
778.754	4657
778.860	3644
778.966	4358
779.072	4570
779.178	5443
779.284	3870
779.391	4556
779.497	3979
779.603	6429
779.708	4767
779.815	7974
779.920	18733
780.026	48329
780.132	12652
780.238	5593
780.344	4378
780.450	5536
780.556	4378
780.661	4750
780.767	4498
780.873	4597
780.979	4232
781.085	3931
781.190	3768
781.296	3998
781.402	3613
781.507	3578
781.613	4116
781.719	4603
781.824	3630
781.930	3374
782.035	4507
782.141	4622
782.246	3498
782.352	4207
782.457	3764
782.563	3977
782.668	3583
782.773	4527
782.879	3631
782.984	4539
783.090	4992
783.195	5954
783.300	5244
783.405	4416
783.511	3909
783.616	4157
783.721	3962
783.826	3425
783.932	4098
784.037	4559
784.142	3908
784.247	4673
784.352	3684
784.457	3709
784.562	3954
784.667	3849
784.772	3524
784.877	3828
784.982	3682
785.087	4184
785.192	3490
785.297	4271
785.402	2879
785.507	3774
785.611	3277
785.716	3797
785.821	3431
785.926	4162
786.031	2794
786.135	3689
786.240	3853
786.345	2322
786.450	3327
786.554	3606
786.659	3015
786.763	3016
786.868	3409
786.973	4490
787.077	2521
787.182	4195
787.286	2813
787.391	3139
787.495	2384
787.600	3784
787.704	2879
787.809	3245
787.913	3032
788.017	3749
788.122	3625
788.226	2944
788.330	2523
788.435	3449
788.539	3037
788.643	2827
788.747	2172
788.852	3420
788.956	2277
789.060	3868
789.164	3099
789.268	2448
789.372	3123
789.476	3383
789.580	1863
789.684	2709
789.788	2299
789.892	3476
789.996	3004
790.100	3964
790.204	3028
790.308	3567
790.412	2800
790.516	2799
790.620	2584
790.724	3547
790.828	2441
790.931	3015
791.035	3537
791.139	3026
791.242	2436
791.346	4361
791.450	2891
791.554	3930
791.657	2469
791.761	4097
791.864	3005
791.968	3633
792.072	2814
792.175	3688
792.279	2233
792.382	3162
792.486	2900
792.589	3740
792.693	3014
792.796	2570
792.899	2561
793.003	4082
793.106	1844
793.209	3134
793.313	3442
793.416	2508
793.519	3501
793.623	4195
793.726	5635
793.829	4527
793.932	2300
794.035	3057
794.138	4437
794.242	3587
794.345	3107
794.448	4398
794.551	5786
794.654	12639
794.757	23232
794.860	7710
794.963	3006
795.066	2405
795.169	2641
795.272	2665
795.375	2698
795.477	2984
795.580	3384
795.683	1945
795.786	2185
795.889	1948
795.991	3053
796.094	3773
796.197	2481
796.300	3579
796.402	2544
796.505	1910
796.608	2396
796.710	2788
796.813	1887
796.915	2007
797.018	2314
797.120	2665
797.223	933
797.326	2848
797.428	1953
797.530	1894
797.633	1467
797.735	3678
797.838	3577
797.940	5360
798.042	1505
798.145	1859
798.247	1992
798.349	1347
798.452	2285
798.554	2345
798.656	1979
798.758	3058
798.860	2287
798.962	1875
799.065	1817
799.167	806
799.269	2930
799.371	3555
799.473	3184
799.575	2717
799.677	3232
799.779	4392
799.881	3759
799.983	5016
800.085	2445
800.187	2174
800.289	1459
800.390	2715
800.492	2384
800.594	3035
800.696	1334
800.798	2012
800.899	2224
801.001	2484
801.103	1974
801.205	1131
801.306	2173
801.408	2124
801.509	1685
801.611	2667
801.713	2538
801.814	1748
801.916	2377
802.017	2083
802.119	1446
802.220	2625
802.322	-17
802.423	3816
802.525	1767
802.626	2845
802.727	1622
802.829	3265
802.930	863
803.031	4251
803.133	1897
803.234	2117
803.335	2156
803.436	1850
803.538	1703
803.639	1325
803.740	2714
803.841	2113
803.942	3092
804.043	2370
804.144	1278
804.245	2160
804.346	1088
804.447	1409
804.548	2914
804.649	4239
804.750	1372
804.851	2611
804.952	1338
805.053	1693
805.154	698
805.255	2828
805.355	988
805.456	1875
805.557	1589
805.658	1396
805.758	2396
805.859	2262
805.960	2240
806.061	1927
806.161	1903
806.262	2869
806.362	1689
806.463	1299
806.564	2422
806.664	2876
806.765	2006
806.865	2912
806.966	1709
807.066	2104
807.166	2189
807.267	2534
807.367	2199
807.468	2107
807.568	1011
807.668	2094
807.769	1431
807.869	1677
807.969	1767
808.069	1422
808.170	1996
808.270	2068
808.370	2047
808.470	2710
808.570	2686
808.670	1957
808.770	1443
808.870	2242
808.970	1967
809.070	1937
809.170	1483
809.271	2661
809.370	1397
809.470	2394
809.570	849
809.670	2381
809.770	1693
809.870	2830
809.970	1776
810.070	1437
810.169	2017
810.269	600
810.369	2199
810.469	1234
810.568	869
810.668	1945
810.768	1956
810.867	2679
810.967	1117
811.066	2157
811.166	1374
811.265	2653
811.365	1547
811.464	2893
811.564	1870
811.663	2428
811.763	1546
811.862	2095
811.962	2587
812.061	2894
812.160	1749
812.260	1837
812.359	1921
812.458	3667
812.557	6778
812.657	10330
812.756	5407
812.855	2385
812.954	2982
813.053	3217
813.153	2398
813.252	2156
813.351	2371
813.450	3609
813.549	2310
813.648	2996
813.747	1797
813.846	3350
813.945	2165
814.044	3282
814.143	2843
814.242	3527
814.341	2674
814.439	3799
814.538	2793
814.637	3123
814.736	3289
814.835	4578
814.933	4226
815.032	4330
815.131	3870
815.229	4795
815.328	5685
815.427	4815
815.525	5520
815.624	5436
815.722	5276
815.821	5640
815.919	5338
816.018	6353
816.116	6989
816.215	6978
816.313	7227
816.412	7965
816.510	8472
816.609	10467
816.707	9270
816.805	11170
816.904	10646
817.002	12024
817.100	13227
817.198	15896
817.296	16122
817.395	20324
817.493	22693
817.591	27534
817.689	35581
817.787	48144
817.885	71747
817.983	114887
818.081	205576
818.179	400412
818.277	766537
818.375	799719
818.473	420770
818.571	207717
818.669	131256
818.767	105209
818.865	99049
818.963	110963
819.061	144201
819.158	210887
819.256	355001
819.354	631865
819.452	990408
819.549	867526
819.647	507483
819.745	279087
819.842	170165
819.940	114668
820.038	82107
820.135	63641
820.233	51408
820.330	41162
820.428	33428
820.525	29366
820.623	25072
820.720	22841
820.818	20103
820.915	18358
821.012	16036
821.110	13958
821.207	13934
821.304	12315
821.402	11502
821.499	11893
821.596	10781
821.693	10176
821.791	8806
821.888	9230
821.985	10581
822.082	10888
822.179	8106
822.276	7353
822.373	6190
822.470	6644
822.567	5501
822.664	5655
822.761	6290
822.858	4946
822.955	5363
823.052	5619
823.149	4311
823.246	4470
823.343	3692
823.440	5540
823.536	3562
823.633	4474
823.730	3560
823.827	4797
823.923	3891
824.020	4494
824.117	3789
824.213	2975
824.310	3470
824.407	3619
824.503	2612
824.600	3795
824.696	2536
824.793	3946
824.889	2164
824.986	3476
825.082	2492
825.179	3908
825.275	2937
825.371	3008
825.468	3083
825.564	1966
825.660	2576
825.757	3743
825.853	2830
825.949	1176
826.045	2115
826.142	2813
826.238	2732
826.334	2671
826.430	1812
826.526	3643
826.622	1403
826.718	2488
826.814	2235
826.910	3633
827.006	1375
827.102	2079
827.198	2490
827.294	2459
827.390	2979
827.486	2123
827.582	767
827.678	1380
827.774	2160
827.869	1673
827.965	2566
828.061	1923
828.157	1172
828.252	2670
828.348	550
828.444	2069
828.539	429
828.635	2234
828.731	1728
828.826	1879
828.922	1330
829.017	1725
829.113	2015
829.208	2137
829.304	1029
829.399	1545
829.495	1574
829.590	2276
829.685	704
829.781	2116
829.876	1001
829.971	2339
830.066	990
830.162	1546
830.257	1511
830.352	1037
830.447	1673
830.543	1594
830.638	505
830.733	2595
830.828	685
830.923	1589
831.018	788
831.113	1966
831.208	638
831.303	1552
831.398	2008
831.493	1323
831.588	1507
831.683	898
831.778	1091
831.873	1255
831.967	1443
832.062	1476
832.157	46
832.252	2524
832.346	1058
832.441	3164
832.536	2033
832.631	5702
832.725	5794
832.820	1137
832.914	1059
833.009	827
833.104	1293
833.198	2152
833.293	1223
833.387	2025
833.482	1172
833.576	1370
833.670	1431
833.765	1075
833.859	1292
833.954	2579
834.048	407
834.142	1614
834.237	521
834.331	974
834.425	1176
834.519	1203
834.613	1779
834.708	1161
834.802	1024
834.896	1327
834.990	813
835.084	2066
835.178	616
835.272	1332
835.366	992
835.460	1285
835.554	846
835.648	1478
835.742	74
835.836	1652
835.930	168
836.024	1313
836.117	1774
836.211	957
836.305	1824
836.399	2924
836.493	778
836.586	2083
836.680	119
836.774	1072
836.867	1345
836.961	465
837.055	592
837.148	1183
837.242	1519
837.335	1576
837.429	-128
837.522	1132
837.616	1706
837.709	3147
837.803	1707
837.896	1333
837.989	1200
838.083	2552
838.176	3572
838.269	3910
838.363	1517
838.456	1571
838.549	2143
838.642	2924
838.735	6693
838.829	4263
838.922	864
839.015	1631
839.108	364
839.201	1787
839.294	1396
839.387	1603
839.480	185
839.573	2168
839.666	2452
839.759	1260
839.852	765
839.945	776
840.038	1139
840.131	826
840.223	739
840.316	1503
840.409	-113
840.502	620
840.594	1375
840.687	508
840.780	774
840.873	963
840.965	824
841.058	1759
841.150	2597
841.243	1880
841.336	1237
841.428	450
841.521	124
841.613	593
841.706	497
841.798	552
841.890	885
841.983	-67
842.075	1707
842.167	1192
842.260	901
842.352	2047
842.444	1867
842.537	2402
842.629	6318
842.721	3210
842.813	1064
842.905	475
842.997	1064
843.090	816
843.182	1586
843.274	3155
843.366	7218
843.458	14990
843.550	11732
843.642	2297
843.734	1123
843.826	1683
843.918	1824
844.009	1201
844.101	365
844.193	1718
844.285	138
844.377	901
844.469	1433
844.560	1408
844.652	1265
844.744	1228
844.835	566
844.927	852
845.019	1506
845.110	1857
845.202	207
845.293	1062
845.385	-408
845.476	1741
845.568	323
845.659	364
845.751	945
845.842	544
845.934	-13
846.025	1013
846.116	646
846.208	739
846.299	297
846.390	1437
846.482	469
846.573	1029
846.664	1198
846.755	2190
846.846	2914
846.937	296
847.029	34
847.120	906
847.211	491
847.302	1729
847.393	35
847.484	837
847.575	-291
847.666	1267
847.757	-386
847.847	916
847.938	1287
848.029	787
848.120	-486
848.211	647
848.302	-304
848.392	104
848.483	838
848.574	373
848.664	53
848.755	1392
848.846	1157
848.936	-199
849.027	450
849.118	513
849.208	545
849.299	2054
849.389	2295
849.480	3943
849.570	7330
849.661	13757
849.751	26591
849.841	12862
849.932	1794
850.022	928
850.112	668
850.203	591
850.293	-65
850.383	525
850.474	335
850.564	584
850.654	763
850.744	625
850.834	404
850.924	529
851.014	444
851.104	1131
851.194	-252
851.284	1613
851.374	962
851.464	917
851.554	748
851.644	1255
851.734	530
851.824	1449
851.914	333
852.004	476
852.094	-446
852.183	852
852.273	527
852.363	450
852.452	138
852.542	1308
852.632	-536
852.721	577
852.811	382
852.901	1053
852.990	65
853.080	424
853.169	443
853.259	1572
853.348	-59
853.438	1226
853.527	1945
853.617	3372
853.706	5745
853.795	10228
853.885	25146
853.974	49283
854.063	82517
854.152	152520
854.242	77631
854.331	12693
854.420	3922
854.509	3740
854.598	2846
854.687	1840
854.777	1424
854.866	1476
854.955	1342
855.044	541
855.133	808
855.222	1130
855.311	869
855.400	1080
855.488	171
855.577	766
855.666	95
855.755	970
855.844	862
855.933	1403
856.021	1181
856.110	429
856.199	-114
856.288	851
856.376	512
856.465	-158
856.554	351
856.642	781
856.731	1062
856.819	271
856.908	132
856.996	374
857.085	-426
857.173	-521
857.262	454
857.350	1153
857.438	67
857.527	864
857.615	-465
857.703	846
857.792	0
857.880	437
857.968	-381
858.056	552
858.145	-289
858.233	743
858.321	-323
858.409	1003
858.497	-566
858.585	88
858.673	874
858.761	403
858.849	159
858.937	15
859.025	325
859.113	898
859.201	118
859.289	714
859.377	812
859.465	425
859.552	-548
859.640	444
859.728	546
859.816	-147
859.903	-55
859.991	447
860.079	-34
860.166	623
860.254	-313
860.342	177
860.429	291
860.517	200
860.604	679
860.692	854
860.779	-275
860.867	14
860.954	18
861.042	652
861.129	899
861.216	812
861.304	52
861.391	476
861.478	914
861.565	565
861.653	1049
861.740	540
861.827	-189
861.914	20
862.001	-735
862.089	367
862.176	-46
862.263	834
862.350	2
862.437	172
862.524	-1116
862.611	-14
862.698	-179
862.785	848
862.871	256
862.958	720
863.045	-43
863.132	591
863.219	-154
863.306	206
863.392	-262
863.479	748
863.566	-255
863.652	225
863.739	-510
863.826	536
863.912	-1073
863.999	-669
864.086	392
864.172	-192
864.259	121
864.345	929
864.432	-102
864.518	175
864.604	-821
864.691	175
864.777	822
864.863	1452
864.950	241
865.036	286
865.122	1976
865.209	2458
865.295	1679
865.381	2931
865.467	2259
865.553	2800
865.639	3280
865.726	6602
865.812	12032
865.898	24802
865.984	36402
866.070	62216
866.156	87010
866.242	29588
866.328	6492
866.414	2581
866.499	1896
866.585	2250
866.671	1425
866.757	1812
866.843	490
866.928	1673
867.014	770
867.100	1730
867.186	809
867.271	2186
867.357	1565
867.442	2412
867.528	1847
867.614	1438
867.699	976
867.785	1433
867.870	998
867.956	1559
868.041	1784
868.127	2331
868.212	1702
868.297	1908
868.383	1606
868.468	2767
868.553	3330
868.639	3749
868.724	5574
868.809	8439
868.894	2712
868.979	663
869.065	1186
869.150	989
869.235	829
869.320	682
869.405	-3
869.490	684
869.575	274
869.660	1083
869.745	296
869.830	590
869.915	289
870.000	812
870.085	53
870.169	815
870.254	849
870.339	654
870.424	-364
870.509	724
870.593	-145
870.678	890
870.763	421
870.847	712
870.932	-299
871.016	696
871.101	60
871.186	281
871.270	534
871.355	156
871.439	112
871.523	329
871.608	200
871.692	1367
871.777	334
871.861	661
871.945	-287
872.030	-127
872.114	215
872.198	240
872.282	779
872.367	688
872.451	-119
872.535	-7
872.619	85
872.703	844
872.787	339
872.871	688
872.955	-700
873.039	-865
873.123	-134
873.207	391
873.291	161
873.375	-708
873.459	-662
873.543	230
873.627	-123
873.711	982
873.794	-438
873.878	220
873.962	-662
874.045	-630
874.129	216
874.137	263
874.213	734
874.245	414
874.296	-102
874.352	128
874.380	234
874.460	-177
874.464	-193
874.547	613
874.568	492
874.631	113
874.676	161
874.714	217
874.784	260
874.798	260
874.881	1269
874.892	1110
874.965	79
874.999	262
875.048	482
875.107	85
875.131	-69
875.215	615
875.215	615
875.298	36
875.323	264
875.381	784
875.430	890
875.465	995
875.538	322
875.548	219
875.631	486
875.646	366
875.714	-171
875.753	-510
875.798	-882
875.861	-187
875.881	18
875.964	166
875.968	163
876.047	112
876.076	165
876.130	310
876.183	162
876.213	107
876.291	-104
876.296	-128
876.379	293
876.398	178
876.462	-171
876.506	174
876.545	460
876.613	4
876.628	-78
876.711	821
876.721	785
876.794	492
876.828	691
876.877	953
876.935	288
876.960	59
877.043	789
877.043	786
877.125	318
877.150	699
877.208	1541
877.258	538
877.291	-72
877.365	631
877.374	689
877.456	856
877.472	743
877.539	445
877.579	498
877.622	423
877.687	421
877.704	426
877.787	316
877.794	344
877.869	1010
877.901	780
877.952	143
878.008	227
878.034	341
878.115	164
878.117	165
878.199	962
878.222	902
878.282	467
878.329	428
878.364	503
878.437	540
878.447	532
878.529	-153
878.544	-72
878.611	377
878.651	355
878.694	361
878.758	256
878.776	229
878.858	664
878.865	666
878.941	530
878.972	425
879.023	261
879.078	86
879.105	58
879.185	553
879.187	562
879.269	869
879.292	893
879.351	1032
879.399	644
879.433	328
879.506	1064
879.516	1147
879.598	-68
879.613	-76
879.680	267
879.720	513
879.762	475
879.827	241
879.844	270
879.926	46
879.933	156
880.007	1014
880.040	722
880.089	513
880.147	1287
880.171	1485
880.253	3171
880.254	3180
880.335	4708
880.360	4987
880.417	5943
880.467	9040
880.499	11617
880.574	16620
880.580	16634
880.662	7521
880.680	5953
880.744	1600
880.787	532
880.825	317
880.893	187
880.907	134
880.989	885
881.000	835
881.070	315
881.106	244
881.152	154
881.213	-68
881.233	-65
881.315	295
881.319	292
881.396	452
881.426	624
881.478	476
881.532	58
881.559	162
881.639	996
881.641	1004
881.722	563
881.745	651
881.803	888
881.852	420
881.885	150
881.958	494
881.966	575
882.047	836
882.064	1015
882.129	1216
882.171	915
882.210	895
882.277	1773
882.291	1909
882.372	1428
882.383	1330
882.454	862
882.489	872
882.535	617
882.596	334
882.616	273
882.697	89
882.702	84
882.778	414
882.808	480
882.859	665
882.914	893
882.940	841
883.020	297
883.021	300
883.102	650
883.127	701
883.183	316
883.233	226
883.264	568
883.339	647
883.345	598
883.426	354
883.445	251
883.507	335
883.551	671
883.587	685
883.657	277
883.668	320
883.749	1080
883.763	1025
883.830	168
883.869	334
883.910	737
883.975	684
883.991	645
884.072	757
884.081	703
884.152	705
884.187	888
884.233	648
884.292	312
884.314	285
884.394	148
884.398	126
884.475	-113
884.504	-17
884.555	529
884.610	732
884.636	513
884.716	379
884.716	385
884.797	387
884.821	511
884.877	763
884.927	504
884.958	380
885.033	603
885.038	606
885.118	357
885.139	306
885.199	375
885.244	434
885.279	553
885.350	1036
885.359	1068
885.439	837
885.456	794
885.520	589
885.561	590
885.600	783
885.667	1089
885.680	1042
885.760	416
885.773	356
885.840	582
885.878	666
885.920	497
885.984	280
886.000	385
886.080	799
886.089	847
886.160	730
886.195	528
886.240	320
886.300	415
886.320	466
886.400	306
886.406	309
886.480	884
886.511	1064
886.560	912
886.616	732
886.640	709
886.720	428
886.722	422
886.800	458
886.827	487
886.879	564
886.932	443
886.959	645
887.038	1523
887.039	1529
887.119	1214
887.143	1136
887.198	1130
887.248	1170
887.278	948
887.354	227
887.358	240
887.437	500
887.459	561
887.517	1048
887.564	1466
887.596	1327
887.669	966
887.676	972
887.755	952
887.774	941
887.835	898
887.880	924
887.914	988
887.985	922
887.994	942
888.073	1309
888.090	1347
888.153	1488
888.195	1567
888.232	1426
888.300	1094
888.311	1128
888.391	1423
888.405	1456
888.470	619
888.510	132
888.549	579
888.615	1308
888.628	1231
888.708	725
888.720	630
888.787	906
888.825	1085
888.866	882
888.930	547
888.945	671
889.024	1343
889.035	1413
889.103	1187
889.140	1114
889.182	1033
889.245	836
889.261	743
889.340	317
889.349	263
889.419	766
889.454	1034
889.498	869
889.559	612
889.577	786
889.656	1554
889.664	1626
889.735	1112
889.768	867
889.814	1020
889.873	1216
889.978	711
890.083	577
890.187	343
890.292	1101
890.397	578
890.501	978
890.606	116
890.710	1613
890.815	672
890.919	1169
891.024	238
891.128	1541
891.233	1372
891.337	467
891.442	579
891.546	1063
891.650	665
891.755	1382
891.859	1551
891.963	1867
892.068	1162
892.172	1561
892.276	487
892.380	1076
892.484	1188
892.589	1365
892.693	692
892.797	1268
892.901	204
893.005	1326
893.109	1123
893.213	1778
893.317	768
893.421	1838
893.525	780
893.629	956
893.733	1321
893.837	986
893.941	359
894.045	1020
894.148	451
894.252	1777
894.356	599
894.460	957
894.564	1033
894.667	1841
894.771	862
894.875	395
894.978	173
895.082	1087
895.186	1614
895.289	1087
895.393	240
895.496	1391
895.600	497
895.703	1576
895.807	413
895.910	1273
896.014	1386
896.117	1019
896.221	1798
896.324	2172
896.427	1284
896.531	1097
896.634	778
896.737	1303
896.840	209
896.944	529
897.047	786
897.150	641
897.253	321
897.356	944
897.460	1022
897.563	1069
897.666	1704
897.769	1534
897.872	515
897.975	1413
898.078	49
898.181	911
898.284	967
898.387	1095
898.490	1176
898.593	817
898.695	446
898.798	460
898.901	991
899.004	1678
899.107	1091
899.209	1256
899.312	550
899.415	911
899.518	1185
899.620	1053
899.723	840
899.826	1885
899.928	1119
900.031	959
900.133	1155
900.236	1092
900.338	806
900.441	571
900.543	1381
900.646	477
900.748	574
900.851	1747
900.953	116
901.055	603
901.158	871
901.260	1505
901.362	458
901.465	358
901.567	279
901.669	1693
901.771	416
901.873	1300
901.976	408
902.078	335
902.180	45
902.282	1006
902.384	603
902.486	1994
902.588	1702
902.690	787
902.792	854
902.894	1372
902.996	1202
903.098	757
903.200	690
903.302	1278
903.404	1257
903.505	2072
903.607	154
903.709	1234
903.811	1349
903.913	238
904.014	163
904.116	328
904.218	-206
904.319	192
904.421	954
904.523	1391
904.624	699
904.726	986
904.827	1053
904.929	1313
905.030	743
905.132	1297
905.233	908
905.335	902
905.436	473
905.537	993
905.639	1067
905.740	817
905.841	785
905.943	1084
906.044	1220
906.145	831
906.247	886
906.348	854
906.449	319
906.550	2002
906.651	15
906.752	498
906.854	546
906.955	737
907.056	631
907.157	731
907.258	70
907.359	1069
907.460	1274
907.561	14
907.662	365
907.762	1234
907.863	-422
907.964	1147
908.065	1047
908.166	468
908.267	834
908.367	1015
908.468	783
908.569	1411
908.670	1269
908.770	1071
908.871	900
908.971	1020
909.072	901
909.173	509
909.273	316
909.374	152
909.474	496
909.575	809
909.675	480
909.776	673
909.876	1179
909.977	1639
910.077	963
910.177	687
910.278	622
910.378	1065
910.478	556
910.579	1377
910.679	1330
910.779	1004
910.879	1317
910.980	369
911.080	1734
911.180	438
911.280	459
911.380	1302
911.480	937
911.580	1154
911.680	1396
911.780	1022
911.880	1193
911.980	162
912.080	249
912.180	1258
912.280	497
912.380	1269
912.480	1200
912.580	759
912.679	-300
912.779	1578
912.879	842
912.979	1157
913.078	115
913.178	1036
913.278	243
913.377	46
913.477	453
913.577	139
913.676	418
913.776	486
913.875	19
913.975	648
914.074	500
914.174	1531
914.273	-26
914.373	1802
914.472	276
914.572	583
914.671	1075
914.770	1039
914.870	748
914.969	701
915.068	736
915.167	856
915.267	432
915.366	1437
915.465	1037
915.564	-78
915.663	910
915.763	1033
915.862	1681
915.961	462
916.060	3
916.159	1009
916.258	63
916.357	597
916.456	1091
916.555	1417
916.654	1158
916.752	70
916.851	788
916.950	1270
917.049	192
917.148	367
917.247	962
917.345	765
917.444	480
917.543	374
917.642	176
917.740	1171
917.839	930
917.937	1261
918.036	910
918.135	1277
918.233	125
918.332	223
918.430	826
918.529	719
918.627	525
918.726	961
918.824	810
918.923	936
919.021	468
919.119	945
919.218	251
919.316	1172
919.414	429
919.512	1482
919.611	286
919.709	1041
919.807	138
919.905	676
920.003	831
920.102	902
920.200	134
920.298	790
920.396	919
920.494	1282
920.592	-182
920.690	1521
920.788	431
920.886	1200
920.984	980
921.082	-82
921.180	1374
921.277	1236
921.375	1422
921.473	899
921.571	491
921.669	214
921.766	-143
921.864	1377
921.962	1171
922.060	1109
922.157	821
922.255	1357
922.352	687
922.450	1316
922.548	914
922.645	1263
922.743	961
922.840	2059
922.938	1800
923.035	2025
923.133	1742
923.230	2582
923.327	2843
923.425	1979
923.522	1787
923.619	2378
923.717	1524
923.814	2417
923.911	1287
924.008	2237
924.106	1222
924.203	1453
924.300	1471
924.397	1973
924.494	2775
924.591	2378
924.688	1928
924.786	2123
924.883	1804
924.979	1028
925.077	2028
925.173	1343
925.270	1484
925.367	1893
925.464	2553
925.561	2042
925.658	2214
925.755	1392
925.852	2358
925.948	2455
926.045	1824
926.142	2480
926.239	1660
926.335	1073
926.432	2387
926.529	1804
926.625	2089
926.722	2130
926.818	2306
926.915	1729
927.011	1495
927.108	1405
927.204	1322
927.301	1982
927.397	1559
927.494	1954
927.590	1719
927.687	141
927.783	868
927.879	2140
927.976	2405
928.072	996
928.168	1595
928.264	1671
928.361	1254
928.457	1970
928.553	1584
928.649	2057
928.745	1733
928.841	1876
928.937	1391
929.033	1557
929.129	1746
929.225	1590
929.321	1796
929.417	1112
929.513	1043
929.609	1137
929.705	1466
929.801	1173
929.897	1109
929.993	1212
930.089	1903
930.184	1067
930.280	1302
930.376	1807
930.471	1327
930.567	1056
930.663	912
930.758	1358
930.854	806
930.950	1299
931.045	783
931.141	873
931.236	1517
931.332	994
931.427	670
931.523	1979
931.618	1768
931.714	1380
931.809	1281
931.905	1307
932.000	351
932.095	703
932.191	999
932.286	2113
932.381	745
932.476	1299
932.572	1173
932.667	1577
932.762	1054
932.857	1628
932.952	839
933.047	796
933.142	922
933.237	1684
933.332	1013
933.427	1952
933.522	188
933.617	1683
933.712	931
933.807	1585
933.902	1113
933.997	1674
934.092	812
934.187	839
934.282	1139
934.376	717
934.471	1035
934.566	341
934.661	629
934.755	971
934.850	1076
934.945	1270
935.039	413
935.134	809
935.228	1487
935.323	1494
935.417	1866
935.512	837
935.606	233
935.701	851
935.795	976
935.890	364
935.984	657
936.079	922
936.173	626
936.267	1161
936.362	642
936.456	1542
936.550	645
936.644	1797
936.738	509
936.833	1073
936.927	550
937.021	894
937.115	713
937.209	640
937.303	568
937.397	1194
937.491	1386
937.585	1735
937.679	974
937.773	766
937.867	890
937.961	530
938.055	455
938.149	1003
938.243	601
938.337	513
938.430	661
938.524	1145
938.618	579
938.712	2112
938.805	1078
938.899	1071
938.993	1284
939.086	1038
939.180	999
939.274	1635
939.367	1419
939.461	532
939.554	1273
939.648	898
939.741	535
939.835	1043
939.928	1130
940.022	1683
940.115	252
940.208	1346
940.302	1362
940.395	1605
940.488	187
940.582	1279
940.675	189
940.768	688
940.861	1552
940.954	1349
941.048	-301
941.141	605
941.234	579
941.327	1824
941.420	2326
941.513	1958
941.606	665
941.699	698
941.792	502
941.885	475
941.978	1319
942.071	403
942.164	-44
942.257	573
942.349	398
942.442	1180
942.535	-158
942.628	1288
942.721	651
942.813	352
942.906	660
942.999	365
943.091	-488
943.184	948
943.277	515
943.369	712
943.462	230
943.554	1022
943.647	-100
943.739	929
943.832	1197
943.924	-31
944.017	660
944.109	104
944.201	-152
944.294	1131
944.386	338
944.478	37
944.571	972
944.663	353
944.755	514
944.847	819
944.940	267
945.032	467
945.124	-87
945.216	929
945.308	525
945.400	1369
945.492	385
945.584	628
945.676	807
945.768	1398
945.860	502
945.952	1306
946.044	952
946.136	524
946.228	260
946.320	480
946.412	9
946.503	936
946.595	1176
946.687	-62
946.779	-312
946.870	178
946.962	-335
947.054	726
947.145	1169
947.237	727
947.329	211
947.420	-75
947.512	419
947.603	408
947.695	299
947.786	410
947.878	-249
947.969	886
948.061	11
948.152	267
948.243	29
948.335	-121
948.426	220
948.517	35
948.609	25
948.700	610
948.791	395
948.882	157
948.973	42
949.065	-141
949.156	-240
949.247	563
949.338	-272
949.429	-205
949.520	-43
949.611	62
949.702	-95
949.793	836
949.884	560
949.975	-214
950.066	702
950.157	239
950.247	-84
950.338	31
950.429	372
950.520	637
950.611	377
950.701	965
950.792	493
950.883	449
950.973	465
951.064	591
951.155	426
951.245	442
951.336	326
951.427	480
951.517	247
951.608	687
951.698	-125
951.788	826
951.879	-339
951.969	-276
952.060	-63
952.150	-78
952.240	-21
952.331	-416
952.421	968
952.511	-348
952.602	137
952.692	-420
952.782	-727
952.872	-41
952.962	269
953.052	-355
953.143	-656
953.233	216
953.323	18
953.413	209
953.503	386
953.593	454
953.683	-1000
953.773	-894
953.863	93
953.953	-144
954.042	-156
954.132	-328
954.222	46
954.312	-144
954.402	239
954.492	-44
954.581	528
954.671	215
954.761	-758
954.850	295
954.940	-628
955.030	-1067
955.119	238
955.209	264
955.298	-756
955.388	-428
955.477	215
955.567	-539
955.656	330
955.746	589
955.835	10
955.925	487
956.014	35
956.103	572
956.193	113
956.282	455
956.371	350
956.461	121
956.550	-61
956.639	45
956.728	-43
956.817	748
956.906	-96
956.995	154
957.085	172
957.174	237
957.263	22
957.352	-385
957.441	-908
957.530	-390
957.619	-621
957.708	-341
957.796	-1118
957.885	-10
957.974	447
958.063	3
958.152	-867
958.241	351
958.329	-853
958.418	-541
958.507	-429
958.596	782
958.684	-699
958.773	740
958.861	-456
958.950	192
959.039	-419
959.127	-22
959.216	933
959.304	582
959.393	-52
959.481	429
959.570	-577
959.658	944
959.746	-175
959.835	652
959.923	1409
960.011	560
960.100	76
960.188	485
960.276	-95
960.365	-299
960.453	-621
960.541	54
960.629	-1031
960.717	166
960.805	-1093
960.893	-384
960.981	-1694
961.069	667
961.158	-414
961.245	-90
961.333	-81
961.421	-205
961.509	-456
961.597	115
961.685	-1039
961.773	-610
961.861	-1110
961.949	-328
962.036	-727
962.124	231
962.212	-470
962.299	-38
962.387	-715
962.475	-256
962.562	-755
962.650	-240
962.738	-566
962.825	-234
962.913	-195
963.000	-699
963.088	59
963.175	263
963.263	-373
963.350	-78
963.438	185
963.525	641
963.612	1413
963.700	2135
963.787	7364
963.874	4704
963.962	524
964.049	-32
964.136	-227
964.223	-666
964.310	-365
964.398	-699
964.485	-862
964.572	-42
964.659	473
964.746	1224
964.833	-462
964.920	-584
965.007	-844
965.094	605
965.181	-897
965.268	186
965.355	-189
965.441	-267
965.528	-1086
965.615	75
965.702	-866
965.789	-1190
965.875	-532
965.962	-185
966.049	-1582
966.136	229
966.222	-1218
966.309	415
966.395	-729
966.482	-88
966.569	-813
966.655	-439
966.742	-155
966.828	10
966.915	117
967.001	-30
967.087	-888
967.174	-31
967.260	-189
967.347	641
967.433	1089
967.519	4133
967.605	2546
967.692	97
967.778	-104
967.864	-676
967.950	-375
968.036	-900
968.123	-554
968.209	-838
968.295	-859
968.381	1027
968.467	-185
968.553	-1721
968.639	26
968.725	-414
968.811	87
968.897	1280
968.983	-713
969.069	-721
969.154	-656
969.240	166
969.326	-1383
969.412	-945
969.497	-1344
969.583	-637
969.669	-644
969.755	729
969.840	139
969.926	619
970.012	-557
970.097	508
970.183	-462
970.268	366
970.354	-864
970.439	611
970.525	3260
970.610	484
970.696	175
970.781	-527
970.866	-882
970.952	-437
971.037	-449
971.122	42
971.208	-787
971.293	-972
971.378	-959
971.463	167
971.549	-520
971.634	-352
971.719	-859
971.804	-266
971.889	41
971.974	-1110
972.059	192
972.144	-1036
972.229	-649
972.314	-830
972.399	-57
972.484	-1337
972.569	-787
972.654	-312
972.739	-41
972.824	967
972.908	-31
972.993	-679
973.078	-115
973.163	-370
973.247	-736
973.332	-1285
973.417	-47
973.501	-668
973.586	-1015
973.671	-317
973.755	-588
973.840	-2
973.924	-587
974.009	-290
974.093	588
974.178	277
974.262	180
974.346	835
974.431	-716
974.515	-312
974.600	-297
974.684	409
974.768	-954
974.852	81
974.937	-459
975.021	108
975.105	-786
975.189	-475
975.273	-382
975.358	-583
975.442	-303
975.526	21
975.610	-1487
975.694	-1634
975.778	15
975.862	-707
975.946	-2107
976.030	257
976.114	-581
976.198	-376
976.281	-382
976.365	399
976.449	-1013
976.533	-414
976.617	-783
976.700	-1089
976.784	-719
976.868	-553
976.951	-60
977.035	-469
977.119	81
977.202	-122
977.286	-495
977.369	-404
977.453	177
977.536	-260
977.620	-1013
977.703	-369
977.787	-952
977.870	907
977.953	-57
978.037	-1504
978.120	-98
978.203	-91
978.287	1108
978.370	927
978.453	-523
978.536	-347
978.620	12
978.703	301
978.786	-498
978.869	87
978.952	-2481
979.035	541
979.118	-403
979.201	-540
979.284	-120
979.367	-878
979.450	-94
979.533	-857
979.616	-1091
979.699	395
979.782	-347
979.865	-489
979.948	-584
980.030	-215
980.113	-193
980.196	-996
980.279	-211
980.361	-980
980.444	-1390
980.526	-601
980.609	-1090
980.692	-366
980.774	-649
980.857	-728
980.939	369
981.022	-160
981.104	-486
981.187	-232
981.269	-57
981.352	-62
981.434	-1606
981.516	-1352
981.599	-73
981.681	-47
981.763	-908
981.846	-651
981.928	-813
982.010	25
982.092	-1837
982.174	436
982.256	-501
982.339	-339
982.421	-637
982.503	767
982.585	-1361
982.667	41
982.749	-476
982.831	-242
982.913	-1155
982.995	-110
983.077	-1226
983.158	903
983.240	-1095
983.322	-272
983.404	112
983.486	-64
983.568	725
983.649	-721
983.731	-103
983.813	-266
983.894	299
983.976	-1082
984.058	-447
984.139	813
984.221	-878
984.302	-159
984.384	-777
984.465	-141
984.547	-278
984.628	-456
984.710	357
984.791	-41
984.872	-855
984.954	-13
985.035	-452
985.116	-655
985.198	-476
985.279	-24
985.360	-204
985.441	-170
985.522	118
985.604	-446
985.685	-1027
985.766	672
985.847	960
985.928	-1397
986.009	-397
986.090	-133
986.171	323
986.252	-670
986.333	-956
986.414	352
986.495	-637
986.576	-452
986.656	20
986.737	111
986.818	-686
986.899	-733
986.980	-418
987.060	489
987.141	-822
987.222	81
987.302	-319
987.383	379
987.464	-742
987.544	281
987.625	-343
987.705	831
987.786	-90
987.866	-720
987.947	67
988.027	254
988.108	-316
988.188	304
988.268	136
988.349	179
988.429	-367
988.509	537
988.589	-543
988.670	-1436
988.750	460
988.830	-364
988.910	-480
988.990	-220
989.070	-295
989.151	-144
989.231	-816
989.311	381
989.391	43
989.471	532
989.551	-472
989.631	-276
989.711	-585
989.791	-711
989.870	-455
989.950	928
990.030	-995
990.110	-20
990.190	-1092
990.269	-366
990.349	-179
990.429	526
990.509	634
990.588	-956
990.668	-35
990.747	-617
990.827	-668
990.907	731
990.986	-367
991.066	1069
991.145	-324
991.225	63
991.304	-368
991.383	386
991.463	-824
991.542	50
991.622	-142
991.701	-290
991.780	-365
991.859	74
991.939	-375
992.018	82
992.097	-376
992.176	471
992.256	185
992.335	-740
992.414	192
992.493	4
992.572	-729
992.651	813
992.730	-805
992.809	160
992.888	-182
992.967	-273
993.046	354
993.125	-1683
993.203	-96
993.282	561
993.361	9
993.440	-611
993.519	-2212
993.597	-353
993.676	-348
993.755	-20
993.834	-1127
993.912	-141
993.991	444
994.069	-259
994.148	70
994.226	-942
994.305	-234
994.384	-1156
994.462	-34
994.540	-742
994.619	-320
994.697	337
994.776	-919
994.854	-196
994.932	-786
995.011	144
995.089	-93
995.167	544
995.245	-260
995.324	-725
995.402	-170
995.480	-887
995.558	-51
995.636	-960
995.714	-863
995.792	211
995.870	-720
995.948	-681
996.026	-1136
996.104	-1025
996.182	-145
996.260	-217
996.338	-893
996.416	-830
996.494	-966
996.572	443
996.649	-1040
996.727	-808
996.805	-328
996.883	-619
996.960	-919
997.038	-581
997.116	-399
997.193	-870
997.271	99
997.348	-351
997.426	-477
997.504	-531
997.581	-281
997.658	141
997.736	-1836
997.813	-1094
997.891	-781
997.968	-74
998.046	-537
998.123	-1346
998.200	-510
998.277	-1607
998.355	-417
998.432	-1297
998.509	-732
998.586	94
998.663	-524
998.741	-594
998.818	-595
998.895	-1028
998.972	89
999.049	-187
999.126	-522
999.203	-277
999.280	-419
999.357	-587
999.434	-570
999.511	-514
999.587	637
999.664	-1007
999.741	-1262
999.818	240
999.895	-771
999.971	195
1000.048	-802
1000.125	-88
1000.202	-672
1000.278	-1042
1000.355	-708
1000.431	-279
1000.508	-610
1000.584	-591
1000.661	-692
1000.738	-1421
1000.814	-1045
1000.890	365
1000.967	-899
1001.043	-376
1001.120	-1110
1001.196	-156
1001.272	-927
1001.349	-624
1001.425	111
1001.501	-504
1001.577	-1259
1001.654	-518
1001.730	-1415
1001.806	-464
1001.882	-1572
1001.958	-37
1002.034	-27
1002.110	-382
1002.186	-451
1002.262	-892
1002.338	-514
1002.414	-368
1002.490	-515
1002.566	-1044
1002.642	-1419
1002.718	-552
1002.794	-480
1002.870	-126
1002.945	-220
1003.021	-1235
1003.097	-716
1003.173	-382
1003.248	-1048
1003.324	-1200
1003.400	-782
1003.475	-1444
1003.551	-383
1003.626	-229
1003.702	-776
1003.777	-837
1003.853	-853
1003.928	-844
1004.004	-1399
1004.079	-162
1004.155	-778
1004.230	-985
1004.305	-86
1004.381	-978
1004.456	-1011
1004.531	-738
1004.607	-1343
1004.682	-198
1004.757	-639
1004.832	-477
1004.907	-1454
1004.982	-281
1005.057	-245
1005.133	-741
1005.208	-1068
1005.283	-726
1005.358	-893
1005.433	-811
1005.508	-251
1005.583	-641
1005.657	-1483
1005.732	-510
1005.807	-1949
1005.882	-1305
1005.957	-771
1006.032	-663
1006.106	-811
1006.181	-459
1006.256	-376
1006.331	-1162
1006.405	-1464
1006.480	-1059
1006.554	-669
1006.629	-235
1006.704	-2121
1006.778	-514
1006.853	-436
1006.927	-852
1007.002	-1145
1007.076	92
1007.150	-1684
1007.225	-1511
1007.299	-1311
1007.373	-784
1007.448	-927
1007.522	99
1007.596	-994
1007.671	-1547
1007.745	-633
1007.819	-1357
1007.893	-1094
1007.967	-270
1008.041	-1678
1008.115	-592
1008.190	-1718
1008.264	-1074
1008.338	-2369
1008.412	-1202
1008.486	-1232
1008.560	-888
1008.633	-1550
1008.707	-785
1008.781	-1355
1008.855	-753
1008.929	-1226
1009.003	-1091
1009.076	-1343
1009.150	-1083
1009.224	-1817
1009.298	-1225
1009.371	-381
1009.445	-610
1009.519	-1982
1009.592	-1194
1009.666	-472
1009.739	-1617
1009.813	-1467
1009.886	-175
1009.960	-2296
1010.033	-1049
1010.107	-937
1010.180	-1124
1010.253	-1417
1010.327	-1338
1010.400	-1438
1010.473	-1280
1010.547	-414
1010.620	-1707
1010.693	-1203
1010.766	-434
1010.840	-535
1010.913	-1209
1010.986	-1509
1011.059	-1294
1011.132	-1574
1011.205	-998
1011.278	-1207
1011.351	-1070
1011.424	-854
1011.497	-1490
1011.570	-1296
1011.643	-1209
1011.716	-1519
1011.789	-1173
1011.862	-1549
1011.934	-820
1012.007	-1685
1012.080	-810
1012.153	-1303
1012.225	-120
1012.298	-1568
1012.371	-1233
1012.443	-1637
1012.516	-1685
1012.588	-460
1012.661	-694
1012.733	-1374
1012.806	-512
1012.879	-1530
1012.951	-1189
1013.023	-1737
1013.096	-1130
1013.168	-1635
1013.241	-518
1013.313	-1080
1013.385	-1354
1013.458	-1419
1013.530	-998
1013.602	-1813
1013.674	-872
1013.746	-1390
1013.819	-1178
1013.891	-883
1013.963	-1389
1014.035	-1382
1014.107	-1522
1014.179	-516
1014.251	-1390
1014.323	-736
1014.395	-1777
1014.467	-807
1014.539	-160
1014.611	-1780
1014.683	-1651
1014.754	-1113
1014.826	-1374
1014.898	-1973
1014.970	-1580
1015.042	-1290
1015.113	-885
1015.185	-604
1015.257	-1422
1015.328	-685
1015.400	-1428
1015.471	-698
1015.543	-1670
1015.615	-1357
1015.686	-1566
1015.757	-1594
1015.829	-603
1015.901	-807
1015.972	-1080
1016.043	-1484
1016.115	-935
1016.186	-1134
1016.257	-1601
1016.328	-850
1016.400	-547
1016.471	-1445
1016.542	-1094
1016.613	-1127
1016.685	-1477
1016.756	-377
1016.827	-1467
1016.898	-2143
1016.969	-777
1017.040	-1955
1017.111	-940
1017.182	-1856
1017.253	-967
1017.324	-1513
1017.395	-769
1017.466	-420
1017.537	-345
1017.608	-1092
1017.678	-877
1017.749	-1105
1017.820	-1238
1017.891	-1772
1017.961	-1574
1018.032	-2279
1018.103	-621
1018.173	-629
1018.244	-1011
1018.315	-1310
1018.385	-155
1018.456	-1475
1018.526	-1005
1018.597	-2123
1018.667	-1492
1018.738	-1034
1018.808	-1359
1018.878	-1236
1018.949	-1190
1019.019	-756
1019.089	-1151
1019.160	-656
1019.230	-2036
1019.300	-1103
1019.371	-1945
1019.441	-994
1019.511	-796
1019.581	-828
1019.651	-516
1019.721	-1162
1019.791	-1325
1019.861	-1548
1019.931	-491
1020.001	-1519
1020.071	-1212
1020.141	-1965
1020.211	-1178
1020.281	-1250
1020.351	-1579
1020.421	-827
1020.491	-557
1020.560	-1280
1020.630	-1186
1020.700	-1131
1020.770	-1169
1020.839	-1473
1020.909	-1018
1020.979	-1893
1021.048	-158
1021.118	-1196
1021.187	-797
1021.257	-1615
1021.326	-572
1021.396	-1281
1021.465	-574
1021.535	-1733
1021.604	-2065
1021.674	-1707
1021.743	-1056
1021.812	-1177
1021.882	-1167
1021.951	-872
1022.020	-788
1022.089	-1140
1022.159	-1486
1022.228	-1279
1022.297	-1146
1022.366	-1358
1022.435	-916
1022.504	-1273
1022.573	-1160
1022.642	-1383
1022.711	-1257
1022.781	-1070
1022.849	-739
1022.918	-1267
1022.987	-508
1023.056	-1662
1023.125	-1425
1023.194	-968
1023.263	28
1023.331	-443
1023.400	-1759
1023.469	-1457
1023.538	-374
1023.606	-1356
1023.675	-1235
1023.744	-1896
1023.812	-1545
1023.881	-1289
1023.949	-940
1024.018	-1606
1024.086	-1275
1024.155	-1184
1024.223	-1225
1024.292	-1209
1024.360	-1309
1024.429	-1053
1024.497	-1823
1024.565	-1368
1024.634	-351
1024.702	-1295
1024.770	-2063
1024.838	-1641
1024.907	-940
1024.975	-1016
1025.043	-1082
1025.111	-1576
1025.179	-527
1025.247	-1421
1025.315	-1086
1025.383	-1897
1025.451	-985
1025.519	-1688
1025.587	-1519
1025.655	-981
1025.723	-1874
1025.791	-1619
1025.859	-552
1025.927	-1191
1025.995	-1483
1026.062	-1822
1026.130	-1425
1026.198	-1267
1026.266	-1208
1026.333	-1415
1026.401	-1482
1026.469	-1388
1026.536	-1062
1026.604	-1413
1026.671	-2038
1026.739	-1618
1026.806	-1577
1026.874	-1359
1026.941	-1189
1027.009	-1315
1027.076	-871
1027.144	-1053
1027.211	-2275
1027.278	-1487
1027.345	-834
1027.413	-1844
1027.480	-1301
1027.547	-1483
1027.614	-947
1027.682	-1263
1027.749	-1003
1027.816	-1277
1027.883	-1880
1027.950	-2081
1028.017	-1368
1028.084	-2170
1028.151	-2513
1028.218	-1409
1028.285	-1691
1028.352	-1538
1028.419	-1072
1028.486	-1809
1028.553	-1417
1028.619	-1619
1028.686	-1207
1028.753	-2305
1028.820	-1034
1028.886	-1826
1028.953	-851
1029.020	-1188
1029.086	-906
1029.153	-1451
1029.220	-1233
1029.286	-1559
1029.353	-1518
1029.419	-2145
1029.486	-850
1029.552	-1497
1029.619	-2063
1029.685	-2336
1029.751	-1158
1029.818	-1084
1029.884	-1608
1029.951	-1191
1030.017	-1476
1030.083	-1084
1030.149	-1285
1030.216	-1725
1030.282	-1398
1030.348	-1932
1030.414	-1467
1030.480	-1831
1030.546	-1465
1030.612	-1575
1030.678	-1614
1030.744	-1240
1030.810	-1272
1030.876	-1845
1030.942	-1630
1031.008	-1614
1031.074	-539
1031.140	-1679
1031.206	-696
1031.272	-1996
1031.337	-1363
1031.403	-1486
1031.469	-1869
1031.534	-2845
1031.600	-967
1031.666	-1448
1031.731	-1727
1031.797	-2202
1031.863	-1229
1031.928	-2142
1031.994	-1990
1032.059	-1641
1032.125	-1740
1032.190	-1800
1032.256	-1594
1032.321	-2222
1032.386	-1039
1032.452	-1829
1032.517	-1097
1032.582	-2166
1032.647	-1597
1032.713	-1760
1032.778	-2033
1032.843	-2081
1032.908	-1824
1032.974	-1231
1033.039	-2022
1033.104	-1648
1033.169	-2265
1033.234	-2076
1033.299	-990
1033.364	-1312
1033.429	-1133
1033.494	-965
1033.559	-1501
1033.624	-2101
1033.688	-1014
1033.753	-2051
1033.818	-1630
1033.883	-2562
1033.948	-1302
1034.013	-1822
1034.077	-1483
1034.142	-1482
1034.207	-1374
1034.271	-885
1034.336	-425
1034.400	-899
1034.465	-654
1034.530	-709
1034.594	-1625
1034.658	-1823
1034.723	-2307
1034.787	-1462
1034.852	-1408
1034.916	-1856
1034.981	-2130
1035.045	-1385
1035.109	-942
1035.173	-1133
1035.238	-1872
1035.302	-1821
1035.366	-1564
1035.430	-1679
1035.495	-1662
1035.559	-1533
1035.623	-1687
1035.687	-2221
1035.751	-902
1035.815	-1750
1035.879	-1874
1035.943	-2065
1036.007	-2935
1036.071	-2398
1036.135	-1667
1036.198	-1650
1036.262	-1618
1036.326	-1730
1036.390	-1917
1036.454	-1872
1036.517	-1481
1036.581	-1386
1036.645	-820
1036.709	-730
1036.772	-1430
1036.836	-1954
1036.900	-1460
1036.963	-2622
1037.026	-2353
1037.090	-1670
1037.154	-2214
1037.217	-1924
1037.280	-1932
1037.344	-1410
1037.407	-1940
1037.471	-2393
1037.534	-2529
1037.597	-1768
1037.661	-2125
1037.724	-1738
1037.787	-1776
1037.850	-2413
1037.913	-2312
1037.977	-2128
1038.040	-1471
1038.103	-766
1038.166	-1195
1038.229	-1743
1038.292	-2181
1038.355	-1899
1038.418	-2060
1038.481	-1501
1038.544	-1541
1038.607	-2390
1038.670	-1553
1038.732	-1603
1038.795	-2115
1038.858	-2122
1038.921	-1346
1038.984	-1145
1039.046	-1883
1039.109	-2756
1039.172	-911
1039.234	-1831
1039.297	-1475
1039.360	-1769
1039.422	-2383
1039.485	-2603
1039.547	-1904
1039.610	-2325
1039.672	-3006
1039.734	-2739
1039.797	-2282
1039.859	-2429
1039.922	-1757
1039.984	-1945
1040.046	-1025
1040.109	-2547
1040.171	-2576
1040.233	-1906
1040.295	-2480
1040.358	-1765
1040.420	-1830
1040.482	-2259
1040.544	-1817
1040.606	-2529
1040.668	-1592
1040.730	-2387
1040.792	-1271
1040.854	-1747
1040.916	-1234
1040.978	-1519
1041.040	-1406
1041.102	-1640
1041.164	-2232
1041.225	-1588
1041.287	-1775
1041.349	-1930
1041.411	-1657
1041.472	-1867
1041.534	-2464
1041.596	-2136
1041.657	-1382
1041.719	-1056
1041.781	-1509
1041.842	-2772
1041.904	-1399
1041.965	-1900
1042.027	-1570
1042.088	-1533
1042.150	-1207
1042.211	-1878
1042.272	-1752
1042.334	-2135
1042.395	-2162
1042.456	-1701
1042.518	-1334
1042.579	-1273
1042.640	-1566
1042.701	-2399
1042.763	-1472
1042.824	-2109
1042.885	-1689
1042.946	-2324
1043.007	-1092
1043.068	-1593
1043.129	-1630
1043.190	-2497
1043.251	-1062
1043.312	-2220
1043.373	-1451
1043.434	-1867
1043.495	-2234
1043.556	-1263
1043.616	-800
1043.677	-2031
1043.738	-1557
1043.799	-2154
1043.859	-1246
1043.920	-2000
1043.981	-1538
1044.041	-2016
1044.102	-1492
1044.162	-988
1044.223	-1665
1044.284	-2359
1044.344	-1098
1044.405	-2035
1044.465	-2177
1044.525	-2006
1044.586	-1356
1044.646	-2153
1044.707	-1091
1044.767	-1342
1044.827	-1547
1044.887	-2167
1044.948	-1554
1045.008	-1916
1045.068	-1353
1045.128	-1457
1045.188	-1364
1045.249	-1340
1045.309	-1145
1045.369	-1543
1045.429	-1009
1045.489	-1305
1045.549	-1418
1045.609	-1582
1045.669	-1441
1045.729	-2207
1045.789	-2039
1045.848	-1823
1045.908	-1618
1045.968	-1063
1046.028	-980
1046.088	-1487
1046.147	-523
1046.207	-1807
1046.267	-775
1046.326	-1426
1046.386	-1389
1046.446	-636
1046.505	-325
1046.565	-990
1046.624	-661
1046.684	-1016
1046.743	-650
1046.803	-621
1046.862	624
1046.922	0
