'Start Wavelength	183.907
'End Wavelength	1046.922
'Gate Delay	5.000
'Gate Width (ms)	1.050
'Laser Output Level	0.000
'X Position	0.000
'Y Position	0.000
'Z Position	0.000
'Grid Point Number	1.000
'Shot Number	100.000
183.907	66.000
183.977	325.000
184.047	-119
184.116	690
184.186	-469
184.256	-295
184.325	171
184.395	-493
184.465	488
184.534	354
184.604	-258
184.674	185
184.743	-241
184.813	708
184.883	-76
184.952	85
185.022	-115
185.092	-598
185.161	-352
185.231	558
185.301	285
185.370	-361
185.440	297
185.509	-117
185.579	414
185.649	421
185.718	-110
185.788	615
185.857	-359
185.927	-585
185.996	247
186.066	728
186.136	-167
186.205	26
186.275	501
186.344	-165
186.414	119
186.483	-421
186.553	669
186.622	119
186.692	-481
186.761	-542
186.831	659
186.900	-32
186.970	-273
187.039	-165
187.109	231
187.178	573
187.248	495
187.317	248
187.387	-190
187.456	-602
187.526	0
187.595	38
187.664	218
187.734	182
187.803	181
187.873	-253
187.942	557
188.012	29
188.081	-508
188.150	-15
188.220	256
188.289	-80
188.358	382
188.428	-344
188.497	-125
188.567	435
188.636	-203
188.705	531
188.775	346
188.844	-410
188.913	93
188.983	244
189.052	-238
189.121	-769
189.191	-846
189.260	311
189.329	-91
189.399	-122
189.468	535
189.537	-129
189.606	-251
189.676	-389
189.745	-127
189.814	1081
189.883	-9
189.953	77
190.022	273
190.091	562
190.161	1141
190.230	477
190.299	-149
190.368	44
190.437	-558
190.507	-75
190.576	76
190.645	481
190.714	336
190.783	-466
190.853	1024
190.922	611
190.991	-482
191.060	727
191.129	-399
191.198	367
191.268	-234
191.337	-337
191.406	576
191.475	107
191.544	-86
191.613	6
191.682	-288
191.752	377
191.821	275
191.890	-288
191.959	535
192.028	503
192.097	152
192.166	-284
192.235	-297
192.304	-231
192.373	421
192.442	82
192.511	-454
192.580	-270
192.650	608
192.719	-374
192.788	-397
192.857	-147
192.926	13
192.995	-456
193.064	-131
193.133	397
193.202	411
193.271	680
193.340	-311
193.409	-325
193.478	710
193.547	259
193.615	760
193.684	730
193.753	66
193.822	1214
193.891	-341
193.960	420
194.029	1117
194.098	-248
194.167	-426
194.236	557
194.305	-307
194.374	284
194.443	-549
194.512	608
194.580	212
194.649	-65
194.718	545
194.787	-422
194.856	-358
194.925	381
194.994	-376
195.062	527
195.131	649
195.200	349
195.269	847
195.338	227
195.407	127
195.475	-245
195.544	629
195.613	828
195.682	102
195.751	527
195.819	-211
195.888	601
195.957	284
196.026	260
196.094	540
196.163	-69
196.232	701
196.301	-87
196.369	747
196.438	-181
196.507	428
196.576	-250
196.644	-540
196.713	408
196.782	-210
196.850	121
196.919	-514
196.988	39
197.056	-238
197.125	200
197.194	33
197.262	-169
197.331	175
197.400	-692
197.468	131
197.537	226
197.606	185
197.674	322
197.743	1515
197.812	-316
197.880	958
197.949	363
198.017	1415
198.086	92
198.155	-145
198.223	173
198.292	704
198.360	-72
198.429	-8
198.497	-238
198.566	153
198.635	1045
198.703	674
198.772	382
198.840	921
198.909	528
198.977	476
199.046	-52
199.114	353
199.183	198
199.251	583
199.320	-410
199.388	174
199.457	-3
199.525	263
199.594	207
199.662	-446
199.731	27
199.799	-34
199.867	-200
199.936	-69
200.004	709
200.073	607
200.141	-146
200.210	-540
200.278	-774
200.346	312
200.415	183
200.483	796
200.552	422
200.620	437
200.688	259
200.757	-207
200.825	-20
200.893	-114
200.962	-39
201.030	229
201.098	-162
201.167	-33
201.235	347
201.303	331
201.372	-339
201.440	-652
201.508	684
201.577	467
201.645	298
201.713	9
201.781	-342
201.850	660
201.918	208
201.986	-38
202.055	219
202.123	-112
202.191	-122
202.259	371
202.327	-286
202.396	-359
202.464	-525
202.532	-297
202.600	1493
202.669	200
202.737	25
202.805	-47
202.873	265
202.941	-269
203.009	-106
203.078	-262
203.146	-957
203.214	93
203.282	-176
203.350	536
203.418	58
203.487	-450
203.555	632
203.623	544
203.691	77
203.759	110
203.827	217
203.895	655
203.963	-149
204.031	351
204.099	773
204.168	-295
204.236	-191
204.304	210
204.372	886
204.440	-570
204.508	252
204.576	-147
204.644	755
204.712	-787
204.780	-505
204.848	473
204.916	428
204.984	-26
205.052	781
205.120	-108
205.188	40
205.256	-114
205.324	770
205.392	434
205.460	354
205.528	-818
205.596	493
205.664	-178
205.732	-267
205.799	1237
205.867	1652
205.935	-1
206.003	145
206.071	-27
206.139	-286
206.207	361
206.275	-57
206.343	-36
206.411	748
206.478	-275
206.546	193
206.614	174
206.682	-403
206.750	685
206.818	349
206.885	366
206.953	-569
207.021	1084
207.089	358
207.157	-138
207.225	70
207.292	82
207.360	129
207.428	578
207.496	17
207.563	-465
207.631	386
207.699	186
207.767	-747
207.834	-606
207.902	54
207.970	78
208.038	4
208.105	-218
208.173	847
208.241	190
208.309	1188
208.376	735
208.444	1045
208.512	-109
208.579	-313
208.647	-3
208.715	121
208.782	-6
208.850	380
208.918	334
208.985	108
209.053	-78
209.120	553
209.188	137
209.256	-49
209.323	-264
209.391	847
209.459	1647
209.526	-101
209.594	324
209.661	756
209.729	334
209.796	681
209.864	230
209.932	-246
209.999	1237
210.067	595
210.134	830
210.202	299
210.269	499
210.337	572
210.404	-177
210.472	299
210.539	874
210.607	-708
210.674	543
210.742	-182
210.809	197
210.877	5
210.944	1236
211.012	40
211.079	1351
211.146	210
211.214	55
211.281	428
211.349	50
211.416	163
211.484	1050
211.551	-128
211.618	254
211.686	-187
211.753	-558
211.821	607
211.888	-382
211.955	423
212.023	52
212.090	286
212.157	304
212.225	733
212.292	1155
212.359	2049
212.427	5508
212.494	2238
212.561	1136
212.629	69
212.696	523
212.763	756
212.831	-84
212.898	251
212.965	72
213.032	237
213.100	253
213.167	16
213.234	568
213.301	160
213.369	257
213.436	12
213.503	125
213.570	741
213.638	623
213.705	88
213.772	-531
213.839	448
213.906	861
213.973	1004
214.041	-151
214.108	1088
214.175	517
214.242	219
214.309	539
214.376	-397
214.444	-416
214.511	670
214.578	386
214.645	421
214.712	507
214.779	746
214.846	85
214.913	1185
214.980	811
215.048	883
215.115	1085
215.182	558
215.249	840
215.316	536
215.383	819
215.450	674
215.517	319
215.584	62
215.651	43
215.718	1081
215.785	339
215.852	65
215.919	901
215.986	424
216.053	587
216.120	-546
216.187	809
216.254	1211
216.321	996
216.388	625
216.455	701
216.522	689
216.589	1406
216.656	1464
216.722	881
216.789	848
216.856	1331
216.923	437
216.990	1273
217.057	1184
217.124	1445
217.191	1015
217.258	1489
217.324	1795
217.391	1558
217.458	1508
217.525	912
217.592	1050
217.659	-19
217.725	173
217.792	1592
217.859	1131
217.926	758
217.993	500
218.059	969
218.126	-136
218.193	492
218.260	111
218.327	223
218.393	119
218.460	131
218.527	208
218.594	270
218.660	1157
218.727	1161
218.794	49
218.860	289
218.927	450
218.994	-59
219.061	99
219.127	-37
219.194	1348
219.261	40
219.327	343
219.394	1167
219.461	183
219.527	-148
219.594	1593
219.661	442
219.727	-621
219.794	727
219.860	-540
219.927	1110
219.994	516
220.060	1945
220.127	1441
220.193	775
220.260	384
220.326	940
220.393	2130
220.460	3240
220.526	2039
220.593	915
220.659	1870
220.726	873
220.792	2207
220.859	1917
220.925	3618
220.992	5665
221.058	4951
221.125	3941
221.191	2956
221.258	1346
221.324	633
221.391	753
221.457	994
221.524	1097
221.590	1470
221.657	3639
221.723	1982
221.789	1977
221.856	2370
221.922	128
221.989	582
222.055	1045
222.121	-57
222.188	1724
222.254	229
222.321	15
222.387	228
222.453	892
222.520	61
222.586	159
222.652	-180
222.719	-651
222.785	319
222.851	-83
222.918	203
222.984	284
223.050	280
223.116	-661
223.183	658
223.249	51
223.315	-278
223.382	60
223.448	624
223.514	-437
223.580	-196
223.647	190
223.713	-17
223.779	50
223.845	461
223.911	-395
223.978	-617
224.044	645
224.110	105
224.176	-130
224.242	-433
224.309	-157
224.375	205
224.441	91
224.507	414
224.573	-18
224.639	453
224.705	-367
224.772	150
224.838	-24
224.904	408
224.970	351
225.036	-353
225.102	196
225.168	289
225.234	-132
225.300	0
225.366	760
225.432	314
225.499	-704
225.565	177
225.631	157
225.697	-241
225.763	1050
225.829	752
225.895	628
225.961	858
226.027	887
226.093	297
226.159	1405
226.225	1367
226.291	4647
226.357	7918
226.423	3617
226.489	2126
226.554	1276
226.620	655
226.686	1933
226.752	2863
226.818	2963
226.884	10087
226.950	7966
227.016	2696
227.082	1405
227.148	1196
227.214	855
227.279	410
227.345	811
227.411	775
227.477	1087
227.543	2550
227.609	2221
227.674	1373
227.740	652
227.806	1136
227.872	-84
227.938	682
228.003	1618
228.069	411
228.135	765
228.201	-24
228.267	156
228.332	455
228.398	827
228.464	116
228.530	-832
228.595	-243
228.661	-881
228.727	908
228.792	1369
228.858	-195
228.924	-1023
228.990	1518
229.055	212
229.121	923
229.187	140
229.252	364
229.318	203
229.384	767
229.449	434
229.515	-898
229.581	-919
229.646	1515
229.712	563
229.777	1137
229.843	1067
229.909	1219
229.974	1829
230.040	1271
230.105	933
230.171	-143
230.236	1494
230.302	2415
230.368	809
230.433	-54
230.499	145
230.564	1379
230.630	-290
230.695	349
230.761	758
230.826	-818
230.892	1240
230.957	-288
231.023	86
231.088	-182
231.154	113
231.219	363
231.284	490
231.350	919
231.415	-496
231.481	199
231.546	-182
231.612	-11
231.677	-365
231.742	-883
231.808	1548
231.873	-487
231.939	-542
232.004	1377
232.069	1276
232.135	-203
232.200	109
232.265	699
232.331	211
232.396	53
232.461	-692
232.527	-445
232.592	81
232.657	-172
232.723	1050
232.788	719
232.853	933
232.918	406
232.984	-293
233.049	-370
233.114	1244
233.179	714
233.245	1547
233.310	2541
233.375	-479
233.440	284
233.506	-549
233.571	282
233.636	702
233.701	918
233.766	1416
233.832	2217
233.897	629
233.962	181
234.027	984
234.092	623
234.157	259
234.222	-129
234.288	695
234.353	4483
234.418	4916
234.483	2974
234.548	1052
234.613	564
234.678	673
234.743	460
234.808	4931
234.873	1814
234.938	1242
235.004	466
235.069	712
235.134	196
235.199	314
235.264	308
235.329	-571
235.394	228
235.459	1769
235.524	435
235.589	1026
235.654	10
235.719	-826
235.784	-65
235.849	737
235.913	2446
235.978	2791
236.043	2959
236.108	863
236.173	567
236.238	941
236.303	-256
236.368	-380
236.433	2628
236.498	2078
236.563	1497
236.627	3312
236.692	12069
236.757	9165
236.822	3407
236.887	2319
236.952	1713
237.017	666
237.081	2316
237.146	1357
237.211	5094
237.276	11923
237.341	19671
237.405	8804
237.470	3625
237.535	2419
237.600	951
237.664	1302
237.729	674
237.794	241
237.859	3356
237.923	2242
237.988	1138
238.053	2458
238.118	1462
238.182	6170
238.247	5460
238.312	1820
238.376	1213
238.441	601
238.506	1428
238.570	-728
238.635	1657
238.700	93
238.764	-13
238.829	2820
238.893	3241
238.958	1312
239.023	740
239.087	1003
239.152	1138
239.216	296
239.281	847
239.346	638
239.410	826
239.475	236
239.539	6719
239.604	4002
239.668	1315
239.733	-124
239.797	1080
239.862	3757
239.926	4641
239.991	1925
240.055	57
240.120	-365
240.184	736
240.249	-55
240.313	595
240.378	469
240.442	3091
240.507	6036
240.571	1183
240.635	2180
240.700	3485
240.764	544
240.829	929
240.893	-1167
240.957	304
241.022	3674
241.086	5346
241.151	2315
241.215	33
241.279	2578
241.344	2118
241.408	1647
241.472	-13
241.537	1808
241.601	910
241.665	-794
241.730	369
241.794	1243
241.858	-429
241.922	487
241.987	87
242.051	529
242.115	-682
242.179	419
242.244	412
242.308	1426
242.372	543
242.436	1803
242.501	706
242.565	-353
242.629	-136
242.693	488
242.757	-706
242.822	472
242.886	982
242.950	1174
243.014	-206
243.078	609
243.142	1002
243.206	465
243.271	1098
243.335	428
243.399	1807
243.463	7166
243.527	16338
243.591	4292
243.655	1604
243.719	600
243.783	1607
243.847	1633
243.911	2365
243.975	3626
244.040	1410
244.104	1700
244.168	782
244.232	1566
244.296	2151
244.360	3286
244.424	819
244.488	1201
244.552	1929
244.615	-799
244.679	1404
244.743	486
244.807	185
244.871	552
244.935	11
244.999	-259
245.063	253
245.127	1098
245.191	1616
245.255	1733
245.319	1490
245.383	-657
245.446	1514
245.510	-177
245.574	379
245.638	1842
245.702	248
245.766	3118
245.829	1940
245.893	498
245.957	336
246.021	1554
246.085	572
246.149	1531
246.212	5001
246.276	6024
246.340	2922
246.404	1472
246.467	1738
246.531	2313
246.595	2696
246.659	1834
246.722	795
246.786	1461
246.850	2116
246.913	2967
246.977	607
247.041	1712
247.104	810
247.168	565
247.232	4531
247.295	8138
247.359	3415
247.423	1588
247.486	2981
247.550	2759
247.614	1456
247.677	2866
247.741	774
247.804	861
247.868	1801
247.932	2877
247.995	8613
248.059	3114
248.122	281
248.186	2305
248.249	3307
248.313	14480
248.376	13373
248.440	8440
248.503	1862
248.567	2910
248.630	2998
248.694	5016
248.757	6587
248.821	14127
248.884	8940
248.948	7066
249.011	10313
249.075	16869
249.138	13740
249.202	5291
249.265	3332
249.328	4555
249.392	2449
249.455	2089
249.519	2157
249.582	2074
249.645	5416
249.709	3167
249.772	1481
249.835	2217
249.899	2353
249.962	2567
250.025	675
250.089	5408
250.152	7996
250.215	3253
250.279	2289
250.342	3425
250.405	2383
250.468	1953
250.532	2719
250.595	4288
250.658	16284
250.721	26049
250.785	8839
250.848	5201
250.911	2835
250.974	2485
251.038	2726
251.101	8528
251.164	3496
251.227	4793
251.290	2823
251.354	5754
251.417	23817
251.480	20671
251.543	14228
251.606	43510
251.669	29016
251.732	11383
251.795	11453
251.859	11200
251.922	26589
251.985	14291
252.048	6686
252.111	4636
252.174	3232
252.237	8575
252.300	16239
252.363	17856
252.426	34974
252.489	13967
252.552	7888
252.615	3799
252.678	4986
252.741	11964
252.804	15781
252.867	35630
252.930	20505
252.993	11667
253.056	7038
253.119	5439
253.182	3174
253.245	5766
253.308	5029
253.371	4732
253.434	4289
253.497	5513
253.559	8678
253.622	5409
253.685	7784
253.748	7124
253.811	2616
253.874	5096
253.937	3885
254.000	3363
254.062	5230
254.125	8658
254.188	9193
254.251	7034
254.314	2584
254.376	5712
254.439	6731
254.502	6210
254.565	5184
254.628	9990
254.690	5425
254.753	2948
254.816	2264
254.878	2930
254.941	6337
255.004	5686
255.067	2666
255.129	2608
255.192	1422
255.255	138
255.317	1830
255.380	1751
255.443	111
255.505	275
255.568	615
255.631	780
255.693	917
255.756	-517
255.819	1598
255.881	426
255.944	633
256.006	619
256.069	640
256.132	244
256.194	1867
256.257	5119
256.319	3692
256.382	3106
256.444	2025
256.507	1225
256.569	-125
256.632	928
256.694	1221
256.757	7197
256.819	19068
256.882	6605
256.944	3143
257.007	2371
257.069	2143
257.132	1054
257.194	1799
257.257	1257
257.319	51
257.381	895
257.444	4931
257.506	22399
257.569	23913
257.631	12421
257.693	6903
257.756	2935
257.818	1713
257.880	623
257.943	1832
258.005	173
258.067	1749
258.130	1624
258.192	1387
258.254	4414
258.317	1999
258.379	1267
258.441	3807
258.503	4511
258.566	6373
258.628	8434
258.690	1118
258.753	1722
258.815	4045
258.877	1404
258.939	745
259.001	780
259.064	581
259.126	618
259.188	2567
259.250	1044
259.312	2102
259.375	6388
259.437	2573
259.499	1606
259.561	235
259.623	1081
259.685	894
259.747	486
259.809	6792
259.872	11388
259.934	17393
259.996	16085
260.058	4578
260.120	1315
260.182	372
260.244	1118
260.306	588
260.368	1079
260.430	-482
260.492	3903
260.554	8194
260.616	4331
260.678	9497
260.740	11951
260.802	2512
260.864	1790
260.926	676
260.988	1880
261.050	1253
261.112	5349
261.174	15848
261.236	9368
261.298	2282
261.359	5423
261.421	8097
261.483	894
261.545	1852
261.607	-346
261.669	1090
261.731	2673
261.793	8331
261.854	1969
261.916	2878
261.978	1387
262.040	2209
262.102	1525
262.164	3092
262.225	2229
262.287	1440
262.349	4040
262.411	2630
262.472	1211
262.534	3489
262.596	6955
262.658	2128
262.719	175
262.781	2374
262.843	7052
262.904	2808
262.966	1743
263.028	2131
263.090	13959
263.151	32000
263.213	10137
263.275	4844
263.336	1508
263.398	1309
263.459	55
263.521	332
263.583	4238
263.644	3308
263.706	1514
263.767	22
263.829	445
263.891	46
263.952	-295
264.014	-8
264.075	2296
264.137	5656
264.198	2914
264.260	-70
264.321	1025
264.383	2986
264.444	10147
264.506	1478
264.567	1148
264.629	3522
264.690	6678
264.752	2517
264.813	455
264.875	667
264.936	1241
264.998	-436
265.059	492
265.120	683
265.182	993
265.243	10477
265.305	8435
265.366	1268
265.427	1028
265.489	982
265.550	-806
265.611	1227
265.673	129
265.734	933
265.795	17
265.857	-586
265.918	78
265.979	2900
266.040	16498
266.102	11784
266.163	3379
266.224	2564
266.286	802
266.347	-298
266.408	773
266.469	1269
266.530	369
266.592	398
266.653	2020
266.714	4494
266.775	587
266.836	1190
266.898	-392
266.959	1128
267.020	175
267.081	982
267.142	456
267.203	78
267.264	-203
267.326	754
267.387	-572
267.448	85
267.509	915
267.570	93
267.631	-100
267.692	-676
267.753	535
267.814	-594
267.875	2249
267.936	4802
267.997	2251
268.058	2498
268.119	555
268.180	671
268.241	-550
268.302	-48
268.363	-127
268.424	827
268.485	1010
268.546	-224
268.607	39
268.668	-153
268.729	-566
268.790	-199
268.851	345
268.912	2666
268.972	4075
269.033	1124
269.094	42
269.155	115
269.216	491
269.277	308
269.338	375
269.398	318
269.459	403
269.520	1041
269.581	1612
269.642	3658
269.702	880
269.763	1062
269.824	340
269.885	500
269.945	1762
270.006	332
270.067	-316
270.128	285
270.188	-724
270.249	-925
270.310	300
270.370	768
270.431	-558
270.492	217
270.553	229
270.613	1863
270.674	5248
270.734	1344
270.795	343
270.856	655
270.916	-170
270.977	46
271.038	585
271.098	557
271.159	1782
271.219	1899
271.280	398
271.340	705
271.401	272
271.462	3696
271.522	1596
271.583	84
271.643	-113
271.704	-253
271.764	981
271.825	3408
271.885	13659
271.946	16882
272.006	5703
272.066	8854
272.127	12372
272.187	3794
272.248	1652
272.308	1648
272.369	8972
272.429	4142
272.489	3776
272.550	3875
272.610	4051
272.671	2234
272.731	3151
272.791	5393
272.852	2291
272.912	1661
272.972	1145
273.033	814
273.093	1483
273.153	1656
273.214	1064
273.274	596
273.334	8131
273.394	13654
273.455	5048
273.515	5578
273.575	12824
273.635	4475
273.696	7498
273.756	11817
273.816	4850
273.876	2678
273.936	7125
273.997	13245
274.057	2636
274.117	1953
274.177	3157
274.237	17937
274.297	14200
274.358	11034
274.418	11094
274.478	7364
274.538	2274
274.598	1572
274.658	11483
274.718	14257
274.778	5122
274.838	1840
274.898	5526
274.958	19808
275.018	13924
275.078	7964
275.138	3607
275.198	1693
275.258	312
275.318	1672
275.378	4090
275.438	3545
275.498	2160
275.558	8842
275.618	17523
275.678	8780
275.738	6489
275.798	4419
275.858	1826
275.918	61
275.978	1911
276.038	1208
276.098	942
276.157	2904
276.217	10325
276.277	4239
276.337	2704
276.397	955
276.457	1613
276.517	-126
276.576	904
276.636	202
276.696	2005
276.756	6730
276.815	3698
276.875	1591
276.935	1486
276.995	1191
277.055	747
277.114	217
277.174	1672
277.234	7505
277.293	1812
277.353	1481
277.413	1559
277.472	1014
277.532	1021
277.592	1448
277.651	7478
277.711	13139
277.771	3736
277.830	17505
277.890	12105
277.950	9146
278.009	27809
278.069	8309
278.128	11268
278.188	13587
278.248	5200
278.307	16272
278.367	8080
278.426	2542
278.486	1111
278.545	169
278.605	805
278.664	716
278.724	332
278.783	5215
278.843	14334
278.902	3802
278.962	1754
279.021	2233
279.081	4332
279.140	3690
279.199	1640
279.259	2943
279.318	2308
279.378	3485
279.437	5852
279.496	25757
279.556	80705
279.615	59695
279.675	16433
279.734	8643
279.793	13921
279.853	18174
279.912	6839
279.971	3792
280.031	2697
280.090	6335
280.149	11614
280.208	9499
280.268	58059
280.327	51718
280.386	12542
280.445	9049
280.505	7835
280.564	2456
280.623	2352
280.682	4494
280.742	5881
280.801	2088
280.860	1464
280.919	1182
280.978	728
281.037	851
281.097	1132
281.156	954
281.215	-206
281.274	628
281.333	9949
281.392	6499
281.451	1310
281.510	467
281.569	356
281.628	555
281.688	93
281.747	1637
281.806	1053
281.865	181
281.924	969
281.983	98
282.042	-585
282.101	277
282.160	826
282.219	-402
282.278	604
282.337	5862
282.396	3136
282.454	1499
282.513	1589
282.572	8883
282.631	4109
282.690	1280
282.749	542
282.808	357
282.867	1321
282.926	1006
282.985	104
283.043	254
283.102	198
283.161	627
283.220	4402
283.279	9716
283.338	1902
283.396	281
283.455	902
283.514	1046
283.573	2989
283.631	1713
283.690	784
283.749	-50
283.808	3079
283.866	4046
283.925	628
283.984	548
284.043	1353
284.101	2195
284.160	989
284.219	2909
284.277	817
284.336	2482
284.395	12750
284.453	9214
284.512	2786
284.570	4299
284.629	3603
284.688	3384
284.746	3198
284.805	4099
284.863	5490
284.922	7042
284.981	7710
285.039	10686
285.098	19972
285.156	48551
285.215	84076
285.273	82516
285.332	50433
285.390	26970
285.449	16551
285.507	11227
285.566	6892
285.624	4912
285.683	3545
285.741	3294
285.799	2226
285.858	2566
285.916	2257
285.975	1361
286.033	941
286.091	235
286.150	578
286.208	1217
286.267	1903
286.325	1379
286.383	3234
286.442	2514
286.500	1230
286.558	373
286.616	104
286.675	1033
286.733	867
286.791	849
286.850	934
286.908	2128
286.966	3578
287.024	971
287.083	1218
287.141	-262
287.199	755
287.257	1478
287.315	1301
287.374	1239
287.432	4785
287.490	2189
287.548	1586
287.606	-318
287.664	369
287.723	1648
287.781	2601
287.839	1022
287.897	1090
287.955	1600
288.013	2248
288.071	5732
288.129	37653
288.187	102846
288.245	39357
288.303	11624
288.361	5916
288.419	4501
288.477	2722
288.535	1515
288.593	691
288.651	367
288.709	-7
288.767	739
288.825	625
288.883	-118
288.941	32
288.999	151
289.057	259
289.115	-2
289.173	634
289.231	182
289.289	164
289.346	439
289.404	1027
289.462	1773
289.520	2349
289.578	570
289.636	278
289.694	-37
289.751	176
289.809	222
289.867	-182
289.925	522
289.983	730
290.040	-319
290.098	336
290.156	208
290.214	279
290.271	241
290.329	-265
290.387	-363
290.444	375
290.502	-822
290.560	184
290.617	222
290.675	427
290.733	-32
290.790	112
290.848	-8
290.906	591
290.963	37
291.021	548
291.078	-383
291.136	-267
291.194	5011
291.251	10860
291.309	1840
291.366	496
291.424	-343
291.481	-132
291.539	196
291.596	523
291.654	-91
291.711	-290
291.769	-262
291.826	2403
291.884	1240
291.941	-359
291.999	-321
292.056	832
292.114	800
292.171	17
292.228	312
292.286	474
292.343	1569
292.401	2972
292.458	1238
292.515	163
292.573	1074
292.630	1485
292.687	1094
292.745	842
292.802	785
292.859	6438
292.917	11188
292.974	5028
293.031	572
293.089	772
293.146	-115
293.203	219
293.260	-409
293.318	596
293.375	3056
293.432	234
293.489	-53
293.546	-418
293.604	807
293.661	6616
293.718	16945
293.775	8052
293.832	2591
293.889	2035
293.947	2946
294.004	1108
294.061	1777
294.118	4046
294.175	10575
294.232	12959
294.289	4837
294.346	1422
294.403	1464
294.460	1321
294.517	1004
294.574	335
294.631	-152
294.688	287
294.745	3806
294.802	21584
294.859	21450
294.916	7035
294.973	4100
295.030	2839
295.087	2122
295.144	526
295.201	1157
295.258	-39
295.315	813
295.372	7436
295.429	13092
295.486	4732
295.542	2600
295.599	10129
295.656	15222
295.713	9940
295.770	12697
295.827	4203
295.883	2288
295.940	1341
295.997	4174
296.054	3294
296.111	768
296.167	1019
296.224	523
296.281	109
296.338	482
296.394	-182
296.451	161
296.508	6723
296.564	10652
296.621	5755
296.678	15844
296.734	20391
296.791	7709
296.848	2883
296.904	3399
296.961	10500
297.018	16101
297.074	10897
297.131	4083
297.187	2186
297.244	3464
297.301	16304
297.357	25442
297.414	8567
297.470	3020
297.527	1677
297.583	1396
297.640	663
297.696	411
297.753	563
297.809	157
297.866	-294
297.922	-346
297.979	1027
298.035	-567
298.092	1569
298.148	8607
298.204	7643
298.261	3511
298.317	7172
298.374	18752
298.430	9755
298.486	4140
298.543	2879
298.599	2065
298.656	1925
298.712	5275
298.768	14901
298.824	8948
298.881	2273
298.937	1517
298.993	1837
299.050	2215
299.106	1333
299.162	1230
299.218	884
299.275	-60
299.331	875
299.387	3079
299.443	17124
299.500	16583
299.556	6133
299.612	3690
299.668	2478
299.724	2795
299.780	3633
299.837	2029
299.893	3101
299.949	15891
300.005	15458
300.061	14496
300.117	23674
300.173	10399
300.229	4581
300.285	6385
300.341	6690
300.397	3018
300.453	701
300.510	1126
300.566	677
300.622	960
300.678	9344
300.734	15433
300.790	14032
300.845	15889
300.901	9887
300.957	16035
301.013	10475
301.069	3530
301.125	2588
301.181	2537
301.237	2443
301.293	62
301.349	685
301.405	852
301.461	617
301.516	984
301.572	837
301.628	3094
301.684	3394
301.740	5499
301.796	9315
301.851	6226
301.907	10750
301.963	8681
302.019	17880
302.074	47744
302.130	42930
302.186	19356
302.242	7760
302.297	4376
302.353	4725
302.409	10015
302.464	7039
302.520	6201
302.576	17856
302.631	19594
302.687	11081
302.743	4120
302.798	1887
302.854	1998
302.910	2324
302.965	2413
303.021	5027
303.076	4763
303.132	6849
303.187	7439
303.243	4342
303.299	2631
303.354	1203
303.410	673
303.465	1032
303.521	423
303.576	245
303.632	1112
303.687	4217
303.743	14961
303.798	12645
303.853	4996
303.909	2252
303.964	1575
304.020	2787
304.075	4222
304.130	5052
304.186	10483
304.241	11213
304.297	7228
304.352	2862
304.358	2833
304.407	2599
304.449	2224
304.463	2100
304.518	2040
304.539	1885
304.573	1628
304.629	984
304.630	1019
304.684	2742
304.720	8908
304.739	11982
304.794	16776
304.811	14258
304.850	8097
304.902	4057
304.905	3812
304.960	1784
304.992	1848
305.015	1882
305.071	2390
305.083	2234
305.126	1670
305.173	579
305.181	396
305.236	1313
305.264	1493
305.292	1723
305.347	1483
305.354	1534
305.402	1876
305.445	2298
305.457	2419
305.512	3206
305.535	3360
305.567	3491
305.622	2730
305.626	2903
305.678	7164
305.716	15588
305.733	18543
305.788	18929
305.807	16767
305.843	13217
305.897	17381
305.898	17421
305.953	16308
305.988	10795
306.008	7889
306.063	5327
306.078	4731
306.118	3272
306.168	2062
306.173	1974
306.228	2340
306.259	1652
306.283	1156
306.338	1739
306.349	1687
306.393	1516
306.440	1960
306.448	2057
306.503	2174
306.530	2671
306.558	4327
306.613	10985
306.620	11780
306.668	15882
306.711	19936
306.723	20155
306.778	14927
306.801	11531
306.833	7905
306.888	3641
306.892	3472
306.943	2625
306.982	2253
306.997	2136
307.052	2184
307.072	2067
307.107	2349
307.162	4326
307.163	4348
307.217	7631
307.253	9422
307.272	9598
307.327	9710
307.343	8856
307.381	6917
307.434	5481
307.436	5691
307.491	13644
307.524	20631
307.546	22126
307.600	18422
307.614	16407
307.655	10004
307.704	5179
307.710	5150
307.765	5956
307.795	8357
307.819	11060
307.874	17917
307.885	18109
307.929	13094
307.975	7505
307.984	7472
308.038	9938
308.065	11774
308.093	20493
308.148	45399
308.156	51116
308.202	83476
308.246	100266
308.257	96098
308.312	51905
308.336	35648
308.366	28203
308.421	18413
308.426	17450
308.475	10820
308.517	7146
308.530	6662
308.585	5872
308.607	5629
308.639	5818
308.694	6497
308.697	6661
308.748	15537
308.787	23450
308.803	23219
308.857	16771
308.877	13972
308.912	11599
308.967	10165
308.967	10134
309.021	13475
309.058	16680
309.076	21164
309.130	36256
309.148	42438
309.185	71271
309.238	123027
309.239	123574
309.293	138108
309.328	130352
309.348	111442
309.402	54653
309.418	40030
309.457	28563
309.508	17580
309.511	17404
309.566	16944
309.598	18003
309.620	22107
309.674	34218
309.688	37135
309.729	35341
309.778	29443
309.783	28736
309.837	19512
309.868	15048
309.892	17359
309.946	25180
309.959	27397
310.001	36010
310.049	44409
310.055	42823
310.109	24651
310.139	14404
310.163	11616
310.218	7158
310.229	6389
310.272	5233
310.319	4498
310.326	4507
310.381	4348
310.409	4395
310.435	4262
310.489	3752
310.499	3703
310.543	4025
310.589	4433
310.598	4526
310.652	5024
310.679	5110
310.706	4716
310.760	3994
310.769	3856
310.814	3232
310.859	2902
310.868	3075
310.923	3474
310.948	3869
310.977	4107
311.031	4484
311.038	4519
311.085	4360
311.128	4116
311.139	4118
311.193	4013
311.218	4006
311.247	3963
311.301	3828
311.308	3795
311.356	3677
311.398	3570
311.410	3610
311.464	3751
311.488	3771
311.518	3719
311.572	3681
311.578	3670
311.626	5349
311.668	6781
311.680	6805
311.734	6763
311.758	6748
311.788	6646
311.842	6346
311.847	6300
311.896	8306
311.937	10042
311.950	9955
312.004	9396
312.027	9123
312.058	7508
312.112	4567
312.117	4264
312.165	4369
312.207	4442
312.297	6839
312.386	5747
312.476	4542
312.566	10444
312.656	4893
312.745	3829
312.835	4414
312.925	5506
313.015	4373
313.104	4952
313.194	3286
313.284	3697
313.374	5022
313.463	5578
313.553	3658
313.643	3643
313.732	3684
313.822	3508
313.912	4271
314.001	5804
314.091	5399
314.180	8689
314.270	6105
314.360	6980
314.449	5708
314.539	3853
314.628	3298
314.718	5141
314.808	6380
314.897	4541
314.987	4486
315.076	5638
315.166	6210
315.255	6212
315.345	5814
315.434	7118
315.524	5879
315.613	5815
315.703	7986
315.792	10246
315.881	26130
315.971	11524
316.060	12057
316.150	18544
316.239	18493
316.328	7627
316.418	3969
316.507	3886
316.597	5764
316.686	5799
316.775	9059
316.865	20331
316.954	4745
317.043	3308
317.133	3483
317.222	3672
317.311	3094
317.400	2968
317.490	5657
317.579	6013
317.668	4868
317.757	6939
317.847	15835
317.936	45970
318.025	21945
318.114	11984
318.203	8333
318.293	10996
318.382	20919
318.471	17267
318.560	23337
318.649	44880
318.738	9137
318.828	6559
318.917	6014
319.006	8735
319.095	23662
319.184	54397
319.273	29904
319.362	15269
319.451	4989
319.540	5739
319.629	12636
319.718	19766
319.807	7848
319.896	18818
319.985	65942
320.074	24263
320.163	6971
320.252	13041
320.341	11309
320.430	9806
320.519	10553
320.608	7385
320.697	6244
320.786	5330
320.875	7486
320.964	9946
321.053	13319
321.142	20807
321.230	21041
321.319	17437
321.408	40024
321.497	16773
321.586	14099
321.675	18989
321.764	19001
321.852	11890
321.941	21844
322.030	13803
322.119	15685
322.207	37913
322.296	30640
322.385	14657
322.474	15550
322.562	45462
322.651	24412
322.740	16957
322.829	23975
322.917	26766
323.006	14537
323.095	13019
323.183	9083
323.272	13262
323.361	22799
323.449	67756
323.538	22304
323.626	50061
323.715	30864
323.804	11331
323.892	47207
323.981	26578
324.069	7895
324.158	26447
324.246	24915
324.335	9150
324.424	13677
324.512	5386
324.601	8247
324.689	24885
324.778	51717
324.866	21454
324.954	6702
325.043	5144
325.131	11055
325.220	21491
325.308	23894
325.397	17499
325.485	11006
325.574	3434
325.662	3156
325.750	4335
325.839	4462
325.927	3324
326.015	5182
326.104	8410
326.192	12765
326.280	3849
326.369	4178
326.457	5855
326.545	11543
326.634	5870
326.722	3013
326.810	3531
326.898	3721
326.987	4877
327.075	11191
327.163	11819
327.251	7438
327.340	22648
327.428	36931
327.516	5260
327.604	3483
327.692	4307
327.781	5304
327.869	10150
327.957	6113
328.045	6294
328.133	2759
328.221	5175
328.309	3976
328.397	3664
328.485	3846
328.574	7086
328.662	23258
328.750	14576
328.838	5871
328.926	3888
329.014	2910
329.102	5798
329.190	16421
329.278	11377
329.366	2710
329.454	2954
329.542	3179
329.630	3344
329.718	3216
329.806	4587
329.893	3960
329.981	5266
330.069	5221
330.157	22398
330.245	67544
330.333	37797
330.421	7123
330.509	7166
330.597	28106
330.684	19756
330.772	7171
330.860	10840
330.948	15822
331.036	6373
331.123	2895
331.211	3503
331.299	4476
331.387	12699
331.475	23016
331.562	6732
331.650	2734
331.738	4480
331.825	6768
331.913	3222
332.001	2058
332.089	5088
332.176	10404
332.264	25954
332.352	21093
332.439	5692
332.527	4069
332.614	4071
332.702	6187
332.790	4432
332.877	11398
332.965	25420
333.052	6357
333.140	6365
333.228	17511
333.315	5258
333.403	4315
333.490	15240
333.578	13265
333.665	18258
333.753	8910
333.840	4314
333.928	4962
334.015	15234
334.103	20052
334.190	68990
334.278	19127
334.365	9584
334.452	7109
334.540	4500
334.627	5751
334.715	8079
334.802	14135
334.889	78893
334.977	83325
335.064	12451
335.151	5939
335.239	6231
335.326	7356
335.413	31105
335.501	47705
335.588	6521
335.675	4548
335.762	7383
335.850	13286
335.937	7558
336.024	20050
336.111	91886
336.199	44353
336.286	9572
336.373	4977
336.460	3639
336.547	3653
336.635	5104
336.722	4653
336.809	3802
336.896	5570
336.983	20724
337.070	52262
337.157	69440
337.245	51979
337.332	39694
337.419	5280
337.506	3873
337.593	4343
337.680	15388
337.767	60337
337.854	15006
337.941	17907
338.028	21466
338.115	7517
338.202	8462
338.289	14055
338.376	54088
338.463	18123
338.550	32095
338.637	35432
338.724	11447
338.811	20324
338.898	4947
338.984	3156
339.071	5092
339.158	5801
339.245	14944
339.332	9326
339.419	12678
339.506	13181
339.593	2822
339.679	2722
339.766	3783
339.853	5421
339.940	11107
340.027	3685
340.113	4045
340.200	5271
340.287	3423
340.374	5049
340.460	9790
340.547	4106
340.634	6204
340.720	25471
340.807	15609
340.894	2799
340.980	4254
341.067	2928
341.154	3844
341.240	5912
341.327	13743
341.414	4705
341.500	4998
341.587	4160
341.674	2538
341.760	8807
341.847	10889
341.933	3720
342.020	1476
342.106	2408
342.193	3152
342.279	6678
342.366	5235
342.452	8541
342.539	4797
342.625	9377
342.712	28201
342.798	11627
342.885	5259
342.971	2143
343.058	2849
343.144	2374
343.230	2161
343.317	2783
343.403	2366
343.490	1711
343.576	2453
343.662	1879
343.749	3913
343.835	4136
343.921	6459
344.008	32903
344.094	85406
344.180	20412
344.267	7777
344.353	23615
344.439	31477
344.525	13888
344.612	6046
344.698	5194
344.784	3508
344.870	2350
344.957	3254
345.043	5495
345.129	4400
345.215	9178
345.301	4742
345.387	3484
345.474	1612
345.560	2555
345.646	3258
345.732	3237
345.818	3634
345.904	3570
345.990	3400
346.076	4189
346.162	9578
346.249	3743
346.335	2815
346.421	2575
346.507	8761
346.593	35341
346.679	9898
346.765	3954
346.851	3586
346.937	2983
347.023	3670
347.108	3484
347.194	3081
347.280	3074
347.366	3618
347.452	10141
347.538	40956
347.624	32339
347.710	29447
347.796	6002
347.882	3637
347.967	3187
348.053	5392
348.139	3393
348.225	2492
348.311	2533
348.397	2662
348.482	3906
348.568	4345
348.654	2321
348.740	3753
348.825	4261
348.911	5274
348.997	17838
349.083	39214
349.168	7588
349.254	3788
349.340	3604
349.425	3078
349.511	3819
349.597	5128
349.682	7336
349.768	26496
349.854	13488
349.939	3864
350.025	3124
350.110	2087
350.196	1581
350.282	1489
350.367	2224
350.453	5362
350.538	6143
350.624	4521
350.709	4804
350.795	1915
350.880	2975
350.966	3355
351.051	5874
351.137	4172
351.222	3034
351.308	8736
351.393	26029
351.479	7700
351.564	2084
351.649	2339
351.735	2176
351.820	2042
351.906	2364
351.991	3885
352.076	14561
352.162	25755
352.247	5631
352.332	4105
352.418	7534
352.503	8635
352.588	35318
352.673	33836
352.759	6848
352.844	3575
352.929	4009
353.014	5525
353.100	3841
353.185	7174
353.270	10157
353.355	10822
353.441	2458
353.526	3626
353.611	8586
353.696	11416
353.781	6579
353.866	2981
353.952	3241
354.037	8277
354.122	20010
354.207	18962
354.292	6975
354.377	2890
354.462	2083
354.547	4178
354.632	4087
354.717	6797
354.802	7907
354.887	4009
354.972	2452
355.057	2287
355.142	1290
355.227	3667
355.312	5420
355.397	12689
355.482	30374
355.567	16404
355.652	10325
355.737	12171
355.822	28841
355.907	27958
355.991	4611
356.076	2557
356.161	2560
356.246	1692
356.331	2135
356.416	5353
356.501	40659
356.585	49784
356.670	7423
356.755	5574
356.840	6771
356.924	30054
357.009	112517
357.094	50583
357.179	10945
357.263	7007
357.348	7069
357.433	8160
357.517	7198
357.602	5585
357.687	3757
357.771	5805
357.856	9880
357.941	8448
358.025	20740
358.110	99399
358.195	56098
358.279	8625
358.364	6689
358.448	21487
358.533	60912
358.617	47401
358.702	43203
358.787	18403
358.871	9683
358.956	9266
359.040	3049
359.125	1928
359.209	2198
359.294	4361
359.378	7925
359.462	8104
359.547	5277
359.631	4001
359.716	2605
359.800	3509
359.885	7019
359.969	4061
360.053	2708
360.138	2689
360.222	4082
360.306	8829
360.391	7113
360.475	8678
360.559	21256
360.644	22829
360.728	19156
360.812	22191
360.896	67350
360.981	35237
361.065	22080
361.149	6040
361.233	5033
361.318	4074
361.402	4696
361.486	4040
361.570	3317
361.654	4358
361.739	10906
361.823	41980
361.907	70621
361.991	14472
362.075	8303
362.159	18823
362.243	14320
362.327	14536
362.411	20399
362.495	10316
362.580	5528
362.664	3771
362.748	2707
362.832	5517
362.916	7711
363.000	27780
363.084	72386
363.168	87640
363.252	23874
363.336	10031
363.420	10863
363.503	41892
363.587	58394
363.671	11077
363.755	6175
363.839	10126
363.923	4455
364.007	9284
364.091	12518
364.175	15641
364.258	69862
364.342	57226
364.426	69134
364.510	40984
364.594	17455
364.677	15091
364.761	53306
364.845	46133
364.929	16035
365.013	14611
365.096	11196
365.180	13977
365.264	16801
365.347	70240
365.431	36775
365.515	10156
365.598	3931
365.682	3668
365.766	7952
365.849	13569
365.933	5348
366.017	7648
366.100	6494
366.184	2118
366.267	3149
366.351	2928
366.435	2561
366.518	1751
366.602	2676
366.685	2662
366.769	3456
366.852	7563
366.936	14389
367.019	7850
367.103	5250
367.186	15068
367.270	4174
367.353	1151
367.436	3241
367.520	3539
367.603	3570
367.687	5292
367.770	11422
367.853	7150
367.937	17075
368.020	31794
368.104	9065
368.187	8282
368.270	12149
368.353	11754
368.437	14240
368.520	36147
368.603	24447
368.687	21975
368.770	44377
368.853	11910
368.936	12241
369.020	14765
369.103	4398
369.186	2659
369.269	2997
369.352	6999
369.436	11551
369.519	7871
369.602	3217
369.685	4806
369.768	4587
369.851	4264
369.934	2293
370.018	3569
370.101	9081
370.184	9663
370.267	5438
370.350	10010
370.433	15105
370.516	29483
370.599	42352
370.682	13921
370.765	24842
370.848	29844
370.931	50332
371.014	25414
371.097	5066
371.180	4695
371.263	2728
371.346	2048
371.429	2640
371.511	2733
371.594	6210
371.677	12105
371.760	15285
371.843	9826
371.926	32763
372.009	85096
372.091	34237
372.174	19785
372.257	43972
372.340	21583
372.423	17850
372.505	25208
372.588	10267
372.671	15620
372.754	47977
372.836	29836
372.919	21190
373.002	48935
373.085	15250
373.167	10090
373.250	21089
373.332	42951
373.415	53946
373.498	114975
373.580	51902
373.663	52158
373.746	79394
373.828	21425
373.911	9381
373.993	10082
374.076	40346
374.159	45808
374.241	15987
374.324	42236
374.406	32290
374.489	28986
374.571	88847
374.654	45063
374.736	18862
374.819	52764
374.901	79694
374.983	87834
375.066	18408
375.148	7607
375.231	29634
375.313	68470
375.395	29613
375.478	7204
375.560	4235
375.643	4731
375.725	16959
375.807	67850
375.890	67579
375.972	36423
376.054	18049
376.136	30688
376.219	13992
376.301	19051
376.383	60747
376.465	28999
376.548	17412
376.630	20655
376.712	51165
376.794	29322
376.877	3684
376.959	2611
377.041	3352
377.123	9886
377.205	14522
377.287	2898
377.369	2409
377.452	2938
377.534	2023
377.616	2747
377.698	2298
377.780	1522
377.862	2821
377.944	4047
378.026	2173
378.108	2328
378.190	1919
378.272	2265
378.354	1125
378.436	1430
378.518	4728
378.600	21678
378.682	18207
378.764	28434
378.846	27834
378.928	7796
379.010	11713
379.091	8010
379.173	2639
379.255	2546
379.337	4319
379.419	13208
379.501	42370
379.583	20575
379.664	5112
379.746	10877
379.828	30705
379.910	42229
379.991	38638
380.073	8146
380.155	5207
380.237	2869
380.318	1915
380.400	3197
380.482	6203
380.564	12346
380.645	11936
380.727	12073
380.809	6955
380.890	5096
380.972	2525
381.053	4123
381.135	4365
381.217	9985
381.298	33060
381.380	18902
381.461	12880
381.543	49115
381.624	71908
381.706	16279
381.787	8019
381.869	8725
381.951	20754
382.032	80149
382.113	65097
382.195	16712
382.276	10354
382.358	17739
382.439	45309
382.521	52388
382.602	82041
382.684	44086
382.765	71346
382.846	90708
382.928	129623
383.009	83842
383.090	49207
383.172	157325
383.253	260359
383.334	102049
383.416	79396
383.497	49059
383.578	24034
383.659	43851
383.741	135869
383.822	338338
383.903	208354
383.984	66208
384.066	98691
384.147	70314
384.228	16967
384.309	11908
384.390	9824
384.471	6875
384.553	7310
384.634	9969
384.715	11027
384.796	5966
384.877	6691
384.958	25470
385.039	38131
385.120	14138
385.201	6395
385.282	9402
385.363	10433
385.444	7585
385.525	11590
385.606	35276
385.687	35511
385.768	11335
385.849	11545
385.930	38182
386.011	70451
386.092	23907
386.173	5752
386.254	5088
386.335	5742
386.416	6015
386.496	18800
386.577	34664
386.658	16258
386.739	8701
386.820	8527
386.901	7247
386.981	6237
387.062	4365
387.143	6853
387.224	28082
387.304	33092
387.385	12983
387.466	7772
387.547	11599
387.627	7149
387.708	11791
387.789	47018
387.869	62772
387.950	20844
388.031	3341
388.111	2797
388.192	13439
388.273	22160
388.353	13282
388.434	5105
388.514	9745
388.595	37723
388.676	58981
388.756	34448
388.837	29466
388.917	21014
388.998	4337
389.078	4269
389.159	3954
389.239	2404
389.320	6309
389.400	4658
389.480	10689
389.561	30649
389.641	18895
389.722	5871
389.802	9941
389.883	12717
389.963	33713
390.043	26649
390.124	10179
390.204	11030
390.284	34771
390.365	26485
390.445	28830
390.525	63235
390.605	55341
390.686	20589
390.766	7651
390.846	3503
390.927	2614
391.007	2685
391.087	4146
391.167	3564
391.247	3391
391.328	6862
391.408	13043
391.488	10410
391.568	2826
391.648	4652
391.728	7352
391.808	6852
391.888	7806
391.969	16277
392.049	29134
392.129	15672
392.209	13568
392.289	33098
392.369	22766
392.449	21721
392.529	15870
392.609	10094
392.689	11267
392.769	31540
392.849	31847
392.929	23260
393.009	52654
393.089	44288
393.169	37377
393.248	99763
393.328	335052
393.408	409085
393.488	139998
393.568	38736
393.648	20022
393.728	11499
393.807	8370
393.887	7384
393.967	7169
394.047	7090
394.127	8336
394.206	13825
394.286	39814
394.366	166370
394.446	211706
394.525	57784
394.605	14351
394.685	12341
394.764	28708
394.844	50293
394.924	40655
395.003	10985
395.083	6690
395.163	5862
395.242	4993
395.322	5906
395.402	3035
395.481	6827
395.561	17428
395.640	55190
395.720	47614
395.799	54520
395.879	50112
395.958	21330
396.038	57864
396.117	218348
396.197	280673
396.276	100944
396.356	34755
396.435	25229
396.515	18840
396.594	18076
396.673	33178
396.753	101821
396.832	315021
396.912	283787
396.991	81166
397.070	22246
397.150	10255
397.229	8612
397.308	11130
397.388	22029
397.467	12103
397.546	4736
397.625	2962
397.705	6480
397.784	6010
397.863	3766
397.942	3187
398.022	3004
398.101	13665
398.180	48844
398.259	32512
398.338	7989
398.417	4517
398.497	2997
398.576	4003
398.655	1977
398.734	2285
398.813	2187
398.892	12156
398.971	51424
399.050	31672
399.129	3458
399.208	1531
399.287	2236
399.366	691
399.445	1331
399.524	1888
399.603	900
399.682	5323
399.761	13552
399.840	50399
399.919	48347
399.998	7906
400.077	1456
400.156	409
400.235	4701
400.313	1946
400.392	2510
400.471	14934
400.550	29208
400.629	8663
400.708	3729
400.786	3547
400.865	12642
400.944	15759
401.023	8408
401.102	1999
401.180	816
401.259	1964
401.338	3221
401.416	4156
401.495	3192
401.574	3769
401.652	1718
401.731	4214
401.810	2751
401.888	2156
401.967	385
402.046	1524
402.124	3197
402.203	4017
402.281	3594
402.360	3985
402.438	15779
402.517	13887
402.596	3907
402.674	3380
402.753	1991
402.831	1507
402.910	2439
402.988	10076
403.066	36430
403.145	26766
403.223	11360
403.302	31168
403.380	26394
403.459	24334
403.537	12448
403.615	4020
403.694	273
403.772	967
403.850	1365
403.929	472
404.007	710
404.085	4938
404.164	5020
404.242	1683
404.320	2000
404.398	4721
404.477	11808
404.555	60908
404.633	64491
404.711	11087
404.789	2891
404.868	2933
404.946	1276
405.024	754
405.102	552
405.180	-60
405.258	-478
405.336	862
405.415	361
405.493	5667
405.571	5761
405.649	861
405.727	271
405.805	3291
405.883	3272
405.961	3287
406.039	4420
406.117	1639
406.195	3479
406.273	13108
406.351	57224
406.429	44065
406.507	7815
406.585	3150
406.663	2395
406.740	3211
406.818	2813
406.896	1424
406.974	2068
407.052	4044
407.130	31311
407.208	54111
407.285	14219
407.363	1838
407.441	1338
407.519	2356
407.596	1925
407.674	6704
407.752	22439
407.830	28261
407.907	11766
407.985	2898
408.063	1875
408.141	792
408.218	4365
408.296	3962
408.373	2038
408.451	3008
408.529	2659
408.606	377
408.684	1197
408.762	357
408.839	319
408.917	217
408.994	713
409.072	883
409.149	1503
409.227	2885
409.304	3721
409.382	3242
409.459	1583
409.537	5716
409.614	4642
409.692	3329
409.769	2208
409.846	5752
409.924	8955
410.001	4875
410.079	3594
410.156	2795
410.233	2131
410.311	1863
410.388	2047
410.465	1758
410.543	2268
410.620	1036
410.697	1342
410.775	2814
410.852	474
410.929	2864
411.006	3298
411.083	1927
411.161	5374
411.238	6731
411.315	4670
411.392	1912
411.469	2324
411.547	3390
411.624	432
411.701	1071
411.778	2096
411.855	5092
411.932	3322
412.009	1339
412.086	1366
412.163	2313
412.240	1937
412.317	3899
412.394	2794
412.471	1718
412.548	296
412.625	356
412.702	2118
412.779	5169
412.856	3586
412.933	653
413.010	1139
413.087	2190
413.164	13483
413.241	24582
413.318	6116
413.395	2939
413.471	4950
413.548	2950
413.625	1391
413.702	1857
413.779	2034
413.855	623
413.932	-448
414.009	443
414.086	537
414.162	493
414.239	3109
414.316	13824
414.393	35948
414.469	14405
414.546	1728
414.623	441
414.699	140
414.776	1130
414.853	646
414.929	1737
415.006	1336
415.082	1678
415.159	1174
415.236	954
415.312	1086
415.389	3229
415.465	4604
415.542	3344
415.618	515
415.695	2943
415.771	818
415.848	1113
415.924	2338
416.000	1377
416.077	1059
416.153	250
416.230	-362
416.306	13
416.383	-859
416.459	816
416.535	-257
416.612	-381
416.688	386
416.764	282
416.841	-813
416.917	884
416.993	1208
417.069	889
417.146	1618
417.222	2726
417.298	2304
417.374	1249
417.451	1704
417.527	1402
417.603	1877
417.679	1993
417.755	1446
417.831	16
417.908	-299
417.984	954
418.060	-659
418.136	4128
418.212	5728
418.288	2114
418.364	828
418.440	333
418.516	3282
418.592	4836
418.668	8512
418.744	11402
418.820	9236
418.896	2904
418.972	-249
419.048	471
419.124	3744
419.200	4056
419.276	392
419.352	-699
419.428	248
419.504	711
419.579	1504
419.655	1254
419.731	1495
419.807	5797
419.883	12186
419.959	9923
420.034	2684
420.110	5285
420.186	20044
420.262	20190
420.337	3775
420.413	2536
420.489	690
420.565	1208
420.640	913
420.716	1711
420.792	766
420.867	1399
420.943	1119
421.019	3147
421.094	2654
421.170	2237
421.245	569
421.321	1982
421.397	1898
421.472	4785
421.548	12462
421.623	11384
421.699	3963
421.774	3529
421.850	2219
421.925	5216
422.001	5870
422.076	4568
422.152	5110
422.227	8859
422.302	10911
422.378	16427
422.453	28420
422.529	66456
422.604	161084
422.679	238669
422.755	200097
422.830	93128
422.905	36360
422.981	20308
423.056	12375
423.131	9668
423.207	6282
423.282	6252
423.357	9694
423.432	7131
423.508	6183
423.583	11971
423.658	10845
423.733	3983
423.808	4090
423.883	5561
423.959	4191
424.034	4019
424.109	3083
424.184	1609
424.259	1049
424.334	1581
424.409	869
424.484	888
424.559	1165
424.634	1367
424.709	1873
424.784	2632
424.859	1726
424.934	3137
425.009	13250
425.084	26613
425.159	11569
425.234	1763
425.309	442
425.384	2580
425.459	1949
425.534	2220
425.609	752
425.683	1171
425.758	792
425.833	804
425.908	1312
425.983	7076
426.058	26750
426.132	14693
426.207	2288
426.282	4632
426.357	3967
426.431	1233
426.506	1069
426.581	788
426.655	2006
426.730	661
426.805	968
426.879	1347
426.954	939
427.029	4049
427.103	19910
427.178	53752
427.253	29978
427.327	4138
427.402	3372
427.476	8368
427.551	4003
427.625	2276
427.700	2180
427.774	663
427.849	2010
427.923	732
427.998	698
428.072	2059
428.147	5517
428.221	18239
428.296	57779
428.370	38378
428.444	5440
428.519	6203
428.593	12716
428.667	12369
428.742	12669
428.816	12943
428.890	36731
428.965	65756
429.039	22800
429.113	15592
429.188	7191
429.262	1376
429.336	2714
429.410	12582
429.485	10138
429.559	10282
429.633	10279
429.707	2679
429.781	6435
429.855	41933
429.930	74534
430.004	40721
430.078	56631
430.152	53236
430.226	66766
430.300	81589
430.374	15628
430.448	4403
430.522	13706
430.596	50071
430.670	34941
430.744	55397
430.818	94819
430.892	24100
430.966	3232
431.040	2039
431.114	224
431.188	320
431.262	169
431.336	623
431.410	4531
431.484	14984
431.557	11233
431.631	1274
431.705	1192
431.779	8456
431.853	46069
431.927	42442
432.000	5378
432.074	1555
432.148	2415
432.222	1441
432.295	1350
432.369	1143
432.443	2210
432.516	18213
432.590	53949
432.664	25970
432.737	3474
432.811	684
432.885	-166
432.958	5
433.032	153
433.106	-609
433.179	186
433.253	105
433.326	-100
433.400	189
433.473	355
433.547	-80
433.620	344
433.694	1710
433.767	2287
433.841	931
433.914	-35
433.988	-584
434.061	-17
434.134	747
434.208	-776
434.281	-178
434.355	-557
434.428	173
434.501	26
434.575	-325
434.648	89
434.721	-469
434.795	-583
434.868	-576
434.941	-919
435.014	-157
435.088	-38
435.161	974
435.234	2283
435.307	3649
435.381	1613
435.454	1939
435.527	2701
435.600	2595
435.673	2404
435.746	1090
435.819	664
435.892	437
435.966	-238
436.039	429
436.112	566
436.185	-76
436.258	-710
436.331	-783
436.404	70
436.477	-107
436.550	-414
436.623	164
436.696	-206
436.769	-37
436.842	438
436.915	1083
436.987	1297
437.060	504
437.133	-620
437.206	230
437.279	625
437.352	9
437.425	-261
437.498	697
437.570	3104
437.643	4707
437.716	1137
437.789	-248
437.861	2001
437.934	7803
438.007	4270
438.080	123
438.152	339
438.225	3288
438.298	20909
438.370	70605
438.443	37862
438.516	9107
438.588	1440
438.661	-414
438.734	751
438.806	633
438.879	719
438.951	2385
439.024	3893
439.096	1556
439.169	-173
439.241	-482
439.314	336
439.386	1442
439.459	2874
439.531	5370
439.604	1346
439.676	606
439.749	-240
439.821	6
439.893	-104
439.966	-46
440.038	454
440.110	870
440.183	461
440.255	614
440.327	1592
440.400	9775
440.472	46181
440.544	40286
440.617	5342
440.689	3817
440.761	3534
440.833	6881
440.905	4964
440.978	379
441.050	-664
441.122	1156
441.194	-258
441.266	492
441.338	-38
441.411	1796
441.483	14944
441.555	28650
441.627	6994
441.699	3126
441.771	3687
441.843	898
441.915	428
441.987	402
442.059	253
442.131	962
442.203	2497
442.275	3136
442.347	3892
442.419	4599
442.491	22845
442.563	67207
442.635	36005
442.706	17192
442.778	14253
442.850	2160
442.922	0
442.994	1544
443.066	4472
443.137	2948
443.209	2640
443.281	3144
443.353	7301
443.425	29298
443.496	108674
443.568	124219
443.640	49411
443.711	9468
443.783	3103
443.855	1457
443.926	956
443.998	1324
444.070	2187
444.141	1609
444.213	3086
444.285	4149
444.356	3142
444.428	3077
444.499	864
444.571	801
444.642	144
444.714	660
444.785	3032
444.857	4926
444.928	10793
445.000	7216
445.071	5970
445.143	9594
445.214	5359
445.285	8412
445.357	26648
445.428	66746
445.500	170742
445.571	123929
445.642	65280
445.714	25431
445.785	22120
445.856	7218
445.928	5373
445.999	4121
446.070	3153
446.141	2963
446.213	4765
446.284	2390
446.355	1973
446.426	1536
446.497	1151
446.569	3438
446.640	5312
446.711	4221
446.782	719
446.853	2428
446.924	2988
446.995	891
447.066	1356
447.138	3845
447.209	1452
447.280	271
447.351	-577
447.422	-108
447.493	1286
447.564	2399
447.635	2537
447.706	1382
447.777	136
447.847	-231
447.918	-300
447.989	2073
448.060	2055
448.131	7329
448.202	7320
448.273	4868
448.344	2189
448.414	442
448.485	1147
448.556	768
448.627	416
448.698	801
448.768	-265
448.839	1247
448.910	3134
448.981	3722
449.051	739
449.122	-306
449.193	407
449.263	26
449.334	307
449.405	1116
449.475	4726
449.546	3997
449.616	5250
449.687	4039
449.758	723
449.828	487
449.899	16
449.969	386
450.040	387
450.110	2037
450.181	1880
450.251	594
450.322	137
450.392	913
450.463	425
450.533	443
450.604	192
450.674	776
450.744	385
450.815	315
450.885	369
450.955	519
451.026	476
451.096	442
451.166	1410
451.237	4263
451.307	13296
451.377	6287
451.447	423
451.518	641
451.588	-276
451.658	1613
451.728	1462
451.799	12223
451.869	16098
451.939	3359
452.009	-359
452.079	644
452.149	925
452.219	3079
452.289	14268
452.360	11871
452.430	2021
452.500	1064
452.570	2639
452.640	3665
452.710	11671
452.780	19155
452.850	10946
452.920	11167
452.990	4838
453.060	2177
453.129	3029
453.199	3698
453.269	12649
453.339	34216
453.409	55831
453.479	48185
453.549	76036
453.619	85750
453.688	36074
453.758	4318
453.828	1452
453.898	876
453.968	704
454.037	932
454.087	1047
454.107	1094
454.168	566
454.177	484
454.247	171
454.249	190
454.316	452
454.330	643
454.386	1314
454.411	2954
454.456	5645
454.492	8651
454.525	11371
454.574	5930
454.595	3561
454.655	913
454.665	487
454.734	887
454.736	956
454.804	2805
454.817	4437
454.873	11011
454.898	12748
454.943	15963
454.979	10239
455.013	5073
455.060	2776
455.082	1762
455.141	2034
455.152	2027
455.221	7932
455.222	8056
455.291	17242
455.303	15320
455.360	6808
455.384	6653
455.430	6317
455.465	5817
455.499	5297
455.546	9695
455.569	11608
455.627	8921
455.638	8515
455.707	981
455.708	988
455.777	1017
455.789	1004
455.846	758
455.869	586
455.916	400
455.950	602
455.985	712
456.031	785
456.054	797
456.112	863
456.124	920
456.193	608
456.193	598
456.262	808
456.274	985
456.332	1878
456.355	1969
456.401	1918
456.436	1557
456.470	1271
456.516	889
456.540	715
456.597	250
456.609	126
456.678	944
456.678	941
456.747	274
456.759	250
456.817	150
456.840	203
456.886	225
456.920	526
456.955	914
457.001	883
457.024	864
457.082	991
457.093	1020
457.162	1722
457.163	1732
457.232	2635
457.243	2456
457.301	1465
457.324	1265
457.370	985
457.405	550
457.439	212
457.485	710
457.508	904
457.566	731
457.577	748
457.646	1670
457.647	1679
457.715	2652
457.727	2975
457.784	4430
457.808	5618
457.853	7168
457.889	9784
457.922	11559
457.969	7361
457.991	6415
458.050	7183
458.060	7288
458.129	12669
458.130	12854
458.198	16097
458.211	14397
458.267	8310
458.292	5942
458.336	3316
458.372	3368
458.405	4157
458.453	5461
458.474	6374
458.533	11471
458.543	11826
458.611	22187
458.614	22290
458.680	18135
458.694	14759
458.749	6049
458.775	4338
458.818	2132
458.855	1932
458.887	1563
458.936	1159
458.955	1149
459.016	1523
459.024	1520
459.093	1410
459.097	1398
459.162	1424
459.177	1448
459.230	1452
459.257	1951
459.299	2749
459.338	2562
459.368	2188
459.418	2291
459.437	2392
459.499	2241
459.505	2198
459.574	1409
459.579	1363
459.643	1161
459.659	1285
459.711	1714
459.740	1466
459.780	838
459.820	933
459.849	1148
459.900	1669
459.917	1830
459.981	2006
459.986	1992
460.054	1406
460.061	1455
460.123	2498
460.141	2458
460.191	2261
460.222	2497
460.260	2858
460.302	3573
460.328	3634
460.382	3278
460.397	3258
460.462	2159
460.465	2189
460.534	4261
460.543	4463
460.602	9638
460.623	12028
460.671	18620
460.703	25660
460.739	24034
460.783	19665
460.808	18548
460.864	5755
460.876	4165
460.944	1913
460.945	1879
461.013	1868
461.024	1860
461.081	1833
461.104	1912
461.150	2313
461.184	2522
461.218	2447
461.264	1802
461.286	1548
461.345	1405
461.355	1433
461.423	1747
461.425	1748
461.491	1973
461.505	2011
461.559	3955
461.585	5094
461.628	6895
461.665	8992
461.696	9606
461.745	13101
461.764	12967
461.825	5869
461.832	5572
461.901	2122
461.905	2136
461.969	1613
461.985	1384
462.037	1974
462.065	2197
462.105	2385
462.145	2885
462.173	3559
462.225	4695
462.241	5091
462.305	8081
462.310	7938
462.378	5563
462.385	4916
462.446	2356
462.465	1947
462.514	2064
462.545	2448
462.582	2384
462.625	2288
462.650	2287
462.705	2227
462.718	2221
462.785	2120
462.786	2127
462.854	2486
462.865	2643
462.922	4061
462.945	4747
462.990	3750
463.025	2242
463.058	2075
463.104	1803
463.126	1650
463.184	1838
463.194	1886
463.262	2132
463.264	2144
463.330	2247
463.344	2273
463.398	2321
463.424	2114
463.466	1747
463.504	1823
463.533	2121
463.583	2369
463.601	2579
463.663	3324
463.669	3381
463.737	4276
463.743	4341
463.805	6286
463.823	6857
463.873	9356
463.903	11041
463.940	11478
463.982	12901
464.008	10997
464.062	4583
464.076	4362
464.142	2656
464.144	2609
464.211	2254
464.221	2236
464.279	2205
464.301	2130
464.347	2681
464.381	3215
464.414	3442
464.461	3863
464.482	3814
464.540	3654
464.550	3632
464.617	3125
464.620	3101
464.685	3703
464.699	3915
464.753	4338
464.779	4494
464.820	5225
464.859	5980
464.888	5443
464.938	4293
464.956	4371
465.018	4997
465.023	4959
465.091	3976
465.098	3884
465.158	3594
465.177	3494
465.226	4077
465.257	4455
465.293	4230
465.336	3917
465.361	4433
465.416	5652
465.428	6016
465.495	8210
465.496	8243
465.563	11658
465.575	12300
465.631	14157
465.654	15189
465.698	10640
465.734	5909
465.765	4913
465.813	3452
465.833	3423
465.893	3986
465.900	3924
465.968	3227
465.972	3179
466.035	3428
466.052	3515
466.102	3862
466.131	4008
466.170	4104
466.210	4224
466.237	4199
466.290	4083
466.304	4253
466.369	5021
466.372	5052
466.439	5828
466.449	5915
466.506	5892
466.528	5913
466.573	8360
466.607	10162
466.641	13422
466.687	17938
466.708	19195
466.766	22907
466.775	21371
466.842	9488
466.845	8908
466.909	6914
466.925	6509
466.977	6124
467.004	6006
467.044	6560
467.083	7076
467.111	7274
467.163	7643
467.178	7555
467.242	7138
467.245	7165
467.312	7592
467.321	7642
467.379	6962
467.400	6699
467.446	7202
467.480	7552
467.559	6845
467.638	5439
467.717	6047
467.796	6338
467.875	7240
467.955	6178
468.034	11366
468.113	20051
468.192	26555
468.271	7564
468.350	6806
468.429	7776
468.508	7674
468.588	5905
468.667	5166
468.746	5048
468.825	5020
468.904	4750
468.983	6952
469.062	7173
469.141	9422
469.220	4329
469.299	5270
469.378	5173
469.456	5743
469.535	5749
469.614	5607
469.693	5381
469.772	8210
469.851	8805
469.930	6233
470.009	5560
470.088	5275
470.166	7531
470.245	10864
470.324	11191
470.403	7126
470.482	6014
470.560	4917
470.639	5108
470.718	6538
470.797	5335
470.875	6138
470.954	8015
471.033	7325
471.111	3839
471.190	3974
471.269	4047
471.347	3952
471.426	4622
471.505	5349
471.583	6070
471.662	4766
471.740	4834
471.819	4726
471.898	4618
471.976	5402
472.055	4086
472.133	5577
472.212	7406
472.290	6740
472.369	4358
472.447	4142
472.526	4068
472.604	4790
472.683	4449
472.761	4826
472.839	4915
472.918	4135
472.996	5010
473.075	5541
473.153	4988
473.231	4346
473.310	5210
473.388	4836
473.466	5619
473.545	5182
473.623	7006
473.701	6302
473.780	4374
473.858	3417
473.936	5356
474.014	3812
474.093	5655
474.171	7044
474.249	9714
474.327	6656
474.405	4391
474.484	4318
474.562	3767
474.640	3732
474.718	4930
474.796	4522
474.874	3637
474.952	2860
475.030	3827
475.108	3988
475.187	4523
475.265	5722
475.343	6530
475.421	7513
475.499	4760
475.577	5053
475.655	6892
475.733	11030
475.811	18376
475.889	17044
475.966	9378
476.044	3695
476.122	5331
476.200	6406
476.278	5089
476.356	4691
476.434	3656
476.512	6259
476.590	6643
476.667	5308
476.745	4621
476.823	3963
476.901	4645
476.979	3697
477.056	3974
477.134	3986
477.212	4700
477.290	4285
477.367	3627
477.445	3394
477.523	3177
477.601	3532
477.678	3354
477.756	4629
477.834	4873
477.911	3274
477.989	4124
478.066	3994
478.144	4356
478.222	5390
478.299	8068
478.377	6460
478.454	3684
478.532	3544
478.609	4625
478.687	5276
478.764	3163
478.842	4247
478.919	4147
478.997	3809
479.074	2929
479.152	3896
479.229	5472
479.307	3057
479.384	3256
479.461	2456
479.539	3175
479.616	3946
479.694	2945
479.771	3879
479.848	4118
479.926	5348
480.003	6526
480.080	3600
480.157	3122
480.235	3140
480.312	2763
480.389	3064
480.467	5657
480.544	8520
480.621	3481
480.698	3998
480.775	4166
480.853	4321
480.930	3601
481.007	3440
481.084	5238
481.161	4368
481.238	3740
481.315	4158
481.392	3069
481.470	3580
481.547	4004
481.624	3419
481.701	3131
481.778	3396
481.855	4916
481.932	5880
482.009	11071
482.086	6512
482.163	3879
482.240	6259
482.317	10357
482.393	7135
482.470	4584
482.547	3884
482.624	3115
482.701	3432
482.778	3141
482.855	2203
482.932	3118
483.009	2394
483.085	3447
483.162	4262
483.239	4676
483.316	2832
483.393	3785
483.469	3330
483.546	3601
483.623	4003
483.699	3233
483.776	3396
483.853	4811
483.930	6742
484.006	17513
484.083	27438
484.160	14663
484.236	20649
484.313	14878
484.389	11306
484.466	10797
484.543	9720
484.619	10492
484.696	11581
484.772	10852
484.849	11692
484.925	8908
485.002	9481
485.078	9849
485.155	9634
485.231	8335
485.308	8560
485.384	9235
485.461	11143
485.537	18276
485.614	20447
485.690	8737
485.766	9255
485.843	10839
485.919	13532
485.995	12652
486.072	7321
486.148	8318
486.224	7772
486.301	7668
486.377	9694
486.453	10008
486.530	9842
486.606	12917
486.682	13713
486.758	15537
486.835	16940
486.911	14392
486.987	23589
487.063	24817
487.139	29652
487.215	19402
487.292	11080
487.368	9646
487.444	9987
487.520	12736
487.596	11233
487.672	21235
487.748	47042
487.824	60416
487.900	18154
487.976	10657
488.052	10396
488.128	11728
488.204	8786
488.280	8701
488.356	10933
488.432	20935
488.508	27357
488.584	10465
488.660	7996
488.736	8185
488.812	7958
488.888	10939
488.964	16107
489.039	31782
489.115	42367
489.191	22074
489.267	9159
489.343	7926
489.418	6370
489.494	7055
489.570	5827
489.646	7505
489.722	6698
489.797	7126
489.873	11849
489.949	21393
490.024	17209
490.100	6277
490.176	7246
490.251	8712
490.327	11147
490.403	6028
490.478	5841
490.554	4967
490.629	5162
490.705	5132
490.781	6052
490.856	6159
490.932	7209
491.007	7201
491.083	6808
491.158	5386
491.234	8813
491.309	17717
491.385	16365
491.460	6259
491.536	6726
491.611	5203
491.686	7055
491.762	9124
491.837	19755
491.913	32381
491.988	43708
492.063	47638
492.139	12295
492.214	8786
492.289	5520
492.365	4737
492.440	6315
492.515	5215
492.590	5243
492.666	5093
492.741	6815
492.816	10343
492.891	5304
492.967	4885
493.042	3943
493.117	4694
493.192	3941
493.267	5476
493.342	9614
493.418	10642
493.493	4280
493.568	4086
493.643	4300
493.718	5901
493.793	9368
493.868	9688
493.943	5712
494.018	4212
494.093	3487
494.168	5005
494.243	3638
494.318	4372
494.393	4018
494.468	3732
494.543	3407
494.618	5132
494.693	3834
494.768	4044
494.842	3628
494.917	4045
494.992	4132
495.067	2687
495.142	4466
495.217	3548
495.292	3394
495.366	4321
495.441	5776
495.516	8566
495.591	14641
495.665	45090
495.740	89529
495.815	27517
495.890	6054
495.964	4033
496.039	6611
496.114	5840
496.188	6733
496.263	5954
496.338	5014
496.412	5917
496.487	7330
496.561	6861
496.636	7662
496.710	6383
496.785	6873
496.860	7344
496.934	4783
497.009	6285
497.083	4514
497.158	6548
497.232	7544
497.307	9178
497.381	7727
497.455	9014
497.530	10370
497.604	7278
497.679	8594
497.753	14208
497.827	17222
497.902	16211
497.976	21856
498.050	53048
498.125	159976
498.199	141569
498.273	25793
498.348	19543
498.422	14542
498.496	13234
498.570	11952
498.645	9064
498.719	7578
498.793	10577
498.867	16497
498.941	24338
499.016	68837
499.090	160864
499.164	46670
499.238	5975
499.312	6868
499.386	7398
499.460	7224
499.534	6601
499.609	9128
499.683	12126
499.757	13273
499.831	34493
499.905	110399
499.979	90063
500.053	14151
500.127	14467
500.201	9231
500.275	6626
500.349	6074
500.422	8677
500.496	12743
500.570	28944
500.644	65614
500.718	105915
500.792	19760
500.866	6048
500.940	8012
501.013	7214
501.087	6839
501.161	13453
501.235	16494
501.309	40998
501.382	98306
501.456	76741
501.530	17425
501.603	28118
501.677	10536
501.751	4400
501.825	8168
501.898	15481
501.972	36799
502.046	21004
502.119	6923
502.193	18658
502.266	40427
502.340	18436
502.413	19838
502.487	33858
502.561	18445
502.634	5804
502.708	5533
502.781	4177
502.855	3942
502.928	2915
503.002	3059
503.075	3121
503.149	3505
503.222	3476
503.295	3823
503.369	5749
503.442	9884
503.516	31273
503.589	68889
503.662	40072
503.736	14598
503.809	32149
503.882	25939
503.956	38679
504.029	36170
504.102	28849
504.175	33535
504.249	10408
504.322	6133
504.395	5298
504.468	3734
504.542	4202
504.615	2184
504.688	3449
504.761	1578
504.834	4849
504.907	5700
504.980	8700
505.053	4380
505.127	3486
505.200	7842
505.273	5632
505.346	2635
505.419	3198
505.492	2897
505.565	1093
505.638	3273
505.711	2626
505.784	2178
505.857	2326
505.930	3198
506.003	1273
506.076	4050
506.149	4105
506.221	4052
506.294	6937
506.367	17060
506.440	51313
506.513	24315
506.586	5820
506.659	3539
506.731	3336
506.804	3926
506.877	4412
506.950	3845
507.022	3022
507.095	2815
507.168	5602
507.241	3229
507.313	2243
507.386	2311
507.459	5189
507.531	2800
507.604	2061
507.677	2670
507.749	1931
507.822	4007
507.894	8027
507.967	8977
508.040	4895
508.112	3364
508.185	3592
508.257	3502
508.330	6059
508.402	3240
508.475	2433
508.547	3965
508.620	4408
508.692	6055
508.765	3623
508.837	2027
508.909	3598
508.982	3155
509.054	4192
509.127	2855
509.199	2904
509.271	1991
509.344	2553
509.416	2482
509.488	3105
509.560	3840
509.633	3460
509.705	3869
509.777	3599
509.849	5525
509.922	2477
509.994	2846
510.066	3719
510.138	2494
510.210	8128
510.283	6290
510.355	5402
510.427	4587
510.499	5797
510.571	4868
510.643	4357
510.715	8135
510.787	4767
510.859	5727
510.931	4948
511.003	7340
511.076	6620
511.148	3619
511.219	3654
511.291	6246
511.363	7661
511.435	3005
511.507	2906
511.579	4055
511.651	3518
511.723	2849
511.795	2948
511.867	3849
511.939	5656
512.010	8517
512.082	6631
512.154	2764
512.226	3492
512.298	6860
512.369	9241
512.441	6392
512.513	6707
512.585	3359
512.656	4695
512.728	5417
512.800	3488
512.871	4362
512.943	4332
513.015	2723
513.086	4282
513.158	4560
513.230	4581
513.301	7347
513.373	8775
513.444	3901
513.516	4473
513.588	3287
513.659	5102
513.731	5622
513.802	5029
513.874	12337
513.945	17643
514.016	4616
514.088	3589
514.159	4610
514.231	6107
514.302	8148
514.374	6635
514.445	5761
514.516	12753
514.588	7163
514.659	5976
514.730	9876
514.802	8586
514.873	5035
514.944	7045
515.016	5524
515.087	6140
515.158	8374
515.229	11641
515.301	6529
515.372	9288
515.443	4881
515.514	3955
515.585	2625
515.656	4038
515.728	4455
515.799	3661
515.870	4093
515.941	5331
516.012	3910
516.083	6769
516.154	6636
516.225	9921
516.296	7199
516.367	5869
516.438	7417
516.509	11631
516.580	20872
516.651	68869
516.722	185611
516.793	58415
516.864	11945
516.935	13206
517.006	17100
517.077	28764
517.148	73337
517.219	244667
517.289	276278
517.360	68254
517.431	21841
517.502	7356
517.573	8157
517.643	6680
517.714	7655
517.785	8571
517.856	7628
517.926	9611
517.997	10978
518.068	15486
518.138	23925
518.209	48304
518.280	179810
518.350	485813
518.421	128406
518.492	15507
518.562	10219
518.633	9843
518.703	8981
518.774	19283
518.845	41988
518.915	35531
518.986	11904
519.056	10816
519.127	18929
519.197	29107
519.268	57959
519.338	34262
519.408	8752
519.479	11516
519.549	7005
519.620	6566
519.690	3574
519.760	4286
519.831	4966
519.901	4994
519.971	4820
520.042	3851
520.112	4566
520.182	6319
520.253	5746
520.323	3702
520.393	4073
520.463	8754
520.534	4109
520.604	11616
520.674	7046
520.744	6325
520.814	12017
520.885	11547
520.955	22719
521.025	66483
521.095	22463
521.165	4374
521.235	4302
521.305	3503
521.375	3144
521.445	4762
521.515	5576
521.585	7921
521.655	4628
521.725	6087
521.795	5705
521.865	2640
521.935	6788
522.005	4280
522.075	3643
522.145	3763
522.215	3952
522.285	5960
522.355	9309
522.424	16709
522.494	12818
522.564	8096
522.634	17910
522.704	43027
522.774	12031
522.843	4516
522.913	4136
522.983	5662
523.053	2877
523.122	4911
523.192	6952
523.262	25269
523.331	17798
523.401	4088
523.471	2353
523.540	3797
523.610	1717
523.680	2841
523.749	3226
523.819	4379
523.888	3504
523.958	2293
524.027	3758
524.097	3105
524.166	2373
524.236	3537
524.305	4449
524.375	1462
524.444	1949
524.514	4559
524.583	3201
524.653	4229
524.722	5088
524.791	2256
524.861	3585
524.930	2230
524.999	2754
525.069	5357
525.138	3479
525.207	4624
525.277	3215
525.346	2384
525.415	3727
525.484	3581
525.554	3397
525.623	4229
525.692	4306
525.761	4013
525.830	4050
525.900	5039
525.969	8494
526.038	15818
526.107	30307
526.176	81378
526.245	56037
526.314	22095
526.383	45088
526.452	54910
526.522	99332
526.591	84654
526.660	22151
526.729	11838
526.797	19060
526.867	45449
526.935	157195
527.004	226034
527.073	97407
527.142	8198
527.211	4599
527.280	5422
527.349	4309
527.418	2375
527.487	3263
527.555	1994
527.624	1734
527.693	1136
527.762	3319
527.831	1720
527.899	2240
527.968	2213
528.037	1223
528.106	4062
528.174	7119
528.243	5680
528.312	8946
528.380	9574
528.449	1755
528.518	3958
528.586	1252
528.655	3135
528.723	2215
528.792	1783
528.861	1259
528.929	414
528.998	2759
529.066	2187
529.135	2171
529.203	1385
529.272	1071
529.340	2394
529.409	2860
529.477	1386
529.545	1995
529.614	5878
529.682	2716
529.751	3595
529.819	6256
529.887	2879
529.956	2545
530.024	3054
530.092	552
530.161	3680
530.229	4169
530.297	2805
530.365	2800
530.434	2669
530.502	486
530.570	1878
530.638	455
530.707	3218
530.775	4086
530.843	2349
530.911	1663
530.979	3013
531.047	1645
531.115	2616
531.183	1750
531.252	2680
531.320	1402
531.388	1689
531.456	1970
531.524	926
531.592	2751
531.660	3733
531.728	1319
531.796	1979
531.864	1954
531.932	1972
532.000	1381
532.067	2726
532.135	2926
532.203	4110
532.271	2948
532.339	7504
532.407	17843
532.475	8819
532.542	5278
532.610	5511
532.678	10555
532.746	43675
532.814	79510
532.881	15177
532.949	3280
533.017	2942
533.084	2378
533.152	2803
533.220	2035
533.287	2928
533.355	2453
533.423	2777
533.490	1338
533.558	2180
533.625	2648
533.693	2585
533.761	2914
533.828	3154
533.896	1649
533.963	6827
534.031	7752
534.098	11154
534.166	4182
534.233	2117
534.300	3779
534.368	2226
534.435	1825
534.503	2936
534.570	2343
534.637	2215
534.705	3933
534.772	5818
534.840	9386
534.907	40754
534.974	41608
535.041	5155
535.109	2759
535.176	2157
535.243	3138
535.310	2636
535.378	1792
535.445	2065
535.512	2348
535.579	2747
535.646	1655
535.714	2769
535.781	3023
535.848	3276
535.915	4166
535.982	2463
536.049	2237
536.116	3650
536.183	1713
536.250	2755
536.317	3203
536.384	4607
536.451	6902
536.518	5299
536.585	2905
536.652	6305
536.719	7891
536.786	4535
536.853	4857
536.920	8377
536.987	12486
537.053	12989
537.120	46718
537.187	30477
537.254	3352
537.321	2027
537.388	4223
537.454	3134
537.521	2535
537.588	2548
537.654	5062
537.721	3974
537.788	4217
537.855	3120
537.921	3129
537.988	3440
538.055	3866
538.121	3095
538.188	3946
538.254	5852
538.321	11008
538.388	6086
538.454	3683
538.521	3274
538.587	3327
538.654	2955
538.720	3097
538.787	2977
538.853	3596
538.920	4446
538.986	4404
539.053	3525
539.119	4006
539.185	3665
539.252	5671
539.318	7094
539.385	5821
539.451	4621
539.517	5470
539.583	7274
539.650	14274
539.716	30510
539.782	7019
539.849	2736
539.915	3929
539.981	3368
540.047	4249
540.114	4170
540.180	4581
540.246	4488
540.312	5797
540.378	12423
540.444	13591
540.510	15745
540.576	34754
540.643	9129
540.709	2950
540.775	3616
540.841	3566
540.907	6018
540.973	7936
541.039	6903
541.105	7087
541.171	3880
541.237	2691
541.303	4462
541.369	6015
541.435	6351
541.500	10909
541.566	4525
541.632	3501
541.698	2217
541.764	3843
541.830	3194
541.896	1839
541.961	3556
542.027	3179
542.093	3928
542.159	3661
542.224	4460
542.290	6341
542.356	10124
542.421	11786
542.487	4995
542.553	4069
542.618	3600
542.684	3326
542.750	4171
542.815	6309
542.881	10592
542.947	32725
543.012	19824
543.078	3602
543.143	2608
543.209	3902
543.274	3515
543.340	6142
543.405	13943
543.471	17149
543.536	4035
543.602	3839
543.667	2611
543.732	4783
543.798	2101
543.863	3642
543.928	2478
543.994	2219
544.059	2858
544.124	3679
544.190	3162
544.255	3949
544.320	4022
544.386	3092
544.451	6433
544.516	6598
544.581	7555
544.646	22122
544.712	28125
544.777	5818
544.842	5203
544.907	4812
544.972	5553
545.037	4330
545.102	5134
545.168	4660
545.233	5988
545.298	6405
545.363	6597
545.428	7678
545.493	14776
545.558	24773
545.623	9417
545.688	4357
545.753	4983
545.818	4704
545.883	5448
545.947	5234
546.012	6383
546.077	5445
546.142	6997
546.207	5063
546.272	8577
546.337	7265
546.401	7091
546.466	6735
546.531	4986
546.596	7093
546.661	7090
546.725	7359
546.790	6501
546.855	6796
546.919	6949
546.984	7190
547.049	8263
547.113	10231
547.178	9362
547.243	12219
547.307	13195
547.372	15099
547.436	15557
547.501	14123
547.565	15409
547.630	15418
547.695	14904
547.759	15140
547.823	14406
547.888	13404
547.952	14463
548.017	15280
548.081	16747
548.146	18589
548.210	16678
548.274	16180
548.339	15286
548.403	15091
548.468	13581
548.532	13018
548.596	14374
548.660	13980
548.725	16248
548.789	16961
548.853	16802
548.917	15254
548.982	16638
549.046	16975
549.110	11873
549.174	13185
549.238	14270
549.303	14370
549.367	17805
549.431	15436
549.495	14787
549.559	13436
549.623	18056
549.687	18861
549.751	22211
549.815	22131
549.879	21649
549.943	19228
550.007	21685
550.071	21691
550.135	21864
550.199	18453
550.263	18950
550.327	17582
550.391	20397
550.455	19503
550.519	21607
550.582	23449
550.646	27457
550.710	25963
550.774	24360
550.838	24106
550.901	24583
550.965	26903
551.029	26802
551.093	31338
551.156	34597
551.220	47215
551.284	50978
551.347	34611
551.411	41924
551.475	41304
551.538	26872
551.602	24506
551.666	22833
551.729	20416
551.793	21222
551.856	20847
551.920	20649
551.983	20688
552.047	20578
552.110	19850
552.174	21311
552.237	22199
552.301	18852
552.364	19219
552.428	18998
552.491	19213
552.554	20618
552.618	19827
552.681	21336
552.745	21776
552.808	27615
552.871	30638
552.934	22971
552.998	20406
553.061	19771
553.124	18470
553.187	18236
553.251	18816
553.314	20511
553.377	18702
553.440	22583
553.503	23699
553.567	25307
553.630	20553
553.693	20070
553.756	20592
553.819	18951
553.882	19067
553.945	19425
554.008	19367
554.071	18933
554.134	19732
554.197	18972
554.260	17574
554.323	20507
554.386	19753
554.449	19349
554.512	19617
554.575	18464
554.638	18337
554.701	18859
554.764	18674
554.827	18157
554.889	16972
554.952	15669
555.015	14782
555.078	16877
555.141	17183
555.203	15590
555.266	15785
555.329	16369
555.391	14882
555.454	15604
555.517	15785
555.580	14285
555.642	13491
555.705	13371
555.768	13167
555.830	13477
555.893	12010
555.955	12293
556.018	12174
556.080	12000
556.143	13270
556.206	11668
556.268	12859
556.330	13277
556.393	12167
556.455	11915
556.518	14712
556.580	14254
556.643	11482
556.705	11674
556.767	10366
556.830	11717
556.892	12484
556.955	14369
557.017	11981
557.079	10934
557.142	10222
557.204	11572
557.266	17721
557.328	13488
557.391	8693
557.453	8970
557.515	9679
557.577	10318
557.639	9449
557.701	8347
557.764	7715
557.826	8916
557.888	9899
557.950	10491
558.012	12107
558.074	16900
558.136	32178
558.198	64411
558.260	21190
558.322	8751
558.384	10798
558.446	11742
558.508	15143
558.570	18647
558.632	28963
558.694	43342
558.756	57457
558.818	147497
558.880	295603
558.942	82563
559.003	68119
559.065	28770
559.127	13843
559.189	15195
559.251	20760
559.312	33426
559.374	71785
559.436	199709
559.498	80729
559.559	14790
559.621	15756
559.683	22061
559.744	37187
559.806	101428
559.868	128070
559.929	23435
559.991	17573
560.052	28195
560.114	69578
560.176	41676
560.237	42085
560.299	58076
560.360	13562
560.422	6987
560.483	7030
560.545	6562
560.606	7370
560.667	6859
560.729	6454
560.790	5805
560.852	6187
560.913	6279
560.974	5237
561.036	6380
561.097	6685
561.158	6000
561.220	6955
561.281	6366
561.342	5925
561.403	8643
561.465	10019
561.526	20701
561.587	23016
561.648	6862
561.709	5984
561.771	5978
561.832	5676
561.893	5288
561.954	6257
562.015	6007
562.076	5562
562.137	6253
562.198	5448
562.259	5971
562.320	5692
562.381	7607
562.442	9286
562.503	8325
562.564	6503
562.625	6247
562.686	6273
562.747	6556
562.808	6531
562.869	6402
562.930	6925
562.991	6533
563.051	6657
563.112	6284
563.173	5676
563.234	5302
563.294	5311
563.355	5175
563.416	6416
563.477	5616
563.537	5815
563.598	6497
563.659	5865
563.720	6493
563.780	6007
563.841	6259
563.901	5522
563.962	6041
564.023	5406
564.083	6117
564.144	5438
564.204	6629
564.265	6643
564.325	8106
564.386	11857
564.446	10761
564.507	5589
564.567	5777
564.628	5177
564.688	6459
564.749	5944
564.809	7213
564.869	7154
564.930	5953
564.990	6123
565.050	6022
565.111	5236
565.171	6334
565.231	6821
565.292	6536
565.352	4719
565.412	6381
565.472	7057
565.532	5661
565.593	6228
565.653	5972
565.713	5778
565.773	7484
565.833	7949
565.893	10554
565.953	6412
566.013	7030
566.074	7659
566.134	9156
566.194	13451
566.254	12613
566.314	8604
566.374	7546
566.434	7085
566.494	6723
566.554	6399
566.614	7706
566.673	8703
566.733	8346
566.793	9259
566.853	9510
566.913	9095
566.973	9603
567.033	9267
567.092	9156
567.152	8803
567.212	9412
567.272	9884
567.331	10441
567.391	10191
567.451	12336
567.511	13535
567.570	12250
567.630	9374
567.690	9713
567.749	9516
567.809	9687
567.868	11007
567.928	13181
567.988	15536
568.047	17825
568.107	22111
568.166	30119
568.226	46915
568.285	62060
568.345	46933
568.404	36925
568.464	32236
568.523	31721
568.582	33612
568.642	38696
568.701	49337
568.761	72144
568.820	107932
568.879	93551
568.939	67090
568.998	50654
569.057	37320
569.116	30581
569.176	25436
569.235	21065
569.294	18881
569.353	16888
569.413	15162
569.472	14027
569.531	12926
569.590	10991
569.649	10778
569.708	10030
569.767	11610
569.827	11028
569.886	9689
569.945	8934
570.004	9490
570.063	8802
570.122	8224
570.181	9456
570.240	8462
570.299	9176
570.358	8357
570.417	7269
570.475	7088
570.534	7407
570.593	8296
570.652	7864
570.711	7781
570.770	7418
570.829	7612
570.887	7631
570.946	8761
571.005	6552
571.064	7297
571.122	7844
571.181	8185
571.240	7112
571.299	6730
571.357	7967
571.416	7014
571.475	7634
571.533	8662
571.592	6612
571.650	7529
571.709	5819
571.768	6840
571.826	6476
571.885	6531
571.943	6638
572.002	6070
572.060	6354
572.119	6056
572.177	6626
572.236	5523
572.294	5508
572.352	5924
572.411	5439
572.469	5759
572.528	6245
572.586	6732
572.644	7598
572.703	8258
572.761	5922
572.819	5173
572.877	5386
572.936	5633
572.994	5315
573.052	5844
573.110	5767
573.169	6534
573.227	4986
573.285	5584
573.343	5401
573.401	5180
573.459	5898
573.517	4927
573.576	5350
573.634	5618
573.692	5662
573.750	5225
573.808	5563
573.866	6437
573.924	7503
573.982	6689
574.040	4944
574.098	6141
574.155	4942
574.213	5025
574.271	4648
574.329	5748
574.387	5688
574.445	4981
574.503	4674
574.560	4665
574.618	4857
574.676	4120
574.734	4240
574.792	6442
574.849	4552
574.907	4820
574.965	3979
575.022	5175
575.080	5215
575.138	5687
575.195	5402
575.253	4928
575.311	5863
575.368	5184
575.426	4303
575.483	5999
575.541	4769
575.598	4758
575.656	5337
575.713	5515
575.771	4924
575.828	5309
575.886	5896
575.943	5834
576.001	5779
576.058	5703
576.115	5918
576.173	6936
576.230	7631
576.287	7729
576.345	6909
576.402	5952
576.459	5273
576.517	6045
576.574	6502
576.631	5896
576.688	6421
576.746	5890
576.803	5141
576.860	4821
576.917	5650
576.974	5900
577.031	5524
577.089	5830
577.146	5935
577.203	5440
577.260	6146
577.317	6561
577.374	6920
577.431	6387
577.488	6092
577.545	5659
577.602	6023
577.659	5563
577.716	5738
577.773	5894
577.830	4908
577.886	6169
577.943	4642
578.000	6224
578.057	5485
578.114	6248
578.171	6048
578.227	6611
578.284	5203
578.341	5738
578.398	6399
578.454	6046
578.511	6998
578.568	7412
578.625	6082
578.681	5393
578.738	6193
578.794	6299
578.851	5664
578.908	5549
578.964	6667
579.021	6319
579.077	5871
579.134	5391
579.190	5388
579.247	5898
579.303	5428
579.360	4806
579.416	5350
579.473	4660
579.529	4907
579.586	5658
579.642	5756
579.698	5633
579.755	6588
579.811	5865
579.867	5626
579.924	6153
579.980	5525
580.036	5399
580.093	5893
580.149	6484
580.205	6166
580.261	6773
580.317	6838
580.374	6346
580.430	7901
580.486	7831
580.542	6497
580.598	5890
580.619	6449
580.654	7415
580.692	6385
580.710	5861
580.765	6112
580.767	6108
580.823	6832
580.838	6882
580.879	6989
580.911	6968
580.935	6947
580.984	6909
580.991	6894
581.047	7137
581.057	7152
581.103	7188
581.130	6952
581.159	6661
581.203	7502
581.215	7729
581.270	7435
581.276	7487
581.326	7836
581.349	7775
581.382	7709
581.422	7642
581.438	7556
581.494	8626
581.494	8629
581.550	7966
581.567	8206
581.606	8655
581.640	8362
581.661	8172
581.713	8583
581.717	8606
581.773	8748
581.786	8568
581.829	7993
581.859	8674
581.885	9210
581.932	8291
581.940	8108
581.996	9585
582.004	9611
582.052	9690
582.077	9458
582.107	9155
582.150	9353
582.163	9419
582.219	9325
582.223	9347
582.274	9428
582.296	9358
582.330	9296
582.368	9984
582.386	10243
582.441	10350
582.441	10341
582.497	9986
582.514	10037
582.552	10161
582.587	10541
582.608	10763
582.659	10452
582.663	10433
582.719	11623
582.732	11608
582.774	11427
582.805	10914
582.830	10538
582.877	11435
582.885	11545
582.941	10863
582.950	11013
582.996	11883
583.023	12051
583.052	12382
583.095	12975
583.107	13020
583.162	12891
583.168	12969
583.218	13755
583.240	13593
583.273	13380
583.313	13658
583.328	13765
583.384	13324
583.385	13327
583.439	13490
583.458	13639
583.494	13742
583.531	13512
583.549	13564
583.603	14222
583.605	14235
583.660	14931
583.676	14795
583.715	14535
583.748	14849
583.770	15143
583.820	15787
583.825	15839
583.881	16137
583.893	15933
583.936	15348
583.965	15878
583.991	16392
584.038	16521
584.046	16506
584.101	17190
584.110	17149
584.156	17255
584.183	17339
584.211	17368
584.255	17720
584.266	17827
584.321	17674
584.328	17767
584.376	18813
584.400	18978
584.431	19372
584.472	19078
584.486	18855
584.541	19967
584.545	19939
584.596	20273
584.617	20468
584.651	20918
584.689	21469
584.706	21751
584.761	21981
584.762	21958
584.816	22209
584.834	22427
584.871	23204
584.906	23603
584.926	23712
584.978	23454
584.980	23516
585.035	25829
585.051	26163
585.090	27090
585.123	27707
585.145	28192
585.195	29566
585.200	29726
585.254	30670
585.267	31082
585.309	33185
585.340	34783
585.364	36082
585.412	38521
585.419	39077
585.473	44938
585.484	46244
585.528	54071
585.556	59888
585.583	74058
585.628	102295
585.637	116245
585.692	219157
585.700	235878
585.747	303630
585.772	296579
585.801	204687
585.845	88781
585.856	78716
585.910	50561
585.917	47317
585.965	43817
585.989	42425
586.019	42054
586.061	41188
586.074	41240
586.128	41475
586.133	41432
586.183	43302
586.205	43981
586.237	44648
586.277	44817
586.292	44979
586.346	45675
586.349	45635
586.401	46781
586.421	46824
586.455	48303
586.493	50517
586.509	52791
586.564	59594
586.565	59706
586.618	78749
586.637	82537
586.672	73797
586.709	64471
586.727	62699
586.781	59979
586.781	60124
586.835	59154
586.853	58609
586.889	59109
586.925	59296
586.944	59830
586.996	61526
586.998	61770
587.052	64882
587.068	65607
587.106	66997
587.140	67927
587.161	69231
587.212	71653
587.215	72018
587.269	76542
587.284	77461
587.323	79408
587.356	80637
587.377	82638
587.427	86665
587.431	87154
587.485	90722
587.499	91482
587.539	95319
587.571	98421
587.593	101509
587.643	106685
587.648	107569
587.702	114564
587.715	116069
587.755	123061
587.786	127697
587.810	131471
587.858	138506
587.864	140108
587.917	153062
587.930	155539
587.971	167381
588.001	175823
588.025	183299
588.073	195617
588.079	198299
588.133	219593
588.145	223619
588.187	244496
588.217	259019
588.241	274845
588.288	304539
588.295	310379
588.348	353263
588.360	361641
588.402	406251
588.431	436762
588.456	472345
588.503	539813
588.510	554741
588.564	666050
588.575	688590
588.617	815440
588.646	900115
588.671	1011192
588.718	1219844
588.725	1263133
588.778	1580112
588.789	1640788
588.832	1819844
588.861	1930020
588.886	1829944
588.932	1583966
588.939	1557070
588.993	1295581
589.004	1253440
589.047	1680532
589.075	1935775
589.100	1935063
589.147	1895797
589.154	1862784
589.207	1561342
589.218	1496719
589.261	1384779
589.290	1306102
589.314	1330056
589.361	1372693
589.368	1404020
589.421	1638291
589.433	1684374
589.475	1816233
589.504	1891980
589.528	1772998
589.576	1478432
589.582	1505952
589.635	1746379
589.647	1786164
589.689	1731420
589.718	1675647
589.742	1492268
589.790	1115200
589.795	1092394
589.849	847974
589.861	789158
589.902	685684
589.932	605235
589.955	561075
590.004	463217
590.009	459203
590.062	399043
590.075	382912
590.115	350880
590.146	324241
590.168	312062
590.218	281533
590.222	280981
590.275	260467
590.289	254093
590.328	240554
590.360	228258
590.381	223151
590.431	208240
590.435	208270
590.488	195518
590.503	191246
590.541	184847
590.574	177930
590.594	175833
590.645	168009
590.647	168382
590.700	161057
590.716	158214
590.753	154228
590.787	149384
590.806	147856
590.859	141434
590.859	141932
590.912	137920
590.930	136012
590.965	134424
591.001	131749
591.018	131269
591.071	128319
591.072	127767
591.124	125546
591.143	124000
591.177	122021
591.214	119028
591.230	119498
591.283	119320
591.285	118819
591.336	118010
591.356	117031
591.389	115268
591.427	112074
591.442	111719
591.495	108473
591.498	107790
591.547	106602
591.569	105441
591.600	104908
591.640	103134
591.653	103535
591.706	103277
591.711	102828
591.759	104602
591.782	104806
591.811	106721
591.853	108423
591.864	107822
591.917	102309
591.924	101077
591.969	100023
591.995	98752
592.022	99695
592.066	100159
592.075	101045
592.127	103775
592.137	103852
592.180	108481
592.208	110621
592.233	107251
592.279	99559
592.285	99658
592.338	96814
592.350	95744
592.390	95217
592.421	94092
592.443	94273
592.491	93341
592.495	93758
592.548	93818
592.562	93426
592.600	93574
592.633	92919
592.653	93151
592.704	92161
592.705	92672
592.775	91448
592.846	90718
592.916	92474
592.987	93063
593.058	92397
593.128	89313
593.199	88756
593.270	87434
593.341	85868
593.411	86087
593.482	87152
593.553	86271
593.623	83954
593.694	86238
593.764	89362
593.835	86021
593.906	85425
593.976	84818
594.047	87431
594.117	92939
594.188	96610
594.258	86955
594.329	86089
594.399	85436
594.470	85183
594.540	85473
594.611	86674
594.681	84351
594.751	85620
594.822	88491
594.892	90042
594.963	90349
595.033	92653
595.103	93483
595.174	94982
595.244	109694
595.314	127742
595.384	97435
595.455	93664
595.525	97334
595.595	99253
595.665	99672
595.736	97005
595.806	96258
595.876	97975
595.946	98016
596.016	99157
596.087	100696
596.157	101571
596.227	100480
596.297	103630
596.367	108383
596.437	115292
596.507	125737
596.577	138587
596.647	117257
596.717	114804
596.787	116809
596.857	115206
596.927	117929
596.997	117025
597.067	115842
597.137	120477
597.207	119884
597.277	120684
597.347	116303
597.417	116760
597.487	115969
597.557	119634
597.626	119259
597.696	122586
597.766	129919
597.836	140259
597.906	117594
597.975	108341
598.045	108161
598.115	112551
598.185	116185
598.254	127568
598.324	134914
598.394	138698
598.464	135541
598.533	131697
598.603	125030
598.672	123361
598.742	123983
598.812	122629
598.881	126842
598.951	125113
599.020	124251
599.090	127946
599.159	130709
599.229	128632
599.299	123851
599.368	127167
599.437	126424
599.507	118509
599.576	117532
599.646	116262
599.715	114696
599.785	113992
599.854	113813
599.924	118110
599.993	114927
600.062	113194
600.132	113424
600.201	120141
600.270	133942
600.340	138274
600.409	135023
600.478	135419
600.547	137478
600.617	133853
600.686	113090
600.755	107182
600.824	102321
600.894	101099
600.963	98528
601.032	98429
601.101	98321
601.170	96215
601.239	94393
601.308	97071
601.378	97203
601.447	93973
601.516	95211
601.585	96000
601.654	102146
601.723	100635
601.792	99970
601.861	102461
601.930	107410
601.999	110084
602.068	106182
602.137	110651
602.206	111081
602.275	109475
602.343	114704
602.412	116112
602.481	109528
602.550	109595
602.619	111122
602.688	114916
602.756	113748
602.825	113313
602.894	115286
602.963	116301
603.032	119008
603.100	117620
603.169	116855
603.238	119963
603.307	116686
603.375	118752
603.444	122005
603.513	121001
603.581	121111
603.650	126322
603.719	118273
603.787	118084
603.856	121747
603.924	123944
603.993	127551
604.061	130610
604.130	136252
604.198	139109
604.267	139259
604.335	141330
604.404	140632
604.472	144342
604.541	144345
604.609	146183
604.678	148400
604.746	147646
604.815	152550
604.883	154696
604.951	153420
605.020	154590
605.088	153693
605.156	155086
605.225	157458
605.293	154724
605.361	157535
605.429	159632
605.498	160999
605.566	163876
605.634	169882
605.702	175173
605.771	179073
605.839	179663
605.907	176133
605.975	172390
606.043	168263
606.111	167070
606.180	167574
606.248	164656
606.316	163631
606.384	167105
606.452	170748
606.520	173869
606.588	167023
606.656	162961
606.724	163650
606.792	153402
606.860	139297
606.928	128493
606.996	122137
607.064	121002
607.132	124444
607.200	130413
607.267	135999
607.335	137400
607.403	139076
607.471	136730
607.539	131862
607.607	133678
607.674	120404
607.742	120622
607.810	121543
607.878	119726
607.946	121002
608.013	126181
608.081	128288
608.149	130706
608.216	131745
608.284	138034
608.352	135920
608.419	138546
608.487	144625
608.555	137096
608.622	133151
608.690	139347
608.757	151195
608.825	157757
608.893	154359
608.960	151954
609.028	153436
609.095	155039
609.163	144096
609.230	129409
609.298	117395
609.365	122039
609.432	130966
609.500	140101
609.567	158546
609.635	180953
609.702	189598
609.769	185537
609.837	155316
609.904	129580
609.971	132867
610.039	148851
610.106	189771
610.173	345435
610.241	790721
610.308	686037
610.375	319506
610.442	168782
610.509	137463
610.577	132333
610.644	132616
610.711	137874
610.778	137496
610.845	142542
610.912	151243
610.980	157761
611.047	158659
611.114	156842
611.181	149373
611.248	146538
611.315	155061
611.382	157457
611.449	162686
611.516	166274
611.583	162919
611.650	164625
611.717	166606
611.784	172999
611.851	177341
611.918	191468
611.984	219570
612.051	298758
612.118	565720
612.185	1333632
612.252	1079811
612.319	300007
612.386	222189
612.452	201508
612.519	192901
612.586	199064
612.653	195296
612.719	192400
612.786	184841
612.853	172641
612.919	166204
612.986	171322
613.053	161514
613.120	152964
613.186	145078
613.253	148387
613.319	145796
613.386	148663
613.453	149389
613.519	157688
613.586	160008
613.652	179283
613.719	167195
613.785	164742
613.852	152523
613.918	151110
613.985	150348
614.051	157438
614.118	162058
614.184	156794
614.250	148839
614.317	152418
614.383	149380
614.449	154178
614.516	150373
614.582	153069
614.648	150928
614.715	148938
614.781	147702
614.847	147634
614.914	150228
614.980	148177
615.046	144021
615.112	147157
615.179	147937
615.245	154947
615.311	167344
615.377	205394
615.443	227422
615.509	178474
615.575	166754
615.642	161349
615.708	166475
615.774	176317
615.840	190932
615.906	214432
615.972	274755
616.038	451718
616.104	794508
616.170	1540196
616.236	1585363
616.302	447617
616.368	295966
616.434	222116
616.500	196831
616.565	207630
616.631	255780
616.697	220449
616.763	215619
616.829	293768
616.895	514287
616.961	552415
617.026	266134
617.092	175904
617.158	162169
617.224	158346
617.289	148423
617.355	142990
617.421	140132
617.487	140011
617.552	131192
617.618	130154
617.684	129217
617.749	132912
617.815	125668
617.880	123654
617.946	123012
618.012	127031
618.077	127526
618.143	123685
618.208	122971
618.274	133057
618.339	137058
618.405	116201
618.470	113822
618.536	115650
618.601	117908
618.667	111333
618.732	104887
618.798	102138
618.863	100712
618.928	101459
618.994	104732
619.059	107577
619.124	121584
619.190	109727
619.255	101346
619.320	100402
619.386	101530
619.451	98530
619.516	96806
619.581	97878
619.647	101140
619.712	101084
619.777	96567
619.842	98255
619.907	100565
619.972	101487
620.038	101803
620.103	97596
620.168	95925
620.233	98741
620.298	96301
620.363	98455
620.428	101574
620.493	102738
620.558	102885
620.623	104758
620.688	102543
620.753	101919
620.818	104837
620.883	105483
620.948	104492
621.013	104603
621.078	104482
621.143	105303
621.207	107969
621.272	107510
621.337	107383
621.402	107531
621.467	115648
621.532	120902
621.596	111984
621.661	104507
621.726	102525
621.791	103601
621.855	104889
621.920	107794
621.985	108180
622.049	113591
622.114	112715
622.179	110603
622.243	114681
622.308	115765
622.373	119289
622.437	119265
622.502	111023
622.566	108620
622.631	107484
622.695	112421
622.760	111898
622.824	109753
622.889	111784
622.953	116584
623.018	136351
623.082	139878
623.147	116883
623.211	115306
623.276	114610
623.340	108938
623.404	104153
623.469	105675
623.533	106913
623.597	103264
623.662	102738
623.726	98289
623.790	92886
623.854	92359
623.919	94970
623.983	93880
624.047	96207
624.111	95693
624.176	98310
624.240	101212
624.304	107883
624.368	99471
624.432	96884
624.496	99583
624.560	104659
624.625	110932
624.689	103302
624.753	106394
624.817	102103
624.881	100544
624.945	92345
625.009	90254
625.073	91057
625.137	97847
625.201	108418
625.265	109914
625.329	95217
625.393	97727
625.456	96502
625.520	99358
625.584	103214
625.648	113220
625.712	135376
625.776	212796
625.839	240730
625.903	136195
625.967	90686
626.031	113165
626.095	165957
626.158	105990
626.222	78837
626.286	73931
626.349	70855
626.413	69222
626.477	71227
626.540	69465
626.604	68684
626.668	68268
626.731	66822
626.795	70376
626.858	69490
626.922	68452
626.986	67745
627.049	66315
627.113	68636
627.176	66857
627.240	65028
627.303	65654
627.366	65804
627.430	66568
627.493	66858
627.557	66527
627.620	66940
627.684	68097
627.747	68279
627.810	65210
627.874	61644
627.937	58459
628.000	62322
628.064	61606
628.127	55089
628.190	55683
628.253	54452
628.317	53371
628.380	51241
628.443	51516
628.506	51712
628.569	49357
628.632	48039
628.696	47867
628.759	47665
628.822	47009
628.885	45910
628.948	45928
629.011	46754
629.074	46216
629.137	44576
629.200	44761
629.263	48331
629.326	44929
629.389	43110
629.452	44481
629.515	44488
629.578	44426
629.641	45874
629.704	44921
629.767	45018
629.830	43719
629.892	42007
629.955	41921
630.018	44775
630.081	45460
630.144	50292
630.207	45471
630.269	45419
630.332	46488
630.395	43225
630.458	39873
630.520	39408
630.583	40692
630.646	37933
630.708	40500
630.771	40071
630.834	42403
630.896	39205
630.959	40217
631.021	39141
631.084	39464
631.146	42008
631.209	44678
631.272	40028
631.334	40390
631.397	38796
631.459	39440
631.522	41059
631.584	41615
631.646	43277
631.709	45029
631.771	49974
631.834	45813
631.896	40854
631.958	38876
632.021	39400
632.083	38271
632.145	40005
632.208	38815
632.270	38457
632.332	36269
632.395	37230
632.457	39060
632.519	37061
632.581	37150
632.643	35312
632.706	37443
632.768	36084
632.830	36563
632.892	36745
632.954	37346
633.016	37171
633.078	35371
633.141	35481
633.203	36267
633.265	35589
633.327	36835
633.389	35695
633.451	38404
633.513	43347
633.575	42556
633.637	41238
633.698	41279
633.760	37767
633.822	39410
633.884	37916
633.946	38545
634.008	39486
634.070	39335
634.132	40472
634.193	42336
634.255	44086
634.317	45181
634.379	43526
634.441	42291
634.502	39537
634.564	36721
634.626	35104
634.687	35261
634.749	35030
634.811	35066
634.873	32556
634.934	34542
634.996	33754
635.057	33595
635.119	32203
635.181	33505
635.242	35297
635.304	32449
635.365	34968
635.427	33556
635.488	34901
635.550	34427
635.611	33585
635.673	32596
635.734	37752
635.796	37866
635.857	38200
635.918	38954
635.980	41123
636.041	42987
636.102	44117
636.164	45159
636.225	44071
636.286	40993
636.348	38488
636.409	35948
636.470	33303
636.531	33452
636.593	35286
636.654	35103
636.715	30881
636.776	30504
636.838	29186
636.899	31318
636.960	30237
637.021	29490
637.082	28771
637.143	30226
637.204	26762
637.265	29035
637.326	27917
637.387	28284
637.448	28327
637.509	28377
637.570	27568
637.631	28037
637.692	26737
637.753	25966
637.814	27192
637.875	26901
637.936	26830
637.997	26637
638.058	27179
638.119	28157
638.179	26047
638.240	25910
638.301	26539
638.362	25041
638.423	25549
638.483	26474
638.544	25524
638.605	26761
638.666	25047
638.726	26371
638.787	26460
638.848	25489
638.908	24372
638.969	25505
639.030	24492
639.090	24047
639.151	24427
639.211	26579
639.272	30284
639.332	41224
639.393	31576
639.453	25892
639.514	26270
639.574	25126
639.635	23032
639.695	24087
639.756	22807
639.816	25252
639.877	26245
639.937	34819
639.997	44935
640.058	25940
640.118	22739
640.178	23615
640.239	22155
640.299	21926
640.359	22499
640.420	22488
640.480	24176
640.540	25544
640.600	25723
640.661	24940
640.721	24495
640.781	29843
640.841	25520
640.901	24339
640.961	23206
641.021	24412
641.082	26565
641.142	31343
641.202	26618
641.262	21899
641.322	22173
641.382	21134
641.442	21950
641.502	21581
641.562	21835
641.622	21428
641.682	21952
641.742	24156
641.802	23566
641.861	22906
641.921	22115
641.981	23101
642.041	23943
642.101	27485
642.161	22906
642.221	19739
642.280	20101
642.340	19729
642.400	20268
642.460	20948
642.519	20256
642.579	20807
642.639	21118
642.698	19345
642.758	22189
642.818	21593
642.877	21801
642.937	22563
642.997	24041
643.056	30684
643.116	22900
643.175	22683
643.235	20745
643.294	22036
643.354	22907
643.414	23767
643.473	25789
643.532	29895
643.592	38036
643.651	55786
643.711	92041
643.770	171118
643.830	389099
643.889	922916
643.948	301404
644.008	56150
644.067	33574
644.126	28256
644.186	24626
644.245	23187
644.304	20278
644.363	22690
644.423	19819
644.482	20683
644.541	21089
644.600	21437
644.659	25228
644.719	28187
644.778	40289
644.837	61229
644.896	115153
644.955	287636
645.014	123728
645.073	30811
645.132	24773
645.191	23488
645.250	20434
645.309	23340
645.368	22894
645.427	27765
645.486	37512
645.545	68520
645.604	30290
645.663	20493
645.722	20602
645.781	21664
645.840	23147
645.898	26887
645.957	35333
646.016	51349
646.075	86474
646.134	166064
646.192	403676
646.251	734006
646.310	145243
646.369	39457
646.427	30913
646.486	24705
646.545	21901
646.603	20856
646.662	19432
646.721	18510
646.779	17740
646.838	18993
646.896	22715
646.955	27570
647.014	39898
647.072	66617
647.131	175842
647.189	113674
647.248	22661
647.306	18661
647.365	17593
647.423	15504
647.481	17443
647.540	15033
647.598	15141
647.657	15778
647.715	16069
647.773	15193
647.832	15816
647.890	14316
647.948	14891
648.007	16944
648.065	13690
648.123	15150
648.181	16567
648.240	15827
648.298	14385
648.356	14023
648.414	15302
648.472	15231
648.531	15340
648.589	15096
648.647	13819
648.705	14394
648.763	14606
648.821	15833
648.879	14997
648.937	16262
648.995	19008
649.053	21777
649.111	28664
649.169	44826
649.227	74506
649.285	143731
649.343	431304
649.401	271810
649.459	59751
649.516	40636
649.574	20041
649.632	22725
649.690	24569
649.748	25901
649.806	30283
649.863	49369
649.921	123924
649.979	107713
650.037	20832
650.094	14777
650.152	14773
650.210	13375
650.268	13883
650.325	14957
650.383	14076
650.440	13009
650.498	13991
650.556	12650
650.613	11598
650.671	13373
650.728	13682
650.786	14803
650.843	14901
650.901	12825
650.958	11707
651.016	11249
651.073	11808
651.131	11131
651.188	10859
651.246	12319
651.303	10735
651.360	12968
651.418	10792
651.475	12608
651.532	9526
651.590	12309
651.647	10869
651.704	12805
651.762	10416
651.819	11979
651.876	11233
651.933	11031
651.990	11742
652.048	10652
652.105	10966
652.162	11706
652.219	9760
652.276	10955
652.333	11209
652.390	9707
652.448	10996
652.505	11316
652.562	10534
652.619	10826
652.676	10851
652.733	12288
652.790	10956
652.847	9724
652.904	11139
652.961	9588
653.017	9453
653.074	11113
653.131	11168
653.188	10630
653.245	10033
653.302	10790
653.359	10063
653.415	10615
653.472	10270
653.529	10570
653.586	9339
653.642	10520
653.699	10761
653.756	9800
653.813	9631
653.869	10539
653.926	9697
653.983	9213
654.039	9948
654.096	9262
654.152	11055
654.209	9175
654.266	10419
654.322	9633
654.379	11454
654.435	12164
654.492	11488
654.548	15473
654.605	21455
654.661	14681
654.717	10490
654.774	11864
654.830	11788
654.887	11765
654.943	10661
655.000	11832
655.056	11137
655.112	11819
655.168	9545
655.225	11143
655.281	11679
655.337	13516
655.394	19470
655.450	16148
655.506	13933
655.562	19335
655.618	18521
655.675	9774
655.731	9707
655.787	10336
655.843	10359
655.899	9128
655.955	9957
656.011	10696
656.067	8673
656.123	10218
656.179	10473
656.235	11065
656.291	9224
656.347	10555
656.403	9961
656.459	11261
656.515	11670
656.571	11416
656.627	10191
656.683	11222
656.739	10829
656.795	10516
656.850	10927
656.906	12260
656.962	11150
657.018	9108
657.074	10975
657.129	12050
657.185	13573
657.241	23822
657.297	18153
657.352	11052
657.408	9215
657.464	11729
657.519	10966
657.575	8719
657.630	10176
657.686	9732
657.742	8483
657.797	9180
657.853	9226
657.908	10689
657.964	8351
658.019	9480
658.075	9779
658.130	9730
658.186	7972
658.241	9554
658.297	8519
658.352	9517
658.407	9941
658.463	9076
658.518	9393
658.573	9012
658.629	7183
658.684	8853
658.739	8420
658.795	8899
658.850	9097
658.905	8637
658.960	9482
659.016	8889
659.071	8974
659.126	10665
659.181	9819
659.236	13879
659.291	15616
659.346	10936
659.401	10108
659.457	9610
659.512	9673
659.567	11066
659.622	9569
659.677	8920
659.732	8348
659.787	9078
659.842	9447
659.897	13613
659.952	9300
660.007	9207
660.061	9620
660.116	9718
660.171	8875
660.226	8133
660.281	8933
660.336	9114
660.391	8610
660.445	8744
660.500	8469
660.555	9868
660.610	8569
660.664	9005
660.719	8271
660.774	9035
660.828	8569
660.883	9330
660.938	9664
660.992	8784
661.047	9045
661.101	8232
661.156	8024
661.211	8457
661.265	8027
661.320	8019
661.374	7956
661.429	8802
661.483	8755
661.538	8210
661.592	8349
661.647	8852
661.701	9687
661.755	8683
661.810	8515
661.864	8889
661.919	7915
661.973	8659
662.027	8276
662.081	7880
662.136	8309
662.190	8306
662.244	9799
662.299	9431
662.353	7966
662.407	8499
662.461	8639
662.515	9262
662.569	8823
662.624	10010
662.678	8756
662.732	8261
662.786	8167
662.840	9466
662.894	8959
662.948	8337
663.002	7595
663.056	8207
663.110	7368
663.164	8489
663.218	7715
663.272	8630
663.326	9172
663.380	9071
663.434	9099
663.488	8365
663.542	9134
663.595	8905
663.649	8732
663.703	8987
663.757	8614
663.811	7580
663.864	7486
663.918	8739
663.972	7947
664.026	8441
664.079	8792
664.133	8761
664.187	8037
664.240	7725
664.294	8111
664.348	8759
664.401	8646
664.455	8585
664.508	7229
664.562	7953
664.615	7985
664.669	7950
664.722	8175
664.776	8287
664.829	8297
664.883	8176
664.936	8083
664.990	8569
665.043	9513
665.097	9128
665.150	9997
665.203	9834
665.257	9013
665.310	8887
665.363	8650
665.417	9380
665.470	8372
665.523	9883
665.576	8679
665.630	9373
665.683	9136
665.736	9424
665.789	9532
665.842	8656
665.895	9386
665.949	8251
666.002	7797
666.055	8510
666.108	9716
666.161	9411
666.214	9957
666.267	9690
666.320	9524
666.373	10552
666.426	8995
666.479	8275
666.532	8750
666.585	9882
666.638	10985
666.691	10524
666.744	10295
666.796	11030
666.849	9401
666.902	10094
666.955	8679
667.008	8169
667.060	7408
667.113	8716
667.166	9091
667.219	8755
667.271	8369
667.324	8547
667.377	8373
667.430	8693
667.482	9035
667.535	8284
667.587	10007
667.640	10046
667.693	10562
667.745	14512
667.798	16110
667.850	10249
667.903	9133
667.955	9758
668.008	9435
668.060	11120
668.113	11217
668.165	11571
668.218	9948
668.270	9324
668.322	9052
668.375	9420
668.427	10317
668.479	8995
668.532	9578
668.584	9421
668.636	9126
668.689	9616
668.741	9424
668.793	10118
668.845	9624
668.898	9704
668.950	8708
669.002	9362
669.054	8943
669.106	9605
669.158	9584
669.211	9858
669.263	9395
669.315	10727
669.367	9448
669.419	10190
669.471	9925
669.523	10531
669.575	11985
669.627	10842
669.679	9728
669.731	10361
669.783	10777
669.835	11657
669.886	11089
669.938	10369
669.990	10210
670.042	10065
670.094	11322
670.146	11633
670.197	12003
670.249	13868
670.301	15592
670.353	19618
670.404	24754
670.456	33940
670.508	50606
670.560	81732
670.611	135174
670.663	234604
670.715	496575
670.766	772964
670.818	351431
670.869	79169
670.921	39383
670.972	27194
671.024	22216
671.075	17505
671.127	16427
671.178	13871
671.230	13101
671.281	13616
671.333	12496
671.384	12423
671.436	13997
671.487	15630
671.538	16648
671.590	22081
671.641	29636
671.692	44207
671.744	82016
671.795	67323
671.846	27961
671.897	17143
671.949	13881
672.000	12479
672.051	10935
672.102	10902
672.153	8987
672.204	11105
672.256	10585
672.307	10090
672.358	9608
672.409	10428
672.460	9487
672.511	9435
672.562	8967
672.613	9169
672.664	8391
672.715	9569
672.766	9044
672.817	9150
672.868	7961
672.919	8320
672.970	9194
673.021	9078
673.071	7932
673.122	7949
673.173	8714
673.224	8160
673.275	8356
673.326	8603
673.376	8293
673.427	7964
673.478	7901
673.528	7650
673.579	7341
673.630	8042
673.680	7509
673.731	7599
673.782	7708
673.832	8519
673.883	7731
673.934	7720
673.984	7806
674.035	7773
674.085	8126
674.136	8796
674.186	9856
674.237	8974
674.287	13602
674.338	9873
674.388	7531
674.438	7468
674.489	8513
674.539	8493
674.589	8560
674.640	8710
674.690	8317
674.740	8662
674.791	9121
674.841	8723
674.891	8356
674.942	7761
674.992	6910
675.042	7753
675.092	6205
675.142	7255
675.193	7758
675.243	6847
675.293	7359
675.343	8607
675.393	7812
675.443	8392
675.493	8235
675.543	7193
675.593	7440
675.643	7377
675.693	7878
675.743	7448
675.793	7042
675.843	7693
675.893	7203
675.943	7699
675.993	7160
676.043	7511
676.093	7161
676.142	5848
676.192	7220
676.242	6522
676.292	5459
676.341	7659
676.391	7474
676.441	6444
676.491	5793
676.540	6752
676.590	6246
676.640	6336
676.689	6186
676.739	6093
676.789	6047
676.838	5775
676.888	6971
676.937	6626
676.987	6525
677.037	6824
677.086	5369
677.136	6057
677.185	6190
677.235	6193
677.284	6233
677.333	5762
677.383	5259
677.432	5620
677.482	5314
677.531	6842
677.580	5652
677.630	5773
677.679	4572
677.728	6280
677.778	5430
677.827	5676
677.876	5525
677.925	5992
677.975	5488
678.024	5988
678.073	5246
678.122	5586
678.171	6207
678.220	7439
678.269	7452
678.319	7047
678.368	6612
678.417	6889
678.466	6918
678.515	6986
678.564	6354
678.613	6026
678.662	6108
678.711	6544
678.760	6722
678.809	5751
678.857	6063
678.906	6205
678.955	5745
679.004	6575
679.053	6846
679.102	6054
679.151	6380
679.199	6337
679.248	5445
679.297	6144
679.346	6008
679.394	6243
679.443	5191
679.492	5844
679.540	5423
679.589	6343
679.638	5403
679.686	5539
679.735	5876
679.784	6209
679.832	6066
679.881	5644
679.929	5035
679.978	5124
680.026	5606
680.075	5535
680.123	5213
680.172	5386
680.220	5059
680.268	5284
680.317	4835
680.365	6035
680.414	4433
680.462	4501
680.510	4967
680.559	4841
680.607	5008
680.655	4811
680.703	4975
680.752	5571
680.800	4971
680.848	5861
680.896	4299
680.945	5925
680.993	4854
681.041	5089
681.089	4956
681.137	4809
681.185	3885
681.233	4539
681.258	4333
681.281	4085
681.329	4978
681.377	5281
681.380	5349
681.425	5604
681.473	5839
681.502	6128
681.521	6225
681.569	5982
681.617	5431
681.624	5477
681.665	5356
681.713	6725
681.745	6332
681.761	6059
681.809	6444
681.857	6642
681.867	6582
681.904	6170
681.952	6623
681.989	6886
682.000	6897
682.048	6306
682.096	6639
682.111	6824
682.143	7050
682.191	6273
682.233	7206
682.239	7286
682.286	7496
682.334	7152
682.354	7381
682.382	7590
682.430	7646
682.476	7083
682.477	7021
682.525	7356
682.572	7417
682.598	7205
682.620	6974
682.667	8027
682.715	8509
682.720	8567
682.763	8560
682.810	7959
682.841	8380
682.857	8561
682.905	7862
682.952	9295
682.963	9257
683.000	8902
683.047	8201
683.085	9067
683.095	9232
683.142	9360
683.190	9224
683.206	9035
683.237	8583
683.284	8986
683.328	9540
683.332	9549
683.379	8846
683.426	8810
683.449	8869
683.473	8840
683.521	9078
683.568	9093
683.571	9215
683.615	10285
683.662	9614
683.693	10002
683.709	10144
683.757	9853
683.804	9667
683.814	9937
683.851	10811
683.898	9754
683.936	10073
683.945	10083
683.992	11177
684.039	11269
684.057	10816
684.086	10108
684.133	11023
684.179	10769
684.180	10717
684.227	11670
684.274	11454
684.300	11328
684.321	11274
684.368	11296
684.415	12291
684.422	12296
684.462	11921
684.509	11322
684.543	11170
684.556	11141
684.603	11316
684.649	11781
684.665	11730
684.696	11491
684.743	12476
684.786	11951
684.790	11891
684.837	12171
684.883	13070
684.908	13477
684.930	13831
684.977	13893
685.023	13991
685.029	13961
685.070	13154
685.117	13085
685.150	12698
685.164	12646
685.210	14424
685.257	14958
685.272	14800
685.303	14142
685.350	14457
685.393	14987
685.396	15031
685.443	15503
685.490	15336
685.514	15547
685.536	15619
685.583	15761
685.629	15284
685.636	15405
685.675	15642
685.722	14647
685.757	14991
685.768	15219
685.815	15148
685.861	15338
685.878	15350
685.908	15193
685.954	15530
686.000	15730
686.000	15728
686.047	16844
686.093	18170
686.121	18304
686.139	18058
686.185	17209
686.232	17762
686.242	17526
686.278	16599
686.324	16955
686.363	16085
686.370	15942
686.416	16008
686.463	15999
686.484	16119
686.509	16430
686.555	16136
686.601	16320
686.606	16413
686.647	16780
686.693	16512
686.727	16069
686.739	15968
686.785	16503
686.831	16130
686.848	16240
686.877	16363
686.923	16503
686.969	16349
686.969	16347
687.015	16388
687.061	17492
687.090	17461
687.107	17321
687.153	17416
687.199	16926
687.211	16893
687.245	16965
687.291	16726
687.332	17471
687.336	17556
687.382	18084
687.428	18038
687.453	17965
687.474	17717
687.520	17780
687.565	17165
687.574	17247
687.611	17825
687.657	18276
687.695	18106
687.702	18133
687.748	18688
687.794	19496
687.816	19507
687.839	19190
687.885	19008
687.931	18534
687.937	18505
687.976	18427
688.022	18307
688.058	18322
688.067	18387
688.113	18177
688.158	18290
688.179	18339
688.204	18441
688.249	19231
688.295	18454
688.300	18570
688.340	19591
688.386	19527
688.421	19704
688.431	19687
688.477	18943
688.522	19678
688.542	19610
688.567	19619
688.613	19596
688.658	19263
688.663	19289
688.703	19739
688.749	19317
688.784	20011
688.794	20235
688.839	19886
688.884	20509
688.905	20573
688.930	20345
688.975	19548
689.020	19246
689.026	19216
689.065	19791
689.110	19703
689.146	19919
689.155	19890
689.201	19790
689.246	20011
689.267	19693
689.291	19666
689.336	20097
689.381	20294
689.388	20424
689.426	21025
689.471	20364
689.509	20921
689.516	20996
689.561	20213
689.606	19924
689.630	19857
689.651	19970
689.696	20111
689.741	19728
689.750	19785
689.785	20329
689.830	20627
689.871	21066
689.875	21081
689.920	20475
689.965	20630
689.992	20206
690.010	20126
690.054	19990
690.099	20369
690.112	20354
690.144	20342
690.189	20668
690.233	20394
690.233	20418
690.278	20361
690.323	20569
690.354	20367
690.367	20329
690.412	20689
690.457	20312
690.474	20574
690.501	21083
690.546	20629
690.590	20824
690.595	20786
690.635	20700
690.680	20873
690.716	20775
690.724	20812
690.769	21466
690.813	21282
690.836	21431
690.857	21737
690.902	22054
690.946	22589
690.957	22612
690.991	23208
691.035	24073
691.077	25037
691.080	25121
691.124	26179
691.168	27193
691.198	27183
691.213	26695
691.257	26147
691.301	25132
691.318	24643
691.346	24212
691.390	23907
691.434	23467
691.439	23361
691.478	23258
691.522	23296
691.559	23220
691.567	23338
691.611	23726
691.655	24247
691.680	24299
691.699	23990
691.743	23980
691.787	23457
691.800	23160
691.831	23128
691.875	23543
691.919	24137
691.921	24096
691.964	24114
692.008	24611
692.041	24684
692.052	24705
692.096	24831
692.139	24808
692.162	24768
692.183	24680
692.227	24354
692.271	24270
692.282	24213
692.315	24526
692.359	24723
692.402	24732
692.403	24776
692.447	24719
692.490	24687
692.523	24949
692.534	25139
692.578	24948
692.622	24995
692.643	25092
692.666	25257
692.709	25098
692.753	25207
692.763	25177
692.797	25046
692.840	24452
692.884	24770
692.884	24823
692.928	24549
692.971	25095
693.004	24974
693.015	24959
693.059	25240
693.102	24996
693.124	25092
693.146	25246
693.189	25042
693.233	24918
693.245	24902
693.276	25313
693.320	25927
693.363	25701
693.365	25675
693.407	26304
693.450	26353
693.485	26607
693.493	26701
693.537	26844
693.580	26579
693.605	26651
693.624	27026
693.667	27590
693.710	28048
693.725	28218
693.753	29863
693.797	32279
693.840	34803
693.845	35053
693.883	35819
693.926	36175
693.966	36644
693.970	36427
694.013	33237
694.056	30197
694.086	28138
694.099	28245
694.142	28272
694.185	28257
694.206	28103
694.229	27913
694.272	27723
694.315	27398
694.326	27235
694.358	27256
694.401	27099
694.444	27518
694.446	27460
694.487	27848
694.530	28127
694.566	28432
694.573	28373
694.616	27482
694.659	26848
694.686	26095
694.702	25977
694.745	25795
694.787	25646
694.806	25451
694.830	25488
694.873	25655
694.916	25594
694.926	25558
694.959	25860
695.002	25915
695.044	26256
695.046	26206
695.087	26387
695.130	26778
695.166	26780
695.172	26865
695.215	27084
695.258	27311
695.286	27385
695.301	27399
695.343	27231
695.386	27296
695.406	27039
695.428	26789
695.471	26719
695.514	26192
695.526	26046
695.556	26644
695.599	27449
695.641	28324
695.646	28321
695.684	27959
695.726	27746
695.766	27381
695.769	27464
695.811	27817
695.854	27913
695.886	28226
695.896	28215
695.938	27363
695.981	26939
696.005	26510
696.023	26739
696.065	27130
696.108	27700
696.125	27866
696.150	28230
696.192	28595
696.235	28966
696.245	29003
696.277	28606
696.319	27900
696.361	27335
696.365	27210
696.404	27334
696.446	27602
696.485	27559
696.488	27636
696.530	27691
696.572	27953
696.604	28076
696.614	28298
696.656	29053
696.698	29577
696.724	29868
696.740	29707
696.783	29067
696.825	28561
696.844	28228
696.867	28217
696.909	28064
696.951	27802
696.964	27704
696.992	27650
697.034	27270
697.076	27041
697.083	26938
697.118	27715
697.160	28575
697.202	29253
697.203	29201
697.244	29108
697.286	28896
697.323	28692
697.327	28733
697.369	28330
697.411	28063
697.442	27693
697.453	27848
697.494	28269
697.536	28659
697.562	28842
697.578	28976
697.620	29085
697.661	29289
697.682	29292
697.703	29524
697.744	29828
697.786	30132
697.801	30173
697.828	30659
697.869	31193
697.911	31872
697.921	31938
697.952	30959
697.994	29620
698.035	28216
698.040	27977
698.077	28294
698.118	28532
698.160	28820
698.160	28746
698.201	28730
698.243	28710
698.279	28549
698.284	28659
698.325	29054
698.367	29365
698.399	29575
698.408	29572
698.449	29147
698.491	28798
698.518	28432
698.532	28595
698.573	28930
698.614	29233
698.638	29344
698.656	29656
698.697	30166
698.738	30712
698.757	30874
698.779	30964
698.820	31026
698.862	31032
698.877	30966
698.903	31104
698.944	31182
698.985	31263
698.996	31204
699.026	31347
699.067	31438
699.116	31464
699.235	29065
699.354	29061
699.474	30330
699.593	30735
699.713	30519
699.832	29000
699.951	30720
700.070	30087
700.190	28490
700.309	27764
700.428	29424
700.547	29097
700.667	29862
700.786	29441
700.905	27339
701.024	27957
701.143	29546
701.262	27150
701.381	26711
701.500	27454
701.619	28671
701.738	27643
701.857	26504
701.976	25020
702.095	26607
702.214	28013
702.333	27761
702.452	27017
702.571	26680
702.690	25917
702.809	25433
702.928	24929
703.047	25308
703.165	25648
703.284	24561
703.403	24956
703.522	26297
703.640	27062
703.759	27566
703.878	32110
703.997	26653
704.115	25125
704.234	24818
704.353	24323
704.471	24223
704.590	23426
704.708	23323
704.827	23356
704.946	23906
705.064	24825
705.183	23700
705.301	26221
705.420	34429
705.538	33882
705.656	29004
705.775	26880
705.893	31083
706.012	34883
706.130	29770
706.249	29542
706.367	29021
706.485	30252
706.604	28812
706.722	28414
706.840	31207
706.958	33185
707.077	30445
707.195	27287
707.313	27963
707.431	26904
707.549	26253
707.668	26459
707.786	27261
707.904	26574
708.022	25983
708.140	26415
708.258	26108
708.376	25646
708.494	25872
708.612	26778
708.730	35019
708.848	36608
708.966	33313
709.084	31137
709.202	30667
709.320	30894
709.438	31138
709.556	31778
709.674	30218
709.791	31429
709.909	29001
710.027	29900
710.145	29549
710.263	29045
710.380	29040
710.498	28916
710.616	28991
710.733	28463
710.851	28179
710.969	29198
711.086	28176
711.204	27629
711.322	28522
711.439	27327
711.557	27700
711.674	28595
711.792	27108
711.909	27598
712.027	26094
712.144	26068
712.262	26917
712.379	27868
712.497	36220
712.614	40451
712.732	34701
712.849	31699
712.966	32309
713.084	37342
713.201	34123
713.318	33596
713.436	32442
713.553	32804
713.670	32812
713.787	34199
713.905	35075
714.022	32140
714.139	31284
714.256	35700
714.373	38874
714.490	51817
714.608	89764
714.725	336695
714.842	529612
714.959	64035
715.076	36113
715.193	31691
715.310	30938
715.427	29372
715.544	28355
715.661	29164
715.778	28745
715.895	30904
716.011	30631
716.128	29036
716.245	27777
716.362	29580
716.479	32118
716.596	26845
716.713	28442
716.829	26816
716.946	27089
717.063	25574
717.180	25491
717.296	26336
717.413	25418
717.530	25268
717.646	25371
717.763	25586
717.880	24236
717.996	23850
718.113	24331
718.229	23179
718.346	22624
718.462	24054
718.579	26014
718.695	34048
718.812	32828
718.928	27934
719.045	24937
719.161	22947
719.277	22007
719.394	22497
719.510	22143
719.626	23107
719.743	27236
719.859	29808
719.975	41185
720.092	104694
720.208	303286
720.324	67831
720.440	27333
720.557	26054
720.673	30630
720.789	36742
720.905	61971
721.021	36866
721.137	22002
721.253	22265
721.369	22327
721.486	22073
721.602	28548
721.718	22534
721.834	19164
721.950	20873
722.066	20937
722.181	20117
722.297	21054
722.413	20556
722.529	19283
722.645	19679
722.761	18097
722.877	18443
722.993	18176
723.108	20667
723.224	20588
723.340	18620
723.456	18228
723.571	19351
723.687	18197
723.803	18851
723.918	18352
724.034	19074
724.150	19592
724.265	19160
724.381	26112
724.497	38726
724.612	18806
724.728	17430
724.843	16830
724.959	17794
725.074	26113
725.190	34502
725.305	18918
725.421	17869
725.536	15456
725.651	17321
725.767	15306
725.882	16251
725.997	15916
726.113	15904
726.228	15532
726.343	15544
726.459	15386
726.574	15900
726.689	15638
726.804	15187
726.920	15905
727.035	15947
727.150	16127
727.265	14889
727.380	15729
727.495	15401
727.610	14766
727.725	15289
727.841	15185
727.956	16217
728.071	17309
728.186	15644
728.301	13916
728.416	14940
728.531	15342
728.645	14053
728.760	14506
728.875	15501
728.990	14303
729.105	14703
729.220	13983
729.335	15282
729.449	14294
729.564	13568
729.679	12667
729.794	13709
729.908	14505
730.023	14783
730.138	12736
730.253	13627
730.367	13395
730.482	12980
730.596	12707
730.711	14090
730.826	14840
730.940	14510
731.055	13511
731.169	13704
731.284	12685
731.398	12690
731.513	14095
731.627	14356
731.742	14895
731.856	16338
731.970	15130
732.085	15926
732.199	17976
732.313	25736
732.428	49380
732.542	137297
732.656	116830
732.771	26711
732.885	16553
732.999	15545
733.113	15453
733.227	15402
733.342	14461
733.456	13710
733.570	13042
733.684	12933
733.798	12778
733.912	13528
734.026	12254
734.140	13094
734.254	13580
734.368	17246
734.482	22853
734.596	13072
734.710	12353
734.824	13363
734.938	12617
735.052	12834
735.166	12599
735.280	13130
735.393	12099
735.507	11304
735.621	14785
735.735	19930
735.849	15121
735.962	11912
736.076	12285
736.190	12017
736.303	13865
736.417	17511
736.531	11556
736.644	11755
736.758	10193
736.872	11391
736.985	11304
737.099	11169
737.212	10204
737.326	11505
737.439	10858
737.553	10782
737.666	11437
737.780	10428
737.893	10782
738.007	10160
738.120	10524
738.233	10676
738.347	10600
738.460	10170
738.573	10926
738.687	10417
738.800	10516
738.913	12407
739.026	11250
739.140	10713
739.253	10361
739.366	9966
739.479	10484
739.592	9613
739.705	9924
739.818	10148
739.932	9310
740.045	10141
740.158	10167
740.271	10529
740.384	9107
740.497	9176
740.610	10065
740.723	10025
740.836	9615
740.949	10531
741.062	11381
741.174	11998
741.287	9711
741.400	9526
741.513	10116
741.626	10470
741.739	9821
741.851	9577
741.964	9264
742.077	9693
742.189	9191
742.302	10359
742.415	9074
742.527	9394
742.640	9306
742.753	8410
742.865	8107
742.978	9242
743.090	8751
743.203	9375
743.316	9742
743.428	8235
743.541	8665
743.653	9300
743.766	7719
743.878	9356
743.990	10023
744.103	10194
744.215	8560
744.327	8712
744.440	9747
744.552	13167
744.664	10267
744.777	7962
744.889	7652
745.001	8730
745.113	7922
745.226	8629
745.338	7956
745.450	8045
745.562	8404
745.674	7493
745.786	8729
745.898	8181
746.010	7835
746.122	7619
746.234	7705
746.347	8408
746.459	7984
746.570	7424
746.682	8445
746.794	8334
746.906	7118
747.018	7890
747.130	7054
747.242	8222
747.354	7400
747.466	7840
747.577	7583
747.689	7438
747.801	7841
747.913	7540
748.024	7118
748.136	7514
748.248	7085
748.359	8286
748.471	6769
748.583	7625
748.694	7381
748.806	7814
748.918	8380
749.029	8716
749.141	7918
749.252	8987
749.364	8415
749.475	13110
749.587	11235
749.698	7675
749.809	7861
749.921	7743
750.032	6900
750.144	7325
750.255	6706
750.366	7590
750.478	7275
750.589	7560
750.700	7616
750.811	8323
750.923	8950
751.034	12997
751.145	16304
751.256	7344
751.367	7164
751.479	7014
751.590	7209
751.701	6476
751.812	6422
751.923	6363
752.034	6915
752.145	6853
752.256	6696
752.367	6881
752.478	7464
752.589	7041
752.700	7142
752.811	6037
752.922	6117
753.032	7089
753.143	8175
753.254	6487
753.365	7471
753.476	6728
753.586	6274
753.697	6203
753.808	6456
753.919	6505
754.029	6176
754.140	6727
754.251	6583
754.361	6027
754.472	5906
754.582	6228
754.693	7312
754.804	6615
754.914	6104
755.025	5538
755.135	6178
755.246	6100
755.356	4889
755.466	6490
755.577	6373
755.687	6265
755.798	6179
755.908	5686
756.018	5766
756.129	4735
756.239	6021
756.349	6426
756.460	6090
756.570	6720
756.680	5911
756.790	6862
756.900	6018
757.011	5848
757.121	5870
757.231	5394
757.341	5813
757.451	6717
757.561	5894
757.671	6627
757.781	5724
757.891	5657
758.001	6434
758.111	6107
758.221	6258
758.331	6948
758.441	7120
758.551	7531
758.661	7868
758.771	6975
758.880	6664
758.990	6628
759.100	6516
759.210	5985
759.320	6421
759.429	6238
759.539	7171
759.649	6373
759.758	7176
759.868	7542
759.978	6865
760.087	7211
760.197	6994
760.307	7176
760.416	6900
760.526	5898
760.635	6924
760.745	7421
760.854	7442
760.964	8346
761.073	7131
761.182	6760
761.292	6454
761.401	7803
761.511	6820
761.620	7058
761.729	5798
761.839	6447
761.948	6871
762.057	7173
762.166	6197
762.276	5542
762.385	7605
762.494	6928
762.603	6643
762.712	7420
762.822	7010
762.931	7411
763.040	6775
763.149	6136
763.258	6445
763.367	7329
763.476	6319
763.585	6479
763.694	6983
763.803	7055
763.912	7423
764.021	7167
764.130	7264
764.238	6872
764.347	6318
764.456	6754
764.565	7255
764.674	6448
764.783	7181
764.891	7024
765.000	8372
765.109	7952
765.217	8591
765.326	10619
765.435	11804
765.543	11893
765.652	12653
765.761	14535
765.869	19264
765.978	27313
766.086	45091
766.195	80729
766.303	189327
766.412	487067
766.520	520024
766.629	215356
766.737	75222
766.846	41215
766.954	27458
767.062	21255
767.171	17756
767.279	14924
767.387	11993
767.496	11566
767.604	10152
767.712	9808
767.820	8861
767.928	9543
768.037	7913
768.145	7912
768.253	8098
768.361	8589
768.469	8151
768.577	8840
768.685	9129
768.793	7725
768.901	8562
769.009	9842
769.117	9508
769.225	10876
769.333	14931
769.441	19504
769.549	33132
769.657	66729
769.765	193169
769.873	451533
769.981	256143
770.088	62424
770.196	27402
770.304	18920
770.412	15294
770.519	13092
770.627	10652
770.735	9037
770.842	8610
770.950	8383
771.058	8905
771.165	8373
771.273	8087
771.380	7458
771.488	7716
771.595	8433
771.703	7440
771.810	7955
771.918	6995
772.025	8117
772.133	6890
772.240	7284
772.348	8501
772.455	8052
772.562	6992
772.670	7616
772.777	8251
772.884	6581
772.991	6741
773.099	7138
773.206	7189
773.313	7152
773.420	6557
773.528	6372
773.635	5369
773.742	6844
773.849	6928
773.956	6685
774.063	5837
774.170	6444
774.277	7101
774.384	6214
774.491	7194
774.598	6564
774.705	6939
774.812	8231
774.919	7223
775.026	6204
775.133	6876
775.239	6084
775.346	6516
775.453	6606
775.560	6401
775.667	6662
775.773	6266
775.880	7236
775.987	7036
776.093	7094
776.200	6797
776.307	5831
776.413	6520
776.520	5901
776.627	5893
776.733	5528
776.840	5141
776.946	6588
777.053	6920
777.159	6362
777.266	5572
777.372	8416
777.478	6252
777.585	5890
777.691	6075
777.798	6001
777.904	5960
778.010	6521
778.117	8487
778.223	7394
778.329	5639
778.435	6455
778.542	6794
778.648	6524
778.754	5609
778.860	5265
778.966	5559
779.072	6189
779.178	5607
779.284	5702
779.391	4977
779.497	5466
779.603	7235
779.708	5015
779.815	7065
779.920	10249
780.026	21422
780.132	9012
780.238	5547
780.344	5725
780.450	5947
780.556	5343
780.661	5659
780.767	5535
780.873	4927
780.979	5314
781.085	5157
781.190	6060
781.296	4488
781.402	5227
781.507	5051
781.613	5486
781.719	4825
781.824	6450
781.930	5366
782.035	5737
782.141	4976
782.246	4543
782.352	4760
782.457	5768
782.563	5301
782.668	5178
782.773	4740
782.879	4689
782.984	4881
783.090	5769
783.195	6971
783.300	6828
783.405	5821
783.511	4868
783.616	4945
783.721	5433
783.826	4904
783.932	5313
784.037	4909
784.142	5074
784.247	4051
784.352	4757
784.457	4581
784.562	4634
784.667	4678
784.772	4459
784.877	4345
784.982	4105
785.087	5189
785.192	4299
785.297	5282
785.402	4580
785.507	4525
785.611	5276
785.716	4513
785.821	4582
785.926	4302
786.031	5051
786.135	4817
786.240	4967
786.345	3117
786.450	4497
786.554	3999
786.659	4167
786.763	4442
786.868	4658
786.973	4316
787.077	4505
787.182	3324
787.286	3244
787.391	4907
787.495	4327
787.600	4466
787.704	2950
787.809	4539
787.913	4403
788.017	4018
788.122	4628
788.226	3865
788.330	3825
788.435	3766
788.539	4098
788.643	3777
788.747	3471
788.852	3355
788.956	3743
789.060	3806
789.164	3184
789.268	3354
789.372	4222
789.476	3323
789.580	4071
789.684	3003
789.788	4700
789.892	3551
789.996	4790
790.100	4115
790.204	3234
790.308	3803
790.412	3722
790.516	3957
790.620	3568
790.724	3823
790.828	3882
790.931	3225
791.035	5172
791.139	3434
791.242	2825
791.346	4700
791.450	3468
791.554	3982
791.657	3725
791.761	4136
791.864	4316
791.968	3042
792.072	3778
792.175	4173
792.279	3540
792.382	4384
792.486	3938
792.589	3748
792.693	3928
792.796	4120
792.899	4078
793.003	3940
793.106	2482
793.209	3776
793.313	5088
793.416	3471
793.519	4809
793.623	5083
793.726	5839
793.829	4012
793.932	3938
794.035	2295
794.138	4529
794.242	3702
794.345	4129
794.448	4894
794.551	5583
794.654	8127
794.757	10604
794.860	6443
794.963	4889
795.066	3435
795.169	3595
795.272	3143
795.375	3573
795.477	3183
795.580	3877
795.683	2392
795.786	3168
795.889	1754
795.991	4289
796.094	3384
796.197	3074
796.300	3945
796.402	3382
796.505	3219
796.608	3417
796.710	3342
796.813	3518
796.915	3003
797.018	3205
797.120	3373
797.223	2521
797.326	3372
797.428	2959
797.530	2611
797.633	2671
797.735	4109
797.838	4699
797.940	5380
798.042	3130
798.145	2686
798.247	3476
798.349	2249
798.452	4291
798.554	2759
798.656	2023
798.758	3678
798.860	3129
798.962	3001
799.065	2428
799.167	1835
799.269	4338
799.371	2614
799.473	3623
799.575	3460
799.677	4781
799.779	4227
799.881	4476
799.983	4805
800.085	2523
800.187	3372
800.289	2042
800.390	2678
800.492	3193
800.594	4166
800.696	3234
800.798	2752
800.899	2033
801.001	2628
801.103	2797
801.205	1939
801.306	3007
801.408	2825
801.509	2156
801.611	2311
801.713	2697
801.814	2513
801.916	2624
802.017	2551
802.119	3029
802.220	3061
802.322	2177
802.423	4329
802.525	2834
802.626	2424
802.727	2794
802.829	2937
802.930	1629
803.031	3324
803.133	2422
803.234	2215
803.335	2690
803.436	1827
803.538	2576
803.639	1329
803.740	3220
803.841	2643
803.942	2457
804.043	3640
804.144	1902
804.245	2261
804.346	2177
804.447	2672
804.548	3273
804.649	4391
804.750	1906
804.851	2516
804.952	2494
805.053	2238
805.154	2130
805.255	2647
805.355	2300
805.456	2213
805.557	2259
805.658	2416
805.758	2684
805.859	2510
805.960	2438
806.061	1780
806.161	2201
806.262	1709
806.362	1602
806.463	1885
806.564	2516
806.664	2273
806.765	2775
806.865	3549
806.966	2469
807.066	1808
807.166	2674
807.267	2117
807.367	1759
807.468	2658
807.568	1657
807.668	2888
807.769	2609
807.869	1827
807.969	1982
808.069	2618
808.170	2451
808.270	1861
808.370	2238
808.470	2702
808.570	1863
808.670	2415
808.770	2476
808.870	1746
808.970	2689
809.070	1972
809.170	2423
809.271	3058
809.370	1810
809.470	1719
809.570	1986
809.670	1343
809.770	2613
809.870	2440
809.970	2632
810.070	1975
810.169	2529
810.269	624
810.369	2985
810.469	2118
810.568	2465
810.668	1990
810.768	2029
810.867	1518
810.967	1699
811.066	1766
811.166	963
811.265	3755
811.365	1716
811.464	2420
811.564	2097
811.663	1771
811.763	1473
811.862	3174
811.962	2143
812.061	2053
812.160	1838
812.260	2673
812.359	2002
812.458	4001
812.557	9243
812.657	16974
812.756	8052
812.855	2544
812.954	2170
813.053	2688
813.153	2096
813.252	1902
813.351	2072
813.450	2465
813.549	1929
813.648	2382
813.747	2095
813.846	3170
813.945	2094
814.044	2850
814.143	2405
814.242	2311
814.341	3529
814.439	2305
814.538	2828
814.637	2216
814.736	3143
814.835	3169
814.933	3216
815.032	3338
815.131	3271
815.229	3215
815.328	4457
815.427	3473
815.525	4597
815.624	5076
815.722	2782
815.821	4481
815.919	5143
816.018	3480
816.116	5165
816.215	4720
816.313	5246
816.412	5498
816.510	5526
816.609	6555
816.707	6204
816.805	5920
816.904	5833
817.002	7466
817.100	8825
817.198	9856
817.296	10307
817.395	10750
817.493	13996
817.591	15259
817.689	20071
817.787	26790
817.885	40058
817.983	63867
818.081	115112
818.179	229479
818.277	447729
818.375	490706
818.473	260165
818.571	119576
818.669	72505
818.767	57722
818.865	54571
818.963	59711
819.061	78377
819.158	119741
819.256	203180
819.354	369430
819.452	578358
819.549	522064
819.647	315417
819.745	161023
819.842	94706
819.940	63421
820.038	44838
820.135	34771
820.233	28159
820.330	22332
820.428	18081
820.525	15845
820.623	15185
820.720	11992
820.818	11894
820.915	10452
821.012	10144
821.110	8483
821.207	8834
821.304	6907
821.402	6244
821.499	7170
821.596	6760
821.693	5655
821.791	6290
821.888	6262
821.985	9021
822.082	8041
822.179	5682
822.276	4576
822.373	4321
822.470	3835
822.567	4631
822.664	3441
822.761	4168
822.858	3318
822.955	3800
823.052	2700
823.149	3305
823.246	3850
823.343	2675
823.440	2900
823.536	1882
823.633	2331
823.730	2756
823.827	3490
823.923	2855
824.020	3271
824.117	2783
824.213	1584
824.310	3771
824.407	2588
824.503	3305
824.600	3286
824.696	2332
824.793	2905
824.889	2228
824.986	1650
825.082	2194
825.179	3243
825.275	2682
825.371	2509
825.468	4006
825.564	1310
825.660	1761
825.757	2559
825.853	2895
825.949	1491
826.045	2487
826.142	1246
826.238	2324
826.334	2486
826.430	2387
826.526	2120
826.622	1542
826.718	2092
826.814	1451
826.910	2127
827.006	2357
827.102	1625
827.198	2448
827.294	1486
827.390	1643
827.486	2960
827.582	1526
827.678	1227
827.774	1837
827.869	682
827.965	2520
828.061	1029
828.157	2103
828.252	1964
828.348	1330
828.444	1960
828.539	1058
828.635	2711
828.731	2027
828.826	662
828.922	2094
829.017	1446
829.113	2670
829.208	929
829.304	1790
829.399	2554
829.495	1779
829.590	2511
829.685	1443
829.781	1831
829.876	1412
829.971	1527
830.066	902
830.162	1025
830.257	2314
830.352	1563
830.447	2586
830.543	1244
830.638	655
830.733	2694
830.828	416
830.923	1695
831.018	1610
831.113	1056
831.208	737
831.303	628
831.398	1319
831.493	1525
831.588	2193
831.683	918
831.778	1554
831.873	1023
831.967	1512
832.062	1099
832.157	988
832.252	1846
832.346	834
832.441	1592
832.536	3522
832.631	6089
832.725	6935
832.820	1293
832.914	2139
833.009	951
833.104	1587
833.198	1989
833.293	1097
833.387	1357
833.482	1508
833.576	897
833.670	1864
833.765	1384
833.859	1666
833.954	1573
834.048	885
834.142	1236
834.237	1274
834.331	1277
834.425	1116
834.519	1651
834.613	1363
834.708	1448
834.802	1512
834.896	720
834.990	1231
835.084	1249
835.178	513
835.272	1227
835.366	513
835.460	1741
835.554	1494
835.648	773
835.742	514
835.836	1199
835.930	624
836.024	1588
836.117	2078
836.211	1213
836.305	2048
836.399	2901
836.493	1869
836.586	2022
836.680	1099
836.774	1265
836.867	1308
836.961	600
837.055	370
837.148	924
837.242	916
837.335	709
837.429	943
837.522	1199
837.616	1582
837.709	2909
837.803	1614
837.896	646
837.989	1306
838.083	2219
838.176	3342
838.269	3624
838.363	1713
838.456	2006
838.549	2915
838.642	3107
838.735	7457
838.829	4763
838.922	1027
839.015	898
839.108	670
839.201	935
839.294	723
839.387	1146
839.480	1220
839.573	1984
839.666	2608
839.759	371
839.852	-312
839.945	355
840.038	292
840.131	1314
840.223	669
840.316	841
840.409	1071
840.502	745
840.594	1710
840.687	683
840.780	1660
840.873	265
840.965	497
841.058	1640
841.150	2976
841.243	3613
841.336	1834
841.428	279
841.521	446
841.613	-74
841.706	1307
841.798	164
841.890	1337
841.983	140
842.075	1174
842.167	1271
842.260	471
842.352	2146
842.444	1904
842.537	3161
842.629	6544
842.721	2151
842.813	610
842.905	-408
842.997	2183
843.090	1529
843.182	2036
843.274	2603
843.366	7257
843.458	16140
843.550	14060
843.642	2901
843.734	1109
843.826	1747
843.918	1890
844.009	754
844.101	885
844.193	801
844.285	1314
844.377	981
844.469	1010
844.560	749
844.652	1155
844.744	-168
844.835	668
844.927	443
845.019	727
845.110	1668
845.202	479
845.293	201
845.385	185
845.476	461
845.568	1676
845.659	-1095
845.751	1408
845.842	164
845.934	690
846.025	430
846.116	539
846.208	618
846.299	1003
846.390	75
846.482	288
846.573	776
846.664	2223
846.755	2065
846.846	3912
846.937	-55
847.029	1052
847.120	233
847.211	19
847.302	1777
847.393	-748
847.484	1099
847.575	646
847.666	-75
847.757	494
847.847	777
847.938	1298
848.029	535
848.120	460
848.211	183
848.302	814
848.392	507
848.483	1253
848.574	-134
848.664	117
848.755	590
848.846	1637
848.936	-63
849.027	644
849.118	322
849.208	969
849.299	812
849.389	1902
849.480	2931
849.570	6382
849.661	8930
849.751	18564
849.841	9414
849.932	1150
850.022	210
850.112	946
850.203	380
850.293	404
850.383	608
850.474	1183
850.564	127
850.654	159
850.744	0
850.834	336
850.924	257
851.014	575
851.104	470
851.194	429
851.284	915
851.374	1805
851.464	1515
851.554	657
851.644	1031
851.734	1432
851.824	1255
851.914	409
852.004	889
852.094	-109
852.183	517
852.273	-97
852.363	563
852.452	790
852.542	-58
852.632	822
852.721	238
852.811	-80
852.901	827
852.990	210
853.080	-325
853.169	739
853.259	839
853.348	538
853.438	681
853.527	1343
853.617	2219
853.706	4706
853.795	6821
853.885	15621
853.974	31418
854.063	51457
854.152	98239
854.242	54201
854.331	9881
854.420	3500
854.509	1902
854.598	1454
854.687	981
854.777	2007
854.866	902
854.955	1261
855.044	110
855.133	669
855.222	134
855.311	-20
855.400	-19
855.488	883
855.577	-186
855.666	-266
855.755	741
855.844	565
855.933	-29
856.021	169
856.110	171
856.199	-60
856.288	485
856.376	-102
856.465	-806
856.554	734
856.642	-606
856.731	-196
856.819	1499
856.908	599
856.996	-334
857.085	-124
857.173	86
857.262	143
857.350	437
857.438	-314
857.527	533
857.615	586
857.703	919
857.792	80
857.880	78
857.968	-319
858.056	287
858.145	446
858.233	19
858.321	-648
858.409	205
858.497	-736
858.585	-73
858.673	337
858.761	510
858.849	686
858.937	79
859.025	226
859.113	-126
859.201	-728
859.289	636
859.377	147
859.465	143
859.552	-580
859.640	-594
859.728	244
859.816	-397
859.903	679
859.991	-848
860.079	-33
860.166	19
860.254	-284
860.342	14
860.429	328
860.517	234
860.604	1009
860.692	-661
860.779	-850
860.867	193
860.954	967
861.042	15
861.129	742
861.216	-39
861.304	-318
861.391	-582
861.478	-231
861.565	584
861.653	658
861.740	44
861.827	-136
861.914	27
862.001	-441
862.089	261
862.176	-229
862.263	-74
862.350	618
862.437	-277
862.524	416
862.611	-626
862.698	625
862.785	103
862.871	61
862.958	-558
863.045	-532
863.132	109
863.219	-130
863.306	-201
863.392	463
863.479	-47
863.566	-491
863.652	-230
863.739	-869
863.826	262
863.912	236
863.999	-194
864.086	563
864.172	-710
864.259	660
864.345	-187
864.432	395
864.518	-33
864.604	245
864.691	-710
864.777	476
864.863	128
864.950	424
865.036	-307
865.122	2025
865.209	1254
865.295	2065
865.381	1008
865.467	1369
865.553	1318
865.639	1507
865.726	4224
865.812	8419
865.898	16186
865.984	23568
866.070	41313
866.156	59889
866.242	20639
866.328	4206
866.414	1674
866.499	1253
866.585	62
866.671	1210
866.757	1740
866.843	1199
866.928	702
867.014	1404
867.100	1269
867.186	1185
867.271	1474
867.357	1912
867.442	2136
867.528	1152
867.614	508
867.699	588
867.785	1242
867.870	1055
867.956	1251
868.041	864
868.127	626
868.212	1792
868.297	998
868.383	783
868.468	1261
868.553	2827
868.639	3878
868.724	6832
868.809	9921
868.894	2399
868.979	-27
869.065	714
869.150	345
869.235	634
869.320	-204
869.405	609
869.490	179
869.575	-73
869.660	385
869.745	96
869.830	-20
869.915	473
870.000	424
870.085	190
870.169	69
870.254	720
870.339	-560
870.424	-348
870.509	154
870.593	-72
870.678	35
870.763	198
870.847	-22
870.932	690
871.016	-189
871.101	-12
871.186	53
871.270	519
871.355	-504
871.439	486
871.523	-475
871.608	316
871.692	-602
871.777	589
871.861	-179
871.945	-15
872.030	75
872.114	-271
872.198	-459
872.282	-356
872.367	-637
872.451	19
872.535	20
872.619	437
872.703	-421
872.787	-68
872.871	-396
872.955	425
873.039	-46
873.123	287
873.207	-45
873.291	-674
873.375	-675
873.459	103
873.543	99
873.627	-363
873.711	344
873.794	-24
873.878	-723
873.962	-173
874.045	-521
874.129	-822
874.137	-776
874.213	-315
874.245	-309
874.296	-299
874.352	-227
874.380	-193
874.460	-543
874.464	-558
874.547	-222
874.568	-96
874.631	300
874.676	-93
874.714	-440
874.784	138
874.798	259
874.881	94
874.892	58
874.965	-224
874.999	-400
875.048	-607
875.107	-77
875.131	124
875.215	-598
875.215	-597
875.298	-316
875.323	-487
875.381	-812
875.430	-265
875.465	100
875.538	175
875.548	180
875.631	88
875.646	-26
875.714	-554
875.753	-658
875.798	-777
875.861	-45
875.881	191
875.964	-266
875.968	-286
876.047	-638
876.076	-326
876.130	279
876.183	-6
876.213	-216
876.291	419
876.296	464
876.379	-1007
876.398	-750
876.462	205
876.506	-151
876.545	-492
876.613	-12
876.628	83
876.711	-414
876.721	-311
876.794	502
876.828	-57
876.877	-898
876.935	-173
876.960	172
877.043	602
877.043	599
877.125	-238
877.150	-320
877.208	-449
877.258	-92
877.291	144
877.365	-595
877.374	-680
877.456	444
877.472	332
877.539	-197
877.579	-4
877.622	225
877.687	-131
877.704	-260
877.787	-709
877.794	-671
877.869	56
877.901	326
877.952	614
878.008	304
878.034	154
878.115	-640
878.117	-656
878.199	-207
878.222	-190
878.282	47
878.329	-135
878.364	-337
878.437	-23
878.447	44
878.529	-592
878.544	-543
878.611	-494
878.651	-642
878.694	-778
878.758	-147
878.776	6
878.858	-77
878.865	-78
878.941	188
878.972	-104
879.023	-801
879.078	-325
879.105	4
879.185	52
879.187	48
879.269	-428
879.292	-349
879.351	-62
879.399	-16
879.433	73
879.506	100
879.516	80
879.598	-171
879.613	-280
879.680	-752
879.720	-464
879.762	30
879.827	-13
879.844	-198
879.926	-468
879.933	-538
880.007	-306
880.040	-14
880.089	87
880.147	229
880.171	356
880.253	1536
880.254	1543
880.335	2364
880.360	2581
880.417	3260
880.467	4684
880.499	5677
880.574	8683
880.580	8832
880.662	3668
880.680	2904
880.744	436
880.787	-178
880.825	-545
880.893	49
880.907	135
880.989	-407
881.000	-492
881.070	-639
881.106	-440
881.152	-263
881.213	26
881.233	130
881.315	148
881.319	148
881.396	94
881.426	114
881.478	64
881.532	40
881.559	91
881.639	-317
881.641	-335
881.722	-792
881.745	-813
881.803	-468
881.852	-335
881.885	-259
881.958	57
881.966	44
882.047	-426
882.064	-500
882.129	-94
882.171	445
882.210	647
882.277	1067
882.291	1104
882.372	84
882.383	-74
882.454	-377
882.489	-174
882.535	-174
882.596	-289
882.616	-326
882.697	-266
882.702	-280
882.778	-251
882.808	-11
882.859	239
882.914	-61
882.940	-229
883.020	-390
883.021	-387
883.102	-80
883.127	-86
883.183	-241
883.233	-148
883.264	-12
883.339	-288
883.345	-304
883.426	-126
883.445	-71
883.507	-223
883.551	-474
883.587	-562
883.657	-149
883.668	-46
883.749	-139
883.763	-78
883.830	99
883.869	58
883.910	-108
883.975	-322
883.991	-335
884.072	-275
884.081	-280
884.152	-19
884.187	5
884.233	-182
884.292	108
884.314	41
884.394	-1026
884.398	-1069
884.475	-648
884.504	-440
884.555	-655
884.610	-1029
884.636	-942
884.716	-84
884.716	-80
884.797	-361
884.821	-498
884.877	-164
884.927	218
884.958	39
885.033	-673
885.038	-669
885.118	-126
885.139	-109
885.199	-23
885.244	63
885.279	-48
885.350	-168
885.359	-176
885.439	-187
885.456	-255
885.520	-207
885.561	-49
885.600	-386
885.667	-911
885.680	-796
885.760	-298
885.773	-227
885.840	-271
885.878	-223
885.920	-360
885.984	-779
886.000	-770
886.080	-153
886.089	-135
886.160	-20
886.195	23
886.240	-114
886.300	-252
886.320	-213
886.400	-16
886.406	-5
886.480	-373
886.511	-535
886.560	-314
886.616	48
886.640	54
886.720	-297
886.722	-301
886.800	3
886.827	99
886.879	-97
886.932	-394
886.959	-164
887.038	620
887.039	618
887.119	54
887.143	-70
887.198	43
887.248	36
887.278	-50
887.354	-285
887.358	-281
887.437	-199
887.459	-177
887.517	-356
887.564	-502
887.596	-319
887.669	15
887.676	-23
887.755	-353
887.774	-475
887.835	-95
887.880	268
887.914	202
887.985	-101
887.994	-120
888.073	-123
888.090	-147
888.153	103
888.195	260
888.232	202
888.300	142
888.311	136
888.391	48
888.405	18
888.470	82
888.510	134
888.549	-123
888.615	-468
888.628	-340
888.708	321
888.720	433
888.787	-219
888.825	-626
888.866	-680
888.930	-762
888.945	-744
889.024	-605
889.035	-585
889.103	-124
889.140	94
889.182	28
889.245	-23
889.261	-45
889.340	-194
889.349	-206
889.419	-302
889.454	-370
889.498	-447
889.559	-529
889.577	-451
889.656	-99
889.664	-61
889.735	538
889.768	821
889.814	336
889.873	-304
889.978	422
890.083	-370
890.187	-252
890.292	-1008
890.397	-237
890.501	-292
890.606	-104
890.710	35
890.815	-275
890.919	-93
891.024	-846
891.128	-616
891.233	6
891.337	-61
891.442	-616
891.546	-327
891.650	-415
891.755	66
891.859	1209
891.963	-247
892.068	708
892.172	-30
892.276	-340
892.380	-473
892.484	-16
892.589	-503
892.693	157
892.797	-297
892.901	434
893.005	-421
893.109	189
893.213	-328
893.317	353
893.421	-534
893.525	-411
893.629	70
893.733	-24
893.837	-452
893.941	720
894.045	-321
894.148	332
894.252	393
894.356	164
894.460	0
894.564	155
894.667	-178
894.771	-92
894.875	-360
894.978	64
895.082	-260
895.186	215
895.289	-167
895.393	48
895.496	-591
895.600	-142
895.703	40
895.807	-487
895.910	-338
896.014	524
896.117	-550
896.221	664
896.324	28
896.427	466
896.531	-280
896.634	481
896.737	-329
896.840	-2
896.944	-743
897.047	-346
897.150	-432
897.253	-492
897.356	101
897.460	-131
897.563	-402
897.666	616
897.769	-455
897.872	-605
897.975	-71
898.078	-556
898.181	-297
898.284	-194
898.387	342
898.490	-214
898.593	-573
898.695	-144
898.798	-623
898.901	-9
899.004	-10
899.107	-198
899.209	-409
899.312	263
899.415	-553
899.518	287
899.620	-662
899.723	417
899.826	83
899.928	1517
900.031	-291
900.133	-475
900.236	-336
900.338	-287
900.441	-307
900.543	143
900.646	313
900.748	-135
900.851	-128
900.953	-274
901.055	-592
901.158	-112
901.260	-219
901.362	405
901.465	-181
901.567	-409
901.669	208
901.771	-460
901.873	0
901.976	228
902.078	-905
902.180	-375
902.282	291
902.384	-120
902.486	-424
902.588	24
902.690	-1035
902.792	-105
902.894	-1043
902.996	-710
903.098	90
903.200	41
903.302	-1258
903.404	-278
903.505	-294
903.607	-373
903.709	-356
903.811	-202
903.913	-406
904.014	455
904.116	-394
904.218	346
904.319	-872
904.421	943
904.523	-460
904.624	491
904.726	-1200
904.827	295
904.929	-698
905.030	-251
905.132	-616
905.233	-315
905.335	-26
905.436	-532
905.537	-1105
905.639	458
905.740	-454
905.841	-163
905.943	-749
906.044	-258
906.145	-134
906.247	-791
906.348	-711
906.449	28
906.550	-232
906.651	-97
906.752	-343
906.854	55
906.955	-48
907.056	391
907.157	-670
907.258	-413
907.359	-130
907.460	-975
907.561	-648
907.662	-892
907.762	-625
907.863	-526
907.964	43
908.065	-124
908.166	-502
908.267	-344
908.367	96
908.468	-146
908.569	-788
908.670	-492
908.770	-90
908.871	630
908.971	-1100
909.072	-575
909.173	-582
909.273	-1152
909.374	-590
909.474	249
909.575	-364
909.675	-931
909.776	-1010
909.876	-748
909.977	-1201
910.077	272
910.177	-640
910.278	-337
910.378	-357
910.478	-661
910.579	-179
910.679	-240
910.779	-1107
910.879	480
910.980	-387
911.080	-812
911.180	-567
911.280	541
911.380	61
911.480	288
911.580	12
911.680	-489
911.780	-107
911.880	-149
911.980	-814
912.080	176
912.180	-683
912.280	660
912.380	-1137
912.480	-348
912.580	-590
912.679	-241
912.779	-287
912.879	-5
912.979	9
913.078	-15
913.178	-438
913.278	-931
913.377	-48
913.477	82
913.577	164
913.676	93
913.776	-820
913.875	322
913.975	-740
914.074	-253
914.174	-1044
914.273	-541
914.373	739
914.472	-16
914.572	-1428
914.671	-389
914.770	-153
914.870	-328
914.969	-94
915.068	-407
915.167	591
915.267	102
915.366	-386
915.465	-254
915.564	330
915.663	-916
915.763	-614
915.862	593
915.961	-505
916.060	-60
916.159	-670
916.258	-537
916.357	-461
916.456	249
916.555	-485
916.654	-546
916.752	-466
916.851	144
916.950	-732
917.049	-118
917.148	-1418
917.247	-564
917.345	352
917.444	120
917.543	32
917.642	-187
917.740	-549
917.839	218
917.937	-615
918.036	49
918.135	-606
918.233	42
918.332	-58
918.430	194
918.529	-180
918.627	-101
918.726	-495
918.824	-573
918.923	-268
919.021	-37
919.119	-875
919.218	-116
919.316	-215
919.414	138
919.512	-925
919.611	168
919.709	-367
919.807	-23
919.905	182
920.003	82
920.102	-907
920.200	116
920.298	-449
920.396	-119
920.494	-516
920.592	-82
920.690	-305
920.788	221
920.886	40
920.984	-265
921.082	-294
921.180	352
921.277	-257
921.375	-170
921.473	-883
921.571	-451
921.669	-28
921.766	133
921.864	-274
921.962	-414
922.060	-51
922.157	-69
922.255	295
922.352	-656
922.450	-550
922.548	-86
922.645	-797
922.743	-363
922.840	39
922.938	1213
923.035	-303
923.133	340
923.230	438
923.327	1442
923.425	165
923.522	970
923.619	-78
923.717	712
923.814	543
923.911	324
924.008	-38
924.106	524
924.203	-449
924.300	151
924.397	260
924.494	801
924.591	348
924.688	-437
924.786	194
924.883	287
924.979	26
925.077	634
925.173	-147
925.270	363
925.367	22
925.464	349
925.561	26
925.658	524
925.755	481
925.852	253
925.948	-72
926.045	548
926.142	233
926.239	395
926.335	-548
926.432	203
926.529	105
926.625	384
926.722	92
926.818	411
926.915	220
927.011	-215
927.108	-16
927.204	266
927.301	-263
927.397	-11
927.494	-131
927.590	-334
927.687	-870
927.783	-92
927.879	-419
927.976	701
928.072	7
928.168	667
928.264	-109
928.361	-571
928.457	-33
928.553	504
928.649	-359
928.745	510
928.841	2
928.937	538
929.033	239
929.129	483
929.225	-270
929.321	258
929.417	-855
929.513	-645
929.609	-702
929.705	-309
929.801	-164
929.897	-361
929.993	-96
930.089	49
930.184	-412
930.280	274
930.376	-7
930.471	114
930.567	-361
930.663	-57
930.758	41
930.854	335
930.950	-489
931.045	-631
931.141	-212
931.236	213
931.332	-81
931.427	103
931.523	-503
931.618	-447
931.714	-963
931.809	-586
931.905	-946
932.000	-687
932.095	-550
932.191	477
932.286	-150
932.381	-176
932.476	-803
932.572	-94
932.667	40
932.762	-18
932.857	-662
932.952	914
933.047	287
933.142	-476
933.237	-752
933.332	200
933.427	-441
933.522	179
933.617	-261
933.712	102
933.807	-429
933.902	-249
933.997	-1014
934.092	-96
934.187	-1371
934.282	-483
934.376	-834
934.471	-108
934.566	-107
934.661	-658
934.755	403
934.850	-467
934.945	-381
935.039	206
935.134	-948
935.228	-734
935.323	-319
935.417	107
935.512	-692
935.606	-603
935.701	-560
935.795	-487
935.890	-1041
935.984	-182
936.079	-429
936.173	-73
936.267	-785
936.362	299
936.456	319
936.550	-581
936.644	-17
936.738	-1400
936.833	-536
936.927	-226
937.021	-330
937.115	-333
937.209	-992
937.303	89
937.397	-294
937.491	-219
937.585	331
937.679	-562
937.773	-414
937.867	-309
937.961	-683
938.055	-248
938.149	-355
938.243	-178
938.337	-188
938.430	-26
938.524	-387
938.618	164
938.712	-389
938.805	-15
938.899	-606
938.993	-285
939.086	87
939.180	-559
939.274	-205
939.367	-153
939.461	-354
939.554	-1111
939.648	-821
939.741	-864
939.835	274
939.928	350
940.022	14
940.115	-754
940.208	-1283
940.302	-511
940.395	19
940.488	209
940.582	-616
940.675	-402
940.768	-1270
940.861	-1148
940.954	-853
941.048	-154
941.141	-1595
941.234	-1057
941.327	-277
941.420	-552
941.513	-534
941.606	-530
941.699	19
941.792	-154
941.885	-576
941.978	-653
942.071	-1173
942.164	-638
942.257	-580
942.349	25
942.442	-746
942.535	-630
942.628	-724
942.721	-487
942.813	-1138
942.906	202
942.999	-1230
943.091	-1216
943.184	-1210
943.277	-990
943.369	-126
943.462	-535
943.554	-1194
943.647	-1243
943.739	-468
943.832	-712
943.924	-1051
944.017	-804
944.109	-938
944.201	-716
944.294	-622
944.386	-614
944.478	307
944.571	-848
944.663	-722
944.755	-415
944.847	-825
944.940	-102
945.032	-1800
945.124	-486
945.216	-195
945.308	-544
945.400	-51
945.492	-639
945.584	-381
945.676	-19
945.768	72
945.860	-164
945.952	-991
946.044	-350
946.136	-331
946.228	-365
946.320	-1517
946.412	-752
946.503	-1318
946.595	-146
946.687	-347
946.779	-1404
946.870	-572
946.962	-964
947.054	-498
947.145	181
947.237	-272
947.329	-588
947.420	-532
947.512	-638
947.603	-582
947.695	-906
947.786	-686
947.878	-763
947.969	-769
948.061	-332
948.152	-1170
948.243	-302
948.335	-718
948.426	-1073
948.517	-1034
948.609	-967
948.700	-1064
948.791	-1104
948.882	-1159
948.973	-725
949.065	-2093
949.156	-927
949.247	-899
949.338	-534
949.429	-1296
949.520	-198
949.611	-1755
949.702	-16
949.793	-887
949.884	-833
949.975	-1620
950.066	-1050
950.157	-1074
950.247	-1145
950.338	-1007
950.429	-517
950.520	-647
950.611	-909
950.701	-998
950.792	-1206
950.883	-569
950.973	-591
951.064	-816
951.155	-862
951.245	-353
951.336	-905
951.427	-1428
951.517	-329
951.608	-118
951.698	-804
951.788	-1572
951.879	-454
951.969	-1443
952.060	-705
952.150	-1254
952.240	-781
952.331	-1984
952.421	207
952.511	-1735
952.602	-1086
952.692	-474
952.782	-1003
952.872	-1129
952.962	-615
953.052	-1399
953.143	-1811
953.233	-1503
953.323	-381
953.413	-1487
953.503	-716
953.593	-1562
953.683	-190
953.773	-1184
953.863	-300
953.953	-1396
954.042	-547
954.132	-1381
954.222	-504
954.312	-856
954.402	-527
954.492	-1297
954.581	-358
954.671	-970
954.761	-1214
954.850	-134
954.940	-351
955.030	-1693
955.119	-1054
955.209	-611
955.298	-1050
955.388	-551
955.477	-295
955.567	-1304
955.656	-943
955.746	-611
955.835	-1358
955.925	-1187
956.014	-1139
956.103	-1022
956.193	-628
956.282	-1344
956.371	-654
956.461	-1670
956.550	-974
956.639	-818
956.728	-799
956.817	-1027
956.906	-891
956.995	-1098
957.085	-982
957.174	-1073
957.263	-1175
957.352	-384
957.441	-1498
957.530	-1291
957.619	-1252
957.708	-805
957.796	-1240
957.885	-857
957.974	-1222
958.063	-917
958.152	-1853
958.241	-1096
958.329	-1228
958.418	-1399
958.507	-2232
958.596	-1367
958.684	-901
958.773	-1268
958.861	-507
958.950	-1134
959.039	-1257
959.127	-1017
959.216	-583
959.304	-953
959.393	-1203
959.481	-1787
959.570	-1190
959.658	-1150
959.746	-1031
959.835	-1554
959.923	-1159
960.011	-1862
960.100	-798
960.188	-785
960.276	-1685
960.365	-733
960.453	-1458
960.541	-2348
960.629	-1054
960.717	-1249
960.805	-890
960.893	-942
960.981	-1131
961.069	-1019
961.158	-1069
961.245	-1297
961.333	-1112
961.421	-1175
961.509	-831
961.597	-2252
961.685	-988
961.773	-875
961.861	-1549
961.949	-674
962.036	-1870
962.124	-1319
962.212	-1493
962.299	-1660
962.387	-1391
962.475	-1976
962.562	-523
962.650	-1298
962.738	-382
962.825	-1393
962.913	-1060
963.000	-902
963.088	-679
963.175	-953
963.263	-597
963.350	-1409
963.438	-1340
963.525	-1621
963.612	-83
963.700	-825
963.787	387
963.874	-633
963.962	-353
964.049	-1135
964.136	-1361
964.223	-1611
964.310	-1282
964.398	-1672
964.485	-1519
964.572	-996
964.659	-1154
964.746	-1121
964.833	-998
964.920	-1577
965.007	-1116
965.094	-1726
965.181	-1161
965.268	-543
965.355	-1275
965.441	-1265
965.528	-1744
965.615	-702
965.702	-1602
965.789	-1249
965.875	-1204
965.962	-1603
966.049	-1216
966.136	-1399
966.222	-2165
966.309	-1652
966.395	-1418
966.482	-899
966.569	-1246
966.655	-1415
966.742	-628
966.828	-1306
966.915	-1367
967.001	-841
967.087	-1178
967.174	-1562
967.260	-1271
967.347	-1439
967.433	-423
967.519	154
967.605	-687
967.692	-476
967.778	-1260
967.864	-1112
967.950	-1115
968.036	-992
968.123	-1880
968.209	-1699
968.295	-987
968.381	-763
968.467	-640
968.553	-2454
968.639	-639
968.725	-1545
968.811	-758
968.897	-768
968.983	-700
969.069	-2028
969.154	-996
969.240	-902
969.326	-1265
969.412	-2828
969.497	-1788
969.583	-1880
969.669	-522
969.755	-1776
969.840	-1467
969.926	-1273
970.012	-1318
970.097	-1861
970.183	-967
970.268	-1454
970.354	-735
970.439	-1790
970.525	-394
970.610	-594
970.696	-570
970.781	-1692
970.866	-1731
970.952	-1703
971.037	-1188
971.122	-1631
971.208	-519
971.293	-1465
971.378	-1426
971.463	-1114
971.549	-634
971.634	-1617
971.719	-945
971.804	-1570
971.889	-894
971.974	-2355
972.059	-1242
972.144	-1317
972.229	-688
972.314	-1746
972.399	-708
972.484	-878
972.569	-838
972.654	-1635
972.739	-587
972.824	-1620
972.908	-874
972.993	-1351
973.078	-192
973.163	-1854
973.247	-1315
973.332	-2384
973.417	91
973.501	-1632
973.586	-909
973.671	-1401
973.755	-1697
973.840	-943
973.924	300
974.009	-940
974.093	-1845
974.178	-675
974.262	-657
974.346	-953
974.431	-1392
974.515	-1772
974.600	-1583
974.684	-1191
974.768	-709
974.852	-853
974.937	-1938
975.021	-1667
975.105	-1506
975.189	-929
975.273	-833
975.358	-1364
975.442	-1459
975.526	-1769
975.610	-1797
975.694	-1345
975.778	-827
975.862	-1344
975.946	-2166
976.030	-350
976.114	-1025
976.198	-2013
976.281	-1049
976.365	-764
976.449	-1066
976.533	-1512
976.617	-1805
976.700	-1715
976.784	-1137
976.868	-1765
976.951	-507
977.035	-828
977.119	-1344
977.202	-2095
977.286	-1164
977.369	-1691
977.453	-873
977.536	-1689
977.620	-1180
977.703	-1370
977.787	-1673
977.870	-916
977.953	-225
978.037	-2460
978.120	-877
978.203	-1748
978.287	-945
978.370	-990
978.453	-807
978.536	-1230
978.620	-91
978.703	-667
978.786	-1762
978.869	-1730
978.952	-1679
979.035	23
979.118	-462
979.201	-2116
979.284	-1178
979.367	-2272
979.450	-417
979.533	-1660
979.616	-1396
979.699	-1863
979.782	-1341
979.865	-1058
979.948	-2159
980.030	-1508
980.113	-1091
980.196	-1682
980.279	-1131
980.361	-1256
980.444	-1535
980.526	-1393
980.609	-1812
980.692	-1368
980.774	-344
980.857	-2662
980.939	-986
981.022	-1844
981.104	-1593
981.187	-2151
981.269	-309
981.352	-1107
981.434	-1864
981.516	-1951
981.599	-447
981.681	-1603
981.763	-1318
981.846	-1232
981.928	-891
982.010	-1812
982.092	-1135
982.174	-998
982.256	-1725
982.339	-1663
982.421	-1206
982.503	-1264
982.585	-1681
982.667	-1847
982.749	-954
982.831	-1749
982.913	-2507
982.995	36
983.077	-1871
983.158	-209
983.240	-1367
983.322	-1091
983.404	-258
983.486	-2360
983.568	-645
983.649	-1296
983.731	-1378
983.813	-1401
983.894	-949
983.976	-1424
984.058	-729
984.139	-941
984.221	-1254
984.302	-854
984.384	-440
984.465	-1514
984.547	-1320
984.628	-1499
984.710	-1154
984.791	-1279
984.872	-1092
984.954	-1749
985.035	-1273
985.116	-1359
985.198	-1197
985.279	-724
985.360	-2006
985.441	-1187
985.522	-1650
985.604	-1379
985.685	-2883
985.766	-417
985.847	-778
985.928	-1637
986.009	-1614
986.090	-2032
986.171	263
986.252	-1745
986.333	-850
986.414	-2186
986.495	-310
986.576	-1846
986.656	-873
986.737	-208
986.818	-770
986.899	-1858
986.980	-1388
987.060	-766
987.141	-1253
987.222	-1013
987.302	-718
987.383	-1402
987.464	-1324
987.544	-690
987.625	-715
987.705	-1003
987.786	-949
987.866	-1925
987.947	-1278
988.027	-900
988.108	-1748
988.188	-964
988.268	-1113
988.349	-1217
988.429	-1369
988.509	-161
988.589	-1400
988.670	-2908
988.750	-184
988.830	-1139
988.910	-909
988.990	-1940
989.070	-850
989.151	-1798
989.231	-2007
989.311	-431
989.391	-1171
989.471	-1474
989.551	-1233
989.631	-1435
989.711	-425
989.791	-1248
989.870	-1507
989.950	-975
990.030	-1015
990.110	-1158
990.190	-1673
990.269	-1245
990.349	-1927
990.429	-962
990.509	-975
990.588	-2512
990.668	-689
990.747	-2209
990.827	-913
990.907	-706
990.986	-1879
991.066	-1216
991.145	-711
991.225	-1010
991.304	-2556
991.383	-811
991.463	-883
991.542	-1130
991.622	-1392
991.701	-2051
991.780	-939
991.859	-842
991.939	-1448
992.018	-1243
992.097	-1285
992.176	-996
992.256	-1452
992.335	-1278
992.414	-739
992.493	-1241
992.572	-845
992.651	-792
992.730	-1422
992.809	-1334
992.888	-1669
992.967	-1304
993.046	-418
993.125	-1651
993.203	-2151
993.282	-1061
993.361	-311
993.440	-1595
993.519	-1113
993.597	-2157
993.676	-1827
993.755	-1881
993.834	-1563
993.912	-2295
993.991	-503
994.069	-1482
994.148	-1879
994.226	-2234
994.305	-1133
994.384	-1100
994.462	-1063
994.540	-2296
994.619	-2217
994.697	-637
994.776	-2346
994.854	-829
994.932	-909
995.011	-1630
995.089	-1066
995.167	-2049
995.245	-1464
995.324	-2305
995.402	-818
995.480	-1939
995.558	-1334
995.636	-1849
995.714	-1506
995.792	-1380
995.870	-1998
995.948	-1704
996.026	-825
996.104	-2694
996.182	-1091
996.260	-1952
996.338	-1041
996.416	-1863
996.494	-2194
996.572	-597
996.649	-1732
996.727	-2203
996.805	-947
996.883	-2429
996.960	-1940
997.038	-1830
997.116	-491
997.193	-2242
997.271	-855
997.348	-1962
997.426	-1191
997.504	-2551
997.581	-1473
997.658	-205
997.736	-2275
997.813	-1803
997.891	-1243
997.968	-2236
998.046	-1991
998.123	-1989
998.200	-784
998.277	-1697
998.355	-863
998.432	-2106
998.509	-1108
998.586	-1408
998.663	-769
998.741	-1824
998.818	-1544
998.895	-2229
998.972	-967
999.049	-1044
999.126	-1317
999.203	-1719
999.280	-1789
999.357	-1117
999.434	-2134
999.511	-721
999.587	-840
999.664	-2254
999.741	-1004
999.818	-1313
999.895	-1880
999.971	-2067
1000.048	-1342
1000.125	-1627
1000.202	-1601
1000.278	-1394
1000.355	-1927
1000.431	-2311
1000.508	-1730
1000.584	-755
1000.661	-561
1000.738	-2747
1000.814	-1264
1000.890	-1459
1000.967	-2511
1001.043	-2315
1001.120	-1581
1001.196	-2287
1001.272	-1863
1001.349	-1537
1001.425	-1469
1001.501	-1486
1001.577	-2024
1001.654	-906
1001.730	-1713
1001.806	-1444
1001.882	-2146
1001.958	-1875
1002.034	-1810
1002.110	-2027
1002.186	-2480
1002.262	-2531
1002.338	-1718
1002.414	-1690
1002.490	-1295
1002.566	-2517
1002.642	-2578
1002.718	-1052
1002.794	-2524
1002.870	-2153
1002.945	-440
1003.021	-1355
1003.097	-1918
1003.173	-1446
1003.248	-2013
1003.324	-2368
1003.400	-1821
1003.475	-1925
1003.551	-2074
1003.626	-1773
1003.702	-1470
1003.777	-1568
1003.853	-2119
1003.928	-2208
1004.004	-925
1004.079	-1917
1004.155	-1336
1004.230	-2982
1004.305	-1568
1004.381	-1648
1004.456	-1705
1004.531	-1732
1004.607	-958
1004.682	-2476
1004.757	-1287
1004.832	-2547
1004.907	-1472
1004.982	-1803
1005.057	-1839
1005.133	-1671
1005.208	-1724
1005.283	-2175
1005.358	-643
1005.433	-1997
1005.508	-1946
1005.583	-2927
1005.657	-2633
1005.732	-1565
1005.807	-2276
1005.882	-2536
1005.957	-1983
1006.032	-1431
1006.106	-1879
1006.181	-1903
1006.256	-1398
1006.331	-1910
1006.405	-1921
1006.480	-2106
1006.554	-1864
1006.629	-1705
1006.704	-2256
1006.778	-2072
1006.853	-1715
1006.927	-1667
1007.002	-2532
1007.076	-2296
1007.150	-1501
1007.225	-2183
1007.299	-1106
1007.373	-2174
1007.448	-2363
1007.522	-958
1007.596	-1840
1007.671	-1856
1007.745	-1399
1007.819	-2271
1007.893	-1799
1007.967	-1936
1008.041	-3022
1008.115	-2003
1008.190	-2452
1008.264	-1779
1008.338	-2772
1008.412	-2573
1008.486	-1914
1008.560	-2118
1008.633	-1776
1008.707	-2474
1008.781	-1832
1008.855	-2038
1008.929	-2016
1009.003	-2644
1009.076	-2350
1009.150	-2345
1009.224	-2076
1009.298	-1648
1009.371	-2597
1009.445	-1308
1009.519	-1855
1009.592	-2294
1009.666	-1621
1009.739	-1955
1009.813	-2274
1009.886	-2248
1009.960	-3167
1010.033	-2128
1010.107	-1339
1010.180	-2731
1010.253	-2035
1010.327	-2871
1010.400	-1932
1010.473	-2891
1010.547	-930
1010.620	-2123
1010.693	-2276
1010.766	-2564
1010.840	-1556
1010.913	-2245
1010.986	-2620
1011.059	-1957
1011.132	-2701
1011.205	-1554
1011.278	-2737
1011.351	-2263
1011.424	-2120
1011.497	-2766
1011.570	-2210
1011.643	-2723
1011.716	-1751
1011.789	-1363
1011.862	-1303
1011.934	-2315
1012.007	-2605
1012.080	-1873
1012.153	-1841
1012.225	-1486
1012.298	-2279
1012.371	-2555
1012.443	-1719
1012.516	-2780
1012.588	-1842
1012.661	-2932
1012.733	-3118
1012.806	-2019
1012.879	-2098
1012.951	-2211
1013.023	-2916
1013.096	-1998
1013.168	-2433
1013.241	-2192
1013.313	-2249
1013.385	-2320
1013.458	-1956
1013.530	-1413
1013.602	-2094
1013.674	-1367
1013.746	-2100
1013.819	-3018
1013.891	-1682
1013.963	-2855
1014.035	-2559
1014.107	-2678
1014.179	-1153
1014.251	-2882
1014.323	-1406
1014.395	-2252
1014.467	-2078
1014.539	-3268
1014.611	-1561
1014.683	-1405
1014.754	-2234
1014.826	-2429
1014.898	-1191
1014.970	-3264
1015.042	-1798
1015.113	-1917
1015.185	-1470
1015.257	-2242
1015.328	-2103
1015.400	-2715
1015.471	-1967
1015.543	-3550
1015.615	-2225
1015.686	-2771
1015.757	-1394
1015.829	-2398
1015.901	-2314
1015.972	-2050
1016.043	-2498
1016.115	-2063
1016.186	-1583
1016.257	-2834
1016.328	-1850
1016.400	-1913
1016.471	-2468
1016.542	-1649
1016.613	-2203
1016.685	-2807
1016.756	-1448
1016.827	-2593
1016.898	-2790
1016.969	-1928
1017.040	-1793
1017.111	-2254
1017.182	-2386
1017.253	-2203
1017.324	-2350
1017.395	-2736
1017.466	-2009
1017.537	-3079
1017.608	-2024
1017.678	-2432
1017.749	-2327
1017.820	-2413
1017.891	-2531
1017.961	-2477
1018.032	-1876
1018.103	-1916
1018.173	-2248
1018.244	-2012
1018.315	-2145
1018.385	-1825
1018.456	-2343
1018.526	-2215
1018.597	-2014
1018.667	-2247
1018.738	-2020
1018.808	-3089
1018.878	-2686
1018.949	-2695
1019.019	-2730
1019.089	-2238
1019.160	-1954
1019.230	-2510
1019.300	-1696
1019.371	-2958
1019.441	-1185
1019.511	-2105
1019.581	-1699
1019.651	-2166
1019.721	-1953
1019.791	-2431
1019.861	-2399
1019.931	-2250
1020.001	-2217
1020.071	-2431
1020.141	-2185
1020.211	-2679
1020.281	-2381
1020.351	-2910
1020.421	-2807
1020.491	-2452
1020.560	-2963
1020.630	-2771
1020.700	-1633
1020.770	-2309
1020.839	-1950
1020.909	-2429
1020.979	-2705
1021.048	-2726
1021.118	-2223
1021.187	-3034
1021.257	-2512
1021.326	-2227
1021.396	-2267
1021.465	-1862
1021.535	-2142
1021.604	-2857
1021.674	-2325
1021.743	-2337
1021.812	-1734
1021.882	-2158
1021.951	-1808
1022.020	-2886
1022.089	-2245
1022.159	-3281
1022.228	-2503
1022.297	-1989
1022.366	-1969
1022.435	-1981
1022.504	-2200
1022.573	-3171
1022.642	-2138
1022.711	-2398
1022.781	-1814
1022.849	-1625
1022.918	-2319
1022.987	-2031
1023.056	-1621
1023.125	-2765
1023.194	-2987
1023.263	-2800
1023.331	-1425
1023.400	-2302
1023.469	-2799
1023.538	-1857
1023.606	-3259
1023.675	-2414
1023.744	-1871
1023.812	-2305
1023.881	-2520
1023.949	-2353
1024.018	-2735
1024.086	-2263
1024.155	-2477
1024.223	-2681
1024.292	-2027
1024.360	-2262
1024.429	-2083
1024.497	-2818
1024.565	-2314
1024.634	-2843
1024.702	-2128
1024.770	-2926
1024.838	-2414
1024.907	-1496
1024.975	-2331
1025.043	-2209
1025.111	-2353
1025.179	-2662
1025.247	-1840
1025.315	-2255
1025.383	-2506
1025.451	-2653
1025.519	-2310
1025.587	-2824
1025.655	-2212
1025.723	-3037
1025.791	-1852
1025.859	-2122
1025.927	-2088
1025.995	-2778
1026.062	-2568
1026.130	-2581
1026.198	-2238
1026.266	-2721
1026.333	-1311
1026.401	-1919
1026.469	-1405
1026.536	-2600
1026.604	-2287
1026.671	-2608
1026.739	-2381
1026.806	-1917
1026.874	-2608
1026.941	-2536
1027.009	-1781
1027.076	-3169
1027.144	-709
1027.211	-2598
1027.278	-2608
1027.345	-2505
1027.413	-2017
1027.480	-2291
1027.547	-2880
1027.614	-2478
1027.682	-2292
1027.749	-1874
1027.816	-2060
1027.883	-1764
1027.950	-2140
1028.017	-2572
1028.084	-2590
1028.151	-3114
1028.218	-2111
1028.285	-2801
1028.352	-2342
1028.419	-3384
1028.486	-2674
1028.553	-1784
1028.619	-2193
1028.686	-2120
1028.753	-2201
1028.820	-2641
1028.886	-1735
1028.953	-1788
1029.020	-1691
1029.086	-2896
1029.153	-1703
1029.220	-2537
1029.286	-2446
1029.353	-2583
1029.419	-2356
1029.486	-2535
1029.552	-1608
1029.619	-2235
1029.685	-2925
1029.751	-3136
1029.818	-876
1029.884	-2642
1029.951	-2479
1030.017	-2623
1030.083	-2083
1030.149	-2019
1030.216	-2847
1030.282	-2397
1030.348	-1667
1030.414	-3372
1030.480	-2530
1030.546	-2980
1030.612	-2143
1030.678	-3023
1030.744	-2322
1030.810	-2101
1030.876	-2375
1030.942	-2962
1031.008	-2163
1031.074	-2590
1031.140	-1834
1031.206	-1605
1031.272	-2167
1031.337	-2812
1031.403	-2449
1031.469	-2284
1031.534	-3085
1031.600	-2567
1031.666	-2844
1031.731	-2527
1031.797	-2692
1031.863	-2424
1031.928	-2157
1031.994	-2646
1032.059	-2411
1032.125	-2232
1032.190	-2168
1032.256	-2127
1032.321	-3128
1032.386	-1899
1032.452	-1524
1032.517	-2108
1032.582	-2088
1032.647	-2455
1032.713	-2379
1032.778	-2589
1032.843	-2978
1032.908	-2322
1032.974	-2479
1033.039	-2533
1033.104	-1758
1033.169	-2565
1033.234	-2187
1033.299	-2117
1033.364	-2212
1033.429	-2013
1033.494	-1889
1033.559	-2318
1033.624	-1502
1033.688	-2193
1033.753	-2816
1033.818	-2422
1033.883	-2769
1033.948	-1899
1034.013	-1897
1034.077	-2174
1034.142	-1769
1034.207	-2468
1034.271	-1513
1034.336	-1900
1034.400	-1946
1034.465	-1814
1034.530	-2108
1034.594	-1923
1034.658	-2432
1034.723	-2980
1034.787	-1943
1034.852	-1925
1034.916	-2276
1034.981	-2547
1035.045	-1423
1035.109	-3095
1035.173	-2204
1035.238	-2529
1035.302	-2082
1035.366	-2702
1035.430	-2463
1035.495	-2414
1035.559	-1148
1035.623	-2508
1035.687	-2175
1035.751	-2930
1035.815	-2114
1035.879	-2774
1035.943	-2056
1036.007	-2348
1036.071	-2182
1036.135	-2617
1036.198	-2584
1036.262	-2718
1036.326	-2072
1036.390	-1975
1036.454	-2448
1036.517	-2218
1036.581	-2077
1036.645	-2605
1036.709	-1427
1036.772	-2741
1036.836	-2038
1036.900	-2335
1036.963	-2254
1037.026	-2292
1037.090	-2521
1037.154	-2775
1037.217	-2020
1037.280	-1996
1037.344	-1746
1037.407	-2457
1037.471	-2286
1037.534	-2604
1037.597	-2580
1037.661	-3031
1037.724	-2577
1037.787	-2488
1037.850	-2688
1037.913	-3055
1037.977	-1314
1038.040	-2964
1038.103	-2277
1038.166	-2131
1038.229	-2017
1038.292	-2869
1038.355	-2047
1038.418	-2343
1038.481	-1382
1038.544	-1906
1038.607	-1728
1038.670	-2382
1038.732	-1771
1038.795	-2760
1038.858	-2508
1038.921	-2475
1038.984	-2583
1039.046	-2246
1039.109	-1691
1039.172	-3077
1039.234	-3545
1039.297	-2761
1039.360	-2442
1039.422	-2327
1039.485	-2268
1039.547	-2178
1039.610	-2243
1039.672	-2885
1039.734	-1784
1039.797	-2263
1039.859	-2003
1039.922	-2700
1039.984	-2757
1040.046	-2789
1040.109	-2187
1040.171	-2353
1040.233	-2124
1040.295	-2605
1040.358	-2977
1040.420	-1673
1040.482	-2006
1040.544	-1955
1040.606	-1483
1040.668	-1835
1040.730	-2871
1040.792	-2405
1040.854	-3247
1040.916	-2813
1040.978	-2464
1041.040	-2180
1041.102	-2400
1041.164	-2165
1041.225	-1594
1041.287	-2993
1041.349	-2532
1041.411	-1915
1041.472	-2213
1041.534	-2311
1041.596	-2477
1041.657	-2363
1041.719	-1914
1041.781	-2220
1041.842	-2317
1041.904	-1885
1041.965	-2846
1042.027	-1580
1042.088	-2120
1042.150	-2151
1042.211	-1950
1042.272	-2337
1042.334	-2457
1042.395	-2488
1042.456	-2571
1042.518	-1286
1042.579	-1934
1042.640	-2262
1042.701	-2305
1042.763	-2666
1042.824	-1844
1042.885	-3032
1042.946	-2086
1043.007	-2659
1043.068	-2273
1043.129	-1826
1043.190	-2260
1043.251	-2130
1043.312	-2096
1043.373	-2386
1043.434	-2489
1043.495	-2968
1043.556	-2484
1043.616	-2520
1043.677	-2074
1043.738	-2053
1043.799	-2286
1043.859	-2700
1043.920	-1944
1043.981	-2474
1044.041	-1869
1044.102	-1725
1044.162	-1430
1044.223	-2156
1044.284	-1528
1044.344	-2426
1044.405	-2405
1044.465	-2709
1044.525	-1809
1044.586	-2126
1044.646	-2612
1044.707	-1881
1044.767	-2179
1044.827	-2911
1044.887	-2296
1044.948	-1372
1045.008	-2278
1045.068	-2264
1045.128	-2010
1045.188	-2939
1045.249	-1483
1045.309	-2521
1045.369	-1653
1045.429	-1974
1045.489	-1582
1045.549	-2090
1045.609	-1633
1045.669	-2303
1045.729	-2125
1045.789	-2190
1045.848	-1321
1045.908	-2290
1045.968	-1577
1046.028	-2267
1046.088	-1339
1046.147	-2080
1046.207	-1251
1046.267	-2610
1046.326	-1501
1046.386	-1591
1046.446	-1706
1046.505	-1850
1046.565	-1449
1046.624	-780
1046.684	-818
1046.743	-1656
1046.803	-1291
1046.862	-680
1046.922	0
