'Start Wavelength	183.907
'End Wavelength	1046.922
'Gate Delay	5.000
'Gate Width (ms)	1.050
'Laser Output Level	0.000
'X Position	0.000
'Y Position	0.000
'Z Position	0.000
'Grid Point Number	1.000
'Shot Number	100.000
183.907	-132.000
183.977	-741.000
184.047	-159
184.116	1259
184.186	307
184.256	68
184.325	-855
184.395	-1000
184.465	868
184.534	117
184.604	-719
184.674	-461
184.743	-692
184.813	325
184.883	-34
184.952	6
185.022	107
185.092	95
185.161	-930
185.231	602
185.301	-67
185.370	663
185.440	-196
185.509	181
185.579	258
185.649	544
185.718	-271
185.788	388
185.857	-377
185.927	928
185.996	-645
186.066	219
186.136	-280
186.205	232
186.275	370
186.344	-303
186.414	348
186.483	-785
186.553	269
186.622	352
186.692	221
186.761	-516
186.831	425
186.900	-18
186.970	901
187.039	15
187.109	466
187.178	631
187.248	-131
187.317	571
187.387	-524
187.456	472
187.526	68
187.595	209
187.664	641
187.734	296
187.803	-1102
187.873	852
187.942	89
188.012	520
188.081	-1291
188.150	131
188.220	27
188.289	-240
188.358	-6
188.428	622
188.497	-1114
188.567	77
188.636	3
188.705	291
188.775	225
188.844	-384
188.913	274
188.983	-274
189.052	-240
189.121	-344
189.191	48
189.260	645
189.329	160
189.399	660
189.468	118
189.537	-259
189.606	-446
189.676	627
189.745	60
189.814	-72
189.883	-60
189.953	26
190.022	409
190.091	818
190.161	694
190.230	588
190.299	-399
190.368	-314
190.437	-200
190.507	208
190.576	-585
190.645	-451
190.714	-351
190.783	-496
190.853	449
190.922	247
190.991	-6
191.060	582
191.129	-371
191.198	172
191.268	-494
191.337	401
191.406	816
191.475	65
191.544	-130
191.613	293
191.682	-187
191.752	98
191.821	122
191.890	387
191.959	661
192.028	-84
192.097	-188
192.166	816
192.235	-360
192.304	32
192.373	-81
192.442	-59
192.511	-339
192.580	670
192.650	281
192.719	131
192.788	273
192.857	525
192.926	-477
192.995	266
193.064	338
193.133	-486
193.202	-53
193.271	525
193.340	864
193.409	241
193.478	232
193.547	661
193.615	826
193.684	456
193.753	217
193.822	1111
193.891	28
193.960	794
194.029	272
194.098	312
194.167	-503
194.236	393
194.305	-500
194.374	337
194.443	-693
194.512	686
194.580	-50
194.649	172
194.718	-66
194.787	590
194.856	93
194.925	955
194.994	604
195.062	730
195.131	476
195.200	457
195.269	195
195.338	374
195.407	491
195.475	-50
195.544	-74
195.613	-129
195.682	258
195.751	292
195.819	-149
195.888	125
195.957	437
196.026	-59
196.094	434
196.163	234
196.232	797
196.301	553
196.369	-444
196.438	360
196.507	523
196.576	274
196.644	714
196.713	224
196.782	-236
196.850	367
196.919	487
196.988	158
197.056	-907
197.125	417
197.194	441
197.262	-419
197.331	-209
197.400	-8
197.468	-254
197.537	-473
197.606	-140
197.674	632
197.743	717
197.812	628
197.880	415
197.949	646
198.017	1081
198.086	393
198.155	-543
198.223	476
198.292	499
198.360	864
198.429	-486
198.497	-377
198.566	257
198.635	843
198.703	116
198.772	665
198.840	283
198.909	588
198.977	-160
199.046	365
199.114	429
199.183	419
199.251	519
199.320	3
199.388	-204
199.457	-364
199.525	-502
199.594	389
199.662	228
199.731	92
199.799	889
199.867	374
199.936	-449
200.004	259
200.073	-554
200.141	164
200.210	334
200.278	107
200.346	-133
200.415	-21
200.483	318
200.552	107
200.620	242
200.688	924
200.757	-41
200.825	973
200.893	290
200.962	890
201.030	-212
201.098	118
201.167	421
201.235	563
201.303	-293
201.372	841
201.440	-148
201.508	635
201.577	163
201.645	736
201.713	-66
201.781	-190
201.850	544
201.918	598
201.986	80
202.055	269
202.123	-308
202.191	499
202.259	267
202.327	596
202.396	737
202.464	938
202.532	522
202.600	1689
202.669	658
202.737	188
202.805	-54
202.873	491
202.941	284
203.009	-187
203.078	-407
203.146	99
203.214	370
203.282	-368
203.350	-225
203.418	-427
203.487	37
203.555	-346
203.623	-607
203.691	168
203.759	-479
203.827	277
203.895	471
203.963	488
204.031	569
204.099	-337
204.168	133
204.236	119
204.304	1026
204.372	86
204.440	217
204.508	130
204.576	-15
204.644	268
204.712	-722
204.780	300
204.848	-441
204.916	118
204.984	-266
205.052	468
205.120	-195
205.188	22
205.256	416
205.324	-39
205.392	-38
205.460	748
205.528	-191
205.596	537
205.664	86
205.732	163
205.799	1040
205.867	1434
205.935	-551
206.003	837
206.071	-126
206.139	112
206.207	83
206.275	-266
206.343	344
206.411	65
206.478	177
206.546	524
206.614	48
206.682	-293
206.750	-469
206.818	787
206.885	519
206.953	-821
207.021	1073
207.089	150
207.157	-143
207.225	1223
207.292	-178
207.360	801
207.428	461
207.496	522
207.563	65
207.631	-168
207.699	-713
207.767	-243
207.834	61
207.902	365
207.970	218
208.038	95
208.105	42
208.173	-109
208.241	598
208.309	1012
208.376	663
208.444	1391
208.512	447
208.579	-116
208.647	529
208.715	1053
208.782	-145
208.850	597
208.918	161
208.985	-91
209.053	-159
209.120	382
209.188	210
209.256	619
209.323	-676
209.391	289
209.459	524
209.526	529
209.594	194
209.661	1080
209.729	282
209.796	-159
209.864	335
209.932	-674
209.999	1326
210.067	216
210.134	689
210.202	-207
210.269	26
210.337	1003
210.404	-445
210.472	189
210.539	193
210.607	466
210.674	138
210.742	213
210.809	541
210.877	1260
210.944	690
211.012	-160
211.079	1288
211.146	601
211.214	-194
211.281	1130
211.349	734
211.416	499
211.484	496
211.551	172
211.618	600
211.686	874
211.753	-179
211.821	873
211.888	133
211.955	852
212.023	361
212.090	154
212.157	-100
212.225	109
212.292	1144
212.359	2579
212.427	4740
212.494	2148
212.561	217
212.629	616
212.696	197
212.763	425
212.831	-150
212.898	668
212.965	-199
213.032	451
213.100	1754
213.167	285
213.234	1026
213.301	574
213.369	852
213.436	178
213.503	273
213.570	766
213.638	-257
213.705	249
213.772	-253
213.839	1226
213.906	722
213.973	1145
214.041	3
214.108	797
214.175	434
214.242	877
214.309	971
214.376	672
214.444	229
214.511	538
214.578	-3
214.645	1033
214.712	918
214.779	753
214.846	344
214.913	1497
214.980	712
215.048	931
215.115	1122
215.182	635
215.249	738
215.316	258
215.383	396
215.450	861
215.517	680
215.584	678
215.651	412
215.718	539
215.785	1295
215.852	535
215.919	1135
215.986	1294
216.053	318
216.120	1165
216.187	1191
216.254	873
216.321	552
216.388	1230
216.455	100
216.522	968
216.589	748
216.656	1916
216.722	1832
216.789	1989
216.856	942
216.923	604
216.990	1125
217.057	319
217.124	1804
217.191	914
217.258	2296
217.324	1752
217.391	1889
217.458	1794
217.525	1116
217.592	1501
217.659	-262
217.725	1056
217.792	1172
217.859	1386
217.926	598
217.993	1729
218.059	609
218.126	-57
218.193	799
218.260	-58
218.327	169
218.393	353
218.460	655
218.527	222
218.594	527
218.660	1370
218.727	2080
218.794	247
218.860	1042
218.927	875
218.994	949
219.061	-105
219.127	727
219.194	1345
219.261	1298
219.327	-307
219.394	375
219.461	-174
219.527	320
219.594	774
219.661	655
219.727	82
219.794	719
219.860	11
219.927	390
219.994	976
220.060	2021
220.127	970
220.193	883
220.260	1193
220.326	1891
220.393	3276
220.460	3523
220.526	1870
220.593	979
220.659	2269
220.726	1058
220.792	2801
220.859	2511
220.925	4237
220.992	5660
221.058	4954
221.125	4164
221.191	3231
221.258	1424
221.324	1423
221.391	521
221.457	940
221.524	-23
221.590	1097
221.657	3124
221.723	2313
221.789	1822
221.856	2382
221.922	531
221.989	500
222.055	870
222.121	-127
222.188	1923
222.254	1117
222.321	489
222.387	222
222.453	-118
222.520	46
222.586	-690
222.652	276
222.719	31
222.785	1274
222.851	163
222.918	7
222.984	-231
223.050	669
223.116	-787
223.183	1785
223.249	96
223.315	223
223.382	127
223.448	35
223.514	103
223.580	-251
223.647	578
223.713	354
223.779	237
223.845	102
223.911	878
223.978	-52
224.044	585
224.110	53
224.176	872
224.242	773
224.309	228
224.375	139
224.441	662
224.507	-389
224.573	99
224.639	89
224.705	-434
224.772	829
224.838	75
224.904	586
224.970	561
225.036	125
225.102	18
225.168	580
225.234	485
225.300	99
225.366	-609
225.432	818
225.499	-292
225.565	260
225.631	177
225.697	-129
225.763	656
225.829	636
225.895	768
225.961	1468
226.027	887
226.093	1130
226.159	1618
226.225	2647
226.291	4979
226.357	9111
226.423	3955
226.489	2311
226.554	959
226.620	1124
226.686	927
226.752	3092
226.818	3392
226.884	10986
226.950	9400
227.016	3476
227.082	2132
227.148	1396
227.214	1449
227.279	1356
227.345	822
227.411	969
227.477	478
227.543	2619
227.609	1859
227.674	2063
227.740	-20
227.806	998
227.872	941
227.938	1079
228.003	1079
228.069	556
228.135	-415
228.201	398
228.267	1489
228.332	792
228.398	-217
228.464	975
228.530	-629
228.595	825
228.661	-154
228.727	587
228.792	1787
228.858	-45
228.924	-613
228.990	2114
229.055	169
229.121	1134
229.187	758
229.252	452
229.318	-121
229.384	988
229.449	776
229.515	-510
229.581	-879
229.646	1662
229.712	258
229.777	1724
229.843	1504
229.909	1833
229.974	1206
230.040	1433
230.105	1382
230.171	875
230.236	1013
230.302	2092
230.368	1897
230.433	-36
230.499	855
230.564	1508
230.630	-489
230.695	828
230.761	1406
230.826	-457
230.892	2009
230.957	348
231.023	48
231.088	833
231.154	501
231.219	1656
231.284	85
231.350	1822
231.415	231
231.481	1124
231.546	804
231.612	660
231.677	207
231.742	47
231.808	1257
231.873	214
231.939	-810
232.004	2220
232.069	2026
232.135	980
232.200	193
232.265	651
232.331	570
232.396	-103
232.461	-250
232.527	249
232.592	174
232.657	707
232.723	109
232.788	1102
232.853	296
232.918	336
232.984	-579
233.049	248
233.114	644
233.179	534
233.245	1938
233.310	1642
233.375	-470
233.440	682
233.506	-295
233.571	-201
233.636	674
233.701	880
233.766	623
233.832	1821
233.897	-2
233.962	768
234.027	1458
234.092	860
234.157	619
234.222	-143
234.288	1036
234.353	3656
234.418	3358
234.483	2857
234.548	293
234.613	1088
234.678	1201
234.743	1119
234.808	4193
234.873	1783
234.938	2146
235.004	1128
235.069	861
235.134	860
235.199	1075
235.264	830
235.329	-211
235.394	1120
235.459	1738
235.524	-69
235.589	964
235.654	1170
235.719	-441
235.784	1214
235.849	1004
235.913	1592
235.978	2100
236.043	2875
236.108	113
236.173	157
236.238	536
236.303	199
236.368	208
236.433	1852
236.498	2257
236.563	2147
236.627	3954
236.692	13822
236.757	9976
236.822	4418
236.887	2857
236.952	2581
237.017	251
237.081	2315
237.146	1685
237.211	5349
237.276	12049
237.341	22076
237.405	9375
237.470	3694
237.535	2854
237.600	2114
237.664	1502
237.729	891
237.794	980
237.859	4573
237.923	2265
237.988	1078
238.053	1843
238.118	1680
238.182	5008
238.247	6233
238.312	1012
238.376	1390
238.441	-88
238.506	2187
238.570	-967
238.635	1379
238.700	983
238.764	786
238.829	2357
238.893	2016
238.958	1539
239.023	2078
239.087	-165
239.152	734
239.216	-29
239.281	594
239.346	1029
239.410	113
239.475	-75
239.539	4692
239.604	2531
239.668	1685
239.733	645
239.797	1951
239.862	4072
239.926	4602
239.991	1522
240.055	1266
240.120	637
240.184	1398
240.249	27
240.313	804
240.378	-134
240.442	2828
240.507	5078
240.571	1574
240.635	1228
240.700	2014
240.764	542
240.829	1151
240.893	-200
240.957	216
241.022	2995
241.086	5253
241.151	756
241.215	-115
241.279	1678
241.344	2770
241.408	1008
241.472	1105
241.537	1474
241.601	1467
241.665	1106
241.730	382
241.794	925
241.858	1248
241.922	1221
241.987	1063
242.051	313
242.115	-157
242.179	1153
242.244	-228
242.308	957
242.372	1393
242.436	395
242.501	1220
242.565	-341
242.629	1465
242.693	1362
242.757	731
242.822	360
242.886	780
242.950	1781
243.014	554
243.078	112
243.142	463
243.206	445
243.271	1061
243.335	400
243.399	1979
243.463	5816
243.527	18025
243.591	5845
243.655	1586
243.719	399
243.783	2383
243.847	2776
243.911	3260
243.975	4081
244.040	1827
244.104	2793
244.168	979
244.232	1718
244.296	3501
244.360	3047
244.424	781
244.488	1197
244.552	1437
244.615	238
244.679	836
244.743	1010
244.807	737
244.871	1202
244.935	1828
244.999	-113
245.063	-63
245.127	2207
245.191	2331
245.255	1435
245.319	2240
245.383	411
245.446	1842
245.510	-132
245.574	733
245.638	1646
245.702	121
245.766	3893
245.829	2492
245.893	153
245.957	647
246.021	1854
246.085	636
246.149	1770
246.212	5184
246.276	6307
246.340	3261
246.404	2495
246.467	3444
246.531	980
246.595	2407
246.659	2455
246.722	618
246.786	2337
246.850	3212
246.913	2813
246.977	21
247.041	1795
247.104	1460
247.168	1403
247.232	5057
247.295	8819
247.359	4869
247.423	1517
247.486	4096
247.550	3084
247.614	1501
247.677	2786
247.741	1410
247.804	1412
247.868	1488
247.932	3308
247.995	8627
248.059	3016
248.122	1051
248.186	2981
248.249	3688
248.313	13748
248.376	15569
248.440	8872
248.503	3024
248.567	3829
248.630	3569
248.694	6012
248.757	7927
248.821	15489
248.884	10396
248.948	7380
249.011	11397
249.075	17755
249.138	15563
249.202	5650
249.265	3457
249.328	3641
249.392	2978
249.455	2635
249.519	2218
249.582	3019
249.645	5185
249.709	2928
249.772	2031
249.835	1965
249.899	1861
249.962	2081
250.025	1660
250.089	5695
250.152	8101
250.215	4107
250.279	2671
250.342	2844
250.405	2585
250.468	1962
250.532	3954
250.595	5650
250.658	17397
250.721	27105
250.785	11099
250.848	6239
250.911	3622
250.974	3740
251.038	5147
251.101	9369
251.164	5295
251.227	4815
251.290	5202
251.354	6555
251.417	24552
251.480	22469
251.543	14295
251.606	44614
251.669	32383
251.732	12366
251.795	11763
251.859	12156
251.922	27113
251.985	17134
252.048	6052
252.111	5004
252.174	4332
252.237	8265
252.300	18862
252.363	18532
252.426	37111
252.489	15090
252.552	8722
252.615	4263
252.678	6068
252.741	12983
252.804	16818
252.867	36394
252.930	22233
252.993	11479
253.056	7585
253.119	4072
253.182	3362
253.245	5898
253.308	5804
253.371	4368
253.434	4357
253.497	4146
253.559	8247
253.622	5390
253.685	7529
253.748	8253
253.811	3313
253.874	4447
253.937	3331
254.000	3059
254.062	5471
254.125	8244
254.188	8818
254.251	7235
254.314	2965
254.376	6226
254.439	7968
254.502	6478
254.565	5652
254.628	10618
254.690	6237
254.753	3901
254.816	2242
254.878	2237
254.941	5542
255.004	5616
255.067	2308
255.129	2543
255.192	2098
255.255	683
255.317	2439
255.380	1193
255.443	923
255.505	512
255.568	1226
255.631	535
255.693	1044
255.756	545
255.819	2158
255.881	520
255.944	233
256.006	943
256.069	922
256.132	-202
256.194	1403
256.257	3067
256.319	2714
256.382	1569
256.444	1666
256.507	1352
256.569	461
256.632	594
256.694	975
256.757	7368
256.819	21135
256.882	7872
256.944	3632
257.007	2705
257.069	2855
257.132	1602
257.194	2352
257.257	603
257.319	1535
257.381	872
257.444	4377
257.506	24144
257.569	27615
257.631	12324
257.693	6559
257.756	2927
257.818	1876
257.880	1455
257.943	2219
258.005	431
258.067	1092
258.130	1428
258.192	892
258.254	2814
258.317	2125
258.379	1327
258.441	4490
258.503	5149
258.566	5498
258.628	7637
258.690	1512
258.753	1545
258.815	4511
258.877	2554
258.939	1780
259.001	1050
259.064	696
259.126	83
259.188	1855
259.250	1329
259.312	1983
259.375	4914
259.437	3214
259.499	1424
259.561	888
259.623	721
259.685	418
259.747	1206
259.809	5081
259.872	9187
259.934	13764
259.996	13030
260.058	3968
260.120	1392
260.182	745
260.244	1439
260.306	612
260.368	786
260.430	-749
260.492	2570
260.554	4914
260.616	3228
260.678	8085
260.740	10558
260.802	2912
260.864	1918
260.926	721
260.988	2316
261.050	1681
261.112	2325
261.174	9655
261.236	7698
261.298	1969
261.359	4420
261.421	6726
261.483	1277
261.545	1862
261.607	-556
261.669	1093
261.731	1860
261.793	7277
261.854	2529
261.916	1949
261.978	580
262.040	1632
262.102	735
262.164	1493
262.225	1314
262.287	1176
262.349	4157
262.411	3624
262.472	1225
262.534	1786
262.596	5016
262.658	2403
262.719	146
262.781	1731
262.843	4957
262.904	2071
262.966	1293
263.028	1351
263.090	10537
263.151	28700
263.213	9449
263.275	4052
263.336	1050
263.398	2076
263.459	319
263.521	688
263.583	4859
263.644	2498
263.706	35
263.767	85
263.829	678
263.891	174
263.952	151
264.014	-901
264.075	1151
264.137	3562
264.198	1577
264.260	370
264.321	257
264.383	2581
264.444	6039
264.506	1474
264.567	887
264.629	3174
264.690	2271
264.752	1110
264.813	1062
264.875	-545
264.936	1164
264.998	162
265.059	268
265.120	593
265.182	909
265.243	11002
265.305	10553
265.366	2232
265.427	626
265.489	1614
265.550	-715
265.611	826
265.673	1198
265.734	113
265.795	822
265.857	412
265.918	139
265.979	2302
266.040	18868
266.102	14978
266.163	3841
266.224	2639
266.286	1183
266.347	117
266.408	458
266.469	864
266.530	686
266.592	299
266.653	2103
266.714	4396
266.775	1563
266.836	1376
266.898	-346
266.959	1047
267.020	-259
267.081	1177
267.142	-117
267.203	195
267.264	-819
267.326	1737
267.387	525
267.448	-468
267.509	1012
267.570	756
267.631	-54
267.692	-229
267.753	1274
267.814	330
267.875	2294
267.936	6378
267.997	2262
268.058	1289
268.119	735
268.180	896
268.241	-733
268.302	1171
268.363	446
268.424	-318
268.485	505
268.546	-125
268.607	-181
268.668	245
268.729	-731
268.790	-590
268.851	1002
268.912	3022
268.972	4897
269.033	1094
269.094	-71
269.155	961
269.216	422
269.277	53
269.338	-271
269.398	120
269.459	26
269.520	1393
269.581	1015
269.642	3285
269.702	1249
269.763	1258
269.824	1301
269.885	1336
269.945	2160
270.006	91
270.067	-389
270.128	788
270.188	372
270.249	438
270.310	466
270.370	385
270.431	424
270.492	-175
270.553	111
270.613	2489
270.674	5803
270.734	2099
270.795	914
270.856	1889
270.916	850
270.977	382
271.038	1673
271.098	1244
271.159	1695
271.219	2060
271.280	217
271.340	551
271.401	216
271.462	2079
271.522	1458
271.583	1182
271.643	537
271.704	972
271.764	847
271.825	4048
271.885	14739
271.946	18960
272.006	5617
272.066	7567
272.127	13484
272.187	4113
272.248	1752
272.308	1771
272.369	8503
272.429	5699
272.489	3240
272.550	3592
272.610	4720
272.671	2691
272.731	1763
272.791	3031
272.852	1798
272.912	1871
272.972	327
273.033	1189
273.093	1190
273.153	2346
273.214	944
273.274	2206
273.334	7016
273.394	15591
273.455	6461
273.515	6355
273.575	13426
273.635	6068
273.696	6791
273.756	13600
273.816	5252
273.876	4278
273.936	6176
273.997	10030
274.057	2286
274.117	1762
274.177	2164
274.237	18589
274.297	14825
274.358	8558
274.418	11778
274.478	9480
274.538	3026
274.598	1663
274.658	7673
274.718	10058
274.778	4918
274.838	1716
274.898	3562
274.958	14152
275.018	13551
275.078	9537
275.138	3775
275.198	1212
275.258	955
275.318	1957
275.378	3513
275.438	5159
275.498	1811
275.558	6342
275.618	15148
275.678	10477
275.738	6838
275.798	4644
275.858	557
275.918	478
275.978	1580
276.038	1761
276.098	1078
276.157	3162
276.217	11257
276.277	4715
276.337	2684
276.397	1362
276.457	2420
276.517	2206
276.576	563
276.636	691
276.696	2454
276.756	6791
276.815	4483
276.875	2358
276.935	1828
276.995	2325
277.055	1087
277.114	1397
277.174	1855
277.234	9263
277.293	3687
277.353	1607
277.413	1599
277.472	811
277.532	931
277.592	2484
277.651	9157
277.711	21176
277.771	5626
277.830	23009
277.890	18566
277.950	10628
278.009	35739
278.069	13201
278.128	14281
278.188	20983
278.248	6782
278.307	22469
278.367	13510
278.426	2910
278.486	2429
278.545	2509
278.605	1979
278.664	1425
278.724	1081
278.783	5957
278.843	16533
278.902	3824
278.962	2061
279.021	3422
279.081	3645
279.140	3685
279.199	2407
279.259	3387
279.318	3229
279.378	4094
279.437	7000
279.496	29129
279.556	86456
279.615	69869
279.675	19178
279.734	10691
279.793	13271
279.853	20932
279.912	6962
279.971	4731
280.031	3603
280.090	7681
280.149	14393
280.208	10682
280.268	57219
280.327	61068
280.386	13910
280.445	11567
280.505	9348
280.564	4271
280.623	2683
280.682	5104
280.742	9120
280.801	2801
280.860	1849
280.919	1252
280.978	1026
281.037	1112
281.097	887
281.156	2007
281.215	884
281.274	897
281.333	11260
281.392	7994
281.451	2319
281.510	1642
281.569	75
281.628	1300
281.688	413
281.747	1405
281.806	1573
281.865	890
281.924	891
281.983	657
282.042	556
282.101	609
282.160	394
282.219	-145
282.278	1690
282.337	6550
282.396	3382
282.454	828
282.513	1667
282.572	10835
282.631	5534
282.690	1303
282.749	607
282.808	1845
282.867	700
282.926	1724
282.985	1244
283.043	597
283.102	160
283.161	1138
283.220	3739
283.279	12045
283.338	2545
283.396	1639
283.455	1566
283.514	1772
283.573	3942
283.631	3449
283.690	1622
283.749	1513
283.808	4256
283.866	5578
283.925	1289
283.984	1959
284.043	2799
284.101	2384
284.160	1146
284.219	2776
284.277	2792
284.336	4410
284.395	15857
284.453	13419
284.512	5451
284.570	5902
284.629	5072
284.688	6053
284.746	6370
284.805	8518
284.863	10294
284.922	13970
284.981	15675
285.039	21968
285.098	37568
285.156	82737
285.215	107971
285.273	110682
285.332	91052
285.390	51104
285.449	30380
285.507	20774
285.566	14169
285.624	10243
285.683	8812
285.741	6302
285.799	6064
285.858	5258
285.916	3940
285.975	3051
286.033	2633
286.091	3127
286.150	1900
286.208	2499
286.267	2938
286.325	2179
286.383	4335
286.442	3459
286.500	1540
286.558	2357
286.616	1508
286.675	3830
286.733	2359
286.791	2123
286.850	1908
286.908	3122
286.966	5993
287.024	1982
287.083	714
287.141	1163
287.199	1589
287.257	2848
287.315	1886
287.374	2402
287.432	6164
287.490	3867
287.548	1860
287.606	1778
287.664	1271
287.723	2780
287.781	2506
287.839	1811
287.897	1322
287.955	2687
288.013	3687
288.071	7888
288.129	41177
288.187	121852
288.245	53715
288.303	16803
288.361	8493
288.419	5469
288.477	3724
288.535	3355
288.593	1576
288.651	1788
288.709	685
288.767	1402
288.825	1123
288.883	1147
288.941	1167
288.999	1203
289.057	461
289.115	989
289.173	211
289.231	918
289.289	871
289.346	563
289.404	1205
289.462	3592
289.520	2212
289.578	905
289.636	54
289.694	929
289.751	-166
289.809	681
289.867	-410
289.925	2033
289.983	1755
290.040	699
290.098	266
290.156	723
290.214	360
290.271	603
290.329	431
290.387	223
290.444	577
290.502	-966
290.560	253
290.617	145
290.675	328
290.733	628
290.790	1444
290.848	-585
290.906	851
290.963	950
291.021	964
291.078	310
291.136	478
291.194	4138
291.251	10937
291.309	3682
291.366	686
291.424	389
291.481	916
291.539	882
291.596	603
291.654	-160
291.711	-193
291.769	1188
291.826	2801
291.884	1337
291.941	-97
291.999	416
292.056	916
292.114	1372
292.171	-320
292.228	797
292.286	1372
292.343	2572
292.401	3017
292.458	2335
292.515	1220
292.573	2169
292.630	1173
292.687	1209
292.745	571
292.802	843
292.859	4837
292.917	13603
292.974	7636
293.031	2234
293.089	506
293.146	455
293.203	960
293.260	256
293.318	1058
293.375	2042
293.432	651
293.489	664
293.546	557
293.604	1395
293.661	6535
293.718	20240
293.775	9815
293.832	4603
293.889	3795
293.947	3292
294.004	1217
294.061	1719
294.118	4923
294.175	12645
294.232	12162
294.289	5610
294.346	1262
294.403	2230
294.460	1679
294.517	1037
294.574	1046
294.631	559
294.688	322
294.745	4491
294.802	20756
294.859	21535
294.916	7890
294.973	4220
295.030	2673
295.087	2915
295.144	1170
295.201	1324
295.258	625
295.315	1929
295.372	8474
295.429	17955
295.486	6928
295.542	3410
295.599	6728
295.656	12891
295.713	10110
295.770	16846
295.827	6095
295.883	3139
295.940	2276
295.997	4676
296.054	4128
296.111	2134
296.167	1384
296.224	711
296.281	5
296.338	1390
296.394	841
296.451	1064
296.508	6501
296.564	13562
296.621	7313
296.678	18109
296.734	26928
296.791	10367
296.848	3364
296.904	4480
296.961	11591
297.018	21113
297.074	14051
297.131	5292
297.187	3449
297.244	3594
297.301	18918
297.357	34311
297.414	12933
297.470	5170
297.527	2620
297.583	2505
297.640	2045
297.696	848
297.753	1342
297.809	822
297.866	854
297.922	593
297.979	725
298.035	951
298.092	2542
298.148	11733
298.204	10853
298.261	4392
298.317	7330
298.374	23594
298.430	13691
298.486	5372
298.543	3421
298.599	5069
298.656	6782
298.712	9387
298.768	20890
298.824	13755
298.881	5442
298.937	3573
298.993	2052
299.050	2590
299.106	1805
299.162	2130
299.218	2472
299.275	1480
299.331	1364
299.387	4897
299.443	20681
299.500	23727
299.556	9972
299.612	5074
299.668	3428
299.724	5839
299.780	6088
299.837	2821
299.893	4299
299.949	20451
300.005	21810
300.061	19954
300.117	29724
300.173	15164
300.229	6482
300.285	8055
300.341	9435
300.397	4999
300.453	2705
300.510	3576
300.566	2617
300.622	3538
300.678	11622
300.734	21546
300.790	19092
300.845	22104
300.901	15340
300.957	20666
301.013	16211
301.069	6510
301.125	3731
301.181	4018
301.237	3010
301.293	1614
301.349	2102
301.405	2233
301.461	4283
301.516	8094
301.572	5056
301.628	5890
301.684	5345
301.740	10100
301.796	17135
301.851	11168
301.907	15171
301.963	13154
302.019	21853
302.074	62513
302.130	63537
302.186	33665
302.242	13580
302.297	7675
302.353	6664
302.409	14134
302.464	13135
302.520	9782
302.576	22331
302.631	26212
302.687	15706
302.743	5619
302.798	3404
302.854	2154
302.910	2412
302.965	3107
303.021	7468
303.076	7294
303.132	8792
303.187	10624
303.243	5616
303.299	3303
303.354	1444
303.410	2185
303.465	1290
303.521	1869
303.576	1278
303.632	2119
303.687	5437
303.743	20117
303.798	17526
303.853	7786
303.909	3699
303.964	2539
304.020	4947
304.075	7457
304.130	7210
304.186	13436
304.241	14527
304.297	11203
304.352	4896
304.358	4679
304.407	2918
304.449	3052
304.463	3102
304.518	2942
304.539	2640
304.573	2156
304.629	2047
304.630	2088
304.684	4026
304.720	10652
304.739	13993
304.794	21943
304.811	18914
304.850	11691
304.902	4723
304.905	4275
304.960	3266
304.992	2526
305.015	1980
305.071	3364
305.083	3243
305.126	2721
305.173	1675
305.181	1523
305.236	218
305.264	724
305.292	1230
305.347	2439
305.354	2532
305.402	3100
305.445	3666
305.457	3790
305.512	4363
305.535	4006
305.567	3654
305.622	3675
305.626	3841
305.678	7237
305.716	16708
305.733	20315
305.788	22719
305.807	19826
305.843	14831
305.897	18924
305.898	18965
305.953	18589
305.988	12708
306.008	9412
306.063	5380
306.078	4837
306.118	3627
306.168	2222
306.173	2098
306.228	1410
306.259	1357
306.283	1381
306.338	1172
306.349	1302
306.393	1610
306.440	1531
306.448	1557
306.503	2430
306.530	2603
306.558	3014
306.613	5763
306.620	6455
306.668	11680
306.711	18656
306.723	19875
306.778	16040
306.801	12432
306.833	8089
306.888	3438
306.892	3322
306.943	2507
306.982	1983
306.997	1847
307.052	2310
307.072	2050
307.107	1587
307.162	2132
307.163	2142
307.217	3234
307.253	3694
307.272	3855
307.327	4767
307.343	4513
307.381	3977
307.434	3020
307.436	3057
307.491	7113
307.524	11708
307.546	13793
307.600	15823
307.614	14297
307.655	8845
307.704	4574
307.710	4300
307.765	4086
307.795	4802
307.819	5530
307.874	8465
307.885	8368
307.929	6878
307.975	5870
307.984	6050
308.038	7672
308.065	9714
308.093	16216
308.148	37773
308.156	43957
308.202	77130
308.246	92858
308.257	91476
308.312	51895
308.336	37509
308.366	28177
308.421	17928
308.426	17055
308.475	10046
308.517	7061
308.530	6425
308.585	5716
308.607	5216
308.639	4566
308.694	4632
308.697	4687
308.748	7309
308.787	10686
308.803	11120
308.857	8924
308.877	8071
308.912	7268
308.967	6664
308.967	6682
309.021	10161
309.058	13536
309.076	16655
309.130	28865
309.148	34016
309.185	57343
309.238	104424
309.239	104810
309.293	124688
309.328	115951
309.348	101396
309.402	51030
309.418	38994
309.457	26718
309.508	16878
309.511	16519
309.566	15352
309.598	16433
309.620	19887
309.674	33028
309.688	36219
309.729	35267
309.778	27629
309.783	26825
309.837	17094
309.868	12836
309.892	13561
309.946	17981
309.959	20073
310.001	26074
310.049	30145
310.055	29326
310.109	18015
310.139	11787
310.163	9049
310.218	4890
310.229	4267
310.272	3647
310.319	3404
310.326	3233
310.381	2304
310.409	1916
310.435	1902
310.489	1702
310.499	1746
310.543	1852
310.589	1909
310.598	1927
310.652	2031
310.679	1999
310.706	1691
310.760	1246
310.769	1164
310.814	1291
310.859	1540
310.868	1572
310.923	1608
310.948	1680
310.977	1826
311.031	2185
311.038	2225
311.085	2109
311.128	1833
311.139	1795
311.193	1807
311.218	1805
311.247	1840
311.301	1900
311.308	1886
311.356	1847
311.398	1914
311.410	1876
311.464	1720
311.488	1590
311.518	1483
311.572	1444
311.578	1434
311.626	2028
311.668	2563
311.680	2567
311.734	2535
311.758	2531
311.788	2489
311.842	2406
311.847	2400
311.896	2662
311.937	2950
311.950	2945
312.004	2888
312.027	2879
312.058	2524
312.112	1897
312.117	1839
312.165	1536
312.207	1287
312.297	2461
312.386	1820
312.476	1821
312.566	4597
312.656	1802
312.745	1829
312.835	1850
312.925	2040
313.015	1550
313.104	879
313.194	1325
313.284	735
313.374	2566
313.463	2202
313.553	2313
313.643	1002
313.732	1062
313.822	575
313.912	1047
314.001	1619
314.091	1970
314.180	1932
314.270	2621
314.360	2760
314.449	2013
314.539	1106
314.628	783
314.718	1388
314.808	1608
314.897	882
314.987	1444
315.076	2349
315.166	2460
315.255	2537
315.345	3396
315.434	1883
315.524	1881
315.613	2312
315.703	3075
315.792	4724
315.881	10422
315.971	3533
316.060	5070
316.150	4435
316.239	4219
316.328	1848
316.418	1122
316.507	649
316.597	2396
316.686	1515
316.775	3361
316.865	4427
316.954	2317
317.043	641
317.133	1779
317.222	1275
317.311	1348
317.400	-147
317.490	3167
317.579	2112
317.668	1589
317.757	2769
317.847	7291
317.936	19452
318.025	8185
318.114	4791
318.203	2903
318.293	5388
318.382	10082
318.471	7580
318.560	9977
318.649	15025
318.738	3929
318.828	2085
318.917	2899
319.006	2482
319.095	7431
319.184	20152
319.273	11628
319.362	6428
319.451	2189
319.540	2070
319.629	6263
319.718	8744
319.807	3508
319.896	7145
319.985	26671
320.074	8772
320.163	1606
320.252	3061
320.341	2556
320.430	2747
320.519	4116
320.608	1635
320.697	2074
320.786	2288
320.875	3107
320.964	3915
321.053	6559
321.142	9021
321.230	8659
321.319	6517
321.408	15114
321.497	5882
321.586	6102
321.675	4889
321.764	6093
321.852	3748
321.941	9308
322.030	5476
322.119	6012
322.207	16224
322.296	7355
322.385	4361
322.474	7370
322.562	19775
322.651	9276
322.740	6322
322.829	9135
322.917	5979
323.006	5624
323.095	5864
323.183	2927
323.272	3894
323.361	8096
323.449	19783
323.538	6126
323.626	14185
323.715	7228
323.804	3204
323.892	12082
323.981	6703
324.069	2255
324.158	5562
324.246	5726
324.335	2741
324.424	5403
324.512	1858
324.601	3138
324.689	10642
324.778	17945
324.866	5521
324.954	1693
325.043	1105
325.131	2599
325.220	4886
325.308	5325
325.397	3730
325.485	2669
325.574	355
325.662	806
325.750	1486
325.839	1434
325.927	659
326.015	1790
326.104	2078
326.192	2898
326.280	938
326.369	820
326.457	2426
326.545	4996
326.634	1821
326.722	1014
326.810	883
326.898	1482
326.987	1550
327.075	3673
327.163	4399
327.251	1539
327.340	7427
327.428	9560
327.516	1040
327.604	1879
327.692	675
327.781	1388
327.869	2099
327.957	2021
328.045	1474
328.133	1136
328.221	506
328.309	2045
328.397	1458
328.485	1371
328.574	3029
328.662	11335
328.750	3679
328.838	1138
328.926	1366
329.014	1183
329.102	1193
329.190	4852
329.278	3956
329.366	158
329.454	719
329.542	819
329.630	207
329.718	2201
329.806	1358
329.893	1829
329.981	1012
330.069	2930
330.157	13721
330.245	42138
330.333	20728
330.421	3414
330.509	2540
330.597	13324
330.684	7320
330.772	2364
330.860	2075
330.948	3085
331.036	1279
331.123	673
331.211	69
331.299	708
331.387	2361
331.475	5386
331.562	1591
331.650	1219
331.738	1137
331.825	1911
331.913	173
332.001	1121
332.089	670
332.176	1967
332.264	5680
332.352	4118
332.439	1500
332.527	1601
332.614	540
332.702	1433
332.790	677
332.877	2662
332.965	6277
333.052	3135
333.140	3218
333.228	8392
333.315	2178
333.403	1026
333.490	2751
333.578	4389
333.665	12593
333.753	4969
333.840	258
333.928	2061
334.015	3919
334.103	6551
334.190	21991
334.278	5487
334.365	3327
334.452	2726
334.540	1362
334.627	1436
334.715	2708
334.802	4473
334.889	22082
334.977	25367
335.064	5008
335.151	2148
335.239	1745
335.326	1851
335.413	12175
335.501	17512
335.588	2291
335.675	1025
335.762	2503
335.850	3667
335.937	3068
336.024	7312
336.111	28678
336.199	13951
336.286	3246
336.373	2358
336.460	321
336.547	1426
336.635	1448
336.722	1464
336.809	852
336.896	1596
336.983	6725
337.070	17535
337.157	26576
337.245	14736
337.332	9355
337.419	1398
337.506	426
337.593	1313
337.680	5069
337.767	16111
337.854	4423
337.941	4688
338.028	5177
338.115	1864
338.202	2602
338.289	3427
338.376	13898
338.463	4697
338.550	8074
338.637	9420
338.724	2612
338.811	4429
338.898	785
338.984	422
339.071	1218
339.158	1458
339.245	5356
339.332	4003
339.419	3114
339.506	2921
339.593	-11
339.679	1500
339.766	402
339.853	1166
339.940	3322
340.027	740
340.113	1264
340.200	2365
340.287	1040
340.374	1382
340.460	3871
340.547	1117
340.634	3131
340.720	12194
340.807	6953
340.894	1747
340.980	991
341.067	742
341.154	1654
341.240	2142
341.327	6136
341.414	2606
341.500	2458
341.587	2005
341.674	1169
341.760	3904
341.847	4694
341.933	1007
342.020	-582
342.106	1068
342.193	1034
342.279	3297
342.366	2088
342.452	3728
342.539	1613
342.625	5058
342.712	12656
342.798	4749
342.885	1889
342.971	356
343.058	-51
343.144	1174
343.230	1076
343.317	1399
343.403	1168
343.490	756
343.576	101
343.662	753
343.749	659
343.835	1577
343.921	3202
344.008	23629
344.094	56551
344.180	11428
344.267	3794
344.353	15655
344.439	14676
344.525	6199
344.612	1740
344.698	2575
344.784	573
344.870	953
344.957	920
345.043	1908
345.129	268
345.215	3489
345.301	1976
345.387	1399
345.474	88
345.560	-162
345.646	281
345.732	649
345.818	1913
345.904	1437
345.990	950
346.076	807
346.162	2677
346.249	1897
346.335	-6
346.421	868
346.507	6379
346.593	22428
346.679	3954
346.765	1078
346.851	1347
346.937	718
347.023	1527
347.108	2068
347.194	690
347.280	1202
347.366	1849
347.452	5845
347.538	26562
347.624	20210
347.710	15591
347.796	1035
347.882	567
347.967	819
348.053	388
348.139	832
348.225	737
348.311	1018
348.397	130
348.482	1277
348.568	1688
348.654	670
348.740	2533
348.825	1253
348.911	3155
348.997	11386
349.083	24672
349.168	3436
349.254	729
349.340	1868
349.425	-58
349.511	1832
349.597	1554
349.682	3800
349.768	15865
349.854	7351
349.939	2019
350.025	368
350.110	688
350.196	951
350.282	248
350.367	783
350.453	1370
350.538	1165
350.624	1062
350.709	1658
350.795	513
350.880	718
350.966	2251
351.051	1482
351.137	1113
351.222	1167
351.308	4372
351.393	13628
351.479	3464
351.564	1129
351.649	629
351.735	814
351.820	305
351.906	1104
351.991	67
352.076	8443
352.162	12916
352.247	2422
352.332	875
352.418	3812
352.503	4603
352.588	19937
352.673	15304
352.759	3493
352.844	931
352.929	1296
353.014	2053
353.100	1947
353.185	2580
353.270	3634
353.355	4445
353.441	1604
353.526	1503
353.611	2969
353.696	4592
353.781	2214
353.866	433
353.952	1569
354.037	2780
354.122	9602
354.207	7612
354.292	2805
354.377	1005
354.462	617
354.547	1132
354.632	1161
354.717	1926
354.802	2509
354.887	1252
354.972	655
355.057	282
355.142	462
355.227	1418
355.312	2609
355.397	5953
355.482	13783
355.567	6852
355.652	4810
355.737	5166
355.822	18356
355.907	15076
355.991	2546
356.076	931
356.161	1670
356.246	749
356.331	964
356.416	3143
356.501	27783
356.585	30655
356.670	4098
356.755	3563
356.840	4102
356.924	18697
357.009	67819
357.094	26423
357.179	4666
357.263	3043
357.348	3162
357.433	3523
357.517	3412
357.602	2347
357.687	2033
357.771	6454
357.856	26511
357.941	14715
358.025	13723
358.110	64605
358.195	31648
358.279	4029
358.364	3179
358.448	11863
358.533	35044
358.617	24440
358.702	24054
358.787	9135
358.871	4981
358.956	4131
359.040	1144
359.125	1378
359.209	1412
359.294	13047
359.378	23712
359.462	5951
359.547	2033
359.631	788
359.716	35
359.800	946
359.885	2548
359.969	756
360.053	1294
360.138	594
360.222	2171
360.306	4457
360.391	3672
360.475	12245
360.559	28124
360.644	13087
360.728	8266
360.812	15929
360.896	43870
360.981	16907
361.065	7212
361.149	3179
361.233	2069
361.318	947
361.402	1961
361.486	1876
361.570	793
361.654	1577
361.739	5415
361.823	26175
361.907	44977
361.991	7994
362.075	3400
362.159	8047
362.243	7253
362.327	5902
362.411	11408
362.495	4397
362.580	1558
362.664	1629
362.748	142
362.832	1949
362.916	2836
363.000	16237
363.084	43563
363.168	54925
363.252	13047
363.336	3819
363.420	5679
363.503	16038
363.587	21768
363.671	3962
363.755	3131
363.839	4407
363.923	1254
364.007	4332
364.091	5162
364.175	5524
364.258	31524
364.342	25582
364.426	38315
364.510	20699
364.594	7614
364.677	8335
364.761	35574
364.845	28057
364.929	7849
365.013	6491
365.096	4925
365.180	5166
365.264	7645
365.347	28997
365.431	12500
365.515	2555
365.598	1258
365.682	2059
365.766	1627
365.849	2131
365.933	642
366.017	3050
366.100	1357
366.184	-88
366.267	1952
366.351	1593
366.435	1157
366.518	28
366.602	1446
366.685	1173
366.769	1363
366.852	1825
366.936	3639
367.019	2963
367.103	1603
367.186	3778
367.270	1493
367.353	-390
367.436	522
367.520	957
367.603	1459
367.687	1609
367.770	4306
367.853	2953
367.937	11713
368.020	19984
368.104	4345
368.187	3834
368.270	5926
368.353	4384
368.437	4774
368.520	8822
368.603	7362
368.687	12225
368.770	26203
368.853	6050
368.936	4979
369.020	4281
369.103	1219
369.186	1293
369.269	1207
369.352	2860
369.436	4606
369.519	3499
369.602	314
369.685	2314
369.768	765
369.851	1610
369.934	595
370.018	1407
370.101	3505
370.184	5011
370.267	2017
370.350	4116
370.433	6745
370.516	19961
370.599	26372
370.682	5418
370.765	13499
370.848	17558
370.931	30530
371.014	12132
371.097	1189
371.180	1959
371.263	2296
371.346	-246
371.429	1399
371.511	132
371.594	2927
371.677	4838
371.760	5050
371.843	4210
371.926	23038
372.009	54606
372.091	20477
372.174	10793
372.257	29987
372.340	11848
372.423	6485
372.505	7815
372.588	3547
372.671	9262
372.754	29759
372.836	16107
372.919	8096
373.002	15477
373.085	5339
373.167	5689
373.250	12993
373.332	29136
373.415	36792
373.498	72915
373.580	29515
373.663	33499
373.746	47677
373.828	9898
373.911	4836
373.993	4081
374.076	14186
374.159	14415
374.241	7617
374.324	24504
374.406	19168
374.489	20399
374.571	60869
374.654	26964
374.736	11495
374.819	36610
374.901	53885
374.983	55913
375.066	10847
375.148	2991
375.231	11772
375.313	24790
375.395	9572
375.478	1975
375.560	2239
375.643	2665
375.725	10624
375.807	44036
375.890	35333
375.972	9095
376.054	6911
376.136	6984
376.219	3702
376.301	13212
376.383	41548
376.465	17438
376.548	7995
376.630	11009
376.712	34322
376.794	17636
376.877	2086
376.959	442
377.041	1784
377.123	2295
377.205	3132
377.287	-101
377.369	1044
377.452	355
377.534	804
377.616	1277
377.698	963
377.780	605
377.862	1356
377.944	1303
378.026	434
378.108	1291
378.190	513
378.272	1570
378.354	1064
378.436	277
378.518	1155
378.600	5461
378.682	7210
378.764	16948
378.846	14545
378.928	2851
379.010	4623
379.091	3081
379.173	1220
379.255	837
379.337	1724
379.419	8051
379.501	25931
379.583	10699
379.664	2086
379.746	4906
379.828	16972
379.910	24145
379.991	22447
380.073	3968
380.155	1646
380.237	1632
380.318	974
380.400	1445
380.482	3392
380.564	5581
380.645	4869
380.727	4567
380.809	3482
380.890	2264
380.972	1032
381.053	1660
381.135	1808
381.217	4891
381.298	18901
381.380	9527
381.461	7430
381.543	32183
381.624	44366
381.706	8661
381.787	3666
381.869	5250
381.951	14456
382.032	54493
382.113	38931
382.195	6585
382.276	6483
382.358	11643
382.439	32205
382.521	37007
382.602	56110
382.684	27125
382.765	45412
382.846	59482
382.928	98333
383.009	57963
383.090	36268
383.172	124205
383.253	199252
383.334	68396
383.416	53116
383.497	30809
383.578	16226
383.659	29056
383.741	104988
383.822	262043
383.903	147814
383.984	43987
384.066	63011
384.147	41028
384.228	8871
384.309	6944
384.390	5374
384.471	2196
384.553	4206
384.634	4246
384.715	6103
384.796	3043
384.877	4419
384.958	17472
385.039	20884
385.120	6704
385.201	4350
385.282	3523
385.363	4961
385.444	3192
385.525	7650
385.606	23713
385.687	23163
385.768	5297
385.849	5639
385.930	25102
386.011	44999
386.092	13075
386.173	2647
386.254	1529
386.335	2987
386.416	2622
386.496	10704
386.577	17421
386.658	5920
386.739	1953
386.820	3260
386.901	1093
386.981	2329
387.062	1527
387.143	3896
387.224	16614
387.304	17806
387.385	5964
387.466	1238
387.547	4225
387.627	3157
387.708	6839
387.789	30341
387.869	39930
387.950	11494
388.031	1096
388.111	-629
388.192	3417
388.273	5412
388.353	3136
388.434	3181
388.514	5695
388.595	26976
388.676	38865
388.756	19585
388.837	16315
388.917	9968
388.998	707
389.078	2072
389.159	1218
389.239	579
389.320	3951
389.400	874
389.480	6841
389.561	18547
389.641	11003
389.722	3072
389.802	4179
389.883	7910
389.963	22469
390.043	13167
390.124	2197
390.204	6427
390.284	19289
390.365	12413
390.445	11648
390.525	28557
390.605	28369
390.686	10098
390.766	4314
390.846	2908
390.927	958
391.007	455
391.087	2297
391.167	2175
391.247	214
391.328	2587
391.408	3695
391.488	2566
391.568	130
391.648	1834
391.728	3725
391.808	4283
391.888	4387
391.969	10241
392.049	17566
392.129	7555
392.209	7405
392.289	23099
392.369	12544
392.449	6411
392.529	4367
392.609	4984
392.689	6610
392.769	20876
392.849	19789
392.929	12434
393.009	27985
393.089	24831
393.169	20014
393.248	62671
393.328	224817
393.408	260150
393.488	75655
393.568	19036
393.648	9145
393.728	5615
393.807	4029
393.887	4497
393.967	3562
394.047	3988
394.127	4127
394.206	7717
394.286	27158
394.366	119665
394.446	140475
394.525	32080
394.605	6953
394.685	5861
394.764	9273
394.844	15875
394.924	13480
395.003	4561
395.083	3018
395.163	2851
395.242	2454
395.322	2950
395.402	755
395.481	4371
395.561	5521
395.640	19541
395.720	19397
395.799	20720
395.879	17520
395.958	11330
396.038	40150
396.117	156513
396.197	186022
396.276	53635
396.356	14794
396.435	9557
396.515	8337
396.594	8961
396.673	18653
396.753	66959
396.832	208391
396.912	172586
396.991	41675
397.070	11809
397.150	4826
397.229	4716
397.308	6535
397.388	11253
397.467	5908
397.546	2374
397.625	-531
397.705	3908
397.784	2916
397.863	1224
397.942	1276
398.022	968
398.101	4659
398.180	16278
398.259	8172
398.338	3110
398.417	1562
398.497	683
398.576	2110
398.655	-236
398.734	1146
398.813	1437
398.892	4336
398.971	18218
399.050	8928
399.129	486
399.208	790
399.287	1470
399.366	-370
399.445	-521
399.524	440
399.603	-754
399.682	2280
399.761	5557
399.840	20411
399.919	17229
399.998	1738
400.077	-330
400.156	-996
400.235	2470
400.313	200
400.392	573
400.471	8781
400.550	14784
400.629	3020
400.708	1315
400.786	313
400.865	2613
400.944	2766
401.023	3237
401.102	-4
401.180	216
401.259	-54
401.338	473
401.416	1133
401.495	460
401.574	873
401.652	-178
401.731	1545
401.810	238
401.888	117
401.967	-603
402.046	660
402.124	1674
402.203	1203
402.281	1671
402.360	931
402.438	4475
402.517	1563
402.596	1006
402.674	17
402.753	271
402.831	345
402.910	1111
402.988	4653
403.066	21640
403.145	13975
403.223	7143
403.302	16536
403.380	14834
403.459	12933
403.537	5000
403.615	1267
403.694	-1229
403.772	402
403.850	-98
403.929	-554
404.007	-450
404.085	2355
404.164	1579
404.242	354
404.320	1208
404.398	3458
404.477	9147
404.555	42619
404.633	41383
404.711	6320
404.789	1994
404.868	986
404.946	-575
405.024	192
405.102	-76
405.180	-296
405.258	-749
405.336	937
405.415	-361
405.493	1360
405.571	2926
405.649	-277
405.727	-667
405.805	1279
405.883	504
405.961	78
406.039	276
406.117	-897
406.195	1536
406.273	8201
406.351	36454
406.429	25081
406.507	2470
406.585	-279
406.663	1436
406.740	960
406.818	631
406.896	-295
406.974	1292
407.052	2183
407.130	21426
407.208	31137
407.285	6758
407.363	376
407.441	250
407.519	-59
407.596	1422
407.674	1707
407.752	6564
407.830	7365
407.907	3631
407.985	437
408.063	-218
408.141	-107
408.218	1152
408.296	-271
408.373	968
408.451	760
408.529	819
408.606	277
408.684	-79
408.762	-34
408.839	134
408.917	-397
408.994	-18
409.072	-810
409.149	-38
409.227	1271
409.304	1487
409.382	891
409.459	1116
409.537	2705
409.614	2073
409.692	539
409.769	804
409.846	1928
409.924	4662
410.001	723
410.079	1274
410.156	808
410.233	351
410.311	185
410.388	198
410.465	557
410.543	282
410.620	1120
410.697	433
410.775	130
410.852	-626
410.929	1237
411.006	1814
411.083	211
411.161	1900
411.238	2820
411.315	235
411.392	-291
411.469	1464
411.547	887
411.624	-1452
411.701	-101
411.778	815
411.855	1938
411.932	865
412.009	-579
412.086	-119
412.163	250
412.240	462
412.317	1006
412.394	-61
412.471	380
412.548	-423
412.625	-162
412.702	627
412.779	1595
412.856	874
412.933	-702
413.010	269
413.087	941
413.164	7103
413.241	12580
413.318	1848
413.395	1859
413.471	2049
413.548	1124
413.625	863
413.702	-744
413.779	446
413.855	-745
413.932	-444
414.009	-1281
414.086	-522
414.162	164
414.239	1454
414.316	6619
414.393	18790
414.469	6592
414.546	-431
414.623	-595
414.699	25
414.776	-9
414.853	192
414.929	411
415.006	542
415.082	-290
415.159	-80
415.236	-648
415.312	-175
415.389	293
415.465	1043
415.542	482
415.618	-1163
415.695	1149
415.771	156
415.848	-386
415.924	480
416.000	-1005
416.077	179
416.153	-1140
416.230	-1233
416.306	-385
416.383	178
416.459	530
416.535	-906
416.612	-568
416.688	-88
416.764	-514
416.841	-516
416.917	-412
416.993	344
417.069	663
417.146	530
417.222	201
417.298	115
417.374	-378
417.451	369
417.527	-179
417.603	502
417.679	-163
417.755	164
417.831	-1950
417.908	-129
417.984	-20
418.060	-1541
418.136	895
418.212	2232
418.288	664
418.364	213
418.440	-794
418.516	537
418.592	364
418.668	2397
418.744	4271
418.820	3871
418.896	213
418.972	-897
419.048	-152
419.124	2533
419.200	426
419.276	53
419.352	-1544
419.428	544
419.504	-736
419.579	491
419.655	-494
419.731	442
419.807	2574
419.883	6557
419.959	4447
420.034	1337
420.110	2500
420.186	10316
420.262	9807
420.337	1250
420.413	-86
420.489	-630
420.565	350
420.640	-405
420.716	315
420.792	-255
420.867	561
420.943	-340
421.019	977
421.094	443
421.170	81
421.245	-20
421.321	82
421.397	-331
421.472	1721
421.548	3260
421.623	3901
421.699	1940
421.774	1423
421.850	816
421.925	2006
422.001	2843
422.076	1634
422.152	2984
422.227	4436
422.302	6522
422.378	9029
422.453	16930
422.529	43702
422.604	119540
422.679	189774
422.755	141609
422.830	54891
422.905	20864
422.981	10461
423.056	6703
423.131	4339
423.207	3003
423.282	2476
423.357	4718
423.432	2705
423.508	3402
423.583	5468
423.658	5295
423.733	1088
423.808	2139
423.883	1663
423.959	1911
424.034	613
424.109	1755
424.184	84
424.259	-230
424.334	374
424.409	-440
424.484	-419
424.559	649
424.634	-154
424.709	-295
424.784	1147
424.859	281
424.934	939
425.009	7064
425.084	14496
425.159	5487
425.234	490
425.309	833
425.384	8534
425.459	17088
425.534	5336
425.609	-82
425.683	-220
425.758	157
425.833	-517
425.908	856
425.983	3855
426.058	14493
426.132	6727
426.207	106
426.282	1350
426.357	-71
426.431	-70
426.506	540
426.581	-768
426.655	756
426.730	-489
426.805	-63
426.879	568
426.954	506
427.029	1603
427.103	12971
427.178	35185
427.253	18007
427.327	1556
427.402	2980
427.476	14597
427.551	9149
427.625	920
427.700	-405
427.774	-965
427.849	146
427.923	-789
427.998	111
428.072	-704
428.147	2033
428.221	11577
428.296	38853
428.370	23317
428.444	2062
428.519	980
428.593	2934
428.667	2704
428.742	3448
428.816	5097
428.890	23309
428.965	47863
429.039	17850
429.113	4700
429.188	1072
429.262	-90
429.336	2281
429.410	5700
429.485	4655
429.559	2378
429.633	2249
429.707	1086
429.781	3577
429.855	20912
429.930	39834
430.004	17038
430.078	17372
430.152	20671
430.226	47382
430.300	56806
430.374	9527
430.448	1907
430.522	5760
430.596	16199
430.670	15244
430.744	40023
430.818	64656
430.892	14444
430.966	822
431.040	430
431.114	-1374
431.188	-447
431.262	-254
431.336	-663
431.410	1208
431.484	3213
431.557	4121
431.631	-273
431.705	565
431.779	6419
431.853	33679
431.927	28248
432.000	3279
432.074	-67
432.148	-759
432.222	-554
432.295	134
432.369	-825
432.443	194
432.516	11284
432.590	36464
432.664	15432
432.737	533
432.811	-891
432.885	-483
432.958	-663
433.032	-346
433.106	-1481
433.179	-1549
433.253	-39
433.326	-539
433.400	-982
433.473	-775
433.547	-705
433.620	-661
433.694	-146
433.767	1346
433.841	-1021
433.914	-264
433.988	-144
434.061	665
434.134	-770
434.208	-56
434.281	-1746
434.355	-1114
434.428	161
434.501	12
434.575	-1532
434.648	-1020
434.721	-338
434.795	-1037
434.868	-1359
434.941	-771
435.014	-799
435.088	-741
435.161	566
435.234	2084
435.307	1121
435.381	62
435.454	-138
435.527	881
435.600	850
435.673	487
435.746	-678
435.819	-679
435.892	-951
435.966	-483
436.039	-411
436.112	-651
436.185	-988
436.258	-600
436.331	-2036
436.404	-736
436.477	-913
436.550	-1536
436.623	-594
436.696	-577
436.769	-839
436.842	-574
436.915	-288
436.987	-15
437.060	-412
437.133	-717
437.206	-1240
437.279	-278
437.352	-1209
437.425	-894
437.498	-494
437.570	1798
437.643	1484
437.716	151
437.789	-1215
437.861	1250
437.934	4545
438.007	2033
438.080	-419
438.152	-135
438.225	1714
438.298	18077
438.370	56689
438.443	29417
438.516	5949
438.588	-275
438.661	-1616
438.734	-974
438.806	-379
438.879	621
438.951	470
439.024	1757
439.096	-502
439.169	-608
439.241	-1042
439.314	-834
439.386	-441
439.459	253
439.531	2228
439.604	-23
439.676	-523
439.749	-921
439.821	-975
439.893	-41
439.966	-1464
440.038	-308
440.110	-438
440.183	-555
440.255	-1209
440.327	844
440.400	6448
440.472	34080
440.544	28658
440.617	3649
440.689	1715
440.761	2301
440.833	4383
440.905	3431
440.978	-315
441.050	-904
441.122	482
441.194	-965
441.266	-874
441.338	-322
441.411	1358
441.483	9329
441.555	18089
441.627	5682
441.699	693
441.771	-436
441.843	-469
441.915	-651
441.987	-337
442.059	-384
442.131	-244
442.203	1548
442.275	1059
442.347	2290
442.419	2514
442.491	17363
442.563	50542
442.635	27072
442.706	7701
442.778	5891
442.850	1650
442.922	169
442.994	-51
443.066	788
443.137	519
443.209	307
443.281	1202
443.353	5304
443.425	22665
443.496	89833
443.568	101105
443.640	39972
443.711	7045
443.783	1952
443.855	425
443.926	559
443.998	-88
444.070	793
444.141	-274
444.213	1549
444.285	2170
444.356	1824
444.428	1130
444.499	503
444.571	-1188
444.642	-601
444.714	-238
444.785	1711
444.857	1254
444.928	2980
445.000	3112
445.071	2862
445.143	3885
445.214	3806
445.285	4768
445.357	15598
445.428	56269
445.500	143311
445.571	103534
445.642	54715
445.714	17437
445.785	9528
445.856	2895
445.928	3145
445.999	2817
446.070	1918
446.141	1236
446.213	3064
446.284	527
446.355	964
446.426	-77
446.497	673
446.569	1171
446.640	2109
446.711	1993
446.782	365
446.853	-60
446.924	514
446.995	143
447.066	674
447.138	768
447.209	1231
447.280	-1866
447.351	-775
447.422	-1374
447.493	-469
447.564	393
447.635	1952
447.706	705
447.777	-352
447.847	-747
447.918	-993
447.989	275
448.060	883
448.131	1989
448.202	2473
448.273	2256
448.344	643
448.414	-1137
448.485	4
448.556	-688
448.627	-1119
448.698	-2
448.768	83
448.839	-1116
448.910	592
448.981	1371
449.051	554
449.122	-342
449.193	-381
449.263	-262
449.334	-304
449.405	-315
449.475	3427
449.546	1839
449.616	1409
449.687	1798
449.758	-59
449.828	-369
449.899	-461
449.969	-852
450.040	-57
450.110	133
450.181	681
450.251	-204
450.322	-130
450.392	-25
450.463	151
450.533	-816
450.604	-5
450.674	-1024
450.744	189
450.815	-722
450.885	-555
450.955	-434
451.026	-448
451.096	-207
451.166	-335
451.237	431
451.307	4839
451.377	3332
451.447	-308
451.518	-919
451.588	-509
451.658	-398
451.728	618
451.799	4013
451.869	6520
451.939	1352
452.009	-496
452.079	-1258
452.149	-263
452.219	599
452.289	5584
452.360	5159
452.430	628
452.500	-635
452.570	775
452.640	2410
452.710	6436
452.780	10661
452.850	9015
452.920	8449
452.990	2998
453.060	1374
453.129	1594
453.199	1298
453.269	6318
453.339	20158
453.409	34053
453.479	24122
453.549	39710
453.619	42532
453.688	23012
453.758	3163
453.828	317
453.898	-200
453.968	-246
454.037	183
454.087	243
454.107	258
454.168	-332
454.177	-437
454.247	-398
454.249	-357
454.316	325
454.330	299
454.386	87
454.411	692
454.456	1505
454.492	3798
454.525	5843
454.574	3583
454.595	2602
454.655	931
454.665	656
454.734	474
454.736	535
454.804	1531
454.817	2352
454.873	5211
454.898	6348
454.943	8396
454.979	5233
455.013	2479
455.060	1377
455.082	942
455.141	1409
455.152	1417
455.221	3273
455.222	3385
455.291	8405
455.303	8006
455.360	6275
455.384	6589
455.430	6725
455.465	6616
455.499	6455
455.546	6116
455.569	5846
455.627	5341
455.638	5318
455.707	584
455.708	597
455.777	262
455.789	364
455.846	673
455.869	404
455.916	39
455.950	375
455.985	559
456.031	450
456.054	391
456.112	-90
456.124	-154
456.193	710
456.193	695
456.262	450
456.274	602
456.332	1339
456.355	1377
456.401	1242
456.436	1009
456.470	846
456.516	186
456.540	-194
456.597	468
456.609	603
456.678	396
456.678	383
456.747	459
456.759	412
456.817	383
456.840	381
456.886	141
456.920	370
456.955	774
457.001	768
457.024	679
457.082	529
457.093	491
457.162	1725
457.163	1742
457.232	1730
457.243	1642
457.301	1154
457.324	898
457.370	648
457.405	931
457.439	1057
457.485	990
457.508	1100
457.566	1621
457.577	1796
457.646	2329
457.647	2369
457.715	5555
457.727	6092
457.784	9537
457.808	11554
457.853	12671
457.889	14432
457.922	14969
457.969	11798
457.991	12480
458.050	14797
458.060	15201
458.129	23017
458.130	23314
458.198	19979
458.211	17523
458.267	11312
458.292	8468
458.336	6565
458.372	6236
458.405	8231
458.453	12783
458.474	15747
458.533	26580
458.543	26878
458.611	35142
458.614	35343
458.680	22809
458.694	17891
458.749	10078
458.775	7539
458.818	4051
458.855	3344
458.887	2931
458.936	2524
458.955	2363
459.016	1863
459.024	1867
459.093	2390
459.097	2439
459.162	2507
459.177	2542
459.230	3312
459.257	3745
459.299	3654
459.338	3384
459.368	3351
459.418	3647
459.437	3505
459.499	2744
459.505	2773
459.574	1669
459.579	1757
459.643	2177
459.659	2013
459.711	1792
459.740	2055
459.780	2488
459.820	2501
459.849	2541
459.900	2766
459.917	2833
459.981	3326
459.986	3354
460.054	3253
460.061	3374
460.123	3812
460.141	3611
460.191	3838
460.222	4137
460.260	4300
460.302	5192
460.328	5264
460.382	3966
460.397	3828
460.462	3713
460.465	3807
460.534	6211
460.543	6584
460.602	14815
460.623	17932
460.671	27637
460.703	36103
460.739	29224
460.783	19798
460.808	18149
460.864	6505
460.876	5381
460.944	3085
460.945	3055
461.013	2993
461.024	2964
461.081	2934
461.104	3048
461.150	2953
461.184	3097
461.218	3446
461.264	3283
461.286	3143
461.345	3002
461.355	2902
461.423	2729
461.425	2709
461.491	3295
461.505	3495
461.559	5881
461.585	7166
461.628	9561
461.665	11960
461.696	12074
461.745	12874
461.764	11662
461.825	5432
461.832	5413
461.901	3860
461.905	3893
461.969	3153
461.985	2923
462.037	3353
462.065	3709
462.105	3768
462.145	3962
462.173	5135
462.225	6900
462.241	7136
462.305	9173
462.310	8993
462.378	6117
462.385	5598
462.446	4132
462.465	3809
462.514	3951
462.545	4161
462.582	4105
462.625	4338
462.650	4032
462.705	2927
462.718	2975
462.785	3468
462.786	3488
462.854	4465
462.865	4659
462.922	5041
462.945	5339
462.990	4697
463.025	3657
463.058	3464
463.104	3356
463.126	3289
463.184	3237
463.194	3294
463.262	3484
463.264	3504
463.330	3726
463.344	3665
463.398	3782
463.424	3926
463.466	3543
463.504	3263
463.533	3512
463.583	3873
463.601	4020
463.663	4518
463.669	4612
463.737	5656
463.743	5737
463.805	8307
463.823	9132
463.873	12076
463.903	13882
463.940	13212
463.982	12767
464.008	10696
464.062	5599
464.076	5628
464.142	4631
464.144	4575
464.211	3099
464.221	2970
464.279	4197
464.301	4617
464.347	4640
464.381	4645
464.414	5497
464.461	6540
464.482	6932
464.540	8283
464.550	8446
464.617	9446
464.620	9467
464.685	8208
464.699	7859
464.753	8402
464.779	8684
464.820	9029
464.859	9424
464.888	8867
464.938	7741
464.956	8045
465.018	9163
465.023	9173
465.091	9176
465.098	9150
465.158	9253
465.177	9393
465.226	8783
465.257	8199
465.293	8155
465.336	8003
465.361	8314
465.416	9108
465.428	9495
465.495	11598
465.496	11642
465.563	15623
465.575	16347
465.631	17351
465.654	17873
465.698	12678
465.734	7946
465.765	7542
465.813	6632
465.833	6566
465.893	6887
465.900	6907
465.968	6938
465.972	6930
466.035	6761
466.052	6721
466.102	6979
466.131	7089
466.170	7387
466.210	7648
466.237	8030
466.290	8788
466.304	8956
466.369	9612
466.372	9625
466.439	9607
466.449	9561
466.506	11032
466.528	11622
466.573	14367
466.607	16337
466.641	20433
466.687	26136
466.708	26968
466.766	29276
466.775	27613
466.842	14713
466.845	14073
466.909	12222
466.925	11805
466.977	11526
467.004	11414
467.044	11487
467.083	11528
467.111	12540
467.163	14376
467.178	14317
467.242	13958
467.245	13932
467.312	12912
467.321	12755
467.379	12272
467.400	12065
467.446	11902
467.480	11747
467.559	10554
467.638	10473
467.717	10218
467.796	11570
467.875	12520
467.955	11230
468.034	16503
468.113	27562
468.192	33972
468.271	11009
468.350	12824
468.429	13937
468.508	13950
468.588	10899
468.667	9685
468.746	9999
468.825	8811
468.904	8321
468.983	9985
469.062	12743
469.141	13731
469.220	8208
469.299	8973
469.378	10193
469.456	12269
469.535	10379
469.614	10047
469.693	10919
469.772	12533
469.851	14979
469.930	10782
470.009	9779
470.088	11748
470.166	14764
470.245	21615
470.324	24622
470.403	13894
470.482	10354
470.560	9616
470.639	9333
470.718	12012
470.797	10167
470.875	10202
470.954	12404
471.033	11426
471.111	7945
471.190	8203
471.269	7511
471.347	7632
471.426	8455
471.505	9066
471.583	10631
471.662	9707
471.740	9773
471.819	9383
471.898	8215
471.976	7516
472.055	7607
472.133	8634
472.212	11576
472.290	9592
472.369	8204
472.447	8304
472.526	6826
472.604	7537
472.683	8733
472.761	7941
472.839	7716
472.918	7893
472.996	8644
473.075	8423
473.153	7893
473.231	7463
473.310	8910
473.388	8574
473.466	8378
473.545	10058
473.623	12837
473.701	11599
473.780	8865
473.858	6723
473.936	9309
474.014	8147
474.093	10005
474.171	11012
474.249	12565
474.327	8647
474.405	6882
474.484	6661
474.562	7498
474.640	8154
474.718	8926
474.796	8335
474.874	7849
474.952	7061
475.030	7666
475.108	8975
475.187	9850
475.265	10034
475.343	12844
475.421	12549
475.499	8066
475.577	8512
475.655	11171
475.733	16292
475.811	21825
475.889	20023
475.966	11069
476.044	7120
476.122	10109
476.200	11216
476.278	8370
476.356	5826
476.434	6492
476.512	8345
476.590	11674
476.667	8837
476.745	7364
476.823	7278
476.901	5886
476.979	7678
477.056	7214
477.134	6333
477.212	7241
477.290	6838
477.367	6303
477.445	5616
477.523	5554
477.601	5788
477.678	6336
477.756	6593
477.834	7513
477.911	5631
477.989	5815
478.066	6137
478.144	6901
478.222	8593
478.299	13605
478.377	10339
478.454	5756
478.532	6314
478.609	6060
478.687	6662
478.764	5161
478.842	6809
478.919	7936
478.997	6120
479.074	6097
479.152	6247
479.229	8069
479.307	5233
479.384	5359
479.461	5545
479.539	5340
479.616	6289
479.694	5317
479.771	5552
479.848	6469
479.926	6434
480.003	7413
480.080	5548
480.157	5678
480.235	5651
480.312	5122
480.389	5146
480.467	7954
480.544	8767
480.621	5831
480.698	5985
480.775	7023
480.853	6619
480.930	4956
481.007	6360
481.084	6523
481.161	7778
481.238	6320
481.315	4952
481.392	5297
481.470	5514
481.547	5563
481.624	4865
481.701	5340
481.778	5285
481.855	6605
481.932	8812
482.009	13171
482.086	7172
482.163	6474
482.240	11683
482.317	17930
482.393	11005
482.470	6521
482.547	6368
482.624	6014
482.701	6335
482.778	5271
482.855	5118
482.932	5705
483.009	5087
483.085	6098
483.162	7364
483.239	6936
483.316	6270
483.393	6441
483.469	5078
483.546	5651
483.623	6656
483.699	5189
483.776	5935
483.853	6093
483.930	10218
484.006	20167
484.083	30803
484.160	23785
484.236	35804
484.313	24082
484.389	18874
484.466	18020
484.543	17820
484.619	18345
484.696	19208
484.772	18083
484.849	16935
484.925	16074
485.002	15892
485.078	16904
485.155	16508
485.231	14346
485.308	14275
485.384	15144
485.461	17686
485.537	23130
485.614	23395
485.690	14457
485.766	13728
485.843	16968
485.919	22447
485.995	20412
486.072	13971
486.148	13147
486.224	14208
486.301	13878
486.377	15472
486.453	15390
486.530	16418
486.606	21397
486.682	21581
486.758	24094
486.835	23654
486.911	21677
486.987	34055
487.063	40729
487.139	48986
487.215	32792
487.292	16737
487.368	15262
487.444	18778
487.520	23502
487.596	24500
487.672	46185
487.748	109873
487.824	130697
487.900	32310
487.976	19174
488.052	17827
488.128	21209
488.204	15212
488.280	13936
488.356	16851
488.432	27543
488.508	33033
488.584	14713
488.660	13903
488.736	13850
488.812	15511
488.888	18358
488.964	27070
489.039	55079
489.115	72032
489.191	31522
489.267	12734
489.343	12424
489.418	11425
489.494	11032
489.570	10309
489.646	11690
489.722	10634
489.797	11196
489.873	16782
489.949	26858
490.024	18330
490.100	10154
490.176	10763
490.251	13553
490.327	17248
490.403	10146
490.478	10920
490.554	9170
490.629	10000
490.705	9607
490.781	10202
490.856	9289
490.932	11949
491.007	11967
491.083	11185
491.158	9563
491.234	13645
491.309	21144
491.385	17512
491.460	8854
491.536	11460
491.611	9979
491.686	11128
491.762	17219
491.837	34487
491.913	51752
491.988	75162
492.063	74132
492.139	16785
492.214	12741
492.289	8688
492.365	7986
492.440	9706
492.515	9496
492.590	9432
492.666	7424
492.741	10726
492.816	11419
492.891	7552
492.967	8400
493.042	6593
493.117	7262
493.192	8308
493.267	12018
493.342	21304
493.418	20514
493.493	8166
493.568	7433
493.643	7631
493.718	9472
493.793	12649
493.868	14654
493.943	10428
494.018	7660
494.093	6357
494.168	8737
494.243	6726
494.318	6443
494.393	7600
494.468	6108
494.543	7218
494.618	8079
494.693	6450
494.768	6749
494.842	6714
494.917	7278
494.992	7680
495.067	6859
495.142	6054
495.217	6528
495.292	6761
495.366	9217
495.441	9900
495.516	14798
495.591	24680
495.665	80694
495.740	151959
495.815	35264
495.890	9380
495.964	6897
496.039	9565
496.114	7901
496.188	9241
496.263	8914
496.338	7860
496.412	9992
496.487	9713
496.561	12037
496.636	10529
496.710	9210
496.785	10676
496.860	10345
496.934	9042
497.009	10426
497.083	8960
497.158	9948
497.232	12457
497.307	14127
497.381	12805
497.455	13851
497.530	15710
497.604	13169
497.679	14971
497.753	23542
497.827	28270
497.902	28898
497.976	34435
498.050	76182
498.125	208393
498.199	144416
498.273	43079
498.348	36798
498.422	27849
498.496	26061
498.570	20534
498.645	15553
498.719	13415
498.793	15993
498.867	22753
498.941	32628
499.016	92193
499.090	182181
499.164	36791
499.238	10045
499.312	10198
499.386	13805
499.460	11253
499.534	11006
499.609	13155
499.683	14307
499.757	16283
499.831	44386
499.905	131189
499.979	76976
500.053	16301
500.127	17711
500.201	14050
500.275	9891
500.349	9590
500.422	11960
500.496	20128
500.570	42068
500.644	82642
500.718	105695
500.792	15595
500.866	8415
500.940	10317
501.013	8403
501.087	9584
501.161	19899
501.235	20544
501.309	46565
501.382	108129
501.456	62980
501.530	20646
501.603	29168
501.677	9313
501.751	5645
501.825	10214
501.898	18213
501.972	39377
502.046	16743
502.119	9367
502.193	23367
502.266	42706
502.340	15910
502.413	22103
502.487	33200
502.561	15194
502.634	7179
502.708	7489
502.781	6021
502.855	6133
502.928	4424
503.002	4956
503.075	4511
503.149	5573
503.222	4660
503.295	4175
503.369	6488
503.442	11004
503.516	35549
503.589	68152
503.662	32346
503.736	16152
503.809	35941
503.882	25361
503.956	48500
504.029	41850
504.102	60057
504.175	65480
504.249	16677
504.322	9895
504.395	7852
504.468	5600
504.542	5074
504.615	3805
504.688	5247
504.761	3803
504.834	7193
504.907	9886
504.980	13520
505.053	6390
505.127	8973
505.200	9230
505.273	7215
505.346	3633
505.419	3778
505.492	4127
505.565	3231
505.638	3591
505.711	3261
505.784	2778
505.857	3088
505.930	5494
506.003	2273
506.076	5627
506.149	5014
506.221	5405
506.294	8354
506.367	19895
506.440	54743
506.513	17843
506.586	6702
506.659	4259
506.731	4786
506.804	5702
506.877	7740
506.950	4314
507.022	4097
507.095	4466
507.168	6031
507.241	4693
507.313	4181
507.386	4453
507.459	7730
507.531	3683
507.604	3574
507.677	4207
507.749	3033
507.822	8518
507.894	12934
507.967	14553
508.040	7955
508.112	8363
508.185	7126
508.257	6058
508.330	11162
508.402	5866
508.475	5074
508.547	6324
508.620	7236
508.692	8548
508.765	5172
508.837	4730
508.909	5384
508.982	4892
509.054	6058
509.127	4514
509.199	5346
509.271	4637
509.344	5197
509.416	4654
509.488	4600
509.560	5404
509.633	5662
509.705	6631
509.777	6332
509.849	9811
509.922	4824
509.994	3982
510.066	6433
510.138	6214
510.210	13067
510.283	10418
510.355	9503
510.427	8142
510.499	7707
510.571	8058
510.643	7009
510.715	14126
510.787	8563
510.859	7713
510.931	8890
511.003	12780
511.076	10214
511.148	5491
511.219	5957
511.291	9359
511.363	9725
511.435	6181
511.507	5058
511.579	6312
511.651	6755
511.723	4672
511.795	5196
511.867	5443
511.939	7334
512.010	11687
512.082	8416
512.154	4863
512.226	6584
512.298	12443
512.369	14768
512.441	11300
512.513	12147
512.585	7681
512.656	8390
512.728	8407
512.800	7124
512.871	7433
512.943	6957
513.015	6442
513.086	7300
513.158	7475
513.230	8027
513.301	11886
513.373	12963
513.444	7552
513.516	6527
513.588	6475
513.659	8148
513.731	9351
513.802	8700
513.874	21573
513.945	26968
514.016	7350
514.088	6819
514.159	7767
514.231	11803
514.302	13244
514.374	9728
514.445	8233
514.516	15391
514.588	8668
514.659	8842
514.730	12934
514.802	12674
514.873	10236
514.944	11759
515.016	10057
515.087	10446
515.158	13126
515.229	14909
515.301	13098
515.372	16024
515.443	8537
515.514	7946
515.585	6526
515.656	7117
515.728	7165
515.799	7220
515.870	7951
515.941	7746
516.012	7770
516.083	11700
516.154	11178
516.225	15860
516.296	14821
516.367	12017
516.438	16428
516.509	22822
516.580	46375
516.651	158865
516.722	396839
516.793	92281
516.864	23108
516.935	24051
517.006	32410
517.077	57239
517.148	160234
517.219	557079
517.289	523573
517.360	84011
517.431	23706
517.502	12914
517.573	13272
517.643	13100
517.714	13598
517.785	13989
517.856	14349
517.926	19074
517.997	21962
518.068	31548
518.138	49550
518.209	110400
518.280	412129
518.350	995395
518.421	210373
518.492	27289
518.562	17935
518.633	18314
518.703	20615
518.774	43040
518.845	92152
518.915	64802
518.986	19929
519.056	18108
519.127	30033
519.197	42099
519.268	65130
519.338	27942
519.408	13389
519.479	18447
519.549	11327
519.620	8580
519.690	7254
519.760	6985
519.831	8049
519.901	7466
519.971	6891
520.042	6701
520.112	7914
520.182	12248
520.253	12540
520.323	14264
520.393	37692
520.463	49878
520.534	43021
520.604	77021
520.674	19327
520.744	32257
520.814	101822
520.885	46590
520.955	28032
521.025	66714
521.095	15895
521.165	6482
521.235	6133
521.305	4907
521.375	6065
521.445	7605
521.515	8116
521.585	11979
521.655	8450
521.725	8670
521.795	7345
521.865	3393
521.935	10080
522.005	6499
522.075	5041
522.145	6712
522.215	6053
522.285	9111
522.355	12119
522.424	18760
522.494	13721
522.564	13165
522.634	32097
522.704	70889
522.774	15267
522.843	7105
522.913	6149
522.983	8701
523.053	6277
523.122	7671
523.192	13495
523.262	42387
523.331	23842
523.401	6316
523.471	5512
523.540	6347
523.610	3986
523.680	5111
523.749	4922
523.819	5455
523.888	5563
523.958	4652
524.027	5058
524.097	5033
524.166	5795
524.236	5301
524.305	6342
524.375	4229
524.444	3468
524.514	6867
524.583	4810
524.653	5603
524.722	7830
524.791	4687
524.861	5565
524.930	4424
524.999	4657
525.069	7964
525.138	4390
525.207	6638
525.277	5847
525.346	5446
525.415	5394
525.484	6859
525.554	5567
525.623	6895
525.692	6777
525.761	6734
525.830	8847
525.900	10235
525.969	18505
526.038	32018
526.107	77559
526.176	175782
526.245	103253
526.314	44700
526.383	105406
526.452	116713
526.522	225866
526.591	138076
526.660	37156
526.729	22350
526.797	37051
526.867	90835
526.935	305056
527.004	453509
527.073	147115
527.142	13616
527.211	8072
527.280	10834
527.349	8436
527.418	5535
527.487	6459
527.555	4720
527.624	4074
527.693	3220
527.762	5525
527.831	3672
527.899	4024
527.968	5081
528.037	3200
528.106	7353
528.174	11589
528.243	7421
528.312	13521
528.380	12296
528.449	3426
528.518	5001
528.586	2772
528.655	4247
528.723	2933
528.792	3408
528.861	3014
528.929	3008
528.998	3961
529.066	2777
529.135	3693
529.203	2524
529.272	2127
529.340	4379
529.409	4726
529.477	2695
529.545	4600
529.614	9014
529.682	6618
529.751	7810
529.819	12928
529.887	4808
529.956	3013
530.024	4331
530.092	3776
530.161	7390
530.229	8116
530.297	3415
530.365	4151
530.434	3836
530.502	2071
530.570	4338
530.638	1353
530.707	3068
530.775	4976
530.843	3591
530.911	4032
530.979	4445
531.047	3419
531.115	4067
531.183	3583
531.252	3767
531.320	3490
531.388	3233
531.456	3573
531.524	2430
531.592	4780
531.660	4784
531.728	3133
531.796	2704
531.864	3843
531.932	4431
532.000	3012
532.067	3934
532.135	5407
532.203	6264
532.271	5428
532.339	13377
532.407	29000
532.475	12206
532.542	7898
532.610	10486
532.678	19458
532.746	80619
532.814	125337
532.881	20917
532.949	5500
533.017	5639
533.084	4321
533.152	4888
533.220	4923
533.287	5049
533.355	4365
533.423	4241
533.490	3606
533.558	4440
533.625	3992
533.693	4247
533.761	5108
533.828	5391
533.896	5102
533.963	11409
534.031	12583
534.098	16973
534.166	6230
534.233	3780
534.300	5951
534.368	6106
534.435	4799
534.503	7531
534.570	12586
534.637	6517
534.705	8386
534.772	13527
534.840	26169
534.907	93647
534.974	69927
535.041	7664
535.109	5347
535.176	3372
535.243	5686
535.310	5114
535.378	3371
535.445	4642
535.512	4240
535.579	5568
535.646	4371
535.714	5772
535.781	6104
535.848	6755
535.915	5853
535.982	5081
536.049	4656
536.116	5647
536.183	4067
536.250	4786
536.317	5012
536.384	7230
536.451	9562
536.518	9134
536.585	5250
536.652	10320
536.719	12744
536.786	7832
536.853	7807
536.920	13399
536.987	19366
537.053	23414
537.120	81887
537.187	40849
537.254	6316
537.321	4635
537.388	6657
537.454	5132
537.521	4891
537.588	4761
537.654	6942
537.721	6421
537.788	6609
537.855	5640
537.921	5928
537.988	5529
538.055	5598
538.121	4813
538.188	6594
538.254	10707
538.321	17947
538.388	8702
538.454	6812
538.521	6454
538.587	5662
538.654	5924
538.720	6302
538.787	5761
538.853	6102
538.920	7119
538.986	5584
539.053	5395
539.119	6166
539.185	6557
539.252	9318
539.318	10309
539.385	8583
539.451	7349
539.517	8298
539.583	12096
539.650	28159
539.716	46752
539.782	9834
539.849	6257
539.915	6667
539.981	6734
540.047	7404
540.114	6661
540.180	8360
540.246	7082
540.312	10756
540.378	19118
540.444	19001
540.510	28838
540.576	55437
540.643	10638
540.709	5365
540.775	7362
540.841	7316
540.907	12656
540.973	21563
541.039	13134
541.105	9964
541.171	7287
541.237	6222
541.303	7409
541.369	9567
541.435	11177
541.500	16039
541.566	7717
541.632	5106
541.698	5865
541.764	6881
541.830	6297
541.896	5487
541.961	6027
542.027	5737
542.093	6294
542.159	7407
542.224	6482
542.290	11754
542.356	16816
542.421	16039
542.487	8025
542.553	6280
542.618	7223
542.684	6094
542.750	7140
542.815	10508
542.881	18906
542.947	55658
543.012	24525
543.078	6089
543.143	4609
543.209	6572
543.274	7568
543.340	10174
543.405	23757
543.471	24536
543.536	7136
543.602	5868
543.667	4944
543.732	7070
543.798	5742
543.863	6443
543.928	5396
543.994	5164
544.059	6305
544.124	5673
544.190	5971
544.255	6363
544.320	7391
544.386	7358
544.451	9932
544.516	11169
544.581	14402
544.646	39073
544.712	39790
544.777	8479
544.842	6372
544.907	8036
544.972	7061
545.037	6475
545.102	8173
545.168	6716
545.233	8115
545.298	9167
545.363	9701
545.428	11958
545.493	24819
545.558	38287
545.623	12270
545.688	7522
545.753	8513
545.818	8003
545.883	8832
545.947	7274
546.012	9253
546.077	8145
546.142	9708
546.207	9027
546.272	12148
546.337	11902
546.401	10377
546.466	9345
546.531	9282
546.596	10803
546.661	9881
546.725	11200
546.790	10952
546.855	11671
546.919	11947
546.984	13512
547.049	14325
547.113	16857
547.178	15985
547.243	19441
547.307	21917
547.372	24279
547.436	23605
547.501	23887
547.565	25419
547.630	26588
547.695	23488
547.759	24558
547.823	22433
547.888	23773
547.952	24541
548.017	25718
548.081	27335
548.146	27362
548.210	26872
548.274	26538
548.339	26168
548.403	25002
548.468	22057
548.532	22504
548.596	23502
548.660	23518
548.725	27639
548.789	29192
548.853	28361
548.917	26056
548.982	26499
549.046	23881
549.110	20516
549.174	22729
549.238	25068
549.303	26021
549.367	28190
549.431	24331
549.495	23773
549.559	25663
549.623	30869
549.687	33213
549.751	35851
549.815	36836
549.879	36652
549.943	33656
550.007	38649
550.071	35869
550.135	35934
550.199	30404
550.263	30672
550.327	30099
550.391	31702
550.455	33076
550.519	35115
550.582	38170
550.646	45660
550.710	42923
550.774	41062
550.838	40741
550.901	42285
550.965	44809
551.029	47967
551.093	52330
551.156	57787
551.220	72453
551.284	74332
551.347	53371
551.411	58462
551.475	51077
551.538	44225
551.602	39847
551.666	38334
551.729	35071
551.793	36097
551.856	34160
551.920	33265
551.983	34710
552.047	34339
552.110	34308
552.174	36081
552.237	35267
552.301	33353
552.364	31485
552.428	31357
552.491	32309
552.554	33525
552.618	33564
552.681	35115
552.745	37606
552.808	51004
552.871	54513
552.934	38179
552.998	33577
553.061	32254
553.124	30802
553.187	31509
553.251	32136
553.314	32217
553.377	33599
553.440	37040
553.503	43011
553.567	44104
553.630	34332
553.693	34342
553.756	33904
553.819	32361
553.882	31944
553.945	32905
554.008	31945
554.071	32593
554.134	32307
554.197	30293
554.260	30036
554.323	33166
554.386	31939
554.449	32304
554.512	32767
554.575	30397
554.638	30000
554.701	31088
554.764	30914
554.827	28595
554.889	27198
554.952	25620
555.015	26108
555.078	26220
555.141	26334
555.203	25024
555.266	26204
555.329	26074
555.391	24736
555.454	25398
555.517	25018
555.580	22835
555.642	21615
555.705	22758
555.768	22768
555.830	21579
555.893	20627
555.955	20153
556.018	19768
556.080	19982
556.143	19757
556.206	20498
556.268	21080
556.330	20113
556.393	19755
556.455	19275
556.518	21902
556.580	19451
556.643	16906
556.705	17385
556.767	15776
556.830	17749
556.892	17866
556.955	22766
557.017	16825
557.079	16847
557.142	16111
557.204	17935
557.266	26039
557.328	19330
557.391	12917
557.453	14146
557.515	13908
557.577	16231
557.639	16190
557.701	14143
557.764	12925
557.826	14422
557.888	16571
557.950	16239
558.012	19705
558.074	29458
558.136	64601
558.198	107684
558.260	27967
558.322	15291
558.384	16996
558.446	19266
558.508	22755
558.570	30019
558.632	47928
558.694	69888
558.756	106760
558.818	303854
558.880	487222
558.942	114845
559.003	117224
559.065	39532
559.127	22854
559.189	26521
559.251	37136
559.312	61505
559.374	147467
559.436	352474
559.498	99106
559.559	23522
559.621	26163
559.683	37583
559.744	67602
559.806	197132
559.868	190504
559.929	31228
559.991	29970
560.052	52348
560.114	120579
560.176	60203
560.237	79498
560.299	87682
560.360	15656
560.422	9379
560.483	9585
560.545	8764
560.606	9050
560.667	7892
560.729	7986
560.790	8375
560.852	8213
560.913	8858
560.974	7345
561.036	8248
561.097	8012
561.158	7766
561.220	7751
561.281	8567
561.342	9702
561.403	11801
561.465	14599
561.526	29880
561.587	28634
561.648	7384
561.709	7739
561.771	8228
561.832	7431
561.893	7269
561.954	8149
562.015	7060
562.076	6900
562.137	7924
562.198	6887
562.259	8457
562.320	8574
562.381	9792
562.442	11910
562.503	8978
562.564	6981
562.625	6788
562.686	7790
562.747	7999
562.808	7510
562.869	7859
562.930	8669
562.991	7692
563.051	7345
563.112	7059
563.173	7295
563.234	6877
563.294	7545
563.355	7630
563.416	7551
563.477	7536
563.537	6385
563.598	7066
563.659	7886
563.720	7790
563.780	8025
563.841	7659
563.901	6833
563.962	6747
564.023	7002
564.083	8067
564.144	7536
564.204	7416
564.265	8682
564.325	8215
564.386	12108
564.446	10333
564.507	5713
564.567	7343
564.628	7518
564.688	8186
564.749	6490
564.809	8830
564.869	8821
564.930	7700
564.990	8298
565.050	7168
565.111	7761
565.171	7598
565.231	7113
565.292	8167
565.352	7491
565.412	8871
565.472	8207
565.532	7969
565.593	7655
565.653	8346
565.713	8650
565.773	8774
565.833	10670
565.893	11818
565.953	8183
566.013	7918
566.074	9465
566.134	10533
566.194	13611
566.254	13161
566.314	10560
566.374	8980
566.434	9423
566.494	9953
566.554	9523
566.614	10283
566.673	10399
566.733	10435
566.793	10384
566.853	10503
566.913	11262
566.973	11528
567.033	12985
567.092	12628
567.152	12612
567.212	12347
567.272	12939
567.331	13565
567.391	13309
567.451	15153
567.511	15585
567.570	15009
567.630	12939
567.690	12140
567.749	13176
567.809	13770
567.868	16387
567.928	18231
567.988	21484
568.047	25127
568.107	32377
568.166	46457
568.226	73025
568.285	89659
568.345	67488
568.404	50737
568.464	45164
568.523	42615
568.582	47577
568.642	56260
568.701	74472
568.761	112211
568.820	163212
568.879	131575
568.939	91230
568.998	65874
569.057	49231
569.116	40592
569.176	34065
569.235	28278
569.294	23734
569.353	22431
569.413	18498
569.472	17712
569.531	16022
569.590	14943
569.649	14893
569.708	12955
569.767	13677
569.827	15802
569.886	12228
569.945	11737
570.004	11593
570.063	10615
570.122	11668
570.181	11240
570.240	11689
570.299	11795
570.358	12418
570.417	9173
570.475	8547
570.534	10694
570.593	9106
570.652	10149
570.711	10370
570.770	8917
570.829	10527
570.887	10170
570.946	10489
571.005	8664
571.064	8828
571.122	10986
571.181	8891
571.240	8213
571.299	7863
571.357	8810
571.416	7801
571.475	8532
571.533	10346
571.592	8188
571.650	8748
571.709	8131
571.768	8620
571.826	7593
571.885	7623
571.943	8077
572.002	6894
572.060	7604
572.119	7324
572.177	7225
572.236	6608
572.294	6920
572.352	7034
572.411	7096
572.469	6855
572.528	7372
572.586	7433
572.644	9558
572.703	10128
572.761	8042
572.819	7094
572.877	6380
572.936	5816
572.994	7080
573.052	7006
573.110	6656
573.169	7486
573.227	6876
573.285	7449
573.343	6994
573.401	6877
573.459	7332
573.517	6974
573.576	7009
573.634	6625
573.692	7693
573.750	5965
573.808	6813
573.866	8109
573.924	7796
573.982	7472
574.040	7342
574.098	6438
574.155	6419
574.213	6648
574.271	6609
574.329	7460
574.387	6779
574.445	5866
574.503	5305
574.560	5323
574.618	6825
574.676	5905
574.734	6090
574.792	6094
574.849	6379
574.907	5991
574.965	5574
575.022	4940
575.080	5503
575.138	6182
575.195	7372
575.253	5841
575.311	6680
575.368	5904
575.426	5748
575.483	6396
575.541	5924
575.598	5747
575.656	6084
575.713	6333
575.771	6088
575.828	5832
575.886	6802
575.943	7270
576.001	6324
576.058	6209
576.115	6327
576.173	7445
576.230	7991
576.287	8729
576.345	7961
576.402	5826
576.459	6457
576.517	5638
576.574	6545
576.631	6964
576.688	6362
576.746	5796
576.803	6749
576.860	5809
576.917	6697
576.974	6479
577.031	7178
577.089	6274
577.146	6400
577.203	6352
577.260	6903
577.317	7037
577.374	7298
577.431	6913
577.488	6411
577.545	5826
577.602	7117
577.659	5591
577.716	6649
577.773	5867
577.830	5840
577.886	6831
577.943	6555
578.000	6701
578.057	7056
578.114	7245
578.171	6006
578.227	6082
578.284	6080
578.341	7707
578.398	6576
578.454	6290
578.511	7620
578.568	8207
578.625	6329
578.681	6330
578.738	6715
578.794	7144
578.851	6531
578.908	7584
578.964	7466
579.021	7804
579.077	7622
579.134	7066
579.190	6303
579.247	6677
579.303	6138
579.360	6262
579.416	6352
579.473	6800
579.529	6522
579.586	6565
579.642	6803
579.698	6872
579.755	6794
579.811	7263
579.867	7198
579.924	6866
579.980	6183
580.036	7241
580.093	7196
580.149	7675
580.205	6711
580.261	6775
580.317	8099
580.374	7580
580.430	8066
580.486	7149
580.542	7431
580.598	8139
580.619	8119
580.654	8090
580.692	7379
580.710	7036
580.765	7792
580.767	7820
580.823	6934
580.838	7042
580.879	7344
580.911	7666
580.935	7896
580.984	7917
580.991	7933
581.047	7838
581.057	7710
581.103	7102
581.130	7331
581.159	7607
581.203	7720
581.215	7753
581.270	7520
581.276	7619
581.326	8594
581.349	8262
581.382	7715
581.422	7795
581.438	7873
581.494	8275
581.494	8270
581.550	7656
581.567	7900
581.606	8484
581.640	8604
581.661	8656
581.713	8848
581.717	8880
581.773	8256
581.786	8268
581.829	8190
581.859	8001
581.885	7875
581.932	8037
581.940	8074
581.996	9402
582.004	9342
582.052	8913
582.077	8882
582.107	8813
582.150	8307
582.163	8208
582.219	8862
582.223	8850
582.274	8529
582.296	8458
582.330	8416
582.368	8423
582.386	8429
582.441	9029
582.441	9029
582.497	8599
582.514	8934
582.552	9717
582.587	9174
582.608	8807
582.659	9139
582.663	9161
582.719	8754
582.732	8852
582.774	9386
582.805	9491
582.830	9487
582.877	10023
582.885	10124
582.941	8830
582.950	8925
582.996	9330
583.023	9545
583.052	9871
583.095	9978
583.107	9975
583.162	10375
583.168	10398
583.218	10565
583.240	10473
583.273	10294
583.313	10107
583.328	10178
583.384	11407
583.385	11392
583.439	10224
583.458	10327
583.494	10815
583.531	10567
583.549	10440
583.603	10913
583.605	10923
583.660	10919
583.676	10894
583.715	10707
583.748	10560
583.770	10691
583.820	11008
583.825	11001
583.881	11161
583.893	11038
583.936	10949
583.965	11097
583.991	10980
584.038	10987
584.046	11056
584.101	12417
584.110	12345
584.156	11739
584.183	11707
584.211	11805
584.255	12137
584.266	12170
584.321	11807
584.328	11840
584.376	12455
584.400	12752
584.431	12923
584.472	12585
584.486	12499
584.541	13353
584.545	13314
584.596	12918
584.617	13202
584.651	13916
584.689	14647
584.706	14739
584.761	14444
584.762	14430
584.816	13939
584.834	14212
584.871	14757
584.906	15281
584.926	15637
584.978	16819
584.980	16851
585.035	16238
585.051	16448
585.090	17552
585.123	18231
585.145	18553
585.195	18723
585.200	18793
585.254	20708
585.267	21072
585.309	22280
585.340	23383
585.364	24213
585.412	27689
585.419	28254
585.473	32482
585.484	34043
585.528	42167
585.556	48819
585.583	60449
585.628	85808
585.637	95878
585.692	190440
585.700	203164
585.747	247061
585.772	212391
585.801	130388
585.845	52170
585.856	44204
585.910	29420
585.917	28002
585.965	26361
585.989	25533
586.019	24950
586.061	24752
586.074	24910
586.128	25533
586.133	25562
586.183	25323
586.205	25194
586.237	25539
586.277	25977
586.292	26026
586.346	26545
586.349	26540
586.401	27579
586.421	27857
586.455	28037
586.493	29034
586.509	30105
586.564	33193
586.565	33297
586.618	39921
586.637	40184
586.672	37492
586.709	35101
586.727	34395
586.781	34877
586.781	34910
586.835	33628
586.853	33510
586.889	33444
586.925	33413
586.944	34018
586.996	36016
586.998	36095
587.052	37712
587.068	38123
587.106	39437
587.140	40430
587.161	40884
587.212	41695
587.215	41833
587.269	44083
587.284	44628
587.323	45071
587.356	45594
587.377	46852
587.427	49691
587.431	49905
587.485	52048
587.499	52756
587.539	55297
587.571	57010
587.593	58585
587.643	61945
587.648	62355
587.702	66771
587.715	67720
587.755	70707
587.786	72997
587.810	75599
587.858	81331
587.864	82109
587.917	89354
587.930	90919
587.971	97794
588.001	103141
588.025	107631
588.073	115650
588.079	117149
588.133	131904
588.145	134955
588.187	147643
588.217	157083
588.241	167278
588.288	188694
588.295	191950
588.348	218885
588.360	224997
588.402	255340
588.431	277371
588.456	299826
588.503	346462
588.510	355285
588.564	429186
588.575	445841
588.617	532835
588.646	596486
588.671	675407
588.718	833858
588.725	869488
588.778	1156597
588.789	1216754
588.832	1497150
588.861	1681814
588.886	1718696
588.932	1683883
588.939	1660508
588.993	1450997
589.004	1434063
589.047	1683691
589.075	1772029
589.100	1622541
589.147	1314754
589.154	1277086
589.207	998384
589.218	944206
589.261	865330
589.290	821358
589.314	844528
589.361	900776
589.368	928235
589.421	1165865
589.433	1219162
589.475	1476042
589.504	1634564
589.528	1626610
589.576	1530851
589.582	1531047
589.635	1579817
589.647	1567116
589.689	1275328
589.718	1066123
589.742	912078
589.790	621438
589.795	605176
589.849	454906
589.861	421025
589.902	358735
589.932	312569
589.955	289431
590.004	241866
590.009	239117
590.062	206558
590.075	198568
590.115	181942
590.146	168589
590.168	161918
590.218	146377
590.222	145610
590.275	132861
590.289	129308
590.328	122943
590.360	117679
590.381	114454
590.431	105842
590.435	105620
590.488	98663
590.503	96606
590.541	93773
590.574	90989
590.594	89286
590.645	84377
590.647	84365
590.700	79505
590.716	77861
590.753	75573
590.787	73271
590.806	72663
590.859	70470
590.859	70581
590.912	68015
590.930	67074
590.965	65782
591.001	64320
591.018	63945
591.071	62330
591.072	62175
591.124	61540
591.143	61081
591.177	60119
591.214	58932
591.230	58933
591.283	58535
591.285	58375
591.336	57049
591.356	56428
591.389	56066
591.427	55194
591.442	54772
591.495	52749
591.498	52472
591.547	51077
591.569	50379
591.600	49905
591.640	48732
591.653	48977
591.706	49725
591.711	49678
591.759	49505
591.782	49254
591.811	49644
591.853	49871
591.864	49737
591.917	48377
591.924	48049
591.969	47562
591.995	47157
592.022	46815
592.066	45801
592.075	46051
592.127	47013
592.137	47066
592.180	48022
592.208	48399
592.233	47815
592.279	46348
592.285	46305
592.338	44972
592.350	44532
592.390	44589
592.421	44470
592.443	44426
592.491	43929
592.495	44013
592.548	43558
592.562	43319
592.600	43069
592.633	42647
592.653	42736
592.704	42445
592.705	42692
592.775	42836
592.846	43322
592.916	43458
592.987	43343
593.058	41997
593.128	41728
593.199	40009
593.270	41893
593.341	39883
593.411	40962
593.482	41387
593.553	42129
593.623	41168
593.694	41495
593.764	41738
593.835	41382
593.906	40788
593.976	40457
594.047	41527
594.117	44302
594.188	43153
594.258	41714
594.329	40375
594.399	42125
594.470	41266
594.540	42677
594.611	41680
594.681	43026
594.751	41927
594.822	44552
594.892	43906
594.963	45961
595.033	45259
595.103	45912
595.174	47235
595.244	50396
595.314	54498
595.384	48580
595.455	47458
595.525	49365
595.595	49192
595.665	50354
595.736	48179
595.806	49655
595.876	48946
595.946	49694
596.016	50867
596.087	52154
596.157	51594
596.227	53076
596.297	54039
596.367	57436
596.437	59275
596.507	61912
596.577	63496
596.647	61558
596.717	61937
596.787	63875
596.857	61689
596.927	62567
596.997	62297
597.067	63249
597.137	64577
597.207	64056
597.277	63389
597.347	63935
597.417	61649
597.487	62537
597.557	62631
597.626	64664
597.696	64869
597.766	67247
597.836	65954
597.906	59400
597.975	56678
598.045	57975
598.115	59437
598.185	63047
598.254	68762
598.324	74907
598.394	74354
598.464	74390
598.533	71221
598.603	67344
598.672	64507
598.742	66643
598.812	65845
598.881	69052
598.951	67136
599.020	68156
599.090	70199
599.159	72359
599.229	68297
599.299	67244
599.368	68381
599.437	67643
599.507	63150
599.576	62741
599.646	60962
599.715	61485
599.785	59096
599.854	58770
599.924	58874
599.993	59002
600.062	58591
600.132	59686
600.201	62598
600.270	72146
600.340	74996
600.409	73611
600.478	71416
600.547	74643
600.617	68270
600.686	57819
600.755	52930
600.824	51529
600.894	50587
600.963	49330
601.032	48037
601.101	48316
601.170	45102
601.239	44723
601.308	45014
601.378	44956
601.447	44332
601.516	45680
601.585	45968
601.654	49254
601.723	46491
601.792	47309
601.861	48601
601.930	51569
601.999	51473
602.068	50877
602.137	52308
602.206	51943
602.275	53006
602.343	56199
602.412	53589
602.481	53080
602.550	51439
602.619	54869
602.688	54281
602.756	55080
602.825	54797
602.894	56420
602.963	57380
603.032	58166
603.100	57891
603.169	58176
603.238	57224
603.307	58713
603.375	58356
603.444	59866
603.513	60611
603.581	61452
603.650	62624
603.719	60948
603.787	61298
603.856	63939
603.924	65223
603.993	67248
604.061	67291
604.130	71772
604.198	73082
604.267	73849
604.335	74355
604.404	75405
604.472	75061
604.541	76847
604.609	78200
604.678	77594
604.746	77819
604.815	80728
604.883	81599
604.951	81788
605.020	82711
605.088	84090
605.156	85363
605.225	86801
605.293	85391
605.361	87041
605.429	87584
605.498	89538
605.566	92703
605.634	95395
605.702	97211
605.771	102512
605.839	101436
605.907	100773
605.975	95389
606.043	93922
606.111	94952
606.180	95353
606.248	93903
606.316	93114
606.384	93422
606.452	95297
606.520	98408
606.588	97959
606.656	96176
606.724	95476
606.792	89284
606.860	82060
606.928	74840
606.996	72023
607.064	69719
607.132	70553
607.200	75502
607.267	79283
607.335	79636
607.403	83140
607.471	79280
607.539	76566
607.607	77942
607.674	69756
607.742	69040
607.810	68726
607.878	68270
607.946	69116
608.013	72987
608.081	75401
608.149	76178
608.216	76610
608.284	79140
608.352	79666
608.419	77855
608.487	79551
608.555	76202
608.622	78595
608.690	82520
608.757	91508
608.825	93280
608.893	92144
608.960	88280
609.028	87444
609.095	85715
609.163	82422
609.230	73743
609.298	67508
609.365	70283
609.432	76062
609.500	81886
609.567	94601
609.635	109637
609.702	115367
609.769	112002
609.837	87936
609.904	74042
609.971	75525
610.039	86433
610.106	112146
610.173	206066
610.241	477302
610.308	323994
610.375	138538
610.442	87505
610.509	76696
610.577	76780
610.644	77702
610.711	79716
610.778	82535
610.845	83912
610.912	91081
610.980	94617
611.047	94092
611.114	92016
611.181	88905
611.248	87440
611.315	93587
611.382	95134
611.449	98999
611.516	100750
611.583	99102
611.650	98982
611.717	101129
611.784	101219
611.851	108546
611.918	116102
611.984	134536
612.051	189255
612.118	377051
612.185	921481
612.252	617905
612.319	162523
612.386	132241
612.452	120659
612.519	114446
612.586	114016
612.653	115708
612.719	116637
612.786	112649
612.853	103182
612.919	102333
612.986	102416
613.053	98292
613.120	92416
613.186	88227
613.253	90370
613.319	89662
613.386	89208
613.453	92111
613.519	93732
613.586	95775
613.652	102356
613.719	97652
613.785	96771
613.852	91918
613.918	90569
613.985	93381
614.051	97032
614.118	102775
614.184	99192
614.250	92381
614.317	94523
614.383	91534
614.449	92696
614.516	94048
614.582	93718
614.648	91209
614.715	90333
614.781	89474
614.847	88812
614.914	89115
614.980	86647
615.046	87701
615.112	89482
615.179	90966
615.245	94565
615.311	101128
615.377	119556
615.443	126936
615.509	101409
615.575	99122
615.642	96074
615.708	100599
615.774	106705
615.840	114060
615.906	125366
615.972	167035
616.038	276285
616.104	510883
616.170	1102378
616.236	977156
616.302	232768
616.368	166184
616.434	124288
616.500	114957
616.565	122158
616.631	149225
616.697	125547
616.763	128638
616.829	178347
616.895	315573
616.961	305508
617.026	138586
617.092	100759
617.158	96060
617.224	93720
617.289	87748
617.355	83492
617.421	81918
617.487	81868
617.552	79719
617.618	76310
617.684	77483
617.749	79554
617.815	75200
617.880	72421
617.946	74197
618.012	74847
618.077	76783
618.143	73607
618.208	73256
618.274	79837
618.339	82432
618.405	65995
618.470	66591
618.536	67497
618.601	67852
618.667	62929
618.732	59939
618.798	58057
618.863	58956
618.928	56159
618.994	59655
619.059	60131
619.124	67761
619.190	61446
619.255	56432
619.320	57065
619.386	57579
619.451	57112
619.516	54860
619.581	56271
619.647	57525
619.712	57375
619.777	56427
619.842	56924
619.907	57996
619.972	57548
620.038	58499
620.103	54899
620.168	56000
620.233	55314
620.298	56733
620.363	56291
620.428	59638
620.493	60154
620.558	60142
620.623	60600
620.688	61795
620.753	59771
620.818	61101
620.883	59963
620.948	60859
621.013	60773
621.078	60597
621.143	60530
621.207	62082
621.272	60712
621.337	62249
621.402	60702
621.467	62417
621.532	61402
621.596	61934
621.661	58476
621.726	56674
621.791	57972
621.855	59758
621.920	58236
621.985	59187
622.049	61167
622.114	60779
622.179	60136
622.243	63029
622.308	63201
622.373	68180
622.437	65143
622.502	62164
622.566	60820
622.631	60769
622.695	62706
622.760	61893
622.824	61671
622.889	64001
622.953	63620
623.018	75546
623.082	74446
623.147	65990
623.211	64417
623.276	64880
623.340	61463
623.404	60633
623.469	59016
623.533	60539
623.597	58042
623.662	58426
623.726	55519
623.790	52092
623.854	49581
623.919	52521
623.983	51831
624.047	53580
624.111	52929
624.176	56129
624.240	55635
624.304	59359
624.368	54340
624.432	55493
624.496	55830
624.560	59110
624.625	60802
624.689	58114
624.753	59188
624.817	57078
624.881	55913
624.945	52206
625.009	50198
625.073	51454
625.137	53441
625.201	60630
625.265	60188
625.329	53188
625.393	54424
625.456	54427
625.520	54757
625.584	57242
625.648	59784
625.712	66204
625.776	85560
625.839	89602
625.903	57780
625.967	46278
626.031	54974
626.095	71178
626.158	53491
626.222	42044
626.286	38150
626.349	37190
626.413	35115
626.477	38371
626.540	35460
626.604	35770
626.668	36067
626.731	35151
626.795	34353
626.858	35893
626.922	33456
626.986	34982
627.049	33416
627.113	36097
627.176	34005
627.240	33362
627.303	33541
627.366	33110
627.430	33317
627.493	33892
627.557	33610
627.620	35600
627.684	34233
627.747	35103
627.810	32112
627.874	31047
627.937	28113
628.000	31329
628.064	29571
628.127	26775
628.190	27730
628.253	27216
628.317	24534
628.380	24869
628.443	23572
628.506	24303
628.569	23090
628.632	22518
628.696	22661
628.759	22341
628.822	21146
628.885	20815
628.948	21801
629.011	21605
629.074	20726
629.137	19949
629.200	20583
629.263	22180
629.326	18587
629.389	19953
629.452	19079
629.515	19372
629.578	19350
629.641	20493
629.704	19994
629.767	20275
629.830	18703
629.892	19275
629.955	17854
630.018	20768
630.081	19571
630.144	22427
630.207	18899
630.269	21142
630.332	18575
630.395	18941
630.458	17416
630.520	17444
630.583	18541
630.646	18212
630.708	16871
630.771	17176
630.834	17680
630.896	18103
630.959	16314
631.021	17444
631.084	16897
631.146	19151
631.209	18851
631.272	17111
631.334	17228
631.397	17481
631.459	17483
631.522	19651
631.584	18804
631.646	19799
631.709	20467
631.771	23502
631.834	20545
631.896	19871
631.958	16039
632.021	19062
632.083	16404
632.145	17187
632.208	17007
632.270	17678
632.332	16147
632.395	15250
632.457	17071
632.519	17251
632.581	17534
632.643	16256
632.706	16222
632.768	15214
632.830	16281
632.892	16173
632.954	16056
633.016	17450
633.078	15819
633.141	16810
633.203	15259
633.265	17366
633.327	15680
633.389	15445
633.451	17166
633.513	19152
633.575	18648
633.637	17514
633.698	16719
633.760	17869
633.822	17394
633.884	18300
633.946	17057
634.008	18457
634.070	18036
634.132	19278
634.193	19364
634.255	21965
634.317	19741
634.379	21793
634.441	18067
634.502	17836
634.564	17008
634.626	15645
634.687	15479
634.749	15872
634.811	15537
634.873	15578
634.934	15302
634.996	16204
635.057	14340
635.119	15595
635.181	14813
635.242	15595
635.304	14073
635.365	17841
635.427	14101
635.488	16025
635.550	14772
635.611	15683
635.673	12842
635.734	17037
635.796	16239
635.857	18747
635.918	17468
635.980	20870
636.041	19024
636.102	21478
636.164	20905
636.225	22243
636.286	18327
636.348	17975
636.409	15611
636.470	14965
636.531	14586
636.593	16293
636.654	15225
636.715	14594
636.776	13781
636.838	13434
636.899	13708
636.960	13254
637.021	12992
637.082	12831
637.143	13397
637.204	11567
637.265	11540
637.326	12957
637.387	11624
637.448	12424
637.509	13414
637.570	12733
637.631	12136
637.692	11634
637.753	10149
637.814	12292
637.875	11952
637.936	12390
637.997	11665
638.058	12692
638.119	12335
638.179	11533
638.240	11651
638.301	12489
638.362	10371
638.423	10681
638.483	11882
638.544	10309
638.605	10658
638.666	10752
638.726	10992
638.787	11950
638.848	11056
638.908	11213
638.969	10899
639.030	10884
639.090	9193
639.151	10844
639.211	11719
639.272	14177
639.332	17640
639.393	13380
639.453	10366
639.514	12270
639.574	10470
639.635	10786
639.695	10277
639.756	9806
639.816	10900
639.877	11710
639.937	15558
639.997	19092
640.058	10200
640.118	9310
640.178	10133
640.239	9979
640.299	9254
640.359	10648
640.420	10137
640.480	11761
640.540	11162
640.600	12704
640.661	11245
640.721	10373
640.781	12928
640.841	10176
640.901	10395
640.961	12068
641.021	11188
641.082	11574
641.142	14069
641.202	12337
641.262	8061
641.322	10750
641.382	7811
641.442	9752
641.502	8476
641.562	9887
641.622	8757
641.682	9767
641.742	10093
641.802	10923
641.861	10133
641.921	9787
641.981	10763
642.041	9789
642.101	11815
642.161	9385
642.221	8113
642.280	9074
642.340	8341
642.400	8281
642.460	9506
642.519	9381
642.579	9124
642.639	9781
642.698	6543
642.758	11305
642.818	9255
642.877	9158
642.937	8916
642.997	10819
643.056	13583
643.116	9842
643.175	10181
643.235	9298
643.294	9687
643.354	10252
643.414	10899
643.473	13548
643.532	14585
643.592	21005
643.651	33453
643.711	60570
643.770	119971
643.830	292222
643.889	655358
643.948	159573
644.008	26771
644.067	17093
644.126	13129
644.186	12273
644.245	10142
644.304	8844
644.363	10050
644.423	8622
644.482	10071
644.541	10441
644.600	7990
644.659	13165
644.719	12850
644.778	21071
644.837	34096
644.896	70170
644.955	172036
645.014	58459
645.073	13591
645.132	11101
645.191	10977
645.250	9120
645.309	10566
645.368	11105
645.427	13819
645.486	19724
645.545	36032
645.604	13185
645.663	9038
645.722	9608
645.781	10514
645.840	11729
645.898	13699
645.957	20194
646.016	30062
646.075	57405
646.134	112270
646.192	302248
646.251	479164
646.310	70767
646.369	19288
646.427	15797
646.486	10527
646.545	11229
646.603	9186
646.662	9576
646.721	8758
646.779	8854
646.838	7486
646.896	11480
646.955	13677
647.014	21166
647.072	37546
647.131	108935
647.189	55634
647.248	11090
647.306	8044
647.365	8826
647.423	5277
647.481	9548
647.540	5112
647.598	7515
647.657	5715
647.715	7405
647.773	5311
647.832	7209
647.890	4866
647.948	6097
648.007	5918
648.065	5760
648.123	5173
648.181	7988
648.240	6554
648.298	5502
648.356	5207
648.414	6568
648.472	6089
648.531	6254
648.589	5546
648.647	5608
648.705	4780
648.763	6202
648.821	6373
648.879	6696
648.937	6774
648.995	8385
649.053	10147
649.111	15336
649.169	25678
649.227	46316
649.285	94410
649.343	290882
649.401	144171
649.459	27700
649.516	17309
649.574	9449
649.632	12592
649.690	13814
649.748	10770
649.806	15055
649.863	28433
649.921	75245
649.979	51393
650.037	8756
650.094	4474
650.152	5646
650.210	5023
650.268	6310
650.325	4968
650.383	6338
650.440	3862
650.498	5755
650.556	3785
650.613	4408
650.671	4214
650.728	5316
650.786	4670
650.843	6214
650.901	3115
650.958	5667
651.016	3954
651.073	5209
651.131	3302
651.188	3555
651.246	4245
651.303	3299
651.360	3846
651.418	4605
651.475	3784
651.532	4166
651.590	3227
651.647	2725
651.704	3547
651.762	3265
651.819	3798
651.876	3500
651.933	3696
651.990	4967
652.048	2271
652.105	3294
652.162	3962
652.219	4011
652.276	3343
652.333	3826
652.390	2584
652.448	3673
652.505	2717
652.562	3881
652.619	3520
652.676	4180
652.733	4620
652.790	3468
652.847	1875
652.904	4463
652.961	1714
653.017	3376
653.074	4088
653.131	4589
653.188	1644
653.245	3689
653.302	2734
653.359	3012
653.415	3518
653.472	2544
653.529	3168
653.586	2760
653.642	2250
653.699	3854
653.756	2586
653.813	3143
653.869	3740
653.926	3421
653.983	2398
654.039	3120
654.096	1530
654.152	4337
654.209	1739
654.266	3761
654.322	1950
654.379	3567
654.435	3693
654.492	3829
654.548	4370
654.605	7080
654.661	4578
654.717	3188
654.774	2955
654.830	3215
654.887	3507
654.943	3604
655.000	3397
655.056	4259
655.112	2743
655.168	2517
655.225	2682
655.281	3486
655.337	3388
655.394	4711
655.450	3426
655.506	4491
655.562	3632
655.618	5408
655.675	2665
655.731	2661
655.787	1700
655.843	3301
655.899	1736
655.955	3740
656.011	2478
656.067	1900
656.123	3848
656.179	2061
656.235	3560
656.291	1644
656.347	3168
656.403	3220
656.459	1764
656.515	4155
656.571	2610
656.627	3591
656.683	2389
656.739	3261
656.795	2686
656.850	3564
656.906	2847
656.962	4007
657.018	2737
657.074	3216
657.129	3564
657.185	5718
657.241	11130
657.297	7106
657.352	2739
657.408	3015
657.464	3273
657.519	3192
657.575	2014
657.630	2872
657.686	2609
657.742	2475
657.797	2583
657.853	3665
657.908	3203
657.964	2719
658.019	3014
658.075	3185
658.130	2903
658.186	1417
658.241	2372
658.297	1789
658.352	1852
658.407	3241
658.463	1895
658.518	3160
658.573	2744
658.629	1517
658.684	2230
658.739	2749
658.795	1672
658.850	2901
658.905	1860
658.960	2879
659.016	2248
659.071	2670
659.126	2699
659.181	2924
659.236	5546
659.291	6082
659.346	2821
659.401	3671
659.457	2694
659.512	2716
659.567	3598
659.622	3201
659.677	2531
659.732	1724
659.787	2046
659.842	2772
659.897	2915
659.952	3127
660.007	1436
660.061	2653
660.116	464
660.171	2271
660.226	1796
660.281	3106
660.336	1553
660.391	2914
660.445	1153
660.500	2343
660.555	2084
660.610	1785
660.664	2237
660.719	2305
660.774	1482
660.828	2535
660.883	2548
660.938	2528
660.992	1494
661.047	2775
661.101	1692
661.156	1877
661.211	1429
661.265	2530
661.320	2190
661.374	1725
661.429	1128
661.483	3152
661.538	839
661.592	2316
661.647	2168
661.701	3486
661.755	2003
661.810	3088
661.864	1983
661.919	2277
661.973	2702
662.027	1876
662.081	972
662.136	1716
662.190	2128
662.244	2995
662.299	2159
662.353	3065
662.407	1253
662.461	2086
662.515	2200
662.569	2000
662.624	2665
662.678	1720
662.732	1887
662.786	1780
662.840	2099
662.894	2123
662.948	2308
663.002	2388
663.056	1312
663.110	2184
663.164	1605
663.218	2655
663.272	984
663.326	2702
663.380	2293
663.434	1873
663.488	1104
663.542	2073
663.595	1755
663.649	2133
663.703	2392
663.757	1973
663.811	1374
663.864	1948
663.918	1466
663.972	2447
664.026	1764
664.079	1466
664.133	2471
664.187	2973
664.240	1510
664.294	2330
664.348	2446
664.401	2225
664.455	1381
664.508	2037
664.562	2127
664.615	3069
664.669	1321
664.722	2170
664.776	1227
664.829	2469
664.883	1230
664.936	2300
664.990	1746
665.043	3214
665.097	1104
665.150	3603
665.203	1989
665.257	1738
665.310	2643
665.363	2525
665.417	2199
665.470	2099
665.523	2126
665.576	1995
665.630	2312
665.683	2323
665.736	1137
665.789	2064
665.842	793
665.895	2713
665.949	2083
666.002	2356
666.055	1677
666.108	3099
666.161	1710
666.214	2198
666.267	2195
666.320	3505
666.373	2806
666.426	2860
666.479	2193
666.532	2638
666.585	1946
666.638	2352
666.691	1592
666.744	3476
666.796	1456
666.849	2549
666.902	2897
666.955	2634
667.008	2115
667.060	1910
667.113	1394
667.166	2507
667.219	2003
667.271	2394
667.324	1511
667.377	2031
667.430	2271
667.482	2541
667.535	2555
667.587	2519
667.640	1411
667.693	2880
667.745	4651
667.798	5843
667.850	2651
667.903	2390
667.955	1693
668.008	3031
668.060	2558
668.113	2086
668.165	2471
668.218	3231
668.270	1599
668.322	2744
668.375	1676
668.427	2388
668.479	1837
668.532	2720
668.584	1902
668.636	2206
668.689	1405
668.741	2132
668.793	2549
668.845	2331
668.898	2045
668.950	2952
669.002	1946
669.054	2335
669.106	1931
669.158	2888
669.211	2125
669.263	2337
669.315	2777
669.367	2237
669.419	1484
669.471	3593
669.523	2624
669.575	4183
669.627	2274
669.679	2228
669.731	2333
669.783	3287
669.835	2946
669.886	2766
669.938	2254
669.990	3302
670.042	2978
670.094	4113
670.146	3250
670.197	5182
670.249	4386
670.301	5576
670.353	8193
670.404	11510
670.456	17064
670.508	27624
670.560	47208
670.611	86516
670.663	154904
670.715	371101
670.766	600664
670.818	175324
670.869	29155
670.921	15809
670.972	10019
671.024	8167
671.075	6150
671.127	5136
671.178	4569
671.230	4397
671.281	3779
671.333	3624
671.384	2650
671.436	4380
671.487	4948
671.538	6930
671.590	8753
671.641	14073
671.692	24151
671.744	47984
671.795	30279
671.846	10381
671.897	5175
671.949	4772
672.000	2447
672.051	3115
672.102	3146
672.153	2506
672.204	2438
672.256	2561
672.307	1979
672.358	2609
672.409	1738
672.460	2595
672.511	832
672.562	2381
672.613	1189
672.664	1970
672.715	1730
672.766	1845
672.817	1076
672.868	2445
672.919	1663
672.970	1730
673.021	648
673.071	1285
673.122	1673
673.173	1720
673.224	1799
673.275	1667
673.326	630
673.376	693
673.427	1438
673.478	1717
673.528	1678
673.579	1398
673.630	1034
673.680	2477
673.731	867
673.782	1744
673.832	1078
673.883	1302
673.934	905
673.984	1793
674.035	1667
674.085	2480
674.136	1632
674.186	1580
674.237	948
674.287	2854
674.338	1399
674.388	2280
674.438	1429
674.489	1644
674.539	1510
674.589	2095
674.640	678
674.690	2190
674.740	1420
674.791	2115
674.841	1754
674.891	1690
674.942	184
674.992	1469
675.042	1152
675.092	965
675.142	460
675.193	2143
675.243	316
675.293	1141
675.343	403
675.393	1326
675.443	1482
675.493	1932
675.543	870
675.593	941
675.643	1571
675.693	2008
675.743	1193
675.793	2226
675.843	232
675.893	1515
675.943	1143
675.993	820
676.043	538
676.093	1081
676.142	331
676.192	1989
676.242	776
676.292	453
676.341	-22
676.391	1793
676.441	505
676.491	616
676.540	256
676.590	1271
676.640	1241
676.689	1053
676.739	126
676.789	348
676.838	157
676.888	1105
676.937	147
676.987	1224
677.037	840
677.086	1032
677.136	810
677.185	520
677.235	582
677.284	751
677.333	0
677.383	714
677.432	-70
677.482	797
677.531	1055
677.580	670
677.630	154
677.679	488
677.728	58
677.778	1093
677.827	1062
677.876	1235
677.925	1017
677.975	873
678.024	596
678.073	1169
678.122	158
678.171	1041
678.220	449
678.269	1430
678.319	431
678.368	1065
678.417	481
678.466	1400
678.515	1074
678.564	1621
678.613	1092
678.662	966
678.711	806
678.760	643
678.809	969
678.857	763
678.906	577
678.955	909
679.004	357
679.053	909
679.102	292
679.151	1122
679.199	528
679.248	1229
679.297	39
679.346	1318
679.394	-81
679.443	982
679.492	-204
679.540	1281
679.589	-210
679.638	894
679.686	1147
679.735	616
679.784	334
679.832	939
679.881	574
679.929	291
679.978	575
680.026	324
680.075	385
680.123	114
680.172	-64
680.220	767
680.268	530
680.317	333
680.365	584
680.414	600
680.462	173
680.510	1467
680.559	125
680.607	636
680.655	7
680.703	598
680.752	445
680.800	558
680.848	651
680.896	304
680.945	163
680.993	457
681.041	337
681.089	1224
681.137	709
681.185	223
681.233	-29
681.258	667
681.281	1290
681.329	776
681.377	832
681.380	831
681.425	114
681.473	1792
681.502	727
681.521	-81
681.569	1818
681.617	-105
681.624	81
681.665	1010
681.713	1038
681.745	1252
681.761	1285
681.809	1055
681.857	1661
681.867	1591
681.904	1233
681.952	1843
681.989	1580
682.000	1461
682.048	2004
682.096	1347
682.111	1496
682.143	1667
682.191	1106
682.233	3256
682.239	3540
682.286	958
682.334	1763
682.354	1856
682.382	1913
682.430	2563
682.476	1903
682.477	1855
682.525	2342
682.572	1696
682.598	2082
682.620	2379
682.667	2532
682.715	2701
682.720	2667
682.763	1983
682.810	3106
682.841	2606
682.857	2311
682.905	3708
682.952	2685
682.963	3005
683.000	3906
683.047	3062
683.085	3588
683.095	3714
683.142	2547
683.190	3878
683.206	3530
683.237	2846
683.284	3774
683.328	3237
683.332	3153
683.379	3891
683.426	3169
683.449	3682
683.473	4170
683.521	3415
683.568	4327
683.571	4280
683.615	3308
683.662	4749
683.693	3667
683.709	3030
683.757	4261
683.804	4567
683.814	4556
683.851	4499
683.898	5113
683.936	4690
683.945	4539
683.992	4690
684.039	5299
684.057	5312
684.086	5307
684.133	6316
684.179	4867
684.180	4794
684.227	6251
684.274	4598
684.300	5185
684.321	5646
684.368	5089
684.415	6378
684.422	6348
684.462	5905
684.509	5077
684.543	5144
684.556	5174
684.603	5457
684.649	5296
684.665	5521
684.696	5935
684.743	5641
684.786	5954
684.790	5967
684.837	5543
684.883	6691
684.908	6632
684.930	6514
684.977	6807
685.023	6429
685.029	6475
685.070	6501
685.117	6733
685.150	6817
685.164	6909
685.210	6251
685.257	7895
685.272	7703
685.303	7212
685.350	7367
685.393	7214
685.396	7191
685.443	8067
685.490	7963
685.514	8411
685.536	8650
685.583	7670
685.629	8256
685.636	8097
685.675	7169
685.722	8127
685.757	8230
685.768	8254
685.815	8014
685.861	8216
685.878	8342
685.908	8491
685.954	8335
686.000	8886
686.000	8893
686.047	8447
686.093	10030
686.121	9805
686.139	9313
686.185	9337
686.232	8203
686.242	8319
686.278	8881
686.324	8356
686.363	8617
686.370	8663
686.416	8702
686.463	8994
686.484	8573
686.509	8091
686.555	8939
686.601	8677
686.606	8652
686.647	8514
686.693	7991
686.727	8805
686.739	9096
686.785	8874
686.831	8998
686.848	8855
686.877	8521
686.923	8810
686.969	8537
686.969	8535
687.015	9118
687.061	8814
687.090	9451
687.107	9711
687.153	9190
687.199	9195
687.211	9074
687.245	8994
687.291	9207
687.332	9141
687.336	9137
687.382	9921
687.428	9833
687.453	10310
687.474	10516
687.520	9727
687.565	10144
687.574	9984
687.611	9681
687.657	9967
687.695	9720
687.702	9692
687.748	11401
687.794	11114
687.816	11451
687.839	11557
687.885	10337
687.931	10675
687.937	10609
687.976	10319
688.022	10147
688.058	10316
688.067	10432
688.113	10374
688.158	10737
688.179	11011
688.204	11222
688.249	10656
688.295	11344
688.300	11248
688.340	10633
688.386	11826
688.421	10912
688.431	10695
688.477	11142
688.522	11448
688.542	11577
688.567	11765
688.613	11649
688.658	12098
688.663	12068
688.703	11480
688.749	11513
688.784	10773
688.794	10660
688.839	11103
688.884	10557
688.905	10976
688.930	11505
688.975	11204
689.020	11513
689.026	11477
689.065	11358
689.110	11731
689.146	11762
689.155	11765
689.201	11646
689.246	11635
689.267	11534
689.291	11533
689.336	11901
689.381	11562
689.388	11621
689.426	11896
689.471	12189
689.509	11783
689.516	11711
689.561	12023
689.606	11736
689.630	11814
689.651	12024
689.696	11581
689.741	12156
689.750	12152
689.785	12106
689.830	12417
689.871	12064
689.875	12025
689.920	11951
689.965	11574
689.992	11780
690.010	12109
690.054	11670
690.099	12027
690.112	12117
690.144	12261
690.189	12454
690.233	11794
690.233	11808
690.278	11927
690.323	11736
690.354	11790
690.367	11963
690.412	12378
690.457	12623
690.474	12600
690.501	12251
690.546	12279
690.590	12042
690.595	11989
690.635	12151
690.680	12042
690.716	12296
690.724	12376
690.769	12566
690.813	13324
690.836	12921
690.857	12684
690.902	13776
690.946	13608
690.957	13761
690.991	14718
691.035	15362
691.077	16333
691.080	16388
691.124	16035
691.168	17148
691.198	17056
691.213	16715
691.257	16192
691.301	15422
691.318	15117
691.346	14744
691.390	13852
691.434	13366
691.439	13252
691.478	13292
691.522	13896
691.559	13664
691.567	13694
691.611	14559
691.655	14851
691.680	15057
691.699	15045
691.743	15235
691.787	15012
691.800	14945
691.831	14868
691.875	15109
691.919	14362
691.921	14357
691.964	15393
692.008	15123
692.041	15320
692.052	15368
692.096	15292
692.139	15293
692.162	15280
692.183	15291
692.227	15226
692.271	14562
692.282	14652
692.315	15268
692.359	15094
692.402	15581
692.403	15614
692.447	14951
692.490	15575
692.523	15324
692.534	15329
692.578	15890
692.622	15476
692.643	15785
692.666	16003
692.709	15515
692.753	15514
692.763	15358
692.797	15105
692.840	15396
692.884	14813
692.884	14843
692.928	15652
692.971	15185
693.004	15333
693.015	15449
693.059	15442
693.102	15978
693.124	15872
693.146	15845
693.189	16097
693.233	15825
693.245	15956
693.276	16293
693.320	16288
693.363	16031
693.365	15990
693.407	16150
693.450	16717
693.485	16683
693.493	16739
693.537	17007
693.580	17228
693.605	17608
693.624	17915
693.667	17650
693.710	18235
693.725	18214
693.753	19592
693.797	22055
693.840	24456
693.845	24678
693.883	24647
693.926	24486
693.966	24467
693.970	24332
694.013	21947
694.056	20336
694.086	18662
694.099	18512
694.142	18177
694.185	17950
694.206	17872
694.229	18001
694.272	17547
694.315	17877
694.326	17763
694.358	18076
694.401	18702
694.444	19329
694.446	19318
694.487	19455
694.530	19052
694.566	19135
694.573	19036
694.616	17961
694.659	16930
694.686	16227
694.702	16345
694.745	16714
694.787	16658
694.806	16762
694.830	16645
694.873	15941
694.916	15714
694.926	15547
694.959	15730
695.002	16011
695.044	16136
695.046	16120
695.087	17107
695.130	17601
695.166	18132
695.172	18135
695.215	17641
695.258	17601
695.286	17277
695.301	17278
695.343	17376
695.386	17107
695.406	17150
695.428	17369
695.471	17296
695.514	17572
695.526	17510
695.556	17486
695.599	17819
695.641	17711
695.646	17697
695.684	17825
695.726	17530
695.766	17553
695.769	17610
695.811	17394
695.854	17709
695.886	17529
695.896	17523
695.938	17677
695.981	17431
696.005	17460
696.023	17667
696.065	17886
696.108	18181
696.125	18176
696.150	18247
696.192	18624
696.235	18535
696.245	18626
696.277	18745
696.319	18076
696.361	17997
696.365	17925
696.404	18139
696.446	18312
696.485	18457
696.488	18515
696.530	18610
696.572	18766
696.604	18784
696.614	18729
696.656	18264
696.698	17716
696.724	17411
696.740	17517
696.783	17711
696.825	17778
696.844	17848
696.867	18159
696.909	18428
696.951	18905
696.964	18917
696.992	18616
697.034	18348
697.076	17945
697.083	17850
697.118	18295
697.160	18636
697.202	19093
697.203	19051
697.244	19013
697.286	19105
697.323	18922
697.327	18973
697.369	19204
697.411	19265
697.442	19300
697.453	19362
697.494	19335
697.536	19484
697.562	19417
697.578	19543
697.620	19856
697.661	20004
697.682	20079
697.703	20369
697.744	20855
697.786	21401
697.801	21471
697.828	21914
697.869	22654
697.911	23310
697.921	23431
697.952	22742
697.994	21674
698.035	20591
698.040	20408
698.077	20122
698.118	19734
698.160	19290
698.160	19233
698.201	19421
698.243	19443
698.279	19529
698.284	19629
698.325	19976
698.367	20376
698.399	20565
698.408	20567
698.449	20399
698.491	20182
698.518	19988
698.532	20087
698.573	20198
698.614	20315
698.638	20340
698.656	20415
698.697	20447
698.738	20488
698.757	20439
698.779	20406
698.820	20234
698.862	20080
698.877	19966
698.903	20432
698.944	21080
698.985	21733
698.996	21856
699.026	21582
699.067	21116
699.116	20503
699.235	19789
699.354	20461
699.474	19804
699.593	21712
699.713	21537
699.832	20380
699.951	22645
700.070	19990
700.190	20051
700.309	19737
700.428	20731
700.547	20713
700.667	19395
700.786	21187
700.905	19411
701.024	19821
701.143	19375
701.262	18776
701.381	18452
701.500	19862
701.619	21458
701.738	18398
701.857	18681
701.976	17958
702.095	18543
702.214	19846
702.333	20544
702.452	19241
702.571	18995
702.690	17950
702.809	18135
702.928	18137
703.047	18447
703.165	17695
703.284	17498
703.403	17487
703.522	17028
703.640	18133
703.759	20106
703.878	23626
703.997	18443
704.115	17942
704.234	17026
704.353	17243
704.471	16943
704.590	16203
704.708	16193
704.827	16626
704.946	16904
705.064	17315
705.183	16225
705.301	18385
705.420	22216
705.538	21193
705.656	19155
705.775	18185
705.893	22785
706.012	26209
706.130	19521
706.249	18880
706.367	18985
706.485	20009
706.604	18576
706.722	19809
706.840	21556
706.958	22659
707.077	20191
707.195	17446
707.313	17404
707.431	17798
707.549	16741
707.668	18121
707.786	18025
707.904	17234
708.022	16583
708.140	17281
708.258	16218
708.376	17534
708.494	17636
708.612	17623
708.730	22534
708.848	21990
708.966	21060
709.084	20205
709.202	19290
709.320	19577
709.438	18225
709.556	19440
709.674	19238
709.791	19051
709.909	18687
710.027	19278
710.145	18429
710.263	18596
710.380	17317
710.498	17974
710.616	18164
710.733	18241
710.851	18044
710.969	18752
711.086	17335
711.204	17554
711.322	17954
711.439	17027
711.557	17831
711.674	18158
711.792	17158
711.909	17204
712.027	17986
712.144	17431
712.262	17071
712.379	17779
712.497	21813
712.614	23701
712.732	20762
712.849	19852
712.966	20707
713.084	24448
713.201	21528
713.318	21159
713.436	19870
713.553	20637
713.670	19732
713.787	21955
713.905	22376
714.022	20993
714.139	20549
714.256	24183
714.373	27941
714.490	46006
714.608	97866
714.725	420266
714.842	540361
714.959	48870
715.076	24878
715.193	21721
715.310	20939
715.427	18202
715.544	18158
715.661	18205
715.778	16704
715.895	19417
716.011	19020
716.128	17482
716.245	17687
716.362	19890
716.479	21077
716.596	17562
716.713	16278
716.829	16206
716.946	16932
717.063	16528
717.180	15373
717.296	16554
717.413	15883
717.530	15317
717.646	15372
717.763	15005
717.880	14639
717.996	14619
718.113	15657
718.229	14755
718.346	13610
718.462	15582
718.579	18121
718.695	28619
718.812	22846
718.928	19599
719.045	15553
719.161	13820
719.277	14796
719.394	15116
719.510	15280
719.626	15209
719.743	18359
719.859	22745
719.975	35103
720.092	120187
720.208	321588
720.324	50179
720.440	17806
720.557	17874
720.673	23816
720.789	27353
720.905	45793
721.021	22978
721.137	13484
721.253	14456
721.369	13822
721.486	15813
721.602	19410
721.718	13437
721.834	12923
721.950	13760
722.066	12378
722.181	12826
722.297	13363
722.413	13062
722.529	12428
722.645	12477
722.761	12197
722.877	11977
722.993	11261
723.108	13725
723.224	13269
723.340	12378
723.456	12791
723.571	12015
723.687	11165
723.803	11906
723.918	11344
724.034	11416
724.150	11258
724.265	12500
724.381	19804
724.497	25239
724.612	11065
724.728	10652
724.843	10755
724.959	12759
725.074	18194
725.190	23193
725.305	12129
725.421	11230
725.536	10278
725.651	10681
725.767	11006
725.882	10848
725.997	10498
726.113	10039
726.228	10033
726.343	10398
726.459	10011
726.574	10804
726.689	10082
726.804	10455
726.920	9798
727.035	10204
727.150	10121
727.265	10477
727.380	10360
727.495	9517
727.610	9200
727.725	9739
727.841	10210
727.956	11777
728.071	12027
728.186	10203
728.301	8764
728.416	10633
728.531	10769
728.645	8884
728.760	9201
728.875	10717
728.990	9836
729.105	10490
729.220	9780
729.335	10469
729.449	9040
729.564	9583
729.679	8784
729.794	8948
729.908	9720
730.023	9147
730.138	8571
730.253	8732
730.367	8461
730.482	8264
730.596	8346
730.711	9414
730.826	10017
730.940	9667
731.055	9298
731.169	8223
731.284	9284
731.398	8397
731.513	10010
731.627	9892
731.742	10933
731.856	11528
731.970	10782
732.085	12900
732.199	15299
732.313	23721
732.428	53761
732.542	150912
732.656	104251
732.771	22085
732.885	13304
732.999	12064
733.113	12012
733.227	11130
733.342	10555
733.456	10372
733.570	9404
733.684	10243
733.798	9547
733.912	9584
734.026	8325
734.140	8859
734.254	10070
734.368	13499
734.482	16194
734.596	8932
734.710	9753
734.824	9500
734.938	8427
735.052	9610
735.166	10046
735.280	9283
735.393	8302
735.507	9504
735.621	9913
735.735	14769
735.849	10031
735.962	8755
736.076	8838
736.190	8713
736.303	10157
736.417	13559
736.531	9178
736.644	9143
736.758	8048
736.872	7917
736.985	8365
737.099	7759
737.212	7132
737.326	8263
737.439	7883
737.553	8018
737.666	8168
737.780	7387
737.893	7174
738.007	7977
738.120	6966
738.233	7430
738.347	8125
738.460	8165
738.573	7979
738.687	7171
738.800	7770
738.913	9948
739.026	8597
739.140	7907
739.253	6741
739.366	7860
739.479	7284
739.592	6932
739.705	6765
739.818	7793
739.932	7282
740.045	8471
740.158	7127
740.271	6903
740.384	7590
740.497	7444
740.610	7467
740.723	8543
740.836	7252
740.949	8088
741.062	9819
741.174	9433
741.287	7105
741.400	6944
741.513	6344
741.626	7112
741.739	7459
741.851	8018
741.964	6865
742.077	7404
742.189	6739
742.302	7858
742.415	7108
742.527	7041
742.640	6388
742.753	6658
742.865	6371
742.978	6764
743.090	6680
743.203	6494
743.316	6468
743.428	6158
743.541	6306
743.653	6640
743.766	6033
743.878	6244
743.990	6547
744.103	7800
744.215	6723
744.327	6905
744.440	7379
744.552	11220
744.664	7417
744.777	7090
744.889	5514
745.001	6995
745.113	6168
745.226	6155
745.338	5764
745.450	6419
745.562	6018
745.674	5938
745.786	5590
745.898	5421
746.010	6144
746.122	5933
746.234	7411
746.347	6653
746.459	5509
746.570	5866
746.682	6415
746.794	5679
746.906	5205
747.018	5952
747.130	6080
747.242	5274
747.354	4886
747.466	6999
747.577	6598
747.689	5982
747.801	5361
747.913	5428
748.024	5057
748.136	5517
748.248	5297
748.359	5674
748.471	4918
748.583	5270
748.694	5616
748.806	6468
748.918	6480
749.029	6008
749.141	5904
749.252	5881
749.364	6835
749.475	12462
749.587	8569
749.698	5678
749.809	5604
749.921	5070
750.032	4850
750.144	4645
750.255	4454
750.366	5581
750.478	5291
750.589	5713
750.700	5481
750.811	5940
750.923	6943
751.034	12892
751.145	14220
751.256	5399
751.367	5190
751.479	5459
751.590	4900
751.701	5430
751.812	4633
751.923	5475
752.034	5298
752.145	4706
752.256	5020
752.367	4598
752.478	5146
752.589	4968
752.700	4834
752.811	4588
752.922	4840
753.032	5102
753.143	6406
753.254	5214
753.365	5074
753.476	5880
753.586	4198
753.697	4905
753.808	4304
753.919	4100
754.029	4881
754.140	4831
754.251	4576
754.361	4638
754.472	5180
754.582	5106
754.693	4477
754.804	4687
754.914	4222
755.025	4423
755.135	3766
755.246	5501
755.356	4394
755.466	4433
755.577	5224
755.687	4165
755.798	4678
755.908	4563
756.018	3296
756.129	4328
756.239	4362
756.349	3795
756.460	4340
756.570	4976
756.680	3912
756.790	4046
756.900	6263
757.011	4147
757.121	3831
757.231	4208
757.341	4430
757.451	3791
757.561	4351
757.671	4268
757.781	3415
757.891	5514
758.001	4001
758.111	4960
758.221	5117
758.331	6140
758.441	5173
758.551	5891
758.661	6293
758.771	5372
758.880	5152
758.990	5049
759.100	4597
759.210	4565
759.320	4433
759.429	4190
759.539	4333
759.649	4792
759.758	4555
759.868	5811
759.978	5157
760.087	6419
760.197	5794
760.307	5874
760.416	5343
760.526	4528
760.635	5161
760.745	5452
760.854	5515
760.964	6207
761.073	5215
761.182	5204
761.292	5563
761.401	5731
761.511	5077
761.620	4952
761.729	5420
761.839	5402
761.948	5352
762.057	5500
762.166	4461
762.276	3627
762.385	5435
762.494	4725
762.603	5151
762.712	4562
762.822	4602
762.931	4949
763.040	4289
763.149	4156
763.258	3825
763.367	4999
763.476	4765
763.585	4764
763.694	5506
763.803	6293
763.912	5329
764.021	5104
764.130	4599
764.238	5980
764.347	5368
764.456	5731
764.565	4879
764.674	5994
764.783	6013
764.891	5579
765.000	6446
765.109	6030
765.217	5931
765.326	7515
765.435	8399
765.543	9255
765.652	9586
765.761	11281
765.869	16785
765.978	24110
766.086	39303
766.195	77201
766.303	189449
766.412	528335
766.520	538914
766.629	163034
766.737	55450
766.846	30935
766.954	20859
767.062	16887
767.171	13856
767.279	10505
767.387	9232
767.496	8462
767.604	8022
767.712	7338
767.820	6971
767.928	6723
768.037	6043
768.145	6605
768.253	6364
768.361	5397
768.469	4746
768.577	5197
768.685	6357
768.793	7177
768.901	6507
769.009	6918
769.117	7031
769.225	8722
769.333	12861
769.441	16828
769.549	30409
769.657	66027
769.765	207449
769.873	491497
769.981	215117
770.088	45395
770.196	20663
770.304	14424
770.412	11523
770.519	8725
770.627	7497
770.735	7205
770.842	6865
770.950	6772
771.058	6130
771.165	6094
771.273	4914
771.380	5284
771.488	5458
771.595	6032
771.703	4963
771.810	5450
771.918	4619
772.025	5509
772.133	5481
772.240	4939
772.348	5968
772.455	5635
772.562	5206
772.670	5280
772.777	5808
772.884	5583
772.991	4965
773.099	4731
773.206	4534
773.313	5574
773.420	5535
773.528	3766
773.635	4584
773.742	6073
773.849	5898
773.956	5111
774.063	4531
774.170	4355
774.277	5333
774.384	5299
774.491	4427
774.598	5085
774.705	4523
774.812	6829
774.919	4757
775.026	4961
775.133	4153
775.239	4052
775.346	4175
775.453	4796
775.560	4355
775.667	5390
775.773	4074
775.880	4819
775.987	4516
776.093	4999
776.200	5148
776.307	4232
776.413	4002
776.520	4854
776.627	4220
776.733	3967
776.840	3074
776.946	6169
777.053	4616
777.159	4535
777.266	3382
777.372	5235
777.478	3740
777.585	3562
777.691	4152
777.798	3814
777.904	5583
778.010	6730
778.117	5834
778.223	4139
778.329	3308
778.435	2982
778.542	4465
778.648	3821
778.754	3407
778.860	3785
778.966	3712
779.072	3704
779.178	4102
779.284	4236
779.391	3819
779.497	3034
779.603	4865
779.708	3690
779.815	5677
779.920	8155
780.026	16081
780.132	5889
780.238	3259
780.344	4147
780.450	4226
780.556	3655
780.661	2322
780.767	5059
780.873	4278
780.979	4362
781.085	3233
781.190	3933
781.296	2935
781.402	3726
781.507	3773
781.613	4025
781.719	2827
781.824	3953
781.930	2513
782.035	2942
782.141	4273
782.246	2367
782.352	3273
782.457	2989
782.563	3394
782.668	3103
782.773	3407
782.879	3555
782.984	3383
783.090	3950
783.195	6565
783.300	5189
783.405	3858
783.511	3238
783.616	3753
783.721	4040
783.826	3208
783.932	3863
784.037	4491
784.142	3507
784.247	2760
784.352	3310
784.457	3824
784.562	3863
784.667	3137
784.772	3301
784.877	2799
784.982	3963
785.087	3016
785.192	3524
785.297	2652
785.402	2910
785.507	3660
785.611	3939
785.716	2990
785.821	2730
785.926	2518
786.031	4021
786.135	3210
786.240	2779
786.345	3263
786.450	3106
786.554	3781
786.659	2436
786.763	1557
786.868	3454
786.973	3129
787.077	3002
787.182	3332
787.286	3057
787.391	3709
787.495	1992
787.600	2471
787.704	2655
787.809	3070
787.913	2424
788.017	3460
788.122	3663
788.226	2951
788.330	2672
788.435	2672
788.539	3016
788.643	2396
788.747	3069
788.852	2202
788.956	2418
789.060	2671
789.164	2878
789.268	2311
789.372	2952
789.476	2976
789.580	2477
789.684	2353
789.788	2839
789.892	1592
789.996	2797
790.100	2086
790.204	1878
790.308	3161
790.412	2108
790.516	2887
790.620	1669
790.724	2331
790.828	3320
790.931	2220
791.035	4132
791.139	2016
791.242	1211
791.346	3162
791.450	2145
791.554	1731
791.657	2248
791.761	2738
791.864	2867
791.968	2823
792.072	3148
792.175	3031
792.279	2359
792.382	2309
792.486	2283
792.589	1992
792.693	2907
792.796	1537
792.899	3363
793.003	2773
793.106	1670
793.209	1927
793.313	3662
793.416	1384
793.519	3072
793.623	4326
793.726	5460
793.829	3332
793.932	2653
794.035	1419
794.138	2879
794.242	3805
794.345	3425
794.448	3144
794.551	3971
794.654	6857
794.757	8809
794.860	4447
794.963	2967
795.066	1502
795.169	2614
795.272	1630
795.375	2308
795.477	2246
795.580	1686
795.683	1218
795.786	2460
795.889	1802
795.991	2871
796.094	2732
796.197	1770
796.300	3093
796.402	1742
796.505	1496
796.608	2523
796.710	2221
796.813	1937
796.915	2230
797.018	2150
797.120	2122
797.223	1211
797.326	3439
797.428	2338
797.530	2233
797.633	2307
797.735	2988
797.838	4137
797.940	4540
798.042	1431
798.145	1198
798.247	2786
798.349	1228
798.452	2669
798.554	1964
798.656	1205
798.758	2888
798.860	2145
798.962	2039
799.065	2276
799.167	1159
799.269	3114
799.371	3143
799.473	3224
799.575	1673
799.677	3585
799.779	3940
799.881	4517
799.983	3922
800.085	2247
800.187	2025
800.289	1768
800.390	2037
800.492	1277
800.594	3205
800.696	2426
800.798	2222
800.899	1354
801.001	1695
801.103	1810
801.205	1476
801.306	2371
801.408	1150
801.509	3132
801.611	1525
801.713	2026
801.814	1229
801.916	2207
802.017	1594
802.119	683
802.220	1717
802.322	192
802.423	3010
802.525	1973
802.626	2172
802.727	2135
802.829	2027
802.930	-366
803.031	2903
803.133	1960
803.234	1935
803.335	2493
803.436	884
803.538	1823
803.639	930
803.740	1505
803.841	1652
803.942	1537
804.043	2569
804.144	1647
804.245	1712
804.346	2003
804.447	2040
804.548	3417
804.649	3541
804.750	1745
804.851	994
804.952	994
805.053	2008
805.154	1015
805.255	1968
805.355	2002
805.456	1311
805.557	1435
805.658	1232
805.758	2223
805.859	1259
805.960	1462
806.061	1499
806.161	722
806.262	946
806.362	1254
806.463	1391
806.564	2177
806.664	1337
806.765	1610
806.865	2854
806.966	1920
807.066	1417
807.166	2226
807.267	1615
807.367	1122
807.468	1460
807.568	917
807.668	2166
807.769	2846
807.869	924
807.969	1387
808.069	1644
808.170	1929
808.270	1064
808.370	1494
808.470	2928
808.570	1920
808.670	1527
808.770	2118
808.870	1517
808.970	2262
809.070	1483
809.170	1368
809.271	1541
809.370	1837
809.470	1379
809.570	808
809.670	1716
809.770	1699
809.870	1928
809.970	1885
810.070	1313
810.169	1880
810.269	-526
810.369	3008
810.469	1331
810.568	1783
810.668	1539
810.768	1471
810.867	1061
810.967	1821
811.066	1035
811.166	1464
811.265	1797
811.365	1566
811.464	1009
811.564	1987
811.663	3127
811.763	724
811.862	1657
811.962	1739
812.061	1198
812.160	1750
812.260	2190
812.359	1687
812.458	1885
812.557	5528
812.657	9675
812.756	5536
812.855	2061
812.954	969
813.053	2316
813.153	1895
813.252	1072
813.351	2392
813.450	2052
813.549	1796
813.648	1475
813.747	2495
813.846	2309
813.945	2386
814.044	1534
814.143	2275
814.242	2192
814.341	1530
814.439	1895
814.538	3220
814.637	1645
814.736	3115
814.835	2658
814.933	2056
815.032	3509
815.131	2597
815.229	3074
815.328	4205
815.427	2845
815.525	3393
815.624	3071
815.722	3255
815.821	3783
815.919	3874
816.018	3373
816.116	4516
816.215	3899
816.313	4115
816.412	3776
816.510	4539
816.609	6074
816.707	5673
816.805	5653
816.904	5517
817.002	7290
817.100	8326
817.198	8496
817.296	8698
817.395	10162
817.493	12749
817.591	13776
817.689	19522
817.787	25344
817.885	37561
817.983	61482
818.081	118222
818.179	251930
818.277	526288
818.375	542415
818.473	236867
818.571	103704
818.669	63877
818.767	52933
818.865	50192
818.963	57058
819.061	76336
819.158	120057
819.256	213372
819.354	413819
819.452	708823
819.549	606194
819.647	297976
819.745	144112
819.842	85003
819.940	57667
820.038	41442
820.135	32338
820.233	25137
820.330	18961
820.428	15701
820.525	15567
820.623	12548
820.720	10404
820.818	10781
820.915	9798
821.012	8715
821.110	7201
821.207	7848
821.304	6369
821.402	6287
821.499	6337
821.596	5229
821.693	5828
821.791	5250
821.888	5057
821.985	8608
822.082	7333
822.179	5135
822.276	3885
822.373	4339
822.470	3637
822.567	2854
822.664	2958
822.761	4196
822.858	2543
822.955	2991
823.052	2324
823.149	2686
823.246	3164
823.343	2663
823.440	3086
823.536	2407
823.633	1727
823.730	2781
823.827	2507
823.923	2650
824.020	3676
824.117	2289
824.213	1499
824.310	3273
824.407	1837
824.503	2699
824.600	2078
824.696	1388
824.793	2679
824.889	2212
824.986	1599
825.082	2210
825.179	2078
825.275	2462
825.371	1615
825.468	1916
825.564	802
825.660	2506
825.757	1578
825.853	3080
825.949	1412
826.045	1748
826.142	1163
826.238	1731
826.334	1879
826.430	1300
826.526	2324
826.622	1433
826.718	1705
826.814	1524
826.910	2494
827.006	1077
827.102	1057
827.198	2060
827.294	1780
827.390	1168
827.486	2683
827.582	659
827.678	322
827.774	2654
827.869	404
827.965	2681
828.061	1802
828.157	1585
828.252	1899
828.348	502
828.444	1613
828.539	366
828.635	1729
828.731	1993
828.826	959
828.922	2049
829.017	831
829.113	1645
829.208	687
829.304	1185
829.399	3829
829.495	1074
829.590	2117
829.685	1012
829.781	1788
829.876	1136
829.971	337
830.066	1000
830.162	670
830.257	882
830.352	1968
830.447	2253
830.543	1294
830.638	550
830.733	2363
830.828	933
830.923	1401
831.018	1049
831.113	1380
831.208	1501
831.303	720
831.398	1199
831.493	938
831.588	2430
831.683	444
831.778	1572
831.873	946
831.967	2082
832.062	105
832.157	501
832.252	1914
832.346	1784
832.441	2104
832.536	3074
832.631	6306
832.725	6553
832.820	1258
832.914	1362
833.009	731
833.104	1351
833.198	2383
833.293	73
833.387	1705
833.482	898
833.576	651
833.670	1679
833.765	1125
833.859	1121
833.954	998
834.048	787
834.142	1117
834.237	918
834.331	1214
834.425	712
834.519	-139
834.613	1823
834.708	1386
834.802	816
834.896	282
834.990	1237
835.084	1320
835.178	1032
835.272	883
835.366	893
835.460	1342
835.554	1430
835.648	786
835.742	811
835.836	629
835.930	57
836.024	1371
836.117	1831
836.211	782
836.305	1373
836.399	2017
836.493	306
836.586	1527
836.680	414
836.774	-622
836.867	1770
836.961	-135
837.055	-114
837.148	596
837.242	1109
837.335	470
837.429	1336
837.522	550
837.616	1234
837.709	1905
837.803	1750
837.896	1515
837.989	922
838.083	1434
838.176	2791
838.269	2401
838.363	1819
838.456	382
838.549	2297
838.642	3474
838.735	8548
838.829	3790
838.922	252
839.015	1035
839.108	705
839.201	1048
839.294	417
839.387	1048
839.480	401
839.573	1553
839.666	2201
839.759	627
839.852	315
839.945	653
840.038	286
840.131	-334
840.223	1055
840.316	1547
840.409	232
840.502	367
840.594	1287
840.687	-307
840.780	251
840.873	533
840.965	1063
841.058	1555
841.150	1950
841.243	1570
841.336	1053
841.428	743
841.521	376
841.613	228
841.706	920
841.798	322
841.890	493
841.983	-514
842.075	1708
842.167	761
842.260	1381
842.352	1107
842.444	1897
842.537	2412
842.629	5179
842.721	1667
842.813	1427
842.905	-126
842.997	1159
843.090	554
843.182	884
843.274	2539
843.366	6183
843.458	11827
843.550	10453
843.642	1265
843.734	1224
843.826	1098
843.918	1404
844.009	1462
844.101	27
844.193	740
844.285	570
844.377	1089
844.469	917
844.560	1499
844.652	775
844.744	944
844.835	1024
844.927	1219
845.019	695
845.110	603
845.202	1263
845.293	424
845.385	412
845.476	891
845.568	1051
845.659	248
845.751	924
845.842	-715
845.934	-434
846.025	286
846.116	512
846.208	304
846.299	403
846.390	432
846.482	-2
846.573	1193
846.664	2023
846.755	1657
846.846	3328
846.937	-962
847.029	574
847.120	-217
847.211	549
847.302	651
847.393	-538
847.484	744
847.575	1074
847.666	-36
847.757	400
847.847	758
847.938	1141
848.029	522
848.120	142
848.211	124
848.302	428
848.392	404
848.483	921
848.574	-218
848.664	726
848.755	1027
848.846	766
848.936	39
849.027	604
849.118	-19
849.208	410
849.299	885
849.389	2224
849.480	4037
849.570	7952
849.661	14454
849.751	28565
849.841	12320
849.932	1356
850.022	280
850.112	1491
850.203	115
850.293	245
850.383	876
850.474	130
850.564	-10
850.654	963
850.744	16
850.834	535
850.924	559
851.014	948
851.104	115
851.194	1528
851.284	861
851.374	2008
851.464	1133
851.554	1188
851.644	-604
851.734	903
851.824	1416
851.914	-191
852.004	1141
852.094	628
852.183	177
852.273	598
852.363	331
852.452	890
852.542	377
852.632	526
852.721	192
852.811	398
852.901	598
852.990	295
853.080	666
853.169	646
853.259	107
853.348	878
853.438	923
853.527	2748
853.617	2826
853.706	5917
853.795	11402
853.885	26824
853.974	48972
854.063	85557
854.152	151140
854.242	69934
854.331	12229
854.420	5186
854.509	3365
854.598	3568
854.687	2484
854.777	1738
854.866	716
854.955	1398
855.044	308
855.133	699
855.222	352
855.311	-493
855.400	347
855.488	724
855.577	846
855.666	1197
855.755	1324
855.844	215
855.933	145
856.021	340
856.110	498
856.199	-813
856.288	-222
856.376	463
856.465	397
856.554	382
856.642	-8
856.731	768
856.819	-436
856.908	919
856.996	-396
857.085	-86
857.173	342
857.262	190
857.350	-14
857.438	665
857.527	375
857.615	689
857.703	316
857.792	-16
857.880	-102
857.968	335
858.056	935
858.145	491
858.233	-22
858.321	-286
858.409	210
858.497	-237
858.585	433
858.673	1042
858.761	70
858.849	-86
858.937	-308
859.025	-143
859.113	423
859.201	-737
859.289	648
859.377	-400
859.465	-35
859.552	86
859.640	215
859.728	354
859.816	-523
859.903	-76
859.991	-287
860.079	-176
860.166	-487
860.254	168
860.342	541
860.429	-448
860.517	-821
860.604	541
860.692	665
860.779	486
860.867	-316
860.954	592
861.042	981
861.129	838
861.216	309
861.304	-482
861.391	316
861.478	211
861.565	593
861.653	1204
861.740	-761
861.827	46
861.914	155
862.001	-896
862.089	639
862.176	1102
862.263	-77
862.350	380
862.437	407
862.524	209
862.611	211
862.698	762
862.785	275
862.871	1420
862.958	-391
863.045	953
863.132	-351
863.219	682
863.306	-944
863.392	1083
863.479	309
863.566	917
863.652	152
863.739	666
863.826	463
863.912	-88
863.999	-645
864.086	244
864.172	101
864.259	764
864.345	7
864.432	853
864.518	703
864.604	736
864.691	452
864.777	298
864.863	609
864.950	1769
865.036	-103
865.122	1802
865.209	2139
865.295	2235
865.381	1311
865.467	1494
865.553	3107
865.639	3378
865.726	6710
865.812	12051
865.898	24591
865.984	38166
866.070	65903
866.156	86120
866.242	26595
866.328	6223
866.414	3413
866.499	3292
866.585	1897
866.671	1572
866.757	1135
866.843	1700
866.928	1277
867.014	1420
867.100	1602
867.186	1563
867.271	2071
867.357	1642
867.442	2142
867.528	1858
867.614	752
867.699	1033
867.785	833
867.870	1139
867.956	1132
868.041	1242
868.127	1225
868.212	1657
868.297	955
868.383	1686
868.468	2448
868.553	3962
868.639	4589
868.724	8002
868.809	8657
868.894	1738
868.979	1892
869.065	1405
869.150	591
869.235	1295
869.320	-101
869.405	280
869.490	762
869.575	1506
869.660	589
869.745	372
869.830	-55
869.915	754
870.000	264
870.085	892
870.169	883
870.254	876
870.339	77
870.424	208
870.509	929
870.593	1001
870.678	927
870.763	588
870.847	348
870.932	33
871.016	1111
871.101	428
871.186	242
871.270	58
871.355	423
871.439	1340
871.523	339
871.608	-61
871.692	-447
871.777	1346
871.861	448
871.945	736
872.030	-125
872.114	665
872.198	59
872.282	400
872.367	511
872.451	295
872.535	127
872.619	-22
872.703	735
872.787	471
872.871	231
872.955	421
873.039	157
873.123	-394
873.207	1275
873.291	297
873.375	151
873.459	483
873.543	127
873.627	468
873.711	173
873.794	1314
873.878	323
873.962	322
874.045	415
874.129	928
874.137	829
874.213	-160
874.245	202
874.296	797
874.352	472
874.380	302
874.460	926
874.464	953
874.547	394
874.568	335
874.631	150
874.676	307
874.714	444
874.784	594
874.798	625
874.881	1553
874.892	1342
874.965	-122
874.999	-157
875.048	-238
875.107	360
875.131	624
875.215	112
875.215	112
875.298	-656
875.323	-638
875.381	-497
875.430	458
875.465	1062
875.538	235
875.548	134
875.631	-360
875.646	-402
875.714	-600
875.753	-110
875.798	470
875.861	490
875.881	480
875.964	81
875.968	82
876.047	63
876.076	-12
876.130	-98
876.183	-201
876.213	-242
876.291	480
876.296	523
876.379	463
876.398	417
876.462	260
876.506	88
876.545	-62
876.613	544
876.628	672
876.711	175
876.721	202
876.794	432
876.828	437
876.877	479
876.935	495
876.960	468
877.043	355
877.043	355
877.125	536
877.150	521
877.208	406
877.258	551
877.291	732
877.365	469
877.374	422
877.456	502
877.472	444
877.539	284
877.579	619
877.622	887
877.687	779
877.704	796
877.787	599
877.794	583
877.869	199
877.901	297
877.952	489
878.008	644
878.034	729
878.115	-88
878.117	-104
878.199	-38
878.222	173
878.282	663
878.329	527
878.364	474
878.437	1029
878.447	1076
878.529	8
878.544	67
878.611	498
878.651	364
878.694	282
878.758	524
878.776	576
878.858	407
878.865	435
878.941	440
878.972	78
879.023	-288
879.078	-213
879.105	-188
879.185	41
879.187	46
879.269	621
879.292	480
879.351	86
879.399	187
879.433	270
879.506	222
879.516	206
879.598	683
879.613	580
879.680	248
879.720	482
879.762	671
879.827	-187
879.844	-420
879.926	68
879.933	105
880.007	492
880.040	586
880.089	909
880.147	1166
880.171	1196
880.253	2925
880.254	2935
880.335	4074
880.360	4489
880.417	5800
880.467	8581
880.499	10677
880.574	14685
880.580	14747
880.662	5920
880.680	4632
880.744	1157
880.787	669
880.825	377
880.893	475
880.907	495
880.989	20
881.000	65
881.070	684
881.106	670
881.152	554
881.213	374
881.233	232
881.315	350
881.319	331
881.396	411
881.426	290
881.478	-129
881.532	-198
881.559	-90
881.639	-116
881.641	-118
881.722	436
881.745	482
881.803	497
881.852	289
881.885	106
881.958	131
881.966	150
882.047	434
882.064	348
882.129	102
882.171	350
882.210	531
882.277	1387
882.291	1601
882.372	757
882.383	759
882.454	428
882.489	210
882.535	-38
882.596	-218
882.616	-245
882.697	-332
882.702	-322
882.778	319
882.808	488
882.859	234
882.914	-78
882.940	-156
883.020	-604
883.021	-600
883.102	-109
883.127	113
883.183	416
883.233	410
883.264	353
883.339	613
883.345	619
883.426	46
883.445	72
883.507	327
883.551	347
883.587	357
883.657	309
883.668	309
883.749	287
883.763	279
883.830	-2
883.869	-261
883.910	-249
883.975	61
883.991	120
884.072	223
884.081	264
884.152	281
884.187	48
884.233	-182
884.292	-113
884.314	-39
884.394	-69
884.398	-55
884.475	-158
884.504	-294
884.555	-286
884.610	-235
884.636	-324
884.716	-581
884.716	-580
884.797	-147
884.821	-135
884.877	-243
884.927	-226
884.958	-207
885.033	-172
885.038	-169
885.118	53
885.139	40
885.199	-238
885.244	-266
885.279	-210
885.350	-373
885.359	-391
885.439	-464
885.456	-502
885.520	-153
885.561	240
885.600	192
885.667	48
885.680	36
885.760	-151
885.773	-237
885.840	-403
885.878	-207
885.920	-72
885.984	-215
886.000	-278
886.080	-155
886.089	-177
886.160	-362
886.195	-401
886.240	-175
886.300	231
886.320	281
886.400	169
886.406	167
886.480	318
886.511	414
886.560	335
886.616	96
886.640	125
886.720	427
886.722	430
886.800	54
886.827	3
886.879	183
886.932	113
886.959	238
887.038	965
887.039	962
887.119	302
887.143	148
887.198	200
887.248	140
887.278	116
887.354	81
887.358	68
887.437	-264
887.459	-338
887.517	326
887.564	881
887.596	891
887.669	905
887.676	880
887.755	462
887.774	351
887.835	201
887.880	175
887.914	350
887.985	524
887.994	462
888.073	-13
888.090	-107
888.153	230
888.195	408
888.232	186
888.300	-229
888.311	-164
888.391	402
888.405	485
888.470	129
888.510	-113
888.549	-222
888.615	-264
888.628	-212
888.708	-25
888.720	14
888.787	122
888.825	170
888.866	278
888.930	478
888.945	507
889.024	648
889.035	661
889.103	340
889.140	173
889.182	442
889.245	901
889.261	702
889.340	-331
889.349	-442
889.419	182
889.454	488
889.498	509
889.559	558
889.577	578
889.656	659
889.664	669
889.735	217
889.768	2
889.814	-83
889.873	-188
889.978	86
890.083	1092
890.187	-292
890.292	-403
890.397	22
890.501	1170
890.606	-63
890.710	705
890.815	587
890.919	221
891.024	-61
891.128	182
891.233	408
891.337	185
891.442	468
891.546	232
891.650	796
891.755	564
891.859	1725
891.963	310
892.068	-250
892.172	-508
892.276	194
892.380	608
892.484	-273
892.589	938
892.693	157
892.797	179
892.901	557
893.005	-122
893.109	50
893.213	635
893.317	237
893.421	734
893.525	146
893.629	-359
893.733	819
893.837	255
893.941	-414
894.045	913
894.148	-18
894.252	767
894.356	327
894.460	902
894.564	501
894.667	31
894.771	262
894.875	-191
894.978	298
895.082	711
895.186	292
895.289	1218
895.393	-486
895.496	911
895.600	-82
895.703	81
895.807	396
895.910	129
896.014	-234
896.117	980
896.221	290
896.324	-307
896.427	-350
896.531	-2
896.634	305
896.737	529
896.840	-243
896.944	767
897.047	-123
897.150	121
897.253	-898
897.356	594
897.460	284
897.563	493
897.666	104
897.769	36
897.872	635
897.975	682
898.078	264
898.181	300
898.284	-256
898.387	1059
898.490	748
898.593	908
898.695	-273
898.798	843
898.901	799
899.004	270
899.107	492
899.209	-465
899.312	823
899.415	-185
899.518	-140
899.620	54
899.723	-334
899.826	-284
899.928	-61
900.031	457
900.133	769
900.236	613
900.338	-565
900.441	830
900.543	-103
900.646	516
900.748	-193
900.851	35
900.953	-263
901.055	-148
901.158	-134
901.260	88
901.362	356
901.465	445
901.567	614
901.669	762
901.771	-494
901.873	464
901.976	-728
902.078	459
902.180	180
902.282	-56
902.384	352
902.486	653
902.588	5
902.690	380
902.792	-451
902.894	470
902.996	-40
903.098	-241
903.200	-328
903.302	746
903.404	-214
903.505	-292
903.607	279
903.709	408
903.811	-383
903.913	-397
904.014	4
904.116	741
904.218	-717
904.319	976
904.421	-281
904.523	523
904.624	-108
904.726	460
904.827	-136
904.929	443
905.030	-571
905.132	264
905.233	83
905.335	745
905.436	-369
905.537	-357
905.639	-258
905.740	521
905.841	-598
905.943	423
906.044	-572
906.145	613
906.247	-899
906.348	325
906.449	-491
906.550	-399
906.651	-537
906.752	-1001
906.854	-455
906.955	-196
907.056	-200
907.157	64
907.258	92
907.359	-1167
907.460	209
907.561	-301
907.662	-384
907.762	127
907.863	-750
907.964	-163
908.065	-400
908.166	112
908.267	-630
908.367	-366
908.468	-71
908.569	128
908.670	-243
908.770	455
908.871	19
908.971	167
909.072	-501
909.173	428
909.273	82
909.374	190
909.474	-765
909.575	20
909.675	-870
909.776	-204
909.876	-980
909.977	583
910.077	-682
910.177	-106
910.278	-648
910.378	-433
910.478	-358
910.579	-333
910.679	-836
910.779	917
910.879	-180
910.980	-447
911.080	-188
911.180	-73
911.280	-555
911.380	-180
911.480	-130
911.580	-208
911.680	-44
911.780	83
911.880	643
911.980	-28
912.080	53
912.180	-392
912.280	-7
912.380	-151
912.480	140
912.580	-468
912.679	-475
912.779	626
912.879	-514
912.979	-884
913.078	-958
913.178	-640
913.278	-748
913.377	56
913.477	-309
913.577	185
913.676	-290
913.776	94
913.875	-173
913.975	258
914.074	-466
914.174	311
914.273	-519
914.373	178
914.472	-698
914.572	-81
914.671	-9
914.770	-676
914.870	-707
914.969	-253
915.068	-875
915.167	90
915.267	-505
915.366	249
915.465	-127
915.564	273
915.663	-446
915.763	-170
915.862	147
915.961	-270
916.060	29
916.159	271
916.258	-123
916.357	-479
916.456	-544
916.555	407
916.654	-50
916.752	-647
916.851	-758
916.950	-207
917.049	-695
917.148	-189
917.247	-534
917.345	-600
917.444	143
917.543	-711
917.642	-194
917.740	-311
917.839	-384
917.937	90
918.036	775
918.135	-67
918.233	-250
918.332	-749
918.430	-258
918.529	-39
918.627	-782
918.726	-165
918.824	106
918.923	-424
919.021	-1258
919.119	528
919.218	-821
919.316	-558
919.414	38
919.512	-214
919.611	-299
919.709	300
919.807	-521
919.905	-163
920.003	28
920.102	-443
920.200	283
920.298	158
920.396	-109
920.494	717
920.592	-910
920.690	658
920.788	86
920.886	-236
920.984	-580
921.082	-755
921.180	344
921.277	139
921.375	258
921.473	263
921.571	-669
921.669	216
921.766	-418
921.864	309
921.962	-408
922.060	-399
922.157	21
922.255	15
922.352	-401
922.450	973
922.548	837
922.645	-273
922.743	503
922.840	1066
922.938	814
923.035	1593
923.133	-13
923.230	-44
923.327	547
923.425	1408
923.522	554
923.619	1352
923.717	73
923.814	1131
923.911	-450
924.008	839
924.106	1029
924.203	882
924.300	305
924.397	108
924.494	801
924.591	235
924.688	157
924.786	701
924.883	31
924.979	180
925.077	592
925.173	1093
925.270	18
925.367	655
925.464	901
925.561	770
925.658	623
925.755	422
925.852	888
925.948	708
926.045	501
926.142	527
926.239	1251
926.335	-581
926.432	327
926.529	986
926.625	-170
926.722	441
926.818	-74
926.915	837
927.011	77
927.108	-212
927.204	510
927.301	379
927.397	519
927.494	78
927.590	207
927.687	185
927.783	121
927.879	228
927.976	189
928.072	1036
928.168	-32
928.264	-160
928.361	-284
928.457	1027
928.553	157
928.649	404
928.745	354
928.841	299
928.937	67
929.033	384
929.129	-143
929.225	51
929.321	250
929.417	465
929.513	-428
929.609	111
929.705	89
929.801	343
929.897	228
929.993	220
930.089	-177
930.184	-136
930.280	67
930.376	772
930.471	-389
930.567	458
930.663	-64
930.758	-81
930.854	-324
930.950	281
931.045	-526
931.141	277
931.236	477
931.332	-67
931.427	-73
931.523	383
931.618	74
931.714	-146
931.809	-771
931.905	-480
932.000	-968
932.095	-84
932.191	739
932.286	363
932.381	-560
932.476	782
932.572	-8
932.667	12
932.762	-19
932.857	515
932.952	81
933.047	-100
933.142	-812
933.237	1046
933.332	553
933.427	674
933.522	-371
933.617	-443
933.712	-462
933.807	-98
933.902	-119
933.997	549
934.092	445
934.187	-128
934.282	484
934.376	-266
934.471	-465
934.566	232
934.661	-354
934.755	93
934.850	-22
934.945	126
935.039	-446
935.134	326
935.228	-598
935.323	186
935.417	216
935.512	-333
935.606	-828
935.701	-171
935.795	-385
935.890	-484
935.984	-907
936.079	-394
936.173	-238
936.267	722
936.362	174
936.456	182
936.550	-184
936.644	-383
936.738	-751
936.833	11
936.927	29
937.021	47
937.115	-368
937.209	-331
937.303	533
937.397	-493
937.491	-613
937.585	484
937.679	115
937.773	322
937.867	-887
937.961	59
938.055	-645
938.149	-270
938.243	-803
938.337	-76
938.430	-693
938.524	265
938.618	-73
938.712	932
938.805	-290
938.899	578
938.993	-581
939.086	-267
939.180	-1386
939.274	-319
939.367	-927
939.461	-36
939.554	-537
939.648	-228
939.741	-255
939.835	-332
939.928	78
940.022	103
940.115	-556
940.208	-390
940.302	431
940.395	-186
940.488	-634
940.582	523
940.675	-830
940.768	182
940.861	-328
940.954	880
941.048	-760
941.141	-104
941.234	-253
941.327	-581
941.420	65
941.513	-371
941.606	-635
941.699	146
941.792	-588
941.885	-56
941.978	-81
942.071	-47
942.164	-1037
942.257	521
942.349	-111
942.442	-653
942.535	-413
942.628	-451
942.721	243
942.813	-1023
942.906	16
942.999	-493
943.091	-731
943.184	-435
943.277	-850
943.369	-22
943.462	-1226
943.554	51
943.647	-1521
943.739	104
943.832	-584
943.924	-1166
944.017	-52
944.109	-964
944.201	40
944.294	-153
944.386	85
944.478	-373
944.571	-533
944.663	-401
944.755	-549
944.847	203
944.940	-470
945.032	-395
945.124	37
945.216	-312
945.308	-326
945.400	80
945.492	-746
945.584	-28
945.676	-356
945.768	423
945.860	-284
945.952	-428
946.044	-843
946.136	-377
946.228	-613
946.320	-196
946.412	-170
946.503	-866
946.595	827
946.687	-769
946.779	-997
946.870	-25
946.962	-646
947.054	-585
947.145	-775
947.237	-723
947.329	222
947.420	-904
947.512	-913
947.603	-1195
947.695	-359
947.786	-1200
947.878	-947
947.969	-759
948.061	-933
948.152	-532
948.243	-908
948.335	-758
948.426	-884
948.517	-70
948.609	300
948.700	-62
948.791	308
948.882	-233
948.973	-586
949.065	-275
949.156	-855
949.247	-1838
949.338	-534
949.429	-954
949.520	-387
949.611	-598
949.702	-192
949.793	-208
949.884	-621
949.975	-1113
950.066	-1200
950.157	-194
950.247	-994
950.338	-382
950.429	-817
950.520	161
950.611	-779
950.701	-417
950.792	-375
950.883	-252
950.973	-985
951.064	-920
951.155	-1475
951.245	-149
951.336	-244
951.427	-766
951.517	-144
951.608	125
951.698	-95
951.788	-910
951.879	-624
951.969	-24
952.060	-471
952.150	-1052
952.240	-180
952.331	-1299
952.421	748
952.511	-728
952.602	-786
952.692	-907
952.782	-557
952.872	-862
952.962	-759
953.052	-276
953.143	-1410
953.233	-29
953.323	-675
953.413	-1312
953.503	-138
953.593	110
953.683	-618
953.773	-1471
953.863	-1120
953.953	-1076
954.042	-954
954.132	-459
954.222	-607
954.312	179
954.402	-683
954.492	-897
954.581	-572
954.671	-666
954.761	-1478
954.850	-333
954.940	-1431
955.030	-294
955.119	-845
955.209	-483
955.298	-1524
955.388	-897
955.477	-468
955.567	-362
955.656	-951
955.746	580
955.835	117
955.925	-681
956.014	-920
956.103	-686
956.193	-396
956.282	-354
956.371	-829
956.461	-471
956.550	-1570
956.639	-720
956.728	-704
956.817	252
956.906	-1290
956.995	523
957.085	-1295
957.174	-335
957.263	-1393
957.352	-1449
957.441	-998
957.530	227
957.619	-837
957.708	-701
957.796	-2038
957.885	-589
957.974	-1597
958.063	-6
958.152	-1454
958.241	-421
958.329	-1092
958.418	-914
958.507	-1235
958.596	244
958.684	-1532
958.773	347
958.861	-907
958.950	-902
959.039	-1476
959.127	-386
959.216	-575
959.304	-455
959.393	-1170
959.481	-425
959.570	-749
959.658	-1118
959.746	-1202
959.835	-263
959.923	-931
960.011	-1025
960.100	-624
960.188	-1331
960.276	-719
960.365	-525
960.453	-1079
960.541	-47
960.629	-505
960.717	-337
960.805	-1168
960.893	-505
960.981	-1178
961.069	188
961.158	-1636
961.245	-220
961.333	-1343
961.421	-1169
961.509	-987
961.597	-1207
961.685	-1344
961.773	-267
961.861	-1414
961.949	-1382
962.036	-1180
962.124	-255
962.212	-923
962.299	-994
962.387	-1833
962.475	-747
962.562	-1513
962.650	-509
962.738	-806
962.825	-1287
962.913	-744
963.000	-1039
963.088	-636
963.175	-781
963.263	-1234
963.350	-834
963.438	-1426
963.525	-1037
963.612	-756
963.700	-751
963.787	330
963.874	-145
963.962	-94
964.049	-218
964.136	-908
964.223	-271
964.310	-893
964.398	-307
964.485	-1438
964.572	-457
964.659	-866
964.746	-475
964.833	-1016
964.920	-1164
965.007	-830
965.094	-1012
965.181	-1502
965.268	-127
965.355	-1074
965.441	-948
965.528	-929
965.615	-368
965.702	-1266
965.789	-1734
965.875	-450
965.962	-527
966.049	-1118
966.136	-1006
966.222	-1040
966.309	-1034
966.395	-1070
966.482	-525
966.569	-1458
966.655	-692
966.742	-360
966.828	-479
966.915	-1096
967.001	-843
967.087	-1881
967.174	-1530
967.260	-1055
967.347	-351
967.433	-1723
967.519	483
967.605	-591
967.692	-568
967.778	-1287
967.864	-1306
967.950	-1315
968.036	-439
968.123	-1110
968.209	-759
968.295	-1943
968.381	-202
968.467	-809
968.553	-2071
968.639	-152
968.725	-1808
968.811	-823
968.897	-456
968.983	-1071
969.069	-1017
969.154	-817
969.240	-1307
969.326	-1212
969.412	-759
969.497	-1115
969.583	-1884
969.669	-101
969.755	-1274
969.840	-950
969.926	-969
970.012	-827
970.097	-89
970.183	-1491
970.268	-1085
970.354	-17
970.439	-1713
970.525	-393
970.610	-2050
970.696	-187
970.781	-645
970.866	-2044
970.952	-907
971.037	-1564
971.122	-619
971.208	-1512
971.293	-543
971.378	-2275
971.463	-1179
971.549	-885
971.634	-286
971.719	-515
971.804	-1469
971.889	130
971.974	-632
972.059	-1059
972.144	-1603
972.229	-1337
972.314	-743
972.399	-371
972.484	-1108
972.569	-801
972.654	-1455
972.739	23
972.824	-697
972.908	-986
972.993	-1428
973.078	-1536
973.163	-1294
973.247	-1301
973.332	-1862
973.417	-507
973.501	-1302
973.586	-1273
973.671	-987
973.755	-1539
973.840	-1052
973.924	-849
974.009	-966
974.093	-1924
974.178	-637
974.262	-1379
974.346	-1520
974.431	-1187
974.515	-955
974.600	-1598
974.684	-1041
974.768	-1738
974.852	-38
974.937	-2328
975.021	-1885
975.105	-1144
975.189	-1049
975.273	-1202
975.358	-816
975.442	-1336
975.526	-1097
975.610	-1650
975.694	-1800
975.778	-1049
975.862	-1432
975.946	-3155
976.030	825
976.114	-1130
976.198	-747
976.281	-1437
976.365	-1177
976.449	-1349
976.533	-141
976.617	-1578
976.700	-933
976.784	-692
976.868	-1296
976.951	-483
977.035	-1690
977.119	-1120
977.202	-1241
977.286	-946
977.369	-1104
977.453	-425
977.536	-793
977.620	-751
977.703	-911
977.787	-2360
977.870	-195
977.953	57
978.037	-2121
978.120	-289
978.203	-826
978.287	-651
978.370	-729
978.453	-1138
978.536	-1121
978.620	-530
978.703	-785
978.786	-2243
978.869	-895
978.952	-1703
979.035	417
979.118	-761
979.201	-1575
979.284	-1215
979.367	-688
979.450	-1248
979.533	-1771
979.616	-1348
979.699	-995
979.782	-1067
979.865	-902
979.948	-1501
980.030	-1230
980.113	-781
980.196	-2093
980.279	-23
980.361	-1899
980.444	-1936
980.526	-962
980.609	-973
980.692	-1048
980.774	-583
980.857	-1527
980.939	153
981.022	-1279
981.104	-1529
981.187	-1488
981.269	-1330
981.352	-1635
981.434	-1911
981.516	-1242
981.599	-797
981.681	-167
981.763	-1079
981.846	-824
981.928	-1534
982.010	-313
982.092	-1822
982.174	-57
982.256	-1536
982.339	-964
982.421	-1391
982.503	-957
982.585	-1546
982.667	-979
982.749	-1598
982.831	-1755
982.913	-1729
982.995	-458
983.077	-1978
983.158	-747
983.240	-2444
983.322	249
983.404	-989
983.486	-1699
983.568	-1222
983.649	-430
983.731	-822
983.813	-1123
983.894	-933
983.976	-1774
984.058	-880
984.139	-1025
984.221	-2281
984.302	-160
984.384	-803
984.465	-1331
984.547	-692
984.628	-1044
984.710	-1181
984.791	-1559
984.872	-1500
984.954	-1627
985.035	-667
985.116	-1798
985.198	-1533
985.279	228
985.360	-1288
985.441	-496
985.522	-1064
985.604	-1060
985.685	-3648
985.766	203
985.847	-152
985.928	-1655
986.009	-572
986.090	-1001
986.171	-1049
986.252	-1575
986.333	-1401
986.414	-1902
986.495	-1639
986.576	-1792
986.656	-1447
986.737	-609
986.818	-1615
986.899	-1985
986.980	-1737
987.060	-298
987.141	-1483
987.222	-1580
987.302	-1533
987.383	-927
987.464	-1807
987.544	-1400
987.625	-975
987.705	-600
987.786	-1304
987.866	-792
987.947	-1489
988.027	-1376
988.108	-2787
988.188	-834
988.268	-957
988.349	-1550
988.429	-1442
988.509	-897
988.589	-1466
988.670	-1665
988.750	-809
988.830	-1854
988.910	-1499
988.990	-560
989.070	-890
989.151	-1591
989.231	-2102
989.311	-338
989.391	-969
989.471	-1064
989.551	-2097
989.631	-1802
989.711	-602
989.791	-2241
989.870	-2160
989.950	-372
990.030	-2124
990.110	-1186
990.190	-2287
990.269	-1067
990.349	-1213
990.429	-1760
990.509	-1303
990.588	-1581
990.668	-2185
990.747	-856
990.827	-1701
990.907	-1041
990.986	-1385
991.066	-413
991.145	-2261
991.225	-355
991.304	-2126
991.383	-1148
991.463	-1591
991.542	-1067
991.622	-871
991.701	-887
991.780	-1568
991.859	-1465
991.939	-1424
992.018	-1138
992.097	-1470
992.176	-1060
992.256	-1677
992.335	-2337
992.414	-566
992.493	-1292
992.572	-1305
992.651	-93
992.730	-1820
992.809	-559
992.888	-2001
992.967	-1555
993.046	-1364
993.125	-1344
993.203	-1631
993.282	-1332
993.361	-1764
993.440	-1439
993.519	-1952
993.597	-1299
993.676	-2134
993.755	-1067
993.834	-1390
993.912	-1895
993.991	-816
994.069	-1532
994.148	-1295
994.226	-1312
994.305	-781
994.384	-1802
994.462	-795
994.540	-1837
994.619	-1473
994.697	-1316
994.776	-2152
994.854	-434
994.932	-2013
995.011	-1273
995.089	-2851
995.167	-1519
995.245	-2023
995.324	-1890
995.402	-1600
995.480	-2306
995.558	-2362
995.636	-1924
995.714	-2214
995.792	-537
995.870	-1863
995.948	-1223
996.026	-1590
996.104	-1466
996.182	-1092
996.260	-3185
996.338	-1288
996.416	-1984
996.494	-1564
996.572	-694
996.649	-1550
996.727	-2536
996.805	-1332
996.883	-1535
996.960	-2253
997.038	-1622
997.116	-1504
997.193	-1838
997.271	-1997
997.348	-1827
997.426	-1815
997.504	-2398
997.581	-936
997.658	-1466
997.736	-2728
997.813	-2216
997.891	-840
997.968	-2460
998.046	-1625
998.123	-1663
998.200	-1392
998.277	-1709
998.355	-1381
998.432	-2541
998.509	-1905
998.586	-684
998.663	-1072
998.741	-851
998.818	-1474
998.895	-1402
998.972	-1708
999.049	-1136
999.126	-1032
999.203	-1144
999.280	-2100
999.357	-1536
999.434	-1951
999.511	-755
999.587	-1577
999.664	-1489
999.741	-2074
999.818	-1464
999.895	-2741
999.971	-1341
1000.048	-1707
1000.125	-738
1000.202	-1755
1000.278	-2092
1000.355	-1520
1000.431	-1641
1000.508	-2149
1000.584	-1509
1000.661	-1744
1000.738	-1621
1000.814	-2087
1000.890	-971
1000.967	-1987
1001.043	-1325
1001.120	-1856
1001.196	-1666
1001.272	-2440
1001.349	-2291
1001.425	-920
1001.501	-1582
1001.577	-1979
1001.654	-1642
1001.730	-2316
1001.806	-1848
1001.882	-2259
1001.958	-1404
1002.034	-1851
1002.110	-1981
1002.186	-2076
1002.262	-2060
1002.338	-1822
1002.414	-1635
1002.490	-2093
1002.566	-1430
1002.642	-1853
1002.718	-1303
1002.794	-2348
1002.870	-1388
1002.945	-1400
1003.021	-1680
1003.097	-1927
1003.173	-1251
1003.248	-2235
1003.324	-1701
1003.400	-2129
1003.475	-1822
1003.551	-1566
1003.626	-1455
1003.702	-2214
1003.777	-1481
1003.853	-1881
1003.928	-1182
1004.004	-2260
1004.079	-1442
1004.155	-1446
1004.230	-3375
1004.305	-1625
1004.381	-2017
1004.456	-2321
1004.531	-1858
1004.607	-2262
1004.682	-2003
1004.757	-1874
1004.832	-2096
1004.907	-2048
1004.982	-811
1005.057	-1229
1005.133	-2076
1005.208	-2106
1005.283	-2113
1005.358	-1587
1005.433	-2646
1005.508	-1257
1005.583	-1669
1005.657	-2258
1005.732	-796
1005.807	-2467
1005.882	-2384
1005.957	-3100
1006.032	-884
1006.106	-1719
1006.181	-2458
1006.256	-2180
1006.331	-2499
1006.405	-1993
1006.480	-1803
1006.554	-1884
1006.629	-1774
1006.704	-1612
1006.778	-1759
1006.853	-1458
1006.927	-1785
1007.002	-1732
1007.076	-2117
1007.150	-2053
1007.225	-1691
1007.299	-2265
1007.373	-1752
1007.448	-1725
1007.522	-1701
1007.596	-1925
1007.671	-2230
1007.745	-1238
1007.819	-1925
1007.893	-2189
1007.967	-1455
1008.041	-3052
1008.115	-1366
1008.190	-1868
1008.264	-1758
1008.338	-2206
1008.412	-2490
1008.486	-2143
1008.560	-2082
1008.633	-2978
1008.707	-1688
1008.781	-1885
1008.855	-2212
1008.929	-2555
1009.003	-2450
1009.076	-2441
1009.150	-1937
1009.224	-1724
1009.298	-1172
1009.371	-2108
1009.445	-1487
1009.519	-2498
1009.592	-2098
1009.666	-1788
1009.739	-1666
1009.813	-3020
1009.886	-1255
1009.960	-2991
1010.033	-2193
1010.107	-2316
1010.180	-2173
1010.253	-2203
1010.327	-1590
1010.400	-1982
1010.473	-1727
1010.547	-636
1010.620	-1916
1010.693	-2214
1010.766	-2525
1010.840	-2825
1010.913	-1310
1010.986	-3604
1011.059	-1638
1011.132	-2963
1011.205	-957
1011.278	-2126
1011.351	-1503
1011.424	-1551
1011.497	-2556
1011.570	-1794
1011.643	-2106
1011.716	-2390
1011.789	-2265
1011.862	-1849
1011.934	-1091
1012.007	-2700
1012.080	-1921
1012.153	-2279
1012.225	-919
1012.298	-2222
1012.371	-1958
1012.443	-1874
1012.516	-2495
1012.588	-2068
1012.661	-1628
1012.733	-1890
1012.806	-1524
1012.879	-2093
1012.951	-1999
1013.023	-1821
1013.096	-1241
1013.168	-3248
1013.241	-1346
1013.313	-2049
1013.385	-1980
1013.458	-2228
1013.530	-1452
1013.602	-3114
1013.674	-1635
1013.746	-2461
1013.819	-2056
1013.891	-1936
1013.963	-2354
1014.035	-2534
1014.107	-2160
1014.179	-919
1014.251	-1873
1014.323	-1254
1014.395	-1675
1014.467	-1564
1014.539	-2134
1014.611	-1714
1014.683	-2137
1014.754	-2022
1014.826	-1896
1014.898	-1767
1014.970	-1989
1015.042	-1363
1015.113	-1654
1015.185	-2685
1015.257	-2302
1015.328	-1048
1015.400	-1511
1015.471	-2306
1015.543	-3060
1015.615	-1611
1015.686	-2199
1015.757	-2256
1015.829	-1320
1015.901	-1431
1015.972	-1383
1016.043	-1896
1016.115	-1357
1016.186	-2624
1016.257	-2146
1016.328	-1383
1016.400	-619
1016.471	-2057
1016.542	-2006
1016.613	-2838
1016.685	-1628
1016.756	-1423
1016.827	-2070
1016.898	-2783
1016.969	-1385
1017.040	-1959
1017.111	-2311
1017.182	-2401
1017.253	-1228
1017.324	-2897
1017.395	-2402
1017.466	-1137
1017.537	-1644
1017.608	-1985
1017.678	-1993
1017.749	-2400
1017.820	-2263
1017.891	-2921
1017.961	-2456
1018.032	-1622
1018.103	-1920
1018.173	-1560
1018.244	-2796
1018.315	-2056
1018.385	-1619
1018.456	-2260
1018.526	-2505
1018.597	-1964
1018.667	-1811
1018.738	-2229
1018.808	-1902
1018.878	-2215
1018.949	-2068
1019.019	-2458
1019.089	-1524
1019.160	-1764
1019.230	-1559
1019.300	-1623
1019.371	-2393
1019.441	-2029
1019.511	-1787
1019.581	-2554
1019.651	-1632
1019.721	-2015
1019.791	-957
1019.861	-2375
1019.931	-1812
1020.001	-2639
1020.071	-1388
1020.141	-2536
1020.211	-1690
1020.281	-2481
1020.351	-1927
1020.421	-1493
1020.491	-1106
1020.560	-2175
1020.630	-2108
1020.700	-2397
1020.770	-1882
1020.839	-2590
1020.909	-1844
1020.979	-2119
1021.048	-2023
1021.118	-2062
1021.187	-2090
1021.257	-2059
1021.326	-694
1021.396	-1886
1021.465	-1548
1021.535	-1743
1021.604	-2844
1021.674	-1853
1021.743	-1580
1021.812	-2406
1021.882	-1436
1021.951	-1954
1022.020	-1832
1022.089	-2075
1022.159	-2358
1022.228	-1974
1022.297	-1690
1022.366	-1703
1022.435	-2104
1022.504	-1980
1022.573	-2174
1022.642	-1345
1022.711	-2656
1022.781	-1275
1022.849	-1987
1022.918	-3235
1022.987	-1608
1023.056	-2230
1023.125	-1741
1023.194	-2040
1023.263	-1228
1023.331	-2231
1023.400	-3024
1023.469	-2537
1023.538	-1687
1023.606	-2940
1023.675	-1651
1023.744	-2243
1023.812	-2584
1023.881	-1848
1023.949	-2303
1024.018	-1789
1024.086	-2418
1024.155	-2248
1024.223	-2507
1024.292	-2228
1024.360	-1419
1024.429	-2444
1024.497	-2132
1024.565	-2342
1024.634	-1309
1024.702	-2137
1024.770	-2293
1024.838	-1597
1024.907	-971
1024.975	-2654
1025.043	-1785
1025.111	-3153
1025.179	-2453
1025.247	-1989
1025.315	-2151
1025.383	-1978
1025.451	-2365
1025.519	-1832
1025.587	-2317
1025.655	-2284
1025.723	-1947
1025.791	-2017
1025.859	-1662
1025.927	-2064
1025.995	-3023
1026.062	-2226
1026.130	-1608
1026.198	-2184
1026.266	-2102
1026.333	-1605
1026.401	-1863
1026.469	-3146
1026.536	-1781
1026.604	-2415
1026.671	-1652
1026.739	-2237
1026.806	-2003
1026.874	-2808
1026.941	-2729
1027.009	-1610
1027.076	-1644
1027.144	-2124
1027.211	-2372
1027.278	-2463
1027.345	-1805
1027.413	-2088
1027.480	-1845
1027.547	-2239
1027.614	-2019
1027.682	-1856
1027.749	-1813
1027.816	-2378
1027.883	-1820
1027.950	-2241
1028.017	-2885
1028.084	-2239
1028.151	-2099
1028.218	-2827
1028.285	-2297
1028.352	-2785
1028.419	-2275
1028.486	-2410
1028.553	-1735
1028.619	-2714
1028.686	-1855
1028.753	-2474
1028.820	-2448
1028.886	-1985
1028.953	-1811
1029.020	-2551
1029.086	-2196
1029.153	-2736
1029.220	-1359
1029.286	-1990
1029.353	-2431
1029.419	-2183
1029.486	-2058
1029.552	-3018
1029.619	-1793
1029.685	-1953
1029.751	-2251
1029.818	-1527
1029.884	-2207
1029.951	-1908
1030.017	-1589
1030.083	-2890
1030.149	-1794
1030.216	-2326
1030.282	-1743
1030.348	-2651
1030.414	-2484
1030.480	-2320
1030.546	-2106
1030.612	-2410
1030.678	-2029
1030.744	-1905
1030.810	-2678
1030.876	-1393
1030.942	-2481
1031.008	-2438
1031.074	-3233
1031.140	-2628
1031.206	-2202
1031.272	-2639
1031.337	-2261
1031.403	-2426
1031.469	-1911
1031.534	-2452
1031.600	-1171
1031.666	-2880
1031.731	-2464
1031.797	-1416
1031.863	-2579
1031.928	-2232
1031.994	-1872
1032.059	-1895
1032.125	-1844
1032.190	-3054
1032.256	-1777
1032.321	-3169
1032.386	-2111
1032.452	-2299
1032.517	-2613
1032.582	-2078
1032.647	-1713
1032.713	-2575
1032.778	-1774
1032.843	-2017
1032.908	-2239
1032.974	-2380
1033.039	-2910
1033.104	-1290
1033.169	-2327
1033.234	-2728
1033.299	-1720
1033.364	-1869
1033.429	-2311
1033.494	-2641
1033.559	-2379
1033.624	-1563
1033.688	-2033
1033.753	-2824
1033.818	-1882
1033.883	-2713
1033.948	-1199
1034.013	-2658
1034.077	-2301
1034.142	-2037
1034.207	-2053
1034.271	-1819
1034.336	-1125
1034.400	-1071
1034.465	-2098
1034.530	-1598
1034.594	-3036
1034.658	-3085
1034.723	-1865
1034.787	-2229
1034.852	-2192
1034.916	-2222
1034.981	-3375
1035.045	-2771
1035.109	-2853
1035.173	-1324
1035.238	-2492
1035.302	-2605
1035.366	-2202
1035.430	-2997
1035.495	-1617
1035.559	-2425
1035.623	-1978
1035.687	-3167
1035.751	-1437
1035.815	-2369
1035.879	-3240
1035.943	-3342
1036.007	-2708
1036.071	-2374
1036.135	-1534
1036.198	-3204
1036.262	-2002
1036.326	-1570
1036.390	-1719
1036.454	-2770
1036.517	-1836
1036.581	-1788
1036.645	-1696
1036.709	-1493
1036.772	-2745
1036.836	-3146
1036.900	-1527
1036.963	-2772
1037.026	-2530
1037.090	-2955
1037.154	-2461
1037.217	-2806
1037.280	-2582
1037.344	-2820
1037.407	-2464
1037.471	-2337
1037.534	-2727
1037.597	-2547
1037.661	-2541
1037.724	-2213
1037.787	-1964
1037.850	-2527
1037.913	-2503
1037.977	-2446
1038.040	-2507
1038.103	-2968
1038.166	-3080
1038.229	-1925
1038.292	-2629
1038.355	-2980
1038.418	-2443
1038.481	-2587
1038.544	-3202
1038.607	-3067
1038.670	-1744
1038.732	-3374
1038.795	-2481
1038.858	-2882
1038.921	-1818
1038.984	-2918
1039.046	-3231
1039.109	-2715
1039.172	-2708
1039.234	-2829
1039.297	-2941
1039.360	-2183
1039.422	-2007
1039.485	-3004
1039.547	-2979
1039.610	-2743
1039.672	-2506
1039.734	-1805
1039.797	-2519
1039.859	-2513
1039.922	-2637
1039.984	-2527
1040.046	-2536
1040.109	-2303
1040.171	-1847
1040.233	-1811
1040.295	-3009
1040.358	-2780
1040.420	-1824
1040.482	-2028
1040.544	-2447
1040.606	-2983
1040.668	-2279
1040.730	-3058
1040.792	-1701
1040.854	-2188
1040.916	-2467
1040.978	-2453
1041.040	-2073
1041.102	-2425
1041.164	-2881
1041.225	-2734
1041.287	-1949
1041.349	-2019
1041.411	-2000
1041.472	-3213
1041.534	-2293
1041.596	-3186
1041.657	-2647
1041.719	-2418
1041.781	-2672
1041.842	-2958
1041.904	-2228
1041.965	-2856
1042.027	-2856
1042.088	-2032
1042.150	-2093
1042.211	-2406
1042.272	-2630
1042.334	-2989
1042.395	-2536
1042.456	-2299
1042.518	-2499
1042.579	-2214
1042.640	-1703
1042.701	-2421
1042.763	-2547
1042.824	-3193
1042.885	-2347
1042.946	-3131
1043.007	-2249
1043.068	-2632
1043.129	-1711
1043.190	-2500
1043.251	-1685
1043.312	-2505
1043.373	-2767
1043.434	-2381
1043.495	-2242
1043.556	-1773
1043.616	-1497
1043.677	-2415
1043.738	-1945
1043.799	-2140
1043.859	-2437
1043.920	-2561
1043.981	-2239
1044.041	-2281
1044.102	-3262
1044.162	-1987
1044.223	-2023
1044.284	-1941
1044.344	-1903
1044.405	-3028
1044.465	-2393
1044.525	-3068
1044.586	-2228
1044.646	-2833
1044.707	-1842
1044.767	-2633
1044.827	-1870
1044.887	-2581
1044.948	-2291
1045.008	-2400
1045.068	-2403
1045.128	-1976
1045.188	-2041
1045.249	-1751
1045.309	-1782
1045.369	-2443
1045.429	-2572
1045.489	-2523
1045.549	-2457
1045.609	-2560
1045.669	-2583
1045.729	-1446
1045.789	-2147
1045.848	-2054
1045.908	-1493
1045.968	-2017
1046.028	-2579
1046.088	-2046
1046.147	-2038
1046.207	-1738
1046.267	-2683
1046.326	-1683
1046.386	-2489
1046.446	-1236
1046.505	-1794
1046.565	-1371
1046.624	-1465
1046.684	-1405
1046.743	-1044
1046.803	-1364
1046.862	-1149
1046.922	0
