'Start Wavelength	183.907
'End Wavelength	1046.922
'Gate Delay	5.000
'Gate Width (ms)	1.050
'Laser Output Level	0.000
'X Position	0.000
'Y Position	0.000
'Z Position	0.000
'Grid Point Number	1.000
'Shot Number	100.000
183.907	881.000
183.977	-685.000
184.047	-300
184.116	283
184.186	109
184.256	-522
184.325	288
184.395	-261
184.465	331
184.534	-509
184.604	22
184.674	-9
184.743	-592
184.813	-149
184.883	347
184.952	75
185.022	218
185.092	-518
185.161	-322
185.231	377
185.301	42
185.370	122
185.440	-288
185.509	-703
185.579	140
185.649	214
185.718	-112
185.788	92
185.857	77
185.927	478
185.996	-135
186.066	-133
186.136	-551
186.205	-434
186.275	-19
186.344	219
186.414	-98
186.483	-179
186.553	225
186.622	335
186.692	263
186.761	-109
186.831	-288
186.900	-426
186.970	1179
187.039	443
187.109	-310
187.178	450
187.248	79
187.317	-436
187.387	493
187.456	-184
187.526	143
187.595	-460
187.664	479
187.734	-229
187.803	-514
187.873	-678
187.942	610
188.012	-54
188.081	448
188.150	-155
188.220	-232
188.289	94
188.358	-583
188.428	71
188.497	-52
188.567	245
188.636	-240
188.705	-665
188.775	-620
188.844	-162
188.913	777
188.983	-273
189.052	-351
189.121	-23
189.191	457
189.260	306
189.329	-112
189.399	-307
189.468	-115
189.537	58
189.606	-122
189.676	-23
189.745	416
189.814	220
189.883	186
189.953	-151
190.022	92
190.091	454
190.161	867
190.230	695
190.299	369
190.368	-400
190.437	172
190.507	-129
190.576	-539
190.645	352
190.714	-90
190.783	137
190.853	373
190.922	-154
190.991	267
191.060	-134
191.129	-209
191.198	-814
191.268	-14
191.337	-888
191.406	-169
191.475	-661
191.544	272
191.613	206
191.682	-134
191.752	321
191.821	-189
191.890	-295
191.959	187
192.028	-134
192.097	197
192.166	-160
192.235	-619
192.304	-526
192.373	-541
192.442	216
192.511	-54
192.580	-105
192.650	713
192.719	-849
192.788	256
192.857	413
192.926	79
192.995	-7
193.064	-544
193.133	33
193.202	93
193.271	473
193.340	203
193.409	-77
193.478	426
193.547	-231
193.615	150
193.684	519
193.753	345
193.822	95
193.891	-55
193.960	135
194.029	-30
194.098	-298
194.167	-129
194.236	311
194.305	145
194.374	-204
194.443	-472
194.512	-217
194.580	115
194.649	-52
194.718	326
194.787	-403
194.856	-478
194.925	-722
194.994	-647
195.062	-502
195.131	285
195.200	81
195.269	1162
195.338	365
195.407	-278
195.475	-294
195.544	541
195.613	-49
195.682	-372
195.751	123
195.819	221
195.888	57
195.957	509
196.026	-50
196.094	7
196.163	196
196.232	447
196.301	-332
196.369	-368
196.438	-598
196.507	-70
196.576	-644
196.644	121
196.713	-226
196.782	-480
196.850	-94
196.919	-449
196.988	252
197.056	-130
197.125	-429
197.194	-330
197.262	36
197.331	-22
197.400	-15
197.468	482
197.537	91
197.606	96
197.674	409
197.743	645
197.812	375
197.880	1274
197.949	169
198.017	1028
198.086	20
198.155	-435
198.223	596
198.292	1304
198.360	57
198.429	147
198.497	272
198.566	-48
198.635	580
198.703	480
198.772	652
198.840	797
198.909	-67
198.977	486
199.046	59
199.114	379
199.183	207
199.251	-690
199.320	-11
199.388	-539
199.457	-68
199.525	-3
199.594	-336
199.662	164
199.731	-792
199.799	392
199.867	-116
199.936	-753
200.004	378
200.073	135
200.141	-973
200.210	-620
200.278	-1276
200.346	953
200.415	605
200.483	420
200.552	-370
200.620	-18
200.688	-277
200.757	-213
200.825	-154
200.893	18
200.962	-42
201.030	270
201.098	81
201.167	784
201.235	-243
201.303	114
201.372	-282
201.440	-95
201.508	448
201.577	117
201.645	-568
201.713	-834
201.781	-341
201.850	476
201.918	-3
201.986	266
202.055	-41
202.123	-589
202.191	-689
202.259	103
202.327	-384
202.396	413
202.464	15
202.532	328
202.600	1203
202.669	-146
202.737	-25
202.805	887
202.873	-326
202.941	-68
203.009	-316
203.078	-423
203.146	-93
203.214	-256
203.282	-452
203.350	260
203.418	-145
203.487	-333
203.555	471
203.623	528
203.691	177
203.759	80
203.827	-579
203.895	66
203.963	-54
204.031	186
204.099	610
204.168	203
204.236	-611
204.304	110
204.372	-64
204.440	471
204.508	61
204.576	415
204.644	437
204.712	-520
204.780	-279
204.848	-475
204.916	-231
204.984	945
205.052	85
205.120	251
205.188	210
205.256	601
205.324	165
205.392	-33
205.460	158
205.528	-371
205.596	-510
205.664	441
205.732	-763
205.799	1614
205.867	1197
205.935	-540
206.003	501
206.071	-57
206.139	-356
206.207	-107
206.275	-34
206.343	-210
206.411	-661
206.478	410
206.546	-806
206.614	70
206.682	691
206.750	-962
206.818	214
206.885	581
206.953	-989
207.021	220
207.089	-1117
207.157	225
207.225	-14
207.292	824
207.360	16
207.428	389
207.496	365
207.563	-358
207.631	-50
207.699	-354
207.767	49
207.834	-108
207.902	-320
207.970	-450
208.038	-404
208.105	-473
208.173	-281
208.241	22
208.309	544
208.376	88
208.444	-81
208.512	266
208.579	-206
208.647	976
208.715	1088
208.782	-601
208.850	-227
208.918	287
208.985	-523
209.053	-164
209.120	763
209.188	-49
209.256	61
209.323	80
209.391	382
209.459	717
209.526	612
209.594	73
209.661	317
209.729	-420
209.796	375
209.864	271
209.932	-523
209.999	844
210.067	18
210.134	113
210.202	396
210.269	447
210.337	-33
210.404	-355
210.472	-262
210.539	929
210.607	-172
210.674	510
210.742	-21
210.809	343
210.877	253
210.944	316
211.012	-510
211.079	1693
211.146	94
211.214	-240
211.281	324
211.349	206
211.416	-93
211.484	1151
211.551	-249
211.618	270
211.686	-112
211.753	-321
211.821	116
211.888	541
211.955	149
212.023	504
212.090	215
212.157	-288
212.225	386
212.292	1129
212.359	1675
212.427	5601
212.494	1291
212.561	530
212.629	346
212.696	420
212.763	679
212.831	424
212.898	-233
212.965	481
213.032	227
213.100	373
213.167	-535
213.234	-698
213.301	672
213.369	933
213.436	-332
213.503	262
213.570	220
213.638	-317
213.705	370
213.772	-544
213.839	-155
213.906	905
213.973	226
214.041	615
214.108	801
214.175	225
214.242	-41
214.309	0
214.376	-235
214.444	580
214.511	69
214.578	154
214.645	54
214.712	-139
214.779	195
214.846	390
214.913	174
214.980	660
215.048	1213
215.115	1429
215.182	190
215.249	538
215.316	246
215.383	657
215.450	324
215.517	588
215.584	-96
215.651	-259
215.718	478
215.785	1147
215.852	298
215.919	257
215.986	-45
216.053	321
216.120	-632
216.187	-546
216.254	145
216.321	442
216.388	285
216.455	595
216.522	573
216.589	289
216.656	1228
216.722	1679
216.789	1003
216.856	575
216.923	-306
216.990	124
217.057	855
217.124	1095
217.191	252
217.258	723
217.324	1001
217.391	1559
217.458	488
217.525	1295
217.592	157
217.659	957
217.725	690
217.792	1030
217.859	1139
217.926	-372
217.993	165
218.059	214
218.126	-61
218.193	576
218.260	406
218.327	501
218.393	-89
218.460	97
218.527	-52
218.594	487
218.660	366
218.727	1346
218.794	14
218.860	311
218.927	-215
218.994	270
219.061	122
219.127	231
219.194	889
219.261	-193
219.327	-604
219.394	270
219.461	-767
219.527	-79
219.594	491
219.661	-109
219.727	-290
219.794	746
219.860	-295
219.927	995
219.994	945
220.060	2232
220.127	579
220.193	248
220.260	-119
220.326	1169
220.393	1457
220.460	2944
220.526	999
220.593	310
220.659	1263
220.726	1307
220.792	2581
220.859	2225
220.925	2776
220.992	5573
221.058	3957
221.125	3764
221.191	3039
221.258	541
221.324	124
221.391	493
221.457	-143
221.524	689
221.590	1120
221.657	3601
221.723	2273
221.789	3100
221.856	2575
221.922	453
221.989	870
222.055	165
222.121	-767
222.188	1732
222.254	-39
222.321	-290
222.387	-773
222.453	134
222.520	120
222.586	46
222.652	160
222.719	-80
222.785	-450
222.851	314
222.918	-404
222.984	3
223.050	189
223.116	-688
223.183	602
223.249	-314
223.315	-436
223.382	320
223.448	112
223.514	20
223.580	-136
223.647	610
223.713	-866
223.779	91
223.845	-957
223.911	349
223.978	-1214
224.044	-63
224.110	-294
224.176	476
224.242	610
224.309	-172
224.375	456
224.441	-219
224.507	-183
224.573	-1082
224.639	519
224.705	-333
224.772	104
224.838	-136
224.904	212
224.970	-618
225.036	-196
225.102	48
225.168	74
225.234	289
225.300	-807
225.366	-319
225.432	-907
225.499	328
225.565	-255
225.631	-68
225.697	45
225.763	442
225.829	-472
225.895	509
225.961	1415
226.027	634
226.093	586
226.159	1268
226.225	1320
226.291	5637
226.357	7877
226.423	3594
226.489	1088
226.554	264
226.620	1248
226.686	1269
226.752	1347
226.818	4043
226.884	11740
226.950	8301
227.016	2384
227.082	1943
227.148	277
227.214	893
227.279	1102
227.345	1300
227.411	-19
227.477	306
227.543	2465
227.609	2083
227.674	1860
227.740	-131
227.806	619
227.872	332
227.938	-143
228.003	567
228.069	260
228.135	213
228.201	-365
228.267	407
228.332	179
228.398	530
228.464	661
228.530	103
228.595	-158
228.661	-511
228.727	-293
228.792	981
228.858	-334
228.924	-404
228.990	1383
229.055	116
229.121	370
229.187	166
229.252	636
229.318	62
229.384	-312
229.449	254
229.515	-1440
229.581	-430
229.646	1234
229.712	679
229.777	1876
229.843	1153
229.909	870
229.974	1552
230.040	790
230.105	14
230.171	204
230.236	1817
230.302	2149
230.368	945
230.433	392
230.499	-16
230.564	1020
230.630	-63
230.695	42
230.761	-48
230.826	-892
230.892	1518
230.957	-482
231.023	-136
231.088	1114
231.154	485
231.219	392
231.284	321
231.350	181
231.415	-56
231.481	-159
231.546	386
231.612	-230
231.677	-423
231.742	-1307
231.808	139
231.873	331
231.939	-1293
232.004	1511
232.069	1247
232.135	70
232.200	-556
232.265	749
232.331	10
232.396	-490
232.461	-108
232.527	-568
232.592	423
232.657	-686
232.723	129
232.788	116
232.853	244
232.918	-422
232.984	-279
233.049	-314
233.114	974
233.179	-75
233.245	1403
233.310	1658
233.375	-1126
233.440	852
233.506	0
233.571	179
233.636	509
233.701	736
233.766	996
233.832	1036
233.897	493
233.962	-560
234.027	1193
234.092	364
234.157	121
234.222	-639
234.288	726
234.353	3227
234.418	3055
234.483	1806
234.548	632
234.613	274
234.678	649
234.743	-194
234.808	4413
234.873	1857
234.938	1024
235.004	-87
235.069	779
235.134	62
235.199	817
235.264	123
235.329	-327
235.394	442
235.459	1051
235.524	-165
235.589	637
235.654	-46
235.719	-710
235.784	498
235.849	686
235.913	1800
235.978	2059
236.043	2251
236.108	401
236.173	134
236.238	801
236.303	360
236.368	96
236.433	1160
236.498	2248
236.563	838
236.627	3010
236.692	12538
236.757	7757
236.822	3501
236.887	1182
236.952	1930
237.017	-217
237.081	1801
237.146	1447
237.211	4301
237.276	12068
237.341	19532
237.405	7279
237.470	2291
237.535	1629
237.600	1315
237.664	1118
237.729	-509
237.794	434
237.859	2303
237.923	982
237.988	-58
238.053	2210
238.118	1662
238.182	6037
238.247	5993
238.312	1854
238.376	1145
238.441	110
238.506	1161
238.570	-463
238.635	182
238.700	-45
238.764	39
238.829	2266
238.893	1799
238.958	1519
239.023	376
239.087	621
239.152	1202
239.216	-595
239.281	463
239.346	899
239.410	344
239.475	-5
239.539	5620
239.604	2703
239.668	1257
239.733	300
239.797	1122
239.862	4097
239.926	4651
239.991	2382
240.055	100
240.120	632
240.184	376
240.249	148
240.313	58
240.378	-162
240.442	3222
240.507	5076
240.571	973
240.635	2427
240.700	2568
240.764	543
240.829	-725
240.893	-520
240.957	-53
241.022	3193
241.086	4978
241.151	1042
241.215	-365
241.279	2408
241.344	2007
241.408	486
241.472	-7
241.537	291
241.601	622
241.665	-460
241.730	-248
241.794	270
241.858	-56
241.922	-350
241.987	1049
242.051	125
242.115	-34
242.179	176
242.244	-234
242.308	1520
242.372	404
242.436	500
242.501	316
242.565	-199
242.629	-724
242.693	498
242.757	-1023
242.822	943
242.886	403
242.950	258
243.014	272
243.078	371
243.142	291
243.206	-134
243.271	-42
243.335	44
243.399	933
243.463	6821
243.527	17306
243.591	5515
243.655	1525
243.719	610
243.783	1544
243.847	1652
243.911	2018
243.975	3193
244.040	1318
244.104	1570
244.168	142
244.232	841
244.296	1797
244.360	1499
244.424	209
244.488	1106
244.552	1235
244.615	-606
244.679	31
244.743	1343
244.807	135
244.871	277
244.935	670
244.999	-1046
245.063	350
245.127	602
245.191	823
245.255	679
245.319	1406
245.383	-355
245.446	1282
245.510	86
245.574	529
245.638	499
245.702	-317
245.766	2435
245.829	1290
245.893	207
245.957	350
246.021	1287
246.085	405
246.149	-178
246.212	3497
246.276	4198
246.340	1515
246.404	1231
246.467	1431
246.531	1294
246.595	1719
246.659	1243
246.722	-2
246.786	1004
246.850	1151
246.913	1730
246.977	-16
247.041	1045
247.104	793
247.168	874
247.232	2967
247.295	7024
247.359	2847
247.423	743
247.486	2296
247.550	1738
247.614	676
247.677	1377
247.741	1009
247.804	518
247.868	1429
247.932	2929
247.995	6632
248.059	1402
248.122	-378
248.186	1517
248.249	1990
248.313	11282
248.376	10744
248.440	6200
248.503	1171
248.567	2776
248.630	1994
248.694	3737
248.757	5165
248.821	11508
248.884	6036
248.948	5805
249.011	9395
249.075	14579
249.138	10711
249.202	4038
249.265	1968
249.328	3540
249.392	1162
249.455	1879
249.519	865
249.582	1359
249.645	4134
249.709	2462
249.772	1085
249.835	1524
249.899	2059
249.962	2284
250.025	992
250.089	4030
250.152	5601
250.215	3162
250.279	1075
250.342	2568
250.405	1393
250.468	1213
250.532	1756
250.595	4663
250.658	18419
250.721	27443
250.785	7818
250.848	3829
250.911	1771
250.974	2857
251.038	2715
251.101	6635
251.164	2938
251.227	4228
251.290	3297
251.354	4815
251.417	25516
251.480	20585
251.543	14879
251.606	46280
251.669	28815
251.732	10725
251.795	9747
251.859	9840
251.922	28022
251.985	14070
252.048	4908
252.111	3971
252.174	1949
252.237	6824
252.300	13946
252.363	16997
252.426	35794
252.489	12108
252.552	5847
252.615	3091
252.678	4762
252.741	10855
252.804	15704
252.867	36148
252.930	18530
252.993	9406
253.056	6010
253.119	4014
253.182	2261
253.245	5207
253.308	3305
253.371	3055
253.434	2756
253.497	2975
253.559	7069
253.622	4892
253.685	5959
253.748	4900
253.811	1880
253.874	3184
253.937	1488
254.000	2127
254.062	4534
254.125	6402
254.188	7301
254.251	5248
254.314	1369
254.376	4820
254.439	5038
254.502	3500
254.565	4079
254.628	7649
254.690	3891
254.753	1802
254.816	865
254.878	1666
254.941	5846
255.004	4460
255.067	1418
255.129	1543
255.192	846
255.255	253
255.317	1322
255.380	873
255.443	1210
255.505	474
255.568	564
255.631	760
255.693	701
255.756	59
255.819	1076
255.881	-99
255.944	697
256.006	-175
256.069	235
256.132	725
256.194	1164
256.257	3683
256.319	2568
256.382	1707
256.444	1220
256.507	785
256.569	-90
256.632	711
256.694	987
256.757	6889
256.819	17793
256.882	6010
256.944	1093
257.007	1870
257.069	725
257.132	973
257.194	1370
257.257	-96
257.319	234
257.381	165
257.444	4140
257.506	23246
257.569	20637
257.631	10230
257.693	4555
257.756	2505
257.818	1613
257.880	517
257.943	845
258.005	1569
258.067	208
258.130	809
258.192	1310
258.254	2787
258.317	1624
258.379	1035
258.441	4075
258.503	3510
258.566	6300
258.628	7345
258.690	1063
258.753	1543
258.815	2244
258.877	234
258.939	488
259.001	646
259.064	407
259.126	654
259.188	1555
259.250	974
259.312	1422
259.375	5220
259.437	1979
259.499	194
259.561	699
259.623	1179
259.685	-61
259.747	135
259.809	5076
259.872	9766
259.934	17871
259.996	13172
260.058	3241
260.120	661
260.182	605
260.244	-59
260.306	-329
260.368	754
260.430	-685
260.492	2130
260.554	4993
260.616	2429
260.678	8032
260.740	9659
260.802	1613
260.864	1926
260.926	-209
260.988	868
261.050	251
261.112	3460
261.174	12729
261.236	8563
261.298	1676
261.359	4704
261.421	5927
261.483	1290
261.545	927
261.607	-166
261.669	244
261.731	2321
261.793	6534
261.854	1251
261.916	997
261.978	556
262.040	1266
262.102	1112
262.164	1612
262.225	1048
262.287	558
262.349	3027
262.411	1929
262.472	1087
262.534	1705
262.596	5526
262.658	1216
262.719	747
262.781	1642
262.843	5224
262.904	2747
262.966	1419
263.028	710
263.090	13262
263.151	29732
263.213	8665
263.275	3592
263.336	900
263.398	1037
263.459	-161
263.521	256
263.583	2904
263.644	930
263.706	67
263.767	-323
263.829	653
263.891	-260
263.952	-189
264.014	-9
264.075	1796
264.137	2796
264.198	1310
264.260	16
264.321	-51
264.383	2352
264.444	6923
264.506	1365
264.567	351
264.629	2688
264.690	3924
264.752	1230
264.813	1011
264.875	-614
264.936	67
264.998	-169
265.059	-415
265.120	421
265.182	881
265.243	9541
265.305	7082
265.366	916
265.427	752
265.489	1017
265.550	-491
265.611	-338
265.673	-275
265.734	100
265.795	583
265.857	-936
265.918	-559
265.979	1507
266.040	17543
266.102	9545
266.163	2779
266.224	1748
266.286	1369
266.347	-532
266.408	625
266.469	-228
266.530	-74
266.592	104
266.653	1223
266.714	1963
266.775	-9
266.836	-553
266.898	-679
266.959	452
267.020	556
267.081	-29
267.142	-1
267.203	-601
267.264	379
267.326	852
267.387	379
267.448	-1032
267.509	526
267.570	-63
267.631	68
267.692	-853
267.753	647
267.814	-683
267.875	1958
267.936	2903
267.997	1429
268.058	627
268.119	-143
268.180	-212
268.241	-644
268.302	1
268.363	-391
268.424	-182
268.485	1165
268.546	-867
268.607	-1112
268.668	-523
268.729	-126
268.790	-227
268.851	398
268.912	1650
268.972	1660
269.033	887
269.094	-304
269.155	-321
269.216	-521
269.277	-494
269.338	-178
269.398	-553
269.459	-142
269.520	697
269.581	981
269.642	1610
269.702	839
269.763	26
269.824	114
269.885	300
269.945	746
270.006	-224
270.067	-761
270.128	-1013
270.188	671
270.249	-1296
270.310	-747
270.370	-393
270.431	-762
270.492	-1135
270.553	-192
270.613	1754
270.674	3855
270.734	796
270.795	304
270.856	421
270.916	-408
270.977	-214
271.038	656
271.098	-911
271.159	744
271.219	713
271.280	1222
271.340	244
271.401	-197
271.462	2011
271.522	915
271.583	153
271.643	268
271.704	-188
271.764	274
271.825	2362
271.885	11151
271.946	12038
272.006	3880
272.066	6246
272.127	10204
272.187	2174
272.248	344
272.308	1382
272.369	8331
272.429	3945
272.489	1848
272.550	1495
272.610	3669
272.671	1800
272.731	1998
272.791	2833
272.852	947
272.912	760
272.972	301
273.033	209
273.093	1533
273.153	1258
273.214	1255
273.274	958
273.334	7258
273.394	11511
273.455	3586
273.515	4340
273.575	9804
273.635	3960
273.696	5995
273.756	11127
273.816	2834
273.876	2026
273.936	6336
273.997	10004
274.057	1251
274.117	1600
274.177	1487
274.237	15034
274.297	11206
274.358	7284
274.418	9055
274.478	5929
274.538	1888
274.598	203
274.658	8772
274.718	9484
274.778	2718
274.838	1076
274.898	4095
274.958	13944
275.018	12207
275.078	6033
275.138	1934
275.198	499
275.258	1539
275.318	832
275.378	2279
275.438	1638
275.498	1569
275.558	6667
275.618	14786
275.678	7347
275.738	4699
275.798	3353
275.858	1172
275.918	252
275.978	773
276.038	484
276.098	-119
276.157	876
276.217	7357
276.277	3178
276.337	2319
276.397	1184
276.457	1684
276.517	412
276.576	470
276.636	130
276.696	1728
276.756	4303
276.815	2153
276.875	798
276.935	1148
276.995	506
277.055	358
277.114	621
277.174	1405
277.234	6007
277.293	1576
277.353	702
277.413	847
277.472	987
277.532	729
277.592	611
277.651	9625
277.711	15327
277.771	4476
277.830	18969
277.890	12480
277.950	10692
278.009	32302
278.069	9007
278.128	12153
278.188	15356
278.248	5193
278.307	20487
278.367	9692
278.426	2013
278.486	2253
278.545	749
278.605	467
278.664	-195
278.724	910
278.783	4371
278.843	13339
278.902	3026
278.962	1856
279.021	1840
279.081	3521
279.140	2416
279.199	1615
279.259	1606
279.318	2169
279.378	2705
279.437	5535
279.496	27544
279.556	97772
279.615	66968
279.675	17144
279.734	9564
279.793	12998
279.853	19005
279.912	5946
279.971	3534
280.031	2043
280.090	7662
280.149	11636
280.208	10752
280.268	69289
280.327	59023
280.386	13837
280.445	9242
280.505	6665
280.564	2919
280.623	1969
280.682	4124
280.742	5091
280.801	1503
280.860	729
280.919	797
280.978	1310
281.037	510
281.097	414
281.156	-469
281.215	434
281.274	602
281.333	9476
281.392	5574
281.451	1186
281.510	41
281.569	955
281.628	43
281.688	199
281.747	685
281.806	302
281.865	-164
281.924	-127
281.983	389
282.042	-120
282.101	-114
282.160	865
282.219	-68
282.278	-53
282.337	3097
282.396	1735
282.454	151
282.513	1658
282.572	6424
282.631	3045
282.690	300
282.749	-348
282.808	439
282.867	-11
282.926	467
282.985	-58
283.043	-492
283.102	-5
283.161	153
283.220	3912
283.279	8579
283.338	1016
283.396	695
283.455	1152
283.514	912
283.573	2209
283.631	1090
283.690	1027
283.749	124
283.808	2053
283.866	2577
283.925	666
283.984	720
284.043	1268
284.101	1152
284.160	727
284.219	1895
284.277	975
284.336	2795
284.395	10322
284.453	7919
284.512	2712
284.570	2694
284.629	3337
284.688	3337
284.746	2703
284.805	3612
284.863	6538
284.922	7438
284.981	9067
285.039	12721
285.098	22995
285.156	61698
285.215	104786
285.273	99895
285.332	59847
285.390	31932
285.449	18569
285.507	11827
285.566	8595
285.624	5724
285.683	4237
285.741	3618
285.799	3223
285.858	2238
285.916	2184
285.975	1323
286.033	831
286.091	1771
286.150	195
286.208	1397
286.267	1625
286.325	1257
286.383	2329
286.442	1103
286.500	857
286.558	532
286.616	1039
286.675	1458
286.733	1142
286.791	-106
286.850	1183
286.908	1733
286.966	2862
287.024	971
287.083	-63
287.141	121
287.199	558
287.257	250
287.315	101
287.374	715
287.432	4426
287.490	1806
287.548	966
287.606	18
287.664	808
287.723	686
287.781	1664
287.839	-167
287.897	1236
287.955	1063
288.013	2266
288.071	5127
288.129	41717
288.187	110275
288.245	40244
288.303	12742
288.361	5552
288.419	4255
288.477	2215
288.535	1101
288.593	524
288.651	355
288.709	226
288.767	575
288.825	-663
288.883	236
288.941	810
288.999	-164
289.057	546
289.115	-109
289.173	-546
289.231	135
289.289	-63
289.346	-65
289.404	620
289.462	795
289.520	1491
289.578	-463
289.636	-251
289.694	-1169
289.751	95
289.809	-259
289.867	-609
289.925	264
289.983	-25
290.040	-283
290.098	-390
290.156	-560
290.214	871
290.271	-13
290.329	-568
290.387	-515
290.444	-288
290.502	-1531
290.560	-634
290.617	-445
290.675	-781
290.733	-522
290.790	36
290.848	-451
290.906	732
290.963	-86
291.021	-8
291.078	112
291.136	64
291.194	3325
291.251	8612
291.309	1626
291.366	162
291.424	-111
291.481	-420
291.539	51
291.596	-188
291.654	-546
291.711	-407
291.769	457
291.826	897
291.884	599
291.941	-266
291.999	-64
292.056	259
292.114	-488
292.171	336
292.228	-268
292.286	559
292.343	1028
292.401	1794
292.458	1433
292.515	466
292.573	526
292.630	485
292.687	287
292.745	-100
292.802	375
292.859	4715
292.917	9094
292.974	4598
293.031	917
293.089	-273
293.146	40
293.203	-333
293.260	-263
293.318	148
293.375	1128
293.432	658
293.489	-523
293.546	-633
293.604	184
293.661	5816
293.718	16000
293.775	6658
293.832	2984
293.889	1218
293.947	1761
294.004	980
294.061	754
294.118	4050
294.175	9902
294.232	13103
294.289	3678
294.346	1461
294.403	1094
294.460	390
294.517	226
294.574	60
294.631	-115
294.688	39
294.745	4145
294.802	19383
294.859	20394
294.916	6513
294.973	3497
295.030	2138
295.087	1504
295.144	1096
295.201	641
295.258	-276
295.315	576
295.372	7075
295.429	12294
295.486	3877
295.542	2048
295.599	8657
295.656	13939
295.713	9994
295.770	12807
295.827	4168
295.883	2257
295.940	1491
295.997	2573
296.054	2370
296.111	525
296.167	588
296.224	330
296.281	176
296.338	-461
296.394	103
296.451	367
296.508	5188
296.564	10108
296.621	6000
296.678	14626
296.734	18879
296.791	6261
296.848	3391
296.904	2230
296.961	7660
297.018	14998
297.074	10219
297.131	3261
297.187	1682
297.244	2255
297.301	17417
297.357	25350
297.414	8017
297.470	3260
297.527	1241
297.583	1489
297.640	1737
297.696	1159
297.753	321
297.809	-283
297.866	11
297.922	384
297.979	359
298.035	195
298.092	1807
298.148	8897
298.204	6865
298.261	2725
298.317	6505
298.374	17601
298.430	9112
298.486	2694
298.543	2232
298.599	1586
298.656	3476
298.712	5763
298.768	14383
298.824	8590
298.881	3335
298.937	1536
298.993	512
299.050	1584
299.106	1468
299.162	517
299.218	1158
299.275	558
299.331	857
299.387	2834
299.443	17694
299.500	18818
299.556	8174
299.612	3408
299.668	2839
299.724	5793
299.780	5101
299.837	1730
299.893	3006
299.949	16371
300.005	17055
300.061	15850
300.117	25656
300.173	11563
300.229	5566
300.285	5531
300.341	6252
300.397	2521
300.453	1284
300.510	1542
300.566	1292
300.622	2474
300.678	13752
300.734	18963
300.790	16178
300.845	16630
300.901	12687
300.957	17709
301.013	12245
301.069	4435
301.125	2811
301.181	2094
301.237	1787
301.293	504
301.349	839
301.405	654
301.461	2162
301.516	3067
301.572	2911
301.628	3027
301.684	2771
301.740	6612
301.796	10391
301.851	6580
301.907	9514
301.963	8113
302.019	17752
302.074	48674
302.130	44756
302.186	21161
302.242	8937
302.297	4116
302.353	4552
302.409	10027
302.464	7200
302.520	6049
302.576	18129
302.631	18871
302.687	10284
302.743	4098
302.798	1481
302.854	1027
302.910	1334
302.965	2121
303.021	4112
303.076	4413
303.132	5390
303.187	5870
303.243	3488
303.299	1120
303.354	1545
303.410	1593
303.465	993
303.521	12
303.576	1139
303.632	66
303.687	4498
303.743	15719
303.798	12050
303.853	4679
303.909	2353
303.964	1491
304.020	2278
304.075	4499
304.130	5060
304.186	8124
304.241	9945
304.297	6909
304.352	3545
304.358	3399
304.407	2212
304.449	2448
304.463	2530
304.518	1755
304.539	1477
304.573	1031
304.629	608
304.630	652
304.684	2721
304.720	9080
304.739	12286
304.794	16153
304.811	13779
304.850	7982
304.902	3108
304.905	2802
304.960	3015
304.992	2253
305.015	1690
305.071	1623
305.083	1665
305.126	1810
305.173	1033
305.181	916
305.236	983
305.264	1109
305.292	1214
305.347	1843
305.354	1945
305.402	2627
305.445	2374
305.457	2280
305.512	2215
305.535	2461
305.567	2869
305.622	2373
305.626	2533
305.678	6193
305.716	14334
305.733	17297
305.788	18617
305.807	16670
305.843	13442
305.897	17340
305.898	17375
305.953	15294
305.988	10380
306.008	7732
306.063	4362
306.078	3948
306.118	3222
306.168	1642
306.173	1492
306.228	1057
306.259	868
306.283	857
306.338	1209
306.349	1309
306.393	1511
306.440	1706
306.448	1760
306.503	1722
306.530	1992
306.558	2968
306.613	8258
306.620	8993
306.668	13344
306.711	17262
306.723	17659
306.778	13018
306.801	9972
306.833	6684
306.888	3327
306.892	3185
306.943	2022
306.982	2018
306.997	2036
307.052	1762
307.072	1796
307.107	2049
307.162	3048
307.163	3064
307.217	5423
307.253	7117
307.272	7549
307.327	7511
307.343	6903
307.381	5403
307.434	4565
307.436	4698
307.491	10037
307.524	15572
307.546	17226
307.600	14931
307.614	13399
307.655	8530
307.704	4177
307.710	4039
307.765	4318
307.795	6334
307.819	8544
307.874	14909
307.885	14932
307.929	10517
307.975	6200
307.984	6144
308.038	7440
308.065	9190
308.093	16283
308.148	38180
308.156	43969
308.202	78138
308.246	94068
308.257	90589
308.312	47067
308.336	31047
308.366	23068
308.421	14763
308.426	14061
308.475	8856
308.517	5921
308.530	5405
308.585	4593
308.607	4389
308.639	4427
308.694	5200
308.697	5347
308.748	12155
308.787	18480
308.803	18495
308.857	13974
308.877	11621
308.912	9140
308.967	7517
308.967	7500
309.021	9879
309.058	12569
309.076	15792
309.130	27637
309.148	32658
309.185	61509
309.238	117096
309.239	117591
309.293	133976
309.328	123738
309.348	104737
309.402	47204
309.418	32824
309.457	22209
309.508	13725
309.511	13518
309.566	13674
309.598	14806
309.620	18211
309.674	30613
309.688	33627
309.729	31807
309.778	23851
309.783	23102
309.837	14768
309.868	10593
309.892	11212
309.946	15380
309.959	17031
310.001	23033
310.049	27636
310.055	26724
310.109	16256
310.139	10002
310.163	7951
310.218	5203
310.229	4813
310.272	3826
310.319	3071
310.326	3075
310.381	2883
310.409	2941
310.435	2773
310.489	2579
310.499	2532
310.543	2680
310.589	2884
310.598	2892
310.652	2934
310.679	2931
310.706	2860
310.760	2450
310.769	2424
310.814	1798
310.859	1105
310.868	1190
310.923	1790
310.948	2020
310.977	2282
311.031	2854
311.038	2941
311.085	2578
311.128	2093
311.139	2102
311.193	2040
311.218	2074
311.247	2052
311.301	1936
311.308	1924
311.356	2022
311.398	2065
311.410	2030
311.464	1893
311.488	1802
311.518	1923
311.572	2129
311.578	2154
311.626	2491
311.668	2753
311.680	2837
311.734	3187
311.758	3342
311.788	3386
311.842	3443
311.847	3443
311.896	4303
311.937	5106
311.950	4959
312.004	4258
312.027	3930
312.058	3365
312.112	2389
312.117	2292
312.165	2460
312.207	2606
312.297	4038
312.386	2102
312.476	3245
312.566	4592
312.656	1686
312.745	1870
312.835	2539
312.925	1911
313.015	2471
313.104	3171
313.194	1366
313.284	1225
313.374	3033
313.463	2536
313.553	1658
313.643	1873
313.732	1377
313.822	1452
313.912	2756
314.001	3038
314.091	3097
314.180	2909
314.270	3128
314.360	3626
314.449	3018
314.539	1110
314.628	1833
314.718	2565
314.808	3414
314.897	1621
314.987	2196
315.076	2574
315.166	3804
315.255	3636
315.345	2921
315.434	3012
315.524	3400
315.613	3734
315.703	4922
315.792	7812
315.881	27076
315.971	8329
316.060	6378
316.150	10651
316.239	11693
316.328	4581
316.418	2176
316.507	2484
316.597	2932
316.686	2433
316.775	5757
316.865	12972
316.954	2904
317.043	1554
317.133	2548
317.222	1712
317.311	1820
317.400	1340
317.490	2845
317.579	3061
317.668	2257
317.757	4942
317.847	14143
317.936	46235
318.025	14417
318.114	9507
318.203	5209
318.293	5387
318.382	10804
318.471	8365
318.560	13410
318.649	26923
318.738	5476
318.828	2416
318.917	3672
319.006	5559
319.095	13803
319.184	31700
319.273	17197
319.362	6500
319.451	2606
319.540	2995
319.629	5818
319.718	8023
319.807	3869
319.896	11442
319.985	40416
320.074	12498
320.163	3049
320.252	5930
320.341	5232
320.430	3558
320.519	5548
320.608	3589
320.697	3274
320.786	3012
320.875	3858
320.964	4035
321.053	6522
321.142	8980
321.230	9731
321.319	7229
321.408	17817
321.497	8366
321.586	7719
321.675	10103
321.764	10405
321.852	6062
321.941	9610
322.030	6105
322.119	6774
322.207	18514
322.296	17421
322.385	6747
322.474	8475
322.562	21683
322.651	12579
322.740	7684
322.829	12818
322.917	15479
323.006	7853
323.095	5688
323.183	4693
323.272	5853
323.361	14308
323.449	49903
323.538	15253
323.626	34692
323.715	20956
323.804	6843
323.892	31416
323.981	15670
324.069	4517
324.158	17838
324.246	16689
324.335	4299
324.424	6030
324.512	2758
324.601	4533
324.689	19185
324.778	43282
324.866	13522
324.954	3920
325.043	2646
325.131	5635
325.220	13354
325.308	14005
325.397	10028
325.485	5995
325.574	1506
325.662	2226
325.750	1574
325.839	2069
325.927	1762
326.015	2025
326.104	3982
326.192	7218
326.280	1944
326.369	2071
326.457	2627
326.545	5169
326.634	2363
326.722	1123
326.810	1331
326.898	1458
326.987	1478
327.075	4856
327.163	6416
327.251	4172
327.340	15689
327.428	25980
327.516	3555
327.604	2515
327.692	2535
327.781	2730
327.869	4472
327.957	3374
328.045	2257
328.133	1741
328.221	2713
328.309	2248
328.397	1791
328.485	2386
328.574	3198
328.662	11125
328.750	6514
328.838	3128
328.926	1751
329.014	944
329.102	1412
329.190	7713
329.278	4277
329.366	1253
329.454	1159
329.542	1503
329.630	1143
329.718	1420
329.806	1569
329.893	2452
329.981	1631
330.069	1848
330.157	8185
330.245	30072
330.333	15392
330.421	2168
330.509	3034
330.597	12509
330.684	7656
330.772	3213
330.860	4004
330.948	6477
331.036	2764
331.123	1351
331.211	1243
331.299	1570
331.387	4960
331.475	9215
331.562	2778
331.650	1418
331.738	1344
331.825	3440
331.913	853
332.001	1400
332.089	1963
332.176	5078
332.264	15192
332.352	12858
332.439	1774
332.527	2084
332.614	1936
332.702	2992
332.790	1463
332.877	5984
332.965	15657
333.052	3994
333.140	3640
333.228	9705
333.315	2477
333.403	2457
333.490	8010
333.578	8285
333.665	12243
333.753	5021
333.840	1875
333.928	3205
334.015	8841
334.103	12962
334.190	45968
334.278	11864
334.365	4706
334.452	5015
334.540	2528
334.627	3113
334.715	5381
334.802	8477
334.889	59777
334.977	66216
335.064	9360
335.151	3951
335.239	3179
335.326	3858
335.413	19769
335.501	31151
335.588	3650
335.675	2402
335.762	3366
335.850	6323
335.937	4812
336.024	13378
336.111	65409
336.199	32604
336.286	6336
336.373	2910
336.460	1494
336.547	2194
336.635	2210
336.722	2158
336.809	2144
336.896	2660
336.983	10123
337.070	28445
337.157	47183
337.245	38375
337.332	29534
337.419	3133
337.506	1962
337.593	2504
337.680	7509
337.767	29146
337.854	7208
337.941	7867
338.028	12554
338.115	3801
338.202	4772
338.289	7884
338.376	38470
338.463	11263
338.550	14604
338.637	18833
338.724	6392
338.811	12009
338.898	2471
338.984	1662
339.071	1701
339.158	2201
339.245	6459
339.332	4629
339.419	7013
339.506	7809
339.593	1784
339.679	1381
339.766	1066
339.853	1703
339.940	3908
340.027	1198
340.113	1585
340.200	2603
340.287	1293
340.374	2084
340.460	4246
340.547	1316
340.634	2199
340.720	11732
340.807	7086
340.894	1345
340.980	2014
341.067	1023
341.154	1551
341.240	2651
341.327	5892
341.414	1861
341.500	1981
341.587	1731
341.674	1367
341.760	4020
341.847	4025
341.933	1521
342.020	670
342.106	1120
342.193	1187
342.279	3212
342.366	2229
342.452	3760
342.539	815
342.625	4197
342.712	12620
342.798	4851
342.885	1560
342.971	1568
343.058	910
343.144	1282
343.230	1355
343.317	1309
343.403	1210
343.490	1184
343.576	664
343.662	1546
343.749	1774
343.835	1373
343.921	3056
344.008	25938
344.094	72776
344.180	15735
344.267	3633
344.353	16540
344.439	21177
344.525	6169
344.612	2482
344.698	2193
344.784	929
344.870	1061
344.957	1001
345.043	2649
345.129	1067
345.215	3984
345.301	1996
345.387	1244
345.474	183
345.560	665
345.646	1754
345.732	1410
345.818	1456
345.904	1501
345.990	1417
346.076	1714
346.162	4819
346.249	2493
346.335	342
346.421	1249
346.507	5562
346.593	27271
346.679	6142
346.765	1514
346.851	1488
346.937	1193
347.023	1324
347.108	1404
347.194	823
347.280	1172
347.366	1321
347.452	6930
347.538	31594
347.624	22938
347.710	18389
347.796	3142
347.882	1425
347.967	1267
348.053	1872
348.139	1595
348.225	376
348.311	1621
348.397	1303
348.482	1406
348.568	1865
348.654	429
348.740	1997
348.825	1854
348.911	2714
348.997	13231
349.083	32244
349.168	5619
349.254	1581
349.340	1490
349.425	976
349.511	1390
349.597	1919
349.682	3249
349.768	15895
349.854	8057
349.939	1728
350.025	367
350.110	939
350.196	946
350.282	1060
350.367	665
350.453	3138
350.538	2381
350.624	1097
350.709	1942
350.795	183
350.880	1179
350.966	1248
351.051	2246
351.137	2000
351.222	1357
351.308	3957
351.393	13780
351.479	3809
351.564	1346
351.649	881
351.735	1217
351.820	845
351.906	793
351.991	1646
352.076	7561
352.162	12923
352.247	2365
352.332	844
352.418	2844
352.503	4054
352.588	17241
352.673	15006
352.759	2881
352.844	1116
352.929	1222
353.014	2367
353.100	1392
353.185	3045
353.270	3935
353.355	4200
353.441	1094
353.526	1935
353.611	3443
353.696	4563
353.781	2725
353.866	517
353.952	1679
354.037	3084
354.122	9060
354.207	6939
354.292	2842
354.377	1755
354.462	1002
354.547	1026
354.632	2000
354.717	2721
354.802	2913
354.887	928
354.972	1059
355.057	855
355.142	1011
355.227	1230
355.312	2060
355.397	4194
355.482	13464
355.567	7061
355.652	4921
355.737	5520
355.822	16719
355.907	16993
355.991	2900
356.076	898
356.161	1555
356.246	433
356.331	928
356.416	3270
356.501	32658
356.585	39473
356.670	4118
356.755	2970
356.840	3255
356.924	18058
357.009	81776
357.094	33059
357.179	4730
357.263	3801
357.348	4127
357.433	4091
357.517	3580
357.602	1892
357.687	2427
357.771	4496
357.856	15611
357.941	9883
358.025	13063
358.110	75087
358.195	40543
358.279	4157
358.364	2546
358.448	10227
358.533	32115
358.617	24022
358.702	23879
358.787	9014
358.871	4005
358.956	3764
359.040	1291
359.125	149
359.209	1327
359.294	5965
359.378	13722
359.462	4753
359.547	2475
359.631	1554
359.716	950
359.800	276
359.885	3026
359.969	1050
360.053	1481
360.138	1288
360.222	1870
360.306	3226
360.391	4167
360.475	6958
360.559	17483
360.644	10873
360.728	9058
360.812	14589
360.896	55476
360.981	20556
361.065	10298
361.149	2620
361.233	1856
361.318	1928
361.402	2767
361.486	2786
361.570	2014
361.654	2011
361.739	5361
361.823	28956
361.907	57216
361.991	9640
362.075	3979
362.159	7925
362.243	8402
362.327	6452
362.411	14000
362.495	6768
362.580	2549
362.664	2354
362.748	1876
362.832	2900
362.916	4320
363.000	17900
363.084	53457
363.168	70704
363.252	15948
363.336	4200
363.420	5965
363.503	25176
363.587	37270
363.671	5684
363.755	2856
363.839	4073
363.923	2274
364.007	4507
364.091	6457
364.175	8547
364.258	46062
364.342	36270
364.426	49938
364.510	29910
364.594	9547
364.677	9013
364.761	42173
364.845	37180
364.929	8782
365.013	5728
365.096	5519
365.180	6545
365.264	10348
365.347	46700
365.431	22499
365.515	4391
365.598	1079
365.682	2139
365.766	2477
365.849	5193
365.933	1685
366.017	4131
366.100	2154
366.184	519
366.267	2374
366.351	1050
366.435	470
366.518	437
366.602	572
366.685	961
366.769	1716
366.852	3477
366.936	5596
367.019	3093
367.103	2021
367.186	6057
367.270	1395
367.353	701
367.436	1782
367.520	486
367.603	1527
367.687	1664
367.770	5015
367.853	2958
367.937	10588
368.020	22244
368.104	5290
368.187	3286
368.270	5432
368.353	4415
368.437	7541
368.520	23701
368.603	13942
368.687	11703
368.770	27200
368.853	6551
368.936	4969
369.020	6035
369.103	2127
369.186	784
369.269	618
369.352	2949
369.436	4579
369.519	2856
369.602	888
369.685	2045
369.768	1955
369.851	611
369.934	549
370.018	610
370.101	3363
370.184	4607
370.267	2474
370.350	4211
370.433	6722
370.516	20520
370.599	35854
370.682	9269
370.765	11863
370.848	14775
370.931	31739
371.014	14387
371.097	1998
371.180	1722
371.263	1322
371.346	132
371.429	1408
371.511	886
371.594	2274
371.677	5525
371.760	6073
371.843	4323
371.926	21029
372.009	61486
372.091	22595
372.174	10990
372.257	32882
372.340	13532
372.423	7642
372.505	10247
372.588	3840
372.671	7447
372.754	30599
372.836	18024
372.919	11260
373.002	26035
373.085	8006
373.167	4688
373.250	11791
373.332	29634
373.415	38227
373.498	88311
373.580	35450
373.663	40443
373.746	65341
373.828	13557
373.911	5443
373.993	5243
374.076	21683
374.159	26801
374.241	8629
374.324	23407
374.406	19067
374.489	20301
374.571	72247
374.654	34710
374.736	12664
374.819	42234
374.901	61035
374.983	72546
375.066	12983
375.148	4842
375.231	17176
375.313	40882
375.395	15247
375.478	3150
375.560	2743
375.643	2791
375.725	10537
375.807	53118
375.890	53831
375.972	23304
376.054	10397
376.136	19422
376.219	9371
376.301	12076
376.383	47729
376.465	21515
376.548	7320
376.630	10379
376.712	37884
376.794	22702
376.877	2462
376.959	517
377.041	1819
377.123	3921
377.205	5450
377.287	668
377.369	1210
377.452	922
377.534	1606
377.616	587
377.698	1299
377.780	7
377.862	1318
377.944	1019
378.026	368
378.108	1055
378.190	508
378.272	1024
378.354	541
378.436	900
378.518	1104
378.600	7380
378.682	8220
378.764	15221
378.846	15746
378.928	2951
379.010	4976
379.091	3231
379.173	1668
379.255	72
379.337	1445
379.419	6971
379.501	24768
379.583	11431
379.664	2460
379.746	4982
379.828	14490
379.910	21799
379.991	21990
380.073	3660
380.155	1915
380.237	1468
380.318	1079
380.400	625
380.482	3297
380.564	5457
380.645	4719
380.727	4823
380.809	2870
380.890	1843
380.972	1638
381.053	1348
381.135	1895
381.217	4603
381.298	17163
381.380	9766
381.461	6630
381.543	34118
381.624	53332
381.706	9899
381.787	4183
381.869	4840
381.951	14489
382.032	65034
382.113	50258
382.195	8498
382.276	6186
382.358	10770
382.439	33323
382.521	41536
382.602	67924
382.684	31390
382.765	45142
382.846	57564
382.928	92315
383.009	59781
383.090	29170
383.172	111319
383.253	213366
383.334	73937
383.416	56477
383.497	36305
383.578	13446
383.659	23686
383.741	90175
383.822	282447
383.903	172939
383.984	42045
384.066	64581
384.147	44018
384.228	9640
384.309	5612
384.390	5075
384.471	2963
384.553	4297
384.634	4338
384.715	4532
384.796	3333
384.877	4141
384.958	13510
385.039	19790
385.120	6641
385.201	3045
385.282	2543
385.363	4620
385.444	3529
385.525	6635
385.606	24635
385.687	28322
385.768	6106
385.849	5405
385.930	23935
386.011	54470
386.092	16281
386.173	2856
386.254	2311
386.335	2530
386.416	2271
386.496	9324
386.577	17256
386.658	6898
386.739	2692
386.820	3250
386.901	1946
386.981	3512
387.062	2141
387.143	3608
387.224	15698
387.304	18321
387.385	6309
387.466	2786
387.547	5631
387.627	3177
387.708	5883
387.789	28271
387.869	41440
387.950	14204
388.031	2417
388.111	572
388.192	5581
388.273	9080
388.353	5608
388.434	2856
388.514	5252
388.595	28625
388.676	43260
388.756	18055
388.837	13859
388.917	10531
388.998	422
389.078	2773
389.159	1425
389.239	707
389.320	3098
389.400	1963
389.480	5733
389.561	18061
389.641	10771
389.722	3166
389.802	3714
389.883	7419
389.963	22147
390.043	17522
390.124	4098
390.204	5738
390.284	16656
390.365	13798
390.445	15308
390.525	41372
390.605	39200
390.686	11140
390.766	4149
390.846	2783
390.927	1574
391.007	1026
391.087	2151
391.167	2573
391.247	596
391.328	4108
391.408	5528
391.488	4204
391.568	-127
391.648	2317
391.728	3363
391.808	3905
391.888	3383
391.969	9118
392.049	16288
392.129	8589
392.209	8400
392.289	21615
392.369	14708
392.449	11127
392.529	7581
392.609	6492
392.689	7626
392.769	21108
392.849	23640
392.929	15294
393.009	34146
393.089	33304
393.169	32721
393.248	92947
393.328	349959
393.408	447400
393.488	142513
393.568	36585
393.648	16570
393.728	10678
393.807	6259
393.887	6843
393.967	5452
394.047	5050
394.127	6031
394.206	8796
394.286	26130
394.366	130601
394.446	174105
394.525	39302
394.605	8512
394.685	6749
394.764	13412
394.844	25137
394.924	21107
395.003	6492
395.083	3195
395.163	3826
395.242	3102
395.322	3425
395.402	1200
395.481	5012
395.561	8606
395.640	29560
395.720	26476
395.799	31506
395.879	29874
395.958	13189
396.038	35648
396.117	172611
396.197	230959
396.276	64577
396.356	18077
396.435	13977
396.515	11506
396.594	12724
396.673	26506
396.753	96235
396.832	326264
396.912	292000
396.991	69366
397.070	18627
397.150	8236
397.229	7967
397.308	8415
397.388	15499
397.467	8340
397.546	3543
397.625	220
397.705	4102
397.784	2966
397.863	2548
397.942	992
398.022	1908
398.101	6474
398.180	26567
398.259	17087
398.338	4712
398.417	2035
398.497	1654
398.576	1492
398.655	961
398.734	1223
398.813	1412
398.892	6964
398.971	29738
399.050	18522
399.129	1764
399.208	785
399.287	1825
399.366	-549
399.445	1157
399.524	971
399.603	-287
399.682	2408
399.761	6241
399.840	29798
399.919	29434
399.998	3775
400.077	299
400.156	-374
400.235	1782
400.313	116
400.392	893
400.471	6281
400.550	13973
400.629	3189
400.708	1112
400.786	370
400.865	3607
400.944	5215
401.023	3270
401.102	251
401.180	117
401.259	-128
401.338	859
401.416	703
401.495	609
401.574	1237
401.652	315
401.731	634
401.810	700
401.888	-8
401.967	-248
402.046	631
402.124	1302
402.203	771
402.281	1456
402.360	1618
402.438	6410
402.517	4143
402.596	635
402.674	-87
402.753	-241
402.831	-72
402.910	853
402.988	4412
403.066	19511
403.145	14584
403.223	4992
403.302	14764
403.380	12911
403.459	11109
403.537	5000
403.615	1033
403.694	-793
403.772	413
403.850	-89
403.929	-457
404.007	-1202
404.085	1732
404.164	1182
404.242	3
404.320	882
404.398	1935
404.477	6259
404.555	43673
404.633	49793
404.711	7453
404.789	1198
404.868	295
404.946	-427
405.024	-441
405.102	-934
405.180	-927
405.258	-939
405.336	126
405.415	-235
405.493	2113
405.571	1513
405.649	-728
405.727	-850
405.805	1659
405.883	502
405.961	823
406.039	713
406.117	-527
406.195	1565
406.273	6303
406.351	37909
406.429	28746
406.507	3476
406.585	72
406.663	1005
406.740	593
406.818	894
406.896	-786
406.974	1067
407.052	1036
407.130	19097
407.208	34264
407.285	7600
407.363	211
407.441	256
407.519	-126
407.596	775
407.674	2769
407.752	16749
407.830	20073
407.907	5405
407.985	234
408.063	-81
408.141	-501
408.218	1326
408.296	247
408.373	248
408.451	837
408.529	135
408.606	-995
408.684	-199
408.762	-652
408.839	-1020
408.917	-947
408.994	-409
409.072	-564
409.149	-577
409.227	946
409.304	2155
409.382	1399
409.459	970
409.537	3646
409.614	3385
409.692	1039
409.769	913
409.846	3670
409.924	5427
410.001	1928
410.079	1546
410.156	1539
410.233	791
410.311	793
410.388	-171
410.465	415
410.543	-36
410.620	-168
410.697	452
410.775	416
410.852	-741
410.929	797
411.006	1754
411.083	684
411.161	1223
411.238	2387
411.315	1425
411.392	-845
411.469	874
411.547	-151
411.624	-737
411.701	-965
411.778	-153
411.855	1128
411.932	1178
412.009	-721
412.086	535
412.163	566
412.240	200
412.317	615
412.394	66
412.471	568
412.548	-322
412.625	-167
412.702	499
412.779	793
412.856	1361
412.933	-711
413.010	-370
413.087	-58
413.164	5350
413.241	11492
413.318	2605
413.395	747
413.471	915
413.548	325
413.625	464
413.702	-318
413.779	236
413.855	-560
413.932	-1208
414.009	-1834
414.086	133
414.162	-280
414.239	760
414.316	5663
414.393	16966
414.469	6973
414.546	-593
414.623	-768
414.699	-750
414.776	-877
414.853	-1056
414.929	-558
415.006	44
415.082	-87
415.159	-118
415.236	-52
415.312	448
415.389	75
415.465	1880
415.542	170
415.618	-973
415.695	1066
415.771	-556
415.848	-340
415.924	433
416.000	-276
416.077	773
416.153	-695
416.230	-1251
416.306	-1244
416.383	-652
416.459	-276
416.535	-729
416.612	-962
416.688	-102
416.764	43
416.841	-733
416.917	-396
416.993	-28
417.069	211
417.146	-35
417.222	208
417.298	-517
417.374	-726
417.451	621
417.527	233
417.603	108
417.679	46
417.755	-194
417.831	-870
417.908	-68
417.984	-167
418.060	-1458
418.136	913
418.212	2720
418.288	-8
418.364	41
418.440	-380
418.516	962
418.592	1640
418.668	3204
418.744	4578
418.820	4396
418.896	656
418.972	-1075
419.048	-955
419.124	1766
419.200	482
419.276	-565
419.352	-1419
419.428	488
419.504	-386
419.579	-69
419.655	-575
419.731	143
419.807	1409
419.883	5272
419.959	4496
420.034	1233
420.110	1624
420.186	8987
420.262	10039
420.337	865
420.413	114
420.489	457
420.565	548
420.640	-528
420.716	63
420.792	-1139
420.867	1165
420.943	499
421.019	467
421.094	577
421.170	121
421.245	-307
421.321	271
421.397	564
421.472	2916
421.548	9762
421.623	7833
421.699	1703
421.774	1346
421.850	1198
421.925	2658
422.001	3102
422.076	2535
422.152	2899
422.227	5187
422.302	6187
422.378	9582
422.453	18396
422.529	43997
422.604	124241
422.679	215212
422.755	168099
422.830	66918
422.905	25473
422.981	11906
423.056	8052
423.131	4703
423.207	4428
423.282	3409
423.357	5676
423.432	3414
423.508	3112
423.583	5767
423.658	5209
423.733	1235
423.808	1764
423.883	1859
423.959	1463
424.034	1139
424.109	2150
424.184	368
424.259	214
424.334	274
424.409	-621
424.484	-207
424.559	476
424.634	143
424.709	1237
424.784	1620
424.859	499
424.934	687
425.009	6064
425.084	13426
425.159	6422
425.234	667
425.309	-16
425.384	2975
425.459	6240
425.534	2146
425.609	13
425.683	369
425.758	112
425.833	625
425.908	848
425.983	2350
426.058	13618
426.132	7877
426.207	637
426.282	1628
426.357	1511
426.431	92
426.506	337
426.581	16
426.655	509
426.730	351
426.805	-340
426.879	379
426.954	251
427.029	1417
427.103	10444
427.178	35152
427.253	21545
427.327	2193
427.402	1195
427.476	7692
427.551	5426
427.625	1024
427.700	1124
427.774	-505
427.849	1262
427.923	284
427.998	669
428.072	713
428.147	2882
428.221	12645
428.296	48374
428.370	38446
428.444	4989
428.519	2486
428.593	5775
428.667	6965
428.742	6308
428.816	8007
428.890	27087
428.965	58951
429.039	22704
429.113	8345
429.188	3898
429.262	805
429.336	1455
429.410	5527
429.485	5795
429.559	3998
429.633	5585
429.707	1713
429.781	4281
429.855	28462
429.930	58774
430.004	28128
430.078	32105
430.152	35272
430.226	60258
430.300	83334
430.374	17779
430.448	4712
430.522	8483
430.596	30023
430.670	26868
430.744	43042
430.818	82258
430.892	23209
430.966	2693
431.040	1307
431.114	19
431.188	-221
431.262	281
431.336	60
431.410	2804
431.484	7119
431.557	7486
431.631	791
431.705	1552
431.779	6982
431.853	42211
431.927	45439
432.000	6964
432.074	90
432.148	418
432.222	534
432.295	-97
432.369	19
432.443	788
432.516	11835
432.590	39664
432.664	21523
432.737	2303
432.811	-830
432.885	-457
432.958	521
433.032	-204
433.106	-1316
433.179	69
433.253	-341
433.326	16
433.400	-532
433.473	-33
433.547	-909
433.620	-47
433.694	253
433.767	1836
433.841	-152
433.914	-46
433.988	-419
434.061	113
434.134	-786
434.208	-606
434.281	-805
434.355	-1159
434.428	-306
434.501	-107
434.575	-230
434.648	-789
434.721	-1149
434.795	-445
434.868	-1047
434.941	-491
435.014	-551
435.088	-329
435.161	775
435.234	1814
435.307	3072
435.381	1110
435.454	959
435.527	2214
435.600	1707
435.673	2572
435.746	1094
435.819	994
435.892	546
435.966	94
436.039	-546
436.112	671
436.185	-721
436.258	20
436.331	-1048
436.404	-826
436.477	-916
436.550	-13
436.623	94
436.696	-19
436.769	-32
436.842	254
436.915	-327
436.987	390
437.060	257
437.133	-1119
437.206	-871
437.279	240
437.352	-704
437.425	-528
437.498	-274
437.570	1213
437.643	1978
437.716	-646
437.789	-509
437.861	1125
437.934	5179
438.007	4316
438.080	-2
438.152	332
438.225	1762
438.298	15528
438.370	64365
438.443	41695
438.516	8374
438.588	2021
438.661	-585
438.734	799
438.806	-33
438.879	648
438.951	815
439.024	2980
439.096	1214
439.169	-166
439.241	-154
439.314	-567
439.386	-16
439.459	2110
439.531	3175
439.604	1498
439.676	125
439.749	-180
439.821	-1352
439.893	65
439.966	-301
440.038	60
440.110	1098
440.183	479
440.255	-112
440.327	1538
440.400	6360
440.472	36150
440.544	38272
440.617	6054
440.689	1634
440.761	3126
440.833	4576
440.905	5194
440.978	342
441.050	-409
441.122	-102
441.194	-321
441.266	213
441.338	-528
441.411	1012
441.483	8403
441.555	21079
441.627	8447
441.699	1459
441.771	1775
441.843	774
441.915	199
441.987	-37
442.059	391
442.131	314
442.203	2447
442.275	1590
442.347	4117
442.419	4918
442.491	23373
442.563	80822
442.635	56966
442.706	16924
442.778	14238
442.850	3344
442.922	1835
442.994	1477
443.066	2845
443.137	3085
443.209	2080
443.281	3924
443.353	8481
443.425	31979
443.496	125667
443.568	172250
443.640	86114
443.711	19333
443.783	4517
443.855	3145
443.926	1252
443.998	937
444.070	2372
444.141	1663
444.213	2795
444.285	3803
444.356	3127
444.428	3350
444.499	1168
444.571	415
444.642	930
444.714	332
444.785	1986
444.857	3509
444.928	8793
445.000	9307
445.071	7080
445.143	9943
445.214	7792
445.285	9330
445.357	26062
445.428	79309
445.500	214200
445.571	185312
445.642	110190
445.714	43059
445.785	25079
445.856	12065
445.928	5195
445.999	4605
446.070	3632
446.141	2056
446.213	4131
446.284	2308
446.355	2480
446.426	1273
446.497	742
446.569	1637
446.640	4224
446.711	3476
446.782	1252
446.853	1538
446.924	1720
446.995	247
447.066	1305
447.138	2688
447.209	2888
447.280	-5
447.351	-244
447.422	-787
447.493	863
447.564	1992
447.635	3016
447.706	1367
447.777	457
447.847	-166
447.918	-493
447.989	264
448.060	2201
448.131	6103
448.202	7750
448.273	4118
448.344	2816
448.414	274
448.485	307
448.556	171
448.627	122
448.698	254
448.768	-830
448.839	-380
448.910	1687
448.981	4025
449.051	1879
449.122	-326
449.193	-830
449.263	196
449.334	-254
449.405	746
449.475	3307
449.546	3907
449.616	3268
449.687	5066
449.758	2047
449.828	-235
449.899	-84
449.969	-430
450.040	-372
450.110	-31
450.181	1553
450.251	-47
450.322	-162
450.392	576
450.463	-410
450.533	-483
450.604	-244
450.674	635
450.744	522
450.815	-209
450.885	173
450.955	-242
451.026	312
451.096	327
451.166	1833
451.237	2727
451.307	11511
451.377	10077
451.447	1111
451.518	391
451.588	-122
451.658	209
451.728	1818
451.799	8557
451.869	18972
451.939	7407
452.009	1158
452.079	303
452.149	741
452.219	1179
452.289	12350
452.360	17769
452.430	4669
452.500	862
452.570	2910
452.640	5568
452.710	12908
452.780	26303
452.850	19145
452.920	13184
452.990	6475
453.060	1918
453.129	2178
453.199	4272
453.269	11922
453.339	46951
453.409	82032
453.479	54821
453.549	88762
453.619	102741
453.688	67647
453.758	11497
453.828	2004
453.898	1024
453.968	1065
454.037	1198
454.087	1151
454.107	1128
454.168	-69
454.177	-253
454.247	552
454.249	556
454.316	454
454.330	418
454.386	164
454.411	1798
454.456	4416
454.492	9827
454.525	14681
454.574	9939
454.595	7915
454.655	2439
454.665	1554
454.734	1081
454.736	1154
454.804	3036
454.817	4641
454.873	11000
454.898	14468
454.943	20853
454.979	15616
455.013	10963
455.060	5439
455.082	2923
455.141	1876
455.152	1667
455.221	6180
455.222	6365
455.291	18924
455.303	18309
455.360	16117
455.384	14557
455.430	11262
455.465	11073
455.499	10900
455.546	11212
455.569	11158
455.627	13349
455.638	13911
455.707	2894
455.708	2887
455.777	363
455.789	449
455.846	929
455.869	852
455.916	646
455.950	605
455.985	477
456.031	802
456.054	994
456.112	534
456.124	444
456.193	789
456.193	778
456.262	1250
456.274	1419
456.332	2105
456.355	2227
456.401	2255
456.436	2089
456.470	2075
456.516	1089
456.540	535
456.597	392
456.609	390
456.678	863
456.678	855
456.747	322
456.759	273
456.817	28
456.840	198
456.886	463
456.920	616
456.955	855
457.001	855
457.024	874
457.082	1005
457.093	1009
457.162	2432
457.163	2446
457.232	3055
457.243	3019
457.301	2661
457.324	1972
457.370	936
457.405	891
457.439	977
457.485	1221
457.508	1256
457.566	1958
457.577	2164
457.646	2654
457.647	2678
457.715	5460
457.727	6180
457.784	10284
457.808	13323
457.853	16489
457.889	21248
457.922	24162
457.969	20278
457.991	21159
458.050	19364
458.060	18994
458.129	28754
458.130	29197
458.198	34089
458.211	31862
458.267	27027
458.292	20393
458.336	11725
458.372	9698
458.405	10106
458.453	13843
458.474	16540
458.533	28872
458.543	29407
458.611	46196
458.614	46700
458.680	44337
458.694	37553
458.749	22434
458.775	16454
458.818	7484
458.855	5356
458.887	3654
458.936	3141
458.955	2965
459.016	2410
459.024	2384
459.093	2996
459.097	2992
459.162	2052
459.177	2073
459.230	2785
459.257	2945
459.299	2915
459.338	3017
459.368	3167
459.418	3410
459.437	3301
459.499	3338
459.505	3380
459.574	1973
459.579	1935
459.643	1404
459.659	1418
459.711	1747
459.740	2096
459.780	2362
459.820	2319
459.849	2379
459.900	1996
459.917	1899
459.981	2629
459.986	2636
460.054	2395
460.061	2291
460.123	1597
460.141	1786
460.191	2752
460.222	2893
460.260	2779
460.302	3309
460.328	3571
460.382	3559
460.397	3525
460.462	2492
460.465	2562
460.534	5211
460.543	5569
460.602	12918
460.623	15935
460.671	24989
460.703	33754
460.739	29477
460.783	24302
460.808	24109
460.864	9609
460.876	7784
460.944	2573
460.945	2511
461.013	2403
461.024	2321
461.081	2222
461.104	2651
461.150	2886
461.184	2635
461.218	2590
461.264	2417
461.286	2413
461.345	2163
461.355	2122
461.423	2534
461.425	2526
461.491	2664
461.505	2903
461.559	5408
461.585	6473
461.628	8591
461.665	11043
461.696	11738
461.745	15981
461.764	15748
461.825	11096
461.832	11276
461.901	4648
461.905	4610
461.969	2981
461.985	2765
462.037	2925
462.065	2997
462.105	3020
462.145	3107
462.173	4118
462.225	6263
462.241	6809
462.305	9984
462.310	9757
462.378	7926
462.385	7143
462.446	5443
462.465	4823
462.514	3235
462.545	3220
462.582	2920
462.625	2834
462.650	2817
462.705	2597
462.718	2702
462.785	3031
462.786	3041
462.854	3957
462.865	4122
462.922	4938
462.945	5527
462.990	5186
463.025	4278
463.058	4085
463.104	3026
463.126	2533
463.184	2488
463.194	2695
463.262	3492
463.264	3537
463.330	2912
463.344	2748
463.398	3687
463.424	4095
463.466	3144
463.504	2489
463.533	3027
463.583	3751
463.601	3837
463.663	3738
463.669	3773
463.737	4687
463.743	4756
463.805	7154
463.823	8022
463.873	12048
463.903	14386
463.940	14264
463.982	15718
464.008	14107
464.062	8472
464.076	8313
464.142	3917
464.144	3814
464.211	2541
464.221	2509
464.279	3009
464.301	3107
464.347	3203
464.381	3559
464.414	3951
464.461	4381
464.482	4670
464.540	5554
464.550	5570
464.617	5650
464.620	5628
464.685	4842
464.699	4690
464.753	5336
464.779	5767
464.820	5882
464.859	5939
464.888	5880
464.938	5799
464.956	5991
465.018	6447
465.023	6366
465.091	5780
465.098	5630
465.158	5254
465.177	5251
465.226	4824
465.257	4544
465.293	4987
465.336	5387
465.361	5802
465.416	6890
465.428	7302
465.495	9627
465.496	9665
465.563	13527
465.575	14264
465.631	16287
465.654	17548
465.698	12533
465.734	7419
465.765	6637
465.813	4438
465.833	4076
465.893	4389
465.900	4367
465.968	4332
465.972	4313
466.035	3421
466.052	3209
466.102	4000
466.131	4421
466.170	4125
466.210	3828
466.237	4470
466.290	5715
466.304	5555
466.369	4704
466.372	4740
466.439	5743
466.449	5864
466.506	6206
466.528	6328
466.573	9413
466.607	11737
466.641	15596
466.687	20958
466.708	21774
466.766	24244
466.775	22602
466.842	10336
466.845	9727
466.909	7466
466.925	7014
466.977	7115
467.004	7325
467.044	6722
467.083	6127
467.111	7044
467.163	8735
467.178	8731
467.242	8669
467.245	8641
467.312	7816
467.321	7697
467.379	7243
467.400	7061
467.446	7610
467.480	7990
467.559	6902
467.638	6019
467.717	7244
467.796	8292
467.875	8379
467.955	7922
468.034	11834
468.113	24549
468.192	31735
468.271	8934
468.350	8287
468.429	12203
468.508	12001
468.588	8117
468.667	6882
468.746	7158
468.825	5816
468.904	6551
468.983	6689
469.062	10032
469.141	10952
469.220	6326
469.299	5346
469.378	5695
469.456	8638
469.535	7344
469.614	7664
469.693	6294
469.772	8828
469.851	11652
469.930	7661
470.009	6334
470.088	6688
470.166	8932
470.245	14479
470.324	15122
470.403	9591
470.482	6809
470.560	6513
470.639	5877
470.718	7159
470.797	5762
470.875	7497
470.954	8881
471.033	9008
471.111	5075
471.190	4944
471.269	4842
471.347	4931
471.426	4634
471.505	5652
471.583	6664
471.662	5403
471.740	5140
471.819	5578
471.898	5535
471.976	5463
472.055	5632
472.133	5991
472.212	8032
472.290	8149
472.369	5184
472.447	5620
472.526	4549
472.604	5138
472.683	5216
472.761	5776
472.839	4612
472.918	4945
472.996	5346
473.075	6758
473.153	5364
473.231	5710
473.310	5593
473.388	5817
473.466	5888
473.545	7166
473.623	7304
473.701	6849
473.780	5478
473.858	4224
473.936	6653
474.014	6223
474.093	6445
474.171	8902
474.249	11656
474.327	6778
474.405	5142
474.484	4761
474.562	4438
474.640	4735
474.718	5322
474.796	5326
474.874	4521
474.952	3680
475.030	5201
475.108	4835
475.187	5270
475.265	5649
475.343	7845
475.421	8277
475.499	5948
475.577	5196
475.655	7518
475.733	14219
475.811	20123
475.889	18217
475.966	9789
476.044	4975
476.122	6984
476.200	7999
476.278	5420
476.356	4253
476.434	5569
476.512	5730
476.590	8208
476.667	6434
476.745	4583
476.823	5730
476.901	5242
476.979	4778
477.056	4472
477.134	5719
477.212	5105
477.290	4901
477.367	4135
477.445	4489
477.523	3739
477.601	5227
477.678	5824
477.756	6310
477.834	5801
477.911	5018
477.989	3837
478.066	4751
478.144	4692
478.222	5730
478.299	8329
478.377	6727
478.454	3757
478.532	4344
478.609	4324
478.687	4759
478.764	3968
478.842	4875
478.919	5225
478.997	5253
479.074	4184
479.152	5546
479.229	6420
479.307	4320
479.384	2985
479.461	4561
479.539	3830
479.616	4550
479.694	3765
479.771	4632
479.848	4766
479.926	6101
480.003	6398
480.080	4405
480.157	3297
480.235	3425
480.312	4895
480.389	4708
480.467	6702
480.544	9483
480.621	3992
480.698	4691
480.775	5915
480.853	5019
480.930	4125
481.007	4122
481.084	4757
481.161	7067
481.238	5798
481.315	3843
481.392	3718
481.470	4204
481.547	4136
481.624	4034
481.701	3750
481.778	3755
481.855	5566
481.932	6733
482.009	11822
482.086	6737
482.163	5261
482.240	8670
482.317	11176
482.393	6833
482.470	4632
482.547	4161
482.624	4128
482.701	6131
482.778	3924
482.855	3392
482.932	4780
483.009	4240
483.085	4763
483.162	7142
483.239	5879
483.316	5136
483.393	5180
483.469	5249
483.546	4448
483.623	3831
483.699	3509
483.776	4281
483.853	4612
483.930	8698
484.006	19361
484.083	28794
484.160	15402
484.236	21787
484.313	16093
484.389	12429
484.466	12361
484.543	11720
484.619	12279
484.696	13576
484.772	12641
484.849	12820
484.925	10287
485.002	10357
485.078	10944
485.155	10198
485.231	9540
485.308	9691
485.384	9050
485.461	12487
485.537	19191
485.614	20323
485.690	9238
485.766	9136
485.843	9768
485.919	13214
485.995	12017
486.072	8997
486.148	7600
486.224	8577
486.301	8348
486.377	10559
486.453	10663
486.530	9901
486.606	13709
486.682	14262
486.758	16590
486.835	18621
486.911	16035
486.987	25739
487.063	24176
487.139	27911
487.215	19342
487.292	11171
487.368	11615
487.444	12827
487.520	15709
487.596	18770
487.672	39943
487.748	103745
487.824	127304
487.900	29408
487.976	13661
488.052	12517
488.128	13174
488.204	10873
488.280	9556
488.356	12521
488.432	23655
488.508	29624
488.584	10615
488.660	9055
488.736	9381
488.812	8054
488.888	10765
488.964	16357
489.039	29722
489.115	38609
489.191	19492
489.267	8557
489.343	8240
489.418	7156
489.494	7368
489.570	6555
489.646	7624
489.722	7425
489.797	7336
489.873	13100
489.949	24015
490.024	16595
490.100	6244
490.176	7326
490.251	8216
490.327	10426
490.403	6211
490.478	7151
490.554	5330
490.629	5674
490.705	5954
490.781	7088
490.856	6457
490.932	7829
491.007	6411
491.083	6440
491.158	7057
491.234	10079
491.309	18260
491.385	15685
491.460	5397
491.536	7062
491.611	4688
491.686	6319
491.762	8116
491.837	18931
491.913	28439
491.988	40906
492.063	41939
492.139	12945
492.214	8118
492.289	4781
492.365	5135
492.440	6016
492.515	5875
492.590	5687
492.666	4739
492.741	7993
492.816	10304
492.891	4894
492.967	4280
493.042	4352
493.117	4716
493.192	4968
493.267	7561
493.342	14752
493.418	15918
493.493	5495
493.568	3990
493.643	5454
493.718	6754
493.793	9000
493.868	8804
493.943	5822
494.018	4816
494.093	5156
494.168	5250
494.243	4020
494.318	3251
494.393	3154
494.468	3713
494.543	4279
494.618	5245
494.693	4178
494.768	3784
494.842	4626
494.917	3605
494.992	4086
495.067	3924
495.142	3812
495.217	4514
495.292	4584
495.366	5635
495.441	5344
495.516	7820
495.591	13698
495.665	41426
495.740	81098
495.815	22618
495.890	6302
495.964	4643
496.039	6200
496.114	5817
496.188	6616
496.263	5875
496.338	5403
496.412	5867
496.487	6721
496.561	7967
496.636	6188
496.710	5286
496.785	6879
496.860	7122
496.934	5794
497.009	6053
497.083	6082
497.158	5092
497.232	7405
497.307	8562
497.381	7144
497.455	9380
497.530	11220
497.604	6993
497.679	8680
497.753	13427
497.827	16853
497.902	15047
497.976	21832
498.050	56769
498.125	179668
498.199	134904
498.273	23003
498.348	17007
498.422	13942
498.496	11406
498.570	10338
498.645	7650
498.719	7728
498.793	10028
498.867	16534
498.941	25786
499.016	78544
499.090	175681
499.164	39158
499.238	6405
499.312	6060
499.386	8119
499.460	7230
499.534	6693
499.609	9155
499.683	12060
499.757	13781
499.831	37780
499.905	121806
499.979	82873
500.053	14266
500.127	13079
500.201	8473
500.275	6178
500.349	6996
500.422	8210
500.496	13278
500.570	29264
500.644	71490
500.718	109037
500.792	16234
500.866	6641
500.940	8603
501.013	6553
501.087	7247
501.161	12285
501.235	16950
501.309	44192
501.382	106604
501.456	68793
501.530	18758
501.603	29622
501.677	8746
501.751	4457
501.825	7982
501.898	15336
501.972	38873
502.046	18107
502.119	7574
502.193	19792
502.266	42844
502.340	16515
502.413	21118
502.487	34045
502.561	17106
502.634	5155
502.708	5524
502.781	3914
502.855	4275
502.928	3011
503.002	3955
503.075	2635
503.149	3196
503.222	4120
503.295	4519
503.369	6247
503.442	10702
503.516	34166
503.589	72232
503.662	37115
503.736	15092
503.809	35609
503.882	26571
503.956	46065
504.029	40618
504.102	56181
504.175	64557
504.249	16253
504.322	8803
504.395	6428
504.468	4368
504.542	3655
504.615	2677
504.688	2534
504.761	2129
504.834	4879
504.907	5168
504.980	7895
505.053	4614
505.127	3827
505.200	6843
505.273	5339
505.346	3396
505.419	2983
505.492	3442
505.565	1967
505.638	2617
505.711	2478
505.784	2108
505.857	1573
505.930	3254
506.003	2033
506.076	3927
506.149	3662
506.221	3569
506.294	6678
506.367	18838
506.440	53626
506.513	19846
506.586	5796
506.659	3213
506.731	3567
506.804	3392
506.877	4729
506.950	3225
507.022	3616
507.095	3793
507.168	4255
507.241	3502
507.313	1228
507.386	3427
507.459	4896
507.531	1980
507.604	1251
507.677	2952
507.749	1782
507.822	4316
507.894	8643
507.967	8508
508.040	3845
508.112	5036
508.185	4600
508.257	3653
508.330	6197
508.402	3108
508.475	2828
508.547	3730
508.620	4192
508.692	6888
508.765	3460
508.837	2670
508.909	2301
508.982	3270
509.054	3424
509.127	2508
509.199	2098
509.271	2446
509.344	2468
509.416	2953
509.488	2735
509.560	2878
509.633	2595
509.705	3547
509.777	4096
509.849	4808
509.922	2961
509.994	3366
510.066	3177
510.138	3741
510.210	9102
510.283	7244
510.355	5674
510.427	6236
510.499	11261
510.571	11194
510.643	4504
510.715	7253
510.787	4432
510.859	5058
510.931	4870
511.003	6819
511.076	5431
511.148	3910
511.219	3478
511.291	6784
511.363	7070
511.435	2783
511.507	2572
511.579	3750
511.651	4061
511.723	4388
511.795	2620
511.867	3197
511.939	5403
512.010	9662
512.082	6559
512.154	3470
512.226	3698
512.298	7292
512.369	7834
512.441	7026
512.513	6315
512.585	4849
512.656	5185
512.728	5302
512.800	4107
512.871	4349
512.943	4334
513.015	3477
513.086	4848
513.158	5468
513.230	4590
513.301	6348
513.373	7572
513.444	3394
513.516	3311
513.588	4444
513.659	4932
513.731	5431
513.802	5012
513.874	12573
513.945	15418
514.016	4854
514.088	3775
514.159	4313
514.231	7039
514.302	7875
514.374	5866
514.445	5052
514.516	13192
514.588	6780
514.659	6375
514.730	9246
514.802	7309
514.873	5036
514.944	6528
515.016	5612
515.087	5511
515.158	7346
515.229	9960
515.301	8076
515.372	7960
515.443	4363
515.514	3279
515.585	2836
515.656	3640
515.728	4405
515.799	3357
515.870	4156
515.941	3877
516.012	4025
516.083	6243
516.154	6374
516.225	8955
516.296	8588
516.367	6885
516.438	8493
516.509	12224
516.580	25259
516.651	83861
516.722	228476
516.793	60928
516.864	14013
516.935	14372
517.006	19479
517.077	33343
517.148	91262
517.219	321637
517.289	349608
517.360	73477
517.431	19396
517.502	6982
517.573	7508
517.643	6401
517.714	8403
517.785	7612
517.856	8489
517.926	10855
517.997	13470
518.068	17740
518.138	30482
518.209	65838
518.280	236892
518.350	633195
518.421	153750
518.492	18018
518.562	11925
518.633	14030
518.703	16548
518.774	37928
518.845	93699
518.915	67595
518.986	17887
519.056	12782
519.127	19423
519.197	29435
519.268	59005
519.338	27420
519.408	8504
519.479	8902
519.549	6808
519.620	6423
519.690	4141
519.760	4216
519.831	4452
519.901	3359
519.971	5154
520.042	3868
520.112	4348
520.182	5890
520.253	6806
520.323	5129
520.393	11253
520.463	15983
520.534	11093
520.604	24175
520.674	7652
520.744	11266
520.814	28933
520.885	18863
520.955	23389
521.025	65633
521.095	17786
521.165	4477
521.235	4013
521.305	2988
521.375	2949
521.445	4846
521.515	5054
521.585	6490
521.655	4227
521.725	6038
521.795	8754
521.865	3105
521.935	7595
522.005	4783
522.075	3396
522.145	4436
522.215	4017
522.285	6267
522.355	10476
522.424	16743
522.494	12495
522.564	7970
522.634	15341
522.704	36760
522.774	9178
522.843	3884
522.913	3414
522.983	4781
523.053	3058
523.122	4171
523.192	7623
523.262	21152
523.331	15498
523.401	3640
523.471	3571
523.540	3375
523.610	2513
523.680	2547
523.749	3270
523.819	4379
523.888	3262
523.958	2038
524.027	3332
524.097	3850
524.166	3038
524.236	2931
524.305	5270
524.375	2147
524.444	2590
524.514	3951
524.583	3098
524.653	3591
524.722	4560
524.791	2502
524.861	3987
524.930	2219
524.999	3011
525.069	5293
525.138	4187
525.207	3324
525.277	3995
525.346	3042
525.415	3111
525.484	3644
525.554	4817
525.623	4628
525.692	5136
525.761	5513
525.830	5980
525.900	8449
525.969	15599
526.038	30651
526.107	70795
526.176	172275
526.245	108353
526.314	39810
526.383	96268
526.452	113119
526.522	205539
526.591	142122
526.660	27138
526.729	16577
526.797	25492
526.867	58261
526.935	196659
527.004	389043
527.073	151621
527.142	11897
527.211	6584
527.280	6754
527.349	5336
527.418	2419
527.487	4332
527.555	2411
527.624	3142
527.693	2222
527.762	3652
527.831	2199
527.899	3177
527.968	2972
528.037	1331
528.106	4106
528.174	7353
528.243	5450
528.312	8024
528.380	8753
528.449	3096
528.518	2801
528.586	768
528.655	2738
528.723	2101
528.792	1591
528.861	1975
528.929	959
528.998	2538
529.066	1811
529.135	1821
529.203	1654
529.272	761
529.340	2405
529.409	2967
529.477	1324
529.545	2572
529.614	4805
529.682	4653
529.751	4003
529.819	5570
529.887	2952
529.956	1580
530.024	2573
530.092	1745
530.161	2870
530.229	4414
530.297	1485
530.365	2367
530.434	2848
530.502	1901
530.570	2024
530.638	474
530.707	2800
530.775	3210
530.843	1382
530.911	2329
530.979	2647
531.047	2201
531.115	2304
531.183	1085
531.252	2683
531.320	2859
531.388	1419
531.456	2683
531.524	467
531.592	3261
531.660	3630
531.728	1433
531.796	1198
531.864	3051
531.932	1904
532.000	1314
532.067	1825
532.135	2696
532.203	3175
532.271	3054
532.339	7232
532.407	16267
532.475	6213
532.542	4933
532.610	6019
532.678	9182
532.746	37966
532.814	66389
532.881	11560
532.949	3092
533.017	2618
533.084	1552
533.152	2761
533.220	2682
533.287	1825
533.355	2373
533.423	2593
533.490	2074
533.558	2654
533.625	2764
533.693	2019
533.761	2783
533.828	2858
533.896	1578
533.963	6539
534.031	7397
534.098	10518
534.166	3615
534.233	2879
534.300	3228
534.368	2898
534.435	2514
534.503	4581
534.570	5522
534.637	4613
534.705	6042
534.772	10081
534.840	22506
534.907	85195
534.974	76541
535.041	6869
535.109	4665
535.176	3281
535.243	4179
535.310	3136
535.378	2863
535.445	2592
535.512	3031
535.579	3106
535.646	2340
535.714	3468
535.781	5350
535.848	4025
535.915	4439
535.982	2389
536.049	2468
536.116	4041
536.183	2433
536.250	1637
536.317	3347
536.384	4519
536.451	5992
536.518	5671
536.585	2786
536.652	7394
536.719	8482
536.786	4481
536.853	4604
536.920	8475
536.987	11323
537.053	11775
537.120	40050
537.187	24681
537.254	4054
537.321	2433
537.388	4357
537.454	3513
537.521	2957
537.588	3574
537.654	4266
537.721	3867
537.788	5414
537.855	3126
537.921	3201
537.988	3498
538.055	3437
538.121	3012
538.188	4317
538.254	5815
538.321	11532
538.388	6123
538.454	4098
538.521	3887
538.587	4259
538.654	2728
538.720	4021
538.787	4141
538.853	4626
538.920	5025
538.986	5240
539.053	3787
539.119	4447
539.185	3600
539.252	5650
539.318	6462
539.385	6268
539.451	3964
539.517	5501
539.583	7631
539.650	13901
539.716	26302
539.782	6624
539.849	2844
539.915	4259
539.981	4229
540.047	4916
540.114	4754
540.180	5400
540.246	4518
540.312	6820
540.378	10330
540.444	11251
540.510	13645
540.576	29078
540.643	6950
540.709	3273
540.775	4711
540.841	4662
540.907	6822
540.973	10533
541.039	7793
541.105	7733
541.171	4489
541.237	4393
541.303	5239
541.369	6299
541.435	7295
541.500	9598
541.566	5009
541.632	3681
541.698	3290
541.764	5384
541.830	4366
541.896	2943
541.961	4967
542.027	4084
542.093	4407
542.159	5212
542.224	4735
542.290	8044
542.356	9481
542.421	11000
542.487	5713
542.553	4411
542.618	4968
542.684	4164
542.750	3938
542.815	6398
542.881	10302
542.947	28967
543.012	15182
543.078	4302
543.143	3742
543.209	5163
543.274	3805
543.340	6665
543.405	12437
543.471	13494
543.536	5310
543.602	4459
543.667	2667
543.732	5097
543.798	3375
543.863	4689
543.928	3493
543.994	3382
544.059	4030
544.124	4613
544.190	4591
544.255	4306
544.320	3772
544.386	4269
544.451	6246
544.516	7782
544.581	8585
544.646	20317
544.712	22807
544.777	6675
544.842	4562
544.907	5337
544.972	4631
545.037	5594
545.102	5263
545.168	5997
545.233	6570
545.298	7860
545.363	6030
545.428	8449
545.493	13989
545.558	22112
545.623	8501
545.688	5000
545.753	5731
545.818	6092
545.883	6012
545.947	5742
546.012	7972
546.077	6477
546.142	7467
546.207	6770
546.272	9553
546.337	9342
546.401	8432
546.466	8212
546.531	7116
546.596	9018
546.661	9186
546.725	9513
546.790	8021
546.855	10235
546.919	9839
546.984	12194
547.049	13442
547.113	16039
547.178	14687
547.243	18647
547.307	21084
547.372	23541
547.436	23948
547.501	23199
547.565	24827
547.630	24262
547.695	23336
547.759	24233
547.823	22680
547.888	22775
547.952	23848
548.017	24138
548.081	26086
548.146	27973
548.210	26757
548.274	26771
548.339	24836
548.403	23537
548.468	21091
548.532	22398
548.596	22723
548.660	23431
548.725	26355
548.789	28338
548.853	27563
548.917	24319
548.982	26164
549.046	24568
549.110	20309
549.174	21718
549.238	24470
549.303	26227
549.367	27331
549.431	26052
549.495	23601
549.559	24521
549.623	28903
549.687	31637
549.751	33825
549.815	37036
549.879	36738
549.943	34642
550.007	37000
550.071	34988
550.135	32971
550.199	30481
550.263	29952
550.327	30238
550.391	32220
550.455	33307
550.519	34404
550.582	38988
550.646	42818
550.710	43392
550.774	41835
550.838	42016
550.901	43148
550.965	46252
551.029	48465
551.093	54606
551.156	59192
551.220	75019
551.284	81995
551.347	58119
551.411	59588
551.475	56348
551.538	45551
551.602	41025
551.666	39918
551.729	35825
551.793	36399
551.856	35939
551.920	35866
551.983	35984
552.047	35511
552.110	35732
552.174	35541
552.237	37078
552.301	33070
552.364	32313
552.428	32373
552.491	32846
552.554	34304
552.618	34060
552.681	35569
552.745	35169
552.808	45433
552.871	49785
552.934	38116
552.998	33729
553.061	32612
553.124	31210
553.187	31720
553.251	32411
553.314	33999
553.377	33345
553.440	36664
553.503	41172
553.567	42195
553.630	36909
553.693	35172
553.756	36288
553.819	34985
553.882	33354
553.945	33055
554.008	33015
554.071	34495
554.134	35219
554.197	31663
554.260	32622
554.323	33699
554.386	33302
554.449	34935
554.512	34606
554.575	33213
554.638	32833
554.701	31769
554.764	31359
554.827	30911
554.889	29043
554.952	27790
555.015	27937
555.078	26822
555.141	28981
555.203	27636
555.266	28390
555.329	27209
555.391	26138
555.454	25897
555.517	25684
555.580	24376
555.642	24081
555.705	21906
555.768	23339
555.830	21655
555.893	21537
555.955	20401
556.018	21156
556.080	20783
556.143	21492
556.206	21516
556.268	20312
556.330	20581
556.393	20032
556.455	18861
556.518	21181
556.580	20627
556.643	17780
556.705	16676
556.767	15858
556.830	17709
556.892	17675
556.955	19990
557.017	17282
557.079	16032
557.142	15945
557.204	17008
557.266	22521
557.328	17368
557.391	14251
557.453	14252
557.515	13657
557.577	15408
557.639	14857
557.701	13605
557.764	13470
557.826	13495
557.888	15914
557.950	16675
558.012	20151
558.074	29327
558.136	60711
558.198	117357
558.260	32645
558.322	14824
558.384	14903
558.446	18329
558.508	21443
558.570	27906
558.632	41599
558.694	64661
558.756	100057
558.818	259443
558.880	480969
558.942	128973
559.003	123483
559.065	46492
559.127	22608
559.189	24964
559.251	36767
559.312	59927
559.374	128124
559.436	340385
559.498	120240
559.559	24600
559.621	26674
559.683	38185
559.744	66046
559.806	181312
559.868	211083
559.929	35569
559.991	30742
560.052	52244
560.114	126235
560.176	68210
560.237	76540
560.299	97500
560.360	18694
560.422	8889
560.483	8661
560.545	8765
560.606	7623
560.667	7263
560.729	7018
560.790	7662
560.852	7249
560.913	8102
560.974	7475
561.036	5719
561.097	6966
561.158	7022
561.220	6998
561.281	7749
561.342	6464
561.403	9047
561.465	10874
561.526	19580
561.587	20586
561.648	6825
561.709	6624
561.771	5845
561.832	6099
561.893	6253
561.954	6040
562.015	5818
562.076	6073
562.137	6243
562.198	6410
562.259	6604
562.320	6275
562.381	7628
562.442	8342
562.503	7555
562.564	6935
562.625	5775
562.686	5928
562.747	6977
562.808	6299
562.869	6046
562.930	6791
562.991	6817
563.051	5634
563.112	6255
563.173	5410
563.234	4583
563.294	5533
563.355	5463
563.416	6358
563.477	5541
563.537	5636
563.598	6773
563.659	5734
563.720	5988
563.780	6296
563.841	6496
563.901	5773
563.962	5847
564.023	5573
564.083	6114
564.144	5356
564.204	4716
564.265	7620
564.325	7742
564.386	12950
564.446	9906
564.507	5793
564.567	5191
564.628	5718
564.688	5233
564.749	5237
564.809	6782
564.869	7281
564.930	5807
564.990	6307
565.050	4968
565.111	6127
565.171	5140
565.231	5393
565.292	6251
565.352	4865
565.412	5801
565.472	5807
565.532	6157
565.593	6568
565.653	5118
565.713	5710
565.773	6602
565.833	6531
565.893	8641
565.953	6752
566.013	6296
566.074	7026
566.134	8734
566.194	11642
566.254	11654
566.314	8401
566.374	6123
566.434	6522
566.494	5763
566.554	6525
566.614	6372
566.673	6857
566.733	6470
566.793	6808
566.853	6620
566.913	7689
566.973	7055
567.033	8093
567.092	7574
567.152	7611
567.212	7621
567.272	8334
567.331	7877
567.391	7565
567.451	9454
567.511	11722
567.570	10946
567.630	8239
567.690	7513
567.749	8232
567.809	8188
567.868	8706
567.928	9800
567.988	11886
568.047	12889
568.107	16344
568.166	21253
568.226	31795
568.285	42085
568.345	30071
568.404	23565
568.464	21006
568.523	20154
568.582	21752
568.642	24906
568.701	32940
568.761	47704
568.820	72899
568.879	61227
568.939	41273
568.998	29563
569.057	22426
569.116	18299
569.176	15217
569.235	12996
569.294	12532
569.353	9821
569.413	10614
569.472	9449
569.531	8540
569.590	8091
569.649	7624
569.708	7730
569.767	8811
569.827	9997
569.886	8097
569.945	7346
570.004	7836
570.063	7290
570.122	7763
570.181	7997
570.240	7585
570.299	8228
570.358	8081
570.417	6962
570.475	7222
570.534	7498
570.593	7163
570.652	7106
570.711	7946
570.770	7457
570.829	7935
570.887	6617
570.946	8249
571.005	6744
571.064	7524
571.122	8051
571.181	9015
571.240	6715
571.299	6149
571.357	6897
571.416	8109
571.475	8385
571.533	8003
571.592	7089
571.650	7542
571.709	6423
571.768	6740
571.826	6881
571.885	6053
571.943	6080
572.002	5552
572.060	6290
572.119	5539
572.177	5651
572.236	6100
572.294	4879
572.352	6311
572.411	6200
572.469	6557
572.528	5825
572.586	6246
572.644	7568
572.703	9084
572.761	5572
572.819	5530
572.877	4658
572.936	5087
572.994	5844
573.052	5311
573.110	6893
573.169	5572
573.227	5416
573.285	5455
573.343	5589
573.401	5259
573.459	5851
573.517	5132
573.576	5616
573.634	6672
573.692	5746
573.750	6086
573.808	5320
573.866	6454
573.924	7855
573.982	8207
574.040	6616
574.098	6318
574.155	4932
574.213	5373
574.271	5646
574.329	5851
574.387	4140
574.445	4604
574.503	4887
574.560	4796
574.618	4795
574.676	4815
574.734	4480
574.792	4781
574.849	4393
574.907	4149
574.965	4410
575.022	4494
575.080	3960
575.138	4928
575.195	5447
575.253	4509
575.311	5358
575.368	5421
575.426	4893
575.483	5409
575.541	5114
575.598	4575
575.656	4813
575.713	4718
575.771	4420
575.828	4736
575.886	4469
575.943	5026
576.001	5496
576.058	4710
576.115	5394
576.173	6099
576.230	7565
576.287	8389
576.345	5919
576.402	5430
576.459	5795
576.517	6141
576.574	4928
576.631	6900
576.688	4950
576.746	5249
576.803	4907
576.860	4188
576.917	5166
576.974	4868
577.031	4855
577.089	5019
577.146	5341
577.203	5054
577.260	5068
577.317	5735
577.374	6624
577.431	6411
577.488	5787
577.545	5049
577.602	6228
577.659	5667
577.716	4246
577.773	3860
577.830	3800
577.886	4755
577.943	5035
578.000	5249
578.057	4641
578.114	6496
578.171	6825
578.227	6773
578.284	5193
578.341	6141
578.398	5509
578.454	6595
578.511	6835
578.568	7370
578.625	5326
578.681	5405
578.738	5032
578.794	5313
578.851	4707
578.908	5252
578.964	6033
579.021	5454
579.077	5081
579.134	5057
579.190	4913
579.247	4259
579.303	5090
579.360	4753
579.416	4196
579.473	4964
579.529	4441
579.586	4628
579.642	4852
579.698	5302
579.755	5022
579.811	5671
579.867	5267
579.924	4998
579.980	4596
580.036	5437
580.093	5332
580.149	6084
580.205	5324
580.261	6349
580.317	5387
580.374	6066
580.430	7755
580.486	6390
580.542	5937
580.598	5566
580.619	5351
580.654	4978
580.692	5757
580.710	6150
580.765	5854
580.767	5847
580.823	6353
580.838	6350
580.879	6374
580.911	6194
580.935	6050
580.984	5971
580.991	5969
581.047	5474
581.057	5596
581.103	6177
581.130	6037
581.159	5880
581.203	6511
581.215	6684
581.270	5941
581.276	5990
581.326	6470
581.349	6546
581.382	6642
581.422	6563
581.438	6543
581.494	5954
581.494	5950
581.550	5639
581.567	5946
581.606	6651
581.640	6356
581.661	6142
581.713	6737
581.717	6794
581.773	6130
581.786	6161
581.829	6220
581.859	6426
581.885	6612
581.932	6167
581.940	6091
581.996	6465
582.004	6439
582.052	6204
582.077	6467
582.107	6827
582.150	5895
582.163	5594
582.219	6375
582.223	6460
582.274	7690
582.296	7415
582.330	6857
582.368	6784
582.386	6821
582.441	7037
582.441	7037
582.497	6431
582.514	6250
582.552	6004
582.587	6681
582.608	7088
582.659	6895
582.663	6882
582.719	7053
582.732	7010
582.774	6837
582.805	6682
582.830	6558
582.877	6927
582.885	6985
582.941	7294
582.950	7250
582.996	6992
583.023	7047
583.052	7226
583.095	7188
583.107	7168
583.162	7568
583.168	7579
583.218	7551
583.240	7285
583.273	6847
583.313	6679
583.328	6653
583.384	6822
583.385	6851
583.439	7771
583.458	7488
583.494	6846
583.531	6544
583.549	6427
583.603	6939
583.605	6958
583.660	7261
583.676	7219
583.715	7087
583.748	7508
583.770	7779
583.820	8311
583.825	8344
583.881	7432
583.893	7490
583.936	8027
583.965	8065
583.991	7988
584.038	7906
584.046	7887
584.101	7612
584.110	7688
584.156	8190
584.183	8220
584.211	8065
584.255	8067
584.266	8102
584.321	7871
584.328	7893
584.376	8463
584.400	8492
584.431	8279
584.472	7945
584.486	7839
584.541	8388
584.545	8390
584.596	8669
584.617	8652
584.651	8747
584.689	9653
584.706	9960
584.761	9852
584.762	9852
584.816	10224
584.834	10104
584.871	9729
584.906	10073
584.926	10375
584.978	10526
584.980	10537
585.035	11508
585.051	11628
585.090	11986
585.123	12499
585.145	12911
585.195	13624
585.200	13700
585.254	15738
585.267	16181
585.309	17922
585.340	19512
585.364	20818
585.412	24638
585.419	25183
585.473	31605
585.484	33660
585.528	44093
585.556	51806
585.583	65528
585.628	95796
585.637	108771
585.692	224451
585.700	243993
585.747	327157
585.772	288175
585.801	176188
585.845	58295
585.856	45533
585.910	24534
585.917	22333
585.965	18922
585.989	18107
586.019	17353
586.061	15752
586.074	15557
586.128	15811
586.133	15781
586.183	15896
586.205	16255
586.237	16595
586.277	16564
586.292	16549
586.346	16302
586.349	16325
586.401	16716
586.421	16881
586.455	17653
586.493	18317
586.509	19518
586.564	24508
586.565	24688
586.618	36349
586.637	37847
586.672	32481
586.709	25444
586.727	23360
586.781	21695
586.781	21709
586.835	19664
586.853	19149
586.889	18522
586.925	18021
586.944	17993
586.996	18442
586.998	18469
587.052	18888
587.068	18945
587.106	19310
587.140	18953
587.161	18754
587.212	19979
587.215	20068
587.269	20700
587.284	20952
587.323	21475
587.356	21707
587.377	22158
587.427	23512
587.431	23558
587.485	23494
587.499	23516
587.539	24689
587.571	25450
587.593	25838
587.643	27709
587.648	27906
587.702	29064
587.715	29295
587.755	30448
587.786	31716
587.810	32493
587.858	33414
587.864	33706
587.917	36659
587.930	37500
587.971	40384
588.001	42363
588.025	43855
588.073	46196
588.079	46699
588.133	51827
588.145	53121
588.187	58592
588.217	62199
588.241	65911
588.288	73868
588.295	75240
588.348	87302
588.360	90027
588.402	101451
588.431	110346
588.456	119322
588.503	138551
588.510	141781
588.564	171512
588.575	178540
588.617	213024
588.646	240317
588.671	273244
588.718	343737
588.725	361619
588.778	512090
588.789	546904
588.832	792684
588.861	970423
588.886	1159918
588.932	1483539
588.939	1488780
588.993	1414094
589.004	1410575
589.047	1312827
589.075	1186631
589.100	976831
589.147	594264
589.154	569160
589.207	405128
589.218	374958
589.261	342001
589.290	326613
589.314	338405
589.361	368365
589.368	384046
589.421	527302
589.433	561454
589.475	838450
589.504	1041540
589.528	1185795
589.576	1394552
589.582	1373548
589.635	1150532
589.647	1087014
589.689	714931
589.718	464786
589.742	376347
589.790	221283
589.795	214770
589.849	159775
589.861	148166
589.902	130471
589.932	116981
589.955	106676
590.004	85482
590.009	84386
590.062	72919
590.075	70120
590.115	64319
590.146	59958
590.168	58046
590.218	53690
590.222	53419
590.275	49577
590.289	48384
590.328	46700
590.360	45441
590.381	44525
590.431	42393
590.435	42362
590.488	40474
590.503	40063
590.541	38849
590.574	37630
590.594	37416
590.645	36583
590.647	36565
590.700	34554
590.716	34000
590.753	33969
590.787	33572
590.806	33459
590.859	33314
590.859	33350
590.912	32230
590.930	31728
590.965	31746
591.001	31756
591.018	31591
591.071	31130
591.072	31070
591.124	30781
591.143	30686
591.177	30282
591.214	29797
591.230	30061
591.283	30555
591.285	30516
591.336	30966
591.356	31195
591.389	30905
591.427	30132
591.442	29894
591.495	28931
591.498	28798
591.547	28256
591.569	28046
591.600	28063
591.640	27698
591.653	27768
591.706	28089
591.711	28061
591.759	28838
591.782	29224
591.811	30538
591.853	32142
591.864	31734
591.917	29335
591.924	28929
591.969	28430
591.995	28100
592.022	28455
592.066	28843
592.075	29243
592.127	31419
592.137	31768
592.180	34574
592.208	36234
592.233	34553
592.279	31063
592.285	30921
592.338	29278
592.350	28845
592.390	28380
592.421	27925
592.443	28374
592.491	29209
592.495	29263
592.548	29198
592.562	29123
592.600	29101
592.633	28979
592.653	28900
592.704	28390
592.705	28560
592.775	28906
592.846	29333
592.916	29155
592.987	31315
593.058	30156
593.128	29189
593.199	29945
593.270	29352
593.341	28044
593.411	30253
593.482	30566
593.553	31456
593.623	30723
593.694	31857
593.764	32995
593.835	31629
593.906	31567
593.976	32440
594.047	32933
594.117	37279
594.188	38377
594.258	33766
594.329	32078
594.399	33825
594.470	34130
594.540	34386
594.611	34379
594.681	34843
594.751	35234
594.822	37905
594.892	38591
594.963	38621
595.033	39106
595.103	40017
595.174	41130
595.244	50200
595.314	60445
595.384	44247
595.455	42782
595.525	44150
595.595	44298
595.665	45253
595.736	43861
595.806	44428
595.876	44317
595.946	45645
596.016	46434
596.087	48039
596.157	48162
596.227	47992
596.297	49990
596.367	54053
596.437	57688
596.507	62616
596.577	69871
596.647	59479
596.717	58891
596.787	58883
596.857	59398
596.927	59852
596.997	60398
597.067	59574
597.137	61967
597.207	61516
597.277	62717
597.347	60291
597.417	58960
597.487	58541
597.557	59950
597.626	61127
597.696	63445
597.766	67091
597.836	71537
597.906	59474
597.975	54246
598.045	55257
598.115	57034
598.185	61152
598.254	65971
598.324	73601
598.394	73525
598.464	73562
598.533	71313
598.603	65967
598.672	64359
598.742	65171
598.812	65179
598.881	66925
598.951	66410
599.020	66113
599.090	68477
599.159	71778
599.229	67388
599.299	65192
599.368	67624
599.437	66560
599.507	63097
599.576	61269
599.646	60194
599.715	60009
599.785	59436
599.854	57518
599.924	60133
599.993	57324
600.062	56732
600.132	58855
600.201	61789
600.270	70173
600.340	75708
600.409	72259
600.478	71679
600.547	73901
600.617	69264
600.686	56281
600.755	51667
600.824	48872
600.894	48672
600.963	48043
601.032	46453
601.101	45832
601.170	43928
601.239	44013
601.308	43791
601.378	44119
601.447	42788
601.516	43529
601.585	44618
601.654	47087
601.723	44319
601.792	44178
601.861	46387
601.930	48715
601.999	51712
602.068	46622
602.137	50117
602.206	51395
602.275	49932
602.343	52861
602.412	53745
602.481	50883
602.550	49983
602.619	51111
602.688	52933
602.756	52733
602.825	52883
602.894	53088
602.963	54435
603.032	55723
603.100	55825
603.169	55186
603.238	56522
603.307	56519
603.375	56848
603.444	56739
603.513	59380
603.581	58600
603.650	60600
603.719	59254
603.787	59968
603.856	61267
603.924	64062
603.993	66312
604.061	66600
604.130	69607
604.198	72032
604.267	72117
604.335	73388
604.404	73876
604.472	75318
604.541	75745
604.609	76419
604.678	76344
604.746	75395
604.815	79325
604.883	80728
604.951	80250
605.020	82017
605.088	83181
605.156	85949
605.225	86415
605.293	86478
605.361	87700
605.429	87884
605.498	89187
605.566	92873
605.634	97112
605.702	99540
605.771	102978
605.839	101883
605.907	101283
605.975	95811
606.043	95194
606.111	95647
606.180	95153
606.248	94102
606.316	92373
606.384	92698
606.452	98684
606.520	102306
606.588	101620
606.656	99995
606.724	97859
606.792	92821
606.860	84622
606.928	75723
606.996	72484
607.064	72017
607.132	72689
607.200	76503
607.267	80336
607.335	81985
607.403	84714
607.471	81615
607.539	78908
607.607	79962
607.674	70755
607.742	71242
607.810	71289
607.878	70215
607.946	71373
608.013	74275
608.081	77215
608.149	77165
608.216	78242
608.284	81215
608.352	82110
608.419	82078
608.487	86230
608.555	80725
608.622	80151
608.690	83915
608.757	91884
608.825	96718
608.893	94822
608.960	90917
609.028	91468
609.095	93456
609.163	87471
609.230	77278
609.298	69588
609.365	72552
609.432	78826
609.500	82792
609.567	96559
609.635	108730
609.702	118106
609.769	114834
609.837	94074
609.904	77076
609.971	77580
610.039	88331
610.106	113288
610.173	215651
610.241	532382
610.308	362013
610.375	108554
610.442	83683
610.509	77669
610.577	79212
610.644	79283
610.711	82688
610.778	83293
610.845	86669
610.912	93509
610.980	96390
611.047	98270
611.114	97182
611.181	92233
611.248	89261
611.315	96615
611.382	96848
611.449	100929
611.516	104367
611.583	101639
611.650	101927
611.717	104492
611.784	107077
611.851	113632
611.918	122343
611.984	142087
612.051	203652
612.118	412885
612.185	1073205
612.252	837096
612.319	184550
612.386	139042
612.452	127779
612.519	121426
612.586	124267
612.653	121760
612.719	123579
612.786	117372
612.853	108605
612.919	105381
612.986	107870
613.053	100676
613.120	95800
613.186	91080
613.253	93514
613.319	91856
613.386	92821
613.453	95133
613.519	97808
613.586	97575
613.652	107192
613.719	102017
613.785	101487
613.852	96124
613.918	94081
613.985	96453
614.051	103129
614.118	109312
614.184	110093
614.250	94234
614.317	97263
614.383	93619
614.449	97454
614.516	96642
614.582	97733
614.648	96929
614.715	94632
614.781	92787
614.847	93779
614.914	93564
614.980	90770
615.046	90127
615.112	92295
615.179	92578
615.245	94088
615.311	98103
615.377	105594
615.443	112851
615.509	100133
615.575	100676
615.642	100072
615.708	102860
615.774	107903
615.840	116425
615.906	128038
615.972	161554
616.038	258624
616.104	525142
616.170	1246832
616.236	1312149
616.302	280384
616.368	187903
616.434	135993
616.500	120995
616.565	131469
616.631	171273
616.697	140661
616.763	139197
616.829	199250
616.895	378006
616.961	392418
617.026	162371
617.092	106389
617.158	99276
617.224	99207
617.289	91588
617.355	85764
617.421	84420
617.487	86533
617.552	81771
617.618	78954
617.684	80978
617.749	81944
617.815	77588
617.880	74750
617.946	75006
618.012	76346
618.077	78345
618.143	76208
618.208	76573
618.274	82865
618.339	84636
618.405	70263
618.470	68882
618.536	69265
618.601	70131
618.667	66364
618.732	62898
618.798	61974
618.863	60446
618.928	60903
618.994	61510
619.059	62834
619.124	70002
619.190	64009
619.255	59645
619.320	60450
619.386	59903
619.451	58610
619.516	57998
619.581	58210
619.647	60896
619.712	60824
619.777	57149
619.842	59228
619.907	59492
619.972	60871
620.038	61213
620.103	58478
620.168	57832
620.233	59167
620.298	59395
620.363	59087
620.428	61351
620.493	62712
620.558	62548
620.623	62887
620.688	62800
620.753	61678
620.818	64183
620.883	63249
620.948	64913
621.013	62721
621.078	63477
621.143	63380
621.207	66560
621.272	65024
621.337	64973
621.402	64586
621.467	69220
621.532	69726
621.596	66916
621.661	62670
621.726	60164
621.791	61169
621.855	61795
621.920	61851
621.985	64930
622.049	68844
622.114	67333
622.179	63822
622.243	65475
622.308	67891
622.373	69094
622.437	68646
622.502	64683
622.566	63421
622.631	62704
622.695	65305
622.760	64874
622.824	64180
622.889	64883
622.953	67093
623.018	76179
623.082	80710
623.147	69725
623.211	66001
623.276	67234
623.340	65799
623.404	61410
623.469	61427
623.533	62689
623.597	60908
623.662	61266
623.726	58538
623.790	52969
623.854	53655
623.919	54275
623.983	53819
624.047	56729
624.111	54622
624.176	56140
624.240	58076
624.304	63327
624.368	57019
624.432	55792
624.496	58639
624.560	61815
624.625	65542
624.689	61021
624.753	62322
624.817	59642
624.881	57721
624.945	53971
625.009	51060
625.073	52920
625.137	55923
625.201	60070
625.265	62601
625.329	54270
625.393	55918
625.456	56343
625.520	56869
625.584	61532
625.648	64465
625.712	76008
625.776	116343
625.839	134643
625.903	77700
625.967	50217
626.031	62716
626.095	92155
626.158	61155
626.222	43269
626.286	39930
626.349	38946
626.413	35984
626.477	38444
626.540	36774
626.604	36361
626.668	36463
626.731	35452
626.795	35962
626.858	36885
626.922	34739
626.986	34819
627.049	33510
627.113	35694
627.176	34939
627.240	34047
627.303	33610
627.366	34269
627.430	35467
627.493	33992
627.557	33788
627.620	34762
627.684	35153
627.747	35680
627.810	33755
627.874	31125
627.937	29000
628.000	31550
628.064	30757
628.127	26473
628.190	26951
628.253	27183
628.317	25849
628.380	24622
628.443	23543
628.506	24378
628.569	23894
628.632	21812
628.696	22582
628.759	21539
628.822	21332
628.885	20231
628.948	21165
629.011	21150
629.074	20855
629.137	20361
629.200	19247
629.263	21841
629.326	19224
629.389	19548
629.452	18472
629.515	19678
629.578	18443
629.641	20325
629.704	19750
629.767	20116
629.830	18122
629.892	17914
629.955	17242
630.018	19782
630.081	19748
630.144	23284
630.207	19220
630.269	20690
630.332	19084
630.395	19007
630.458	17694
630.520	16511
630.583	17685
630.646	16097
630.708	16841
630.771	16642
630.834	18049
630.896	16881
630.959	17209
631.021	16656
631.084	16826
631.146	18566
631.209	19501
631.272	17707
631.334	17436
631.397	18151
631.459	16808
631.522	18749
631.584	19546
631.646	19801
631.709	21496
631.771	24558
631.834	21832
631.896	19266
631.958	16758
632.021	17226
632.083	16490
632.145	16738
632.208	16136
632.270	16975
632.332	15627
632.395	15668
632.457	17299
632.519	16702
632.581	16661
632.643	15318
632.706	16212
632.768	15161
632.830	15343
632.892	15366
632.954	16053
633.016	16682
633.078	15465
633.141	15203
633.203	15503
633.265	16519
633.327	15150
633.389	15919
633.451	17282
633.513	18857
633.575	18744
633.637	18440
633.698	17697
633.760	17145
633.822	17260
633.884	16864
633.946	16941
634.008	18328
634.070	18390
634.132	19099
634.193	21455
634.255	22987
634.317	23564
634.379	24612
634.441	21329
634.502	18303
634.564	17597
634.626	16105
634.687	15645
634.749	15931
634.811	14587
634.873	13336
634.934	15007
634.996	14997
635.057	14062
635.119	14966
635.181	14768
635.242	16150
635.304	13464
635.365	17309
635.427	13990
635.488	15749
635.550	13975
635.611	16392
635.673	13871
635.734	18268
635.796	16136
635.857	19390
635.918	19703
635.980	22207
636.041	22228
636.102	25375
636.164	24958
636.225	24428
636.286	20614
636.348	19055
636.409	17258
636.470	15780
636.531	15637
636.593	15531
636.654	15906
636.715	14476
636.776	12998
636.838	13166
636.899	13106
636.960	12913
637.021	12212
637.082	12508
637.143	11954
637.204	12574
637.265	10629
637.326	12944
637.387	12330
637.448	11443
637.509	12287
637.570	12637
637.631	11103
637.692	11372
637.753	10738
637.814	11505
637.875	10880
637.936	12862
637.997	10914
638.058	11756
638.119	12209
638.179	11629
638.240	11896
638.301	12166
638.362	10676
638.423	10473
638.483	11199
638.544	9305
638.605	10909
638.666	10225
638.726	11130
638.787	10923
638.848	10391
638.908	10154
638.969	10140
639.030	10234
639.090	9451
639.151	9997
639.211	11596
639.272	12907
639.332	17069
639.393	13455
639.453	10047
639.514	11726
639.574	10586
639.635	9854
639.695	10311
639.756	8586
639.816	10515
639.877	10410
639.937	15626
639.997	22193
640.058	11117
640.118	8905
640.178	10366
640.239	8963
640.299	8983
640.359	8948
640.420	10411
640.480	11756
640.540	12752
640.600	13109
640.661	11688
640.721	10890
640.781	14664
640.841	10516
640.901	10697
640.961	10732
641.021	10029
641.082	11475
641.142	14585
641.202	12022
641.262	7314
641.322	10087
641.382	8043
641.442	8914
641.502	9341
641.562	9637
641.622	8924
641.682	9873
641.742	10782
641.802	10974
641.861	10404
641.921	9295
641.981	10380
642.041	10509
642.101	11273
642.161	9587
642.221	8083
642.280	7869
642.340	7949
642.400	8157
642.460	8757
642.519	8450
642.579	8091
642.639	10005
642.698	7359
642.758	10371
642.818	8278
642.877	8613
642.937	9202
642.997	9819
643.056	12997
643.116	9479
643.175	10069
643.235	9174
643.294	9792
643.354	10984
643.414	11154
643.473	14234
643.532	16912
643.592	22823
643.651	38906
643.711	70059
643.770	135546
643.830	318058
643.889	851148
643.948	270777
644.008	35713
644.067	20089
644.126	14813
644.186	12821
644.245	11801
644.304	9222
644.363	10938
644.423	8818
644.482	9710
644.541	10374
644.600	9859
644.659	13348
644.719	15242
644.778	23787
644.837	39934
644.896	79056
644.955	212086
645.014	94490
645.073	17011
645.132	11781
645.191	12061
645.250	10332
645.309	10753
645.368	11108
645.427	13866
645.486	21307
645.545	44040
645.604	16264
645.663	9003
645.722	9150
645.781	10882
645.840	12233
645.898	15403
645.957	21931
646.016	34182
646.075	66039
646.134	130614
646.192	325365
646.251	661553
646.310	118563
646.369	23697
646.427	18682
646.486	13159
646.545	10608
646.603	9766
646.662	8960
646.721	8102
646.779	8159
646.838	8772
646.896	11221
646.955	15490
647.014	23355
647.072	42024
647.131	126537
647.189	85681
647.248	11230
647.306	8359
647.365	7527
647.423	5413
647.481	8142
647.540	4558
647.598	6842
647.657	6508
647.715	6970
647.773	5620
647.832	5972
647.890	5538
647.948	5484
648.007	7208
648.065	5134
648.123	4758
648.181	6818
648.240	5659
648.298	5254
648.356	4879
648.414	6224
648.472	6070
648.531	5459
648.589	5574
648.647	4749
648.705	4535
648.763	5700
648.821	5847
648.879	5884
648.937	7172
648.995	8253
649.053	11022
649.111	16877
649.169	28766
649.227	53191
649.285	104544
649.343	343593
649.401	231638
649.459	34361
649.516	20393
649.574	10789
649.632	14517
649.690	18164
649.748	13498
649.806	16677
649.863	31758
649.921	83870
649.979	79428
650.037	11229
650.094	5420
650.152	5808
650.210	4882
650.268	5745
650.325	5620
650.383	5114
650.440	3227
650.498	4676
650.556	3931
650.613	4228
650.671	5079
650.728	4106
650.786	4396
650.843	5838
650.901	4422
650.958	4290
651.016	3853
651.073	4149
651.131	3908
651.188	3067
651.246	3939
651.303	3104
651.360	3994
651.418	3395
651.475	3841
651.532	2324
651.590	4152
651.647	3069
651.704	3576
651.762	4237
651.819	3881
651.876	2522
651.933	3535
651.990	3750
652.048	2560
652.105	3178
652.162	3276
652.219	2975
652.276	3579
652.333	3584
652.390	2252
652.448	3455
652.505	2412
652.562	4025
652.619	3365
652.676	3689
652.733	3875
652.790	3041
652.847	1741
652.904	3511
652.961	1972
653.017	2298
653.074	3736
653.131	3095
653.188	2760
653.245	2548
653.302	2762
653.359	2354
653.415	3346
653.472	1574
653.529	3289
653.586	2837
653.642	2353
653.699	2993
653.756	1770
653.813	2446
653.869	3574
653.926	1628
653.983	2036
654.039	3141
654.096	2402
654.152	3629
654.209	2079
654.266	2482
654.322	2091
654.379	3754
654.435	4234
654.492	3843
654.548	4619
654.605	8683
654.661	5316
654.717	3285
654.774	3939
654.830	3658
654.887	3407
654.943	3033
655.000	3079
655.056	3518
655.112	2749
655.168	2471
655.225	3914
655.281	4156
655.337	3852
655.394	7206
655.450	5474
655.506	5033
655.562	7442
655.618	7696
655.675	2310
655.731	2815
655.787	1795
655.843	3134
655.899	2249
655.955	3457
656.011	3092
656.067	1713
656.123	3362
656.179	2733
656.235	3591
656.291	1188
656.347	3796
656.403	3093
656.459	3016
656.515	3824
656.571	3293
656.627	3645
656.683	2852
656.739	3972
656.795	2472
656.850	2513
656.906	3497
656.962	3106
657.018	1673
657.074	2349
657.129	3976
657.185	5823
657.241	11298
657.297	7607
657.352	3185
657.408	2346
657.464	3486
657.519	2667
657.575	2017
657.630	2585
657.686	2766
657.742	1779
657.797	2532
657.853	2144
657.908	3160
657.964	1386
658.019	2247
658.075	2540
658.130	1823
658.186	1199
658.241	2052
658.297	2129
658.352	1580
658.407	3343
658.463	1227
658.518	2578
658.573	1708
658.629	883
658.684	1775
658.739	2289
658.795	1443
658.850	1970
658.905	1479
658.960	2781
659.016	2123
659.071	2527
659.126	2739
659.181	2123
659.236	4485
659.291	5663
659.346	3003
659.401	3515
659.457	2906
659.512	1905
659.567	3295
659.622	1944
659.677	2272
659.732	1377
659.787	1705
659.842	3161
659.897	3671
659.952	2768
660.007	2370
660.061	2492
660.116	1704
660.171	1095
660.226	2431
660.281	2577
660.336	1484
660.391	3103
660.445	2252
660.500	2127
660.555	2234
660.610	1503
660.664	2153
660.719	1023
660.774	2222
660.828	1555
660.883	2345
660.938	2425
660.992	643
661.047	1886
661.101	2206
661.156	1584
661.211	1733
661.265	1524
661.320	2680
661.374	2280
661.429	1877
661.483	2014
661.538	1437
661.592	819
661.647	2443
661.701	2468
661.755	2399
661.810	2332
661.864	1766
661.919	1410
661.973	1987
662.027	1391
662.081	1646
662.136	2402
662.190	2688
662.244	3220
662.299	1863
662.353	2160
662.407	1691
662.461	2041
662.515	2868
662.569	1454
662.624	2665
662.678	1553
662.732	2541
662.786	2167
662.840	2395
662.894	2258
662.948	1418
663.002	1248
663.056	1402
663.110	1328
663.164	1681
663.218	2188
663.272	2742
663.326	2466
663.380	2051
663.434	2211
663.488	1477
663.542	1729
663.595	3151
663.649	1259
663.703	2376
663.757	1972
663.811	1262
663.864	1790
663.918	2383
663.972	2135
664.026	1590
664.079	2288
664.133	2079
664.187	1288
664.240	1352
664.294	1571
664.348	1873
664.401	1943
664.455	2584
664.508	1364
664.562	1649
664.615	2178
664.669	1179
664.722	2955
664.776	1874
664.829	2265
664.883	1855
664.936	2316
664.990	2267
665.043	2313
665.097	1995
665.150	3390
665.203	1428
665.257	1678
665.310	1480
665.363	2147
665.417	2178
665.470	2419
665.523	1493
665.576	1862
665.630	2093
665.683	2588
665.736	1754
665.789	2293
665.842	1285
665.895	2135
665.949	2730
666.002	2029
666.055	1870
666.108	2863
666.161	2350
666.214	2077
666.267	1843
666.320	3854
666.373	3053
666.426	2166
666.479	2120
666.532	2544
666.585	3096
666.638	4462
666.691	2828
666.744	4313
666.796	3042
666.849	2836
666.902	2892
666.955	2265
667.008	1427
667.060	1196
667.113	1455
667.166	1621
667.219	2347
667.271	2268
667.324	2239
667.377	2164
667.430	1970
667.482	1109
667.535	2468
667.587	2440
667.640	2330
667.693	3306
667.745	4500
667.798	5711
667.850	2322
667.903	1820
667.955	1382
668.008	1921
668.060	1919
668.113	2172
668.165	2305
668.218	3001
668.270	2038
668.322	2491
668.375	1887
668.427	2894
668.479	1370
668.532	2314
668.584	1878
668.636	2117
668.689	2526
668.741	2813
668.793	1881
668.845	1991
668.898	2284
668.950	2116
669.002	2732
669.054	1761
669.106	1655
669.158	1948
669.211	2169
669.263	1789
669.315	2754
669.367	1939
669.419	2106
669.471	3397
669.523	2814
669.575	3799
669.627	3429
669.679	3072
669.731	2028
669.783	2458
669.835	1828
669.886	2576
669.938	2544
669.990	2598
670.042	1699
670.094	1934
670.146	2309
670.197	1800
670.249	1833
670.301	2597
670.353	3168
670.404	3337
670.456	4042
670.508	6577
670.560	11269
670.611	18240
670.663	31175
670.715	67482
670.766	139724
670.818	45579
670.869	7107
670.921	4564
670.972	4474
671.024	2193
671.075	2714
671.127	3351
671.178	1703
671.230	2329
671.281	2307
671.333	2672
671.384	2261
671.436	3481
671.487	4680
671.538	6347
671.590	9643
671.641	16198
671.692	27288
671.744	60451
671.795	44948
671.846	12210
671.897	5588
671.949	4207
672.000	4207
672.051	2769
672.102	2985
672.153	2047
672.204	2400
672.256	1550
672.307	1764
672.358	2832
672.409	1978
672.460	2784
672.511	1566
672.562	1961
672.613	1560
672.664	1421
672.715	2592
672.766	1587
672.817	1721
672.868	2321
672.919	1972
672.970	1965
673.021	1269
673.071	946
673.122	1135
673.173	1202
673.224	2126
673.275	1379
673.326	1817
673.376	1562
673.427	997
673.478	1453
673.528	1374
673.579	1937
673.630	1188
673.680	1682
673.731	502
673.782	498
673.832	1457
673.883	2006
673.934	2066
673.984	1424
674.035	1355
674.085	1603
674.136	1984
674.186	1931
674.237	2754
674.287	4352
674.338	2428
674.388	1761
674.438	1197
674.489	1639
674.539	1540
674.589	2395
674.640	2240
674.690	2141
674.740	1699
674.791	1931
674.841	1683
674.891	2085
674.942	913
674.992	1771
675.042	866
675.092	386
675.142	1191
675.193	1034
675.243	1474
675.293	1467
675.343	1229
675.393	1883
675.443	2183
675.493	1092
675.543	149
675.593	1376
675.643	1361
675.693	1513
675.743	1655
675.793	1116
675.843	1520
675.893	1708
675.943	1444
675.993	799
676.043	1356
676.093	693
676.142	381
676.192	1358
676.242	1400
676.292	651
676.341	-184
676.391	723
676.441	1081
676.491	1028
676.540	964
676.590	1244
676.640	1372
676.689	914
676.739	723
676.789	1039
676.838	469
676.888	1480
676.937	1243
676.987	1286
677.037	854
677.086	782
677.136	776
677.185	920
677.235	1274
677.284	1041
677.333	1283
677.383	1221
677.432	-192
677.482	1416
677.531	952
677.580	1121
677.630	133
677.679	602
677.728	686
677.778	1225
677.827	1193
677.876	1220
677.925	633
677.975	900
678.024	962
678.073	304
678.122	1094
678.171	494
678.220	1300
678.269	1647
678.319	1756
678.368	1870
678.417	1645
678.466	1268
678.515	1115
678.564	2072
678.613	869
678.662	1018
678.711	1101
678.760	1797
678.809	1187
678.857	1145
678.906	1265
678.955	409
679.004	1474
679.053	1330
679.102	478
679.151	376
679.199	666
679.248	555
679.297	1560
679.346	578
679.394	898
679.443	643
679.492	1774
679.540	843
679.589	1405
679.638	846
679.686	1155
679.735	648
679.784	751
679.832	1431
679.881	1023
679.929	987
679.978	474
680.026	779
680.075	911
680.123	834
680.172	519
680.220	1311
680.268	668
680.317	74
680.365	404
680.414	779
680.462	313
680.510	1062
680.559	962
680.607	730
680.655	164
680.703	469
680.752	960
680.800	284
680.848	-169
680.896	747
680.945	185
680.993	259
681.041	437
681.089	523
681.137	1068
681.185	1043
681.233	440
681.258	638
681.281	794
681.329	397
681.377	271
681.380	324
681.425	679
681.473	1110
681.502	1418
681.521	1573
681.569	1297
681.617	1808
681.624	1676
681.665	574
681.713	1729
681.745	1613
681.761	1516
681.809	355
681.857	1389
681.867	1353
681.904	1081
681.952	1981
681.989	1513
682.000	1328
682.048	2223
682.096	1242
682.111	1223
682.143	1085
682.191	1071
682.233	2024
682.239	2136
682.286	1825
682.334	1775
682.354	1709
682.382	1557
682.430	1988
682.476	1817
682.477	1783
682.525	2056
682.572	1339
682.598	1920
682.620	2399
682.667	1840
682.715	2774
682.720	2743
682.763	2182
682.810	2643
682.841	2325
682.857	2099
682.905	2434
682.952	2705
682.963	2653
683.000	2361
683.047	2792
683.085	3560
683.095	3728
683.142	2690
683.190	2976
683.206	2828
683.237	2508
683.284	3128
683.328	3191
683.332	3175
683.379	3412
683.426	3415
683.449	3381
683.473	3313
683.521	2607
683.568	3375
683.571	3392
683.615	3283
683.662	3950
683.693	3624
683.709	3382
683.757	3364
683.804	4106
683.814	3999
683.851	3683
683.898	3995
683.936	4034
683.945	4004
683.992	4471
684.039	4105
684.057	4222
684.086	4399
684.133	4350
684.179	4417
684.180	4392
684.227	4799
684.274	4542
684.300	4890
684.321	5155
684.368	4447
684.415	4926
684.422	4910
684.462	4646
684.509	3931
684.543	4496
684.556	4705
684.603	5078
684.649	4728
684.665	4818
684.696	5005
684.743	5038
684.786	5151
684.790	5149
684.837	5096
684.883	5973
684.908	6102
684.930	6202
684.977	6116
685.023	6032
685.029	6091
685.070	6059
685.117	5195
685.150	5448
685.164	5647
685.210	6126
685.257	6398
685.272	6598
685.303	6874
685.350	6534
685.393	6643
685.396	6652
685.443	6631
685.490	7282
685.514	7498
685.536	7536
685.583	7098
685.629	7466
685.636	7444
685.675	7108
685.722	6700
685.757	6570
685.768	6580
685.815	7096
685.861	8060
685.878	7874
685.908	7558
685.954	7551
686.000	7240
686.000	7236
686.047	8007
686.093	10121
686.121	10318
686.139	10053
686.185	9529
686.232	8967
686.242	9110
686.278	9143
686.324	8061
686.363	7180
686.370	7150
686.416	7317
686.463	7970
686.484	7845
686.509	7628
686.555	7086
686.601	7232
686.606	7294
686.647	7794
686.693	7225
686.727	7356
686.739	7488
686.785	7432
686.831	7384
686.848	7767
686.877	8078
686.923	7236
686.969	6941
686.969	6941
687.015	7499
687.061	7499
687.090	8023
687.107	8222
687.153	8170
687.199	7999
687.211	7918
687.245	7830
687.291	8341
687.332	8592
687.336	8625
687.382	8722
687.428	8547
687.453	8888
687.474	8805
687.520	8407
687.565	7914
687.574	7801
687.611	7929
687.657	7801
687.695	8019
687.702	8108
687.748	8868
687.794	9421
687.816	9771
687.839	9739
687.885	9056
687.931	8579
687.937	8519
687.976	8439
688.022	8429
688.058	8629
688.067	8721
688.113	9186
688.158	8776
688.179	8907
688.204	8958
688.249	8967
688.295	8832
688.300	8827
688.340	9117
688.386	10141
688.421	9947
688.431	9811
688.477	9644
688.522	9267
688.542	9449
688.567	9914
688.613	9715
688.658	10171
688.663	10184
688.703	10052
688.749	9691
688.784	9805
688.794	9870
688.839	10080
688.884	9910
688.905	9845
688.930	9752
688.975	9972
689.020	9613
689.026	9565
689.065	9387
689.110	9514
689.146	9584
689.155	9587
689.201	9464
689.246	9436
689.267	9444
689.291	9611
689.336	9233
689.381	9960
689.388	9940
689.426	9763
689.471	9778
689.509	9630
689.516	9637
689.561	9725
689.606	9806
689.630	9941
689.651	10025
689.696	9662
689.741	9892
689.750	9873
689.785	9989
689.830	10061
689.871	10109
689.875	10088
689.920	10123
689.965	9765
689.992	9483
690.010	9486
690.054	9916
690.099	9621
690.112	9687
690.144	9942
690.189	9873
690.233	10106
690.233	10121
690.278	10257
690.323	10130
690.354	10156
690.367	10163
690.412	9567
690.457	9964
690.474	9912
690.501	10057
690.546	9965
690.590	10077
690.595	10064
690.635	9843
690.680	9955
690.716	9826
690.724	9833
690.769	9990
690.813	10285
690.836	9960
690.857	9803
690.902	9937
690.946	10436
690.957	10467
690.991	10826
691.035	11150
691.077	11860
691.080	11932
691.124	12175
691.168	12901
691.198	13363
691.213	13353
691.257	12999
691.301	12669
691.318	12705
691.346	12530
691.390	12010
691.434	11215
691.439	11128
691.478	11342
691.522	11687
691.559	11905
691.567	12008
691.611	12407
691.655	12226
691.680	12721
691.699	12751
691.743	12186
691.787	11780
691.800	11599
691.831	11763
691.875	11932
691.919	11854
691.921	11844
691.964	12197
692.008	12271
692.041	12415
692.052	12474
692.096	12399
692.139	12615
692.162	12612
692.183	12585
692.227	12176
692.271	12233
692.282	12178
692.315	12170
692.359	12240
692.402	12350
692.403	12378
692.447	12362
692.490	12680
692.523	12803
692.534	12900
692.578	13160
692.622	13708
692.643	13744
692.666	13428
692.709	12675
692.753	12246
692.763	12105
692.797	12172
692.840	12331
692.884	11942
692.884	11968
692.928	12448
692.971	12787
693.004	13070
693.015	13118
693.059	12835
693.102	12709
693.124	12617
693.146	12634
693.189	12665
693.233	12917
693.245	12812
693.276	12826
693.320	13382
693.363	13565
693.365	13537
693.407	13196
693.450	13240
693.485	12717
693.493	12777
693.537	13748
693.580	14480
693.605	14715
693.624	14522
693.667	14231
693.710	14079
693.725	13868
693.753	14217
693.797	14903
693.840	15471
693.845	15517
693.883	15702
693.926	15623
693.966	15764
693.970	15717
694.013	14812
694.056	13959
694.086	13153
694.099	13203
694.142	13544
694.185	13801
694.206	13914
694.229	14102
694.272	14385
694.315	14733
694.326	14735
694.358	15053
694.401	15556
694.444	16109
694.446	16095
694.487	16101
694.530	15952
694.566	15982
694.573	15872
694.616	14639
694.659	13546
694.686	12961
694.702	12963
694.745	12774
694.787	12386
694.806	12287
694.830	12561
694.873	12684
694.916	13049
694.926	13100
694.959	13038
695.002	12901
695.044	12831
695.046	12799
695.087	13506
695.130	13842
695.166	14237
695.172	14270
695.215	14413
695.258	14608
695.286	14461
695.301	14294
695.343	14016
695.386	13745
695.406	13441
695.428	13364
695.471	13361
695.514	13218
695.526	13212
695.556	13526
695.599	13871
695.641	13966
695.646	13964
695.684	14056
695.726	14035
695.766	13974
695.769	14009
695.811	14113
695.854	14076
695.886	14024
695.896	13994
695.938	13794
695.981	13493
696.005	13295
696.023	13466
696.065	13858
696.108	14121
696.125	14250
696.150	14496
696.192	14764
696.235	14995
696.245	15054
696.277	15176
696.319	15167
696.361	15171
696.365	15130
696.404	15045
696.446	14831
696.485	14733
696.488	14771
696.530	14696
696.572	14695
696.604	14516
696.614	14538
696.656	14601
696.698	14728
696.724	14641
696.740	14593
696.783	14499
696.825	14415
696.844	14269
696.867	14339
696.909	14508
696.951	14655
696.964	14681
696.992	14752
697.034	14734
697.076	14735
697.083	14684
697.118	14785
697.160	14974
697.202	15029
697.203	14992
697.244	14826
697.286	14567
697.323	14202
697.327	14270
697.369	14649
697.411	14966
697.442	15151
697.453	15287
697.494	15639
697.536	16113
697.562	16312
697.578	16382
697.620	16496
697.661	16578
697.682	16583
697.703	16826
697.744	17126
697.786	17586
697.801	17680
697.828	18237
697.869	18988
697.911	19754
697.921	19897
697.952	18979
697.994	17700
698.035	16330
698.040	16129
698.077	16093
698.118	15977
698.160	15824
698.160	15779
698.201	15857
698.243	15869
698.279	15859
698.284	15960
698.325	16498
698.367	16996
698.399	17320
698.408	17288
698.449	16943
698.491	16605
698.518	16325
698.532	16380
698.573	16393
698.614	16414
698.638	16379
698.656	16470
698.697	16589
698.738	16664
698.757	16675
698.779	16880
698.820	17169
698.862	17441
698.877	17502
698.903	17817
698.944	18226
698.985	18645
698.996	18711
699.026	18639
699.067	18468
699.116	18215
699.235	17182
699.354	16446
699.474	16069
699.593	18842
699.713	20326
699.832	17362
699.951	18191
700.070	17212
700.190	16431
700.309	15653
700.428	17666
700.547	17423
700.667	15636
700.786	17771
700.905	16604
701.024	17063
701.143	17316
701.262	13921
701.381	14920
701.500	15622
701.619	17012
701.738	15248
701.857	14588
701.976	14500
702.095	14582
702.214	15801
702.333	17542
702.452	15444
702.571	14845
702.690	14981
702.809	14565
702.928	13947
703.047	14442
703.165	14331
703.284	12779
703.403	13604
703.522	15973
703.640	16886
703.759	18425
703.878	26570
703.997	16327
704.115	13929
704.234	13699
704.353	13299
704.471	12584
704.590	12417
704.708	12098
704.827	12708
704.946	13542
705.064	14601
705.183	12682
705.301	14236
705.420	18759
705.538	17047
705.656	15827
705.775	14371
705.893	15544
706.012	18631
706.130	15658
706.249	15870
706.367	15899
706.485	17266
706.604	15833
706.722	16937
706.840	20719
706.958	22509
707.077	17505
707.195	14691
707.313	14395
707.431	14287
707.549	14555
707.668	14084
707.786	15396
707.904	14549
708.022	13058
708.140	13212
708.258	12933
708.376	15241
708.494	13409
708.612	14763
708.730	19129
708.848	19889
708.966	18560
709.084	18361
709.202	15819
709.320	17157
709.438	16345
709.556	16531
709.674	16224
709.791	16847
709.909	15082
710.027	16187
710.145	15606
710.263	16960
710.380	16111
710.498	15495
710.616	16078
710.733	15097
710.851	16302
710.969	17808
711.086	16101
711.204	17213
711.322	15680
711.439	16025
711.557	16853
711.674	16025
711.792	15442
711.909	15294
712.027	14376
712.144	13705
712.262	14953
712.379	15671
712.497	22055
712.614	22280
712.732	19087
712.849	17747
712.966	19876
713.084	24730
713.201	20896
713.318	19353
713.436	18163
713.553	18905
713.670	18712
713.787	21820
713.905	23978
714.022	19567
714.139	17802
714.256	22312
714.373	29267
714.490	47408
714.608	102467
714.725	460276
714.842	842579
714.959	73058
715.076	27376
715.193	20254
715.310	19410
715.427	16143
715.544	15548
715.661	16788
715.778	15085
715.895	17016
716.011	17041
716.128	15900
716.245	15387
716.362	17876
716.479	20665
716.596	15330
716.713	15562
716.829	14759
716.946	14862
717.063	13657
717.180	13513
717.296	13044
717.413	13069
717.530	13776
717.646	13180
717.763	13078
717.880	12716
717.996	13698
718.113	14334
718.229	13571
718.346	12956
718.462	13579
718.579	16583
718.695	28804
718.812	25909
718.928	21370
719.045	18139
719.161	12742
719.277	13534
719.394	12993
719.510	13114
719.626	13888
719.743	16982
719.859	21941
719.975	38210
720.092	126814
720.208	443738
720.324	88500
720.440	18170
720.557	16225
720.673	23652
720.789	33216
720.905	69932
721.021	36334
721.137	13056
721.253	12473
721.369	12966
721.486	13892
721.602	22861
721.718	13328
721.834	10424
721.950	10945
722.066	10548
722.181	9843
722.297	10727
722.413	11238
722.529	9896
722.645	10065
722.761	10795
722.877	10137
722.993	10202
723.108	12220
723.224	10654
723.340	11153
723.456	10749
723.571	10023
723.687	9622
723.803	9070
723.918	9402
724.034	10045
724.150	9668
724.265	11517
724.381	20302
724.497	42123
724.612	11012
724.728	8922
724.843	8924
724.959	10281
725.074	21395
725.190	38035
725.305	11339
725.421	10346
725.536	7999
725.651	8630
725.767	8099
725.882	7594
725.997	7727
726.113	7984
726.228	9295
726.343	8492
726.459	7405
726.574	9040
726.689	8872
726.804	9096
726.920	7989
727.035	8012
727.150	8995
727.265	8385
727.380	9265
727.495	7982
727.610	7681
727.725	7670
727.841	7482
727.956	8956
728.071	10678
728.186	7922
728.301	7285
728.416	8118
728.531	8085
728.645	6912
728.760	8165
728.875	8478
728.990	8887
729.105	8408
729.220	8906
729.335	8968
729.449	7435
729.564	7271
729.679	6579
729.794	7095
729.908	7901
730.023	7932
730.138	6236
730.253	6830
730.367	6334
730.482	6446
730.596	7000
730.711	8271
730.826	7679
730.940	8165
731.055	8455
731.169	7600
731.284	6645
731.398	6624
731.513	8527
731.627	8560
731.742	9532
731.856	12830
731.970	8691
732.085	11812
732.199	15027
732.313	24091
732.428	58646
732.542	190640
732.656	184189
732.771	28942
732.885	13338
732.999	10627
733.113	11232
733.227	10230
733.342	8863
733.456	7864
733.570	7662
733.684	7626
733.798	7364
733.912	7810
734.026	8001
734.140	7858
734.254	7664
734.368	12402
734.482	22311
734.596	8025
734.710	7445
734.824	7123
734.938	7348
735.052	7298
735.166	9340
735.280	7775
735.393	6280
735.507	7219
735.621	9462
735.735	18249
735.849	11252
735.962	7011
736.076	7956
736.190	8142
736.303	9036
736.417	15573
736.531	6369
736.644	7643
736.758	6582
736.872	6942
736.985	5625
737.099	6804
737.212	5689
737.326	6335
737.439	5375
737.553	6616
737.666	6217
737.780	4874
737.893	5484
738.007	5262
738.120	6171
738.233	6194
738.347	5383
738.460	5378
738.573	5849
738.687	6933
738.800	5691
738.913	8366
739.026	6965
739.140	6580
739.253	5575
739.366	6072
739.479	4674
739.592	4721
739.705	5135
739.818	5297
739.932	5501
740.045	4844
740.158	5178
740.271	5212
740.384	6060
740.497	5380
740.610	6731
740.723	5901
740.836	6461
740.949	6380
741.062	8995
741.174	7749
741.287	5843
741.400	6158
741.513	5222
741.626	6132
741.739	6443
741.851	6490
741.964	4856
742.077	6007
742.189	5237
742.302	6072
742.415	6252
742.527	6442
742.640	4833
742.753	5200
742.865	4762
742.978	4981
743.090	5213
743.203	4846
743.316	4683
743.428	3882
743.541	4072
743.653	3673
743.766	4235
743.878	5482
743.990	6063
744.103	8326
744.215	5073
744.327	4885
744.440	5512
744.552	10367
744.664	6905
744.777	5153
744.889	4997
745.001	4266
745.113	5057
745.226	4049
745.338	4486
745.450	3817
745.562	3987
745.674	4523
745.786	4442
745.898	4032
746.010	3682
746.122	3859
746.234	4063
746.347	4961
746.459	4190
746.570	4062
746.682	3721
746.794	4587
746.906	4296
747.018	3503
747.130	3638
747.242	4116
747.354	3642
747.466	4942
747.577	4458
747.689	4783
747.801	4116
747.913	3657
748.024	3022
748.136	3492
748.248	3479
748.359	3778
748.471	3855
748.583	3456
748.694	3107
748.806	3912
748.918	5737
749.029	4716
749.141	4636
749.252	4870
749.364	4138
749.475	10589
749.587	9913
749.698	4035
749.809	3925
749.921	3073
750.032	3202
750.144	3298
750.255	3162
750.366	3030
750.478	2767
750.589	3633
750.700	4166
750.811	5317
750.923	5515
751.034	10906
751.145	16407
751.256	4370
751.367	3521
751.479	3150
751.590	2748
751.701	3522
751.812	2790
751.923	3130
752.034	3185
752.145	2874
752.256	2878
752.367	3455
752.478	2955
752.589	3458
752.700	2709
752.811	3257
752.922	3173
753.032	3736
753.143	5074
753.254	3319
753.365	4096
753.476	3609
753.586	3112
753.697	2524
753.808	2361
753.919	2380
754.029	3178
754.140	2822
754.251	2930
754.361	2505
754.472	2641
754.582	3037
754.693	3114
754.804	3409
754.914	2107
755.025	2401
755.135	2334
755.246	3309
755.356	2945
755.466	3590
755.577	2583
755.687	3545
755.798	2042
755.908	1980
756.018	2535
756.129	3565
756.239	3116
756.349	3233
756.460	2842
756.570	3718
756.680	3642
756.790	3512
756.900	4331
757.011	2814
757.121	2675
757.231	2743
757.341	3582
757.451	2074
757.561	2221
757.671	2321
757.781	2152
757.891	2803
758.001	3026
758.111	3341
758.221	3130
758.331	4380
758.441	4934
758.551	5830
758.661	6722
758.771	3793
758.880	3773
758.990	3205
759.100	3209
759.210	2861
759.320	3927
759.429	3243
759.539	3889
759.649	4013
759.758	4352
759.868	4568
759.978	4224
760.087	4442
760.197	5628
760.307	4971
760.416	4501
760.526	4774
760.635	4385
760.745	5145
760.854	5003
760.964	5677
761.073	5694
761.182	4942
761.292	5297
761.401	5544
761.511	3504
761.620	3483
761.729	3332
761.839	3771
761.948	3318
762.057	4269
762.166	3369
762.276	2812
762.385	3337
762.494	2793
762.603	3080
762.712	2948
762.822	3423
762.931	2779
763.040	2282
763.149	2859
763.258	3193
763.367	2993
763.476	2613
763.585	2392
763.694	2968
763.803	3043
763.912	3666
764.021	3167
764.130	2840
764.238	3680
764.347	3289
764.456	3614
764.565	3776
764.674	2515
764.783	3438
764.891	2783
765.000	3580
765.109	2900
765.217	3598
765.326	4248
765.435	6820
765.543	4199
765.652	5434
765.761	4974
765.869	6652
765.978	10474
766.086	16325
766.195	30985
766.303	76386
766.412	261204
766.520	365035
766.629	81123
766.737	22374
766.846	12707
766.954	8620
767.062	8353
767.171	6004
767.279	6708
767.387	4021
767.496	4821
767.604	4259
767.712	3861
767.820	3502
767.928	3868
768.037	3138
768.145	3857
768.253	3139
768.361	3699
768.469	3203
768.577	3228
768.685	3766
768.793	4138
768.901	3726
769.009	3372
769.117	4320
769.225	4275
769.333	5981
769.441	7940
769.549	14307
769.657	28377
769.765	87602
769.873	283818
769.981	137533
770.088	19479
770.196	8845
770.304	6166
770.412	5319
770.519	5758
770.627	4057
770.735	3538
770.842	3318
770.950	3482
771.058	3343
771.165	4398
771.273	2464
771.380	3975
771.488	3594
771.595	4574
771.703	3739
771.810	4133
771.918	3142
772.025	4119
772.133	4156
772.240	3852
772.348	4718
772.455	3392
772.562	4061
772.670	3398
772.777	3692
772.884	4200
772.991	4143
773.099	3326
773.206	3834
773.313	3544
773.420	3467
773.528	3795
773.635	4186
773.742	4257
773.849	3642
773.956	3235
774.063	3822
774.170	3028
774.277	3518
774.384	3701
774.491	4297
774.598	3777
774.705	3991
774.812	5229
774.919	4577
775.026	5423
775.133	3680
775.239	4014
775.346	3713
775.453	3297
775.560	2574
775.667	3710
775.773	3217
775.880	4270
775.987	3512
776.093	3615
776.200	3339
776.307	2842
776.413	3809
776.520	3037
776.627	3633
776.733	4178
776.840	1851
776.946	4346
777.053	3870
777.159	3473
777.266	2448
777.372	4571
777.478	3389
777.585	3964
777.691	2836
777.798	3410
777.904	4554
778.010	4518
778.117	6030
778.223	3289
778.329	3644
778.435	2985
778.542	3243
778.648	2971
778.754	3126
778.860	2957
778.966	3421
779.072	4054
779.178	3204
779.284	3280
779.391	1790
779.497	3193
779.603	4462
779.708	3314
779.815	3886
779.920	3921
780.026	5261
780.132	3756
780.238	2654
780.344	3179
780.450	3456
780.556	3382
780.661	2546
780.767	2918
780.873	2058
780.979	3734
781.085	3037
781.190	2485
781.296	2412
781.402	2875
781.507	2393
781.613	2756
781.719	2428
781.824	2582
781.930	2826
782.035	2791
782.141	2995
782.246	1566
782.352	3117
782.457	2403
782.563	1803
782.668	2957
782.773	2380
782.879	2039
782.984	3117
783.090	3933
783.195	5660
783.300	5151
783.405	3691
783.511	2728
783.616	2634
783.721	2581
783.826	2846
783.932	3091
784.037	2701
784.142	2904
784.247	3672
784.352	3736
784.457	2991
784.562	2759
784.667	2984
784.772	2357
784.877	2223
784.982	3077
785.087	2495
785.192	2713
785.297	2988
785.402	2248
785.507	2083
785.611	3105
785.716	1588
785.821	1455
785.926	1785
786.031	2425
786.135	1936
786.240	2588
786.345	1756
786.450	2207
786.554	2149
786.659	1392
786.763	1173
786.868	2324
786.973	3378
787.077	2401
787.182	1734
787.286	2378
787.391	1868
787.495	1877
787.600	1315
787.704	1678
787.809	2190
787.913	1572
788.017	2218
788.122	2483
788.226	1780
788.330	1686
788.435	1581
788.539	2878
788.643	1205
788.747	1748
788.852	1445
788.956	1179
789.060	1832
789.164	1612
789.268	1156
789.372	2201
789.476	1524
789.580	1839
789.684	1197
789.788	1586
789.892	1911
789.996	2141
790.100	1339
790.204	1474
790.308	1946
790.412	2184
790.516	1380
790.620	1517
790.724	1794
790.828	2015
790.931	1367
791.035	2006
791.139	2147
791.242	1553
791.346	2068
791.450	1776
791.554	1337
791.657	1080
791.761	2374
791.864	2288
791.968	2064
792.072	2071
792.175	2012
792.279	1921
792.382	1691
792.486	1828
792.589	2133
792.693	2866
792.796	2084
792.899	2244
793.003	1844
793.106	458
793.209	1932
793.313	2753
793.416	1368
793.519	2987
793.623	3142
793.726	6486
793.829	2742
793.932	2585
794.035	1050
794.138	2602
794.242	2540
794.345	2676
794.448	3412
794.551	4252
794.654	5388
794.757	3991
794.860	3112
794.963	2734
795.066	542
795.169	1318
795.272	938
795.375	1471
795.477	978
795.580	1970
795.683	460
795.786	1030
795.889	1021
795.991	2371
796.094	2305
796.197	1780
796.300	2330
796.402	1611
796.505	687
796.608	1703
796.710	1730
796.813	1971
796.915	1828
797.018	1602
797.120	1842
797.223	491
797.326	1815
797.428	935
797.530	1324
797.633	1656
797.735	2414
797.838	4759
797.940	5475
798.042	1471
798.145	1533
798.247	1480
798.349	433
798.452	1628
798.554	521
798.656	1179
798.758	2301
798.860	1068
798.962	539
799.065	749
799.167	483
799.269	2569
799.371	2705
799.473	2590
799.575	2291
799.677	3510
799.779	2833
799.881	4306
799.983	4003
800.085	2010
800.187	319
800.289	-68
800.390	1170
800.492	1520
800.594	1100
800.696	378
800.798	1077
800.899	1619
801.001	1309
801.103	1230
801.205	840
801.306	1591
801.408	915
801.509	353
801.611	732
801.713	704
801.814	472
801.916	922
802.017	1141
802.119	1148
802.220	977
802.322	578
802.423	3793
802.525	2970
802.626	1520
802.727	1728
802.829	2036
802.930	-391
803.031	2543
803.133	868
803.234	1095
803.335	664
803.436	439
803.538	1549
803.639	445
803.740	2098
803.841	427
803.942	2118
804.043	897
804.144	1589
804.245	573
804.346	749
804.447	469
804.548	2994
804.649	3313
804.750	1414
804.851	796
804.952	284
805.053	1324
805.154	996
805.255	1733
805.355	1171
805.456	902
805.557	962
805.658	343
805.758	613
805.859	687
805.960	656
806.061	532
806.161	816
806.262	477
806.362	717
806.463	841
806.564	1273
806.664	964
806.765	1354
806.865	2224
806.966	800
807.066	660
807.166	1476
807.267	1638
807.367	1263
807.468	1201
807.568	-88
807.668	1178
807.769	576
807.869	358
807.969	1530
808.069	1055
808.170	372
808.270	757
808.370	1200
808.470	1823
808.570	1852
808.670	633
808.770	725
808.870	669
808.970	690
809.070	937
809.170	665
809.271	1680
809.370	859
809.470	408
809.570	702
809.670	89
809.770	483
809.870	1247
809.970	1142
810.070	662
810.169	925
810.269	-813
810.369	1023
810.469	-1
810.568	364
810.668	285
810.768	236
810.867	827
810.967	263
811.066	323
811.166	648
811.265	748
811.365	427
811.464	370
811.564	293
811.663	1609
811.763	289
811.862	548
811.962	1132
812.061	793
812.160	530
812.260	263
812.359	563
812.458	-41
812.557	1112
812.657	1282
812.756	1236
812.855	594
812.954	540
813.053	331
813.153	781
813.252	207
813.351	1328
813.450	1241
813.549	677
813.648	152
813.747	220
813.846	972
813.945	372
814.044	1025
814.143	762
814.242	934
814.341	709
814.439	919
814.538	1555
814.637	477
814.736	812
814.835	1501
814.933	974
815.032	1320
815.131	2237
815.229	2037
815.328	2706
815.427	1971
815.525	1612
815.624	2482
815.722	1205
815.821	1696
815.919	1692
816.018	1675
816.116	2329
816.215	2149
816.313	2619
816.412	2430
816.510	3189
816.609	3551
816.707	3230
816.805	2954
816.904	3476
817.002	4578
817.100	4748
817.198	4336
817.296	4537
817.395	4823
817.493	5951
817.591	5882
817.689	8000
817.787	10442
817.885	15779
817.983	27860
818.081	55743
818.179	128424
818.277	319184
818.375	428429
818.473	147505
818.571	46231
818.669	26931
818.767	21882
818.865	21015
818.963	23565
819.061	33200
819.158	55892
819.256	108443
819.354	237700
819.452	538918
819.549	546513
819.647	187470
819.745	65961
819.842	35796
819.940	23715
820.038	17122
820.135	13610
820.233	11044
820.330	8869
820.428	7383
820.525	6702
820.623	5432
820.720	4859
820.818	4759
820.915	4513
821.012	4717
821.110	2548
821.207	4285
821.304	2889
821.402	2731
821.499	2700
821.596	3161
821.693	2326
821.791	3027
821.888	3055
821.985	7244
822.082	7133
822.179	3080
822.276	2372
822.373	2710
822.470	1473
822.567	1902
822.664	1992
822.761	1602
822.858	1270
822.955	1672
823.052	1761
823.149	1169
823.246	1465
823.343	1187
823.440	1012
823.536	1548
823.633	1477
823.730	1091
823.827	1845
823.923	1478
824.020	3104
824.117	875
824.213	834
824.310	2106
824.407	1504
824.503	1628
824.600	1361
824.696	1511
824.793	2660
824.889	1312
824.986	562
825.082	551
825.179	1981
825.275	1246
825.371	607
825.468	1785
825.564	91
825.660	790
825.757	1924
825.853	782
825.949	897
826.045	556
826.142	63
826.238	1205
826.334	1286
826.430	375
826.526	351
826.622	539
826.718	665
826.814	1740
826.910	1114
827.006	1016
827.102	287
827.198	1352
827.294	839
827.390	1169
827.486	1496
827.582	313
827.678	437
827.774	1580
827.869	-87
827.965	1066
828.061	-395
828.157	-127
828.252	913
828.348	327
828.444	818
828.539	473
828.635	754
828.731	2370
828.826	588
828.922	1910
829.017	587
829.113	1890
829.208	757
829.304	745
829.399	1667
829.495	941
829.590	1552
829.685	1279
829.781	992
829.876	1029
829.971	454
830.066	822
830.162	397
830.257	993
830.352	359
830.447	2383
830.543	1205
830.638	891
830.733	1653
830.828	369
830.923	1303
831.018	605
831.113	975
831.208	953
831.303	3
831.398	1159
831.493	1049
831.588	1389
831.683	-189
831.778	277
831.873	-225
831.967	994
832.062	611
832.157	301
832.252	1440
832.346	454
832.441	2043
832.536	2449
832.631	4860
832.725	6791
832.820	502
832.914	577
833.009	468
833.104	809
833.198	2386
833.293	449
833.387	2090
833.482	1769
833.576	454
833.670	611
833.765	1194
833.859	519
833.954	1786
834.048	782
834.142	976
834.237	815
834.331	544
834.425	724
834.519	-612
834.613	460
834.708	-182
834.802	279
834.896	-57
834.990	400
835.084	417
835.178	674
835.272	129
835.366	1080
835.460	485
835.554	444
835.648	517
835.742	184
835.836	197
835.930	-478
836.024	383
836.117	1303
836.211	1109
836.305	1654
836.399	3064
836.493	277
836.586	921
836.680	-377
836.774	232
836.867	774
836.961	35
837.055	313
837.148	-438
837.242	198
837.335	89
837.429	50
837.522	-141
837.616	1154
837.709	2167
837.803	3146
837.896	1113
837.989	690
838.083	2017
838.176	2933
838.269	4399
838.363	1784
838.456	-179
838.549	2687
838.642	2695
838.735	6114
838.829	3627
838.922	970
839.015	-222
839.108	-260
839.201	-186
839.294	1186
839.387	274
839.480	411
839.573	1387
839.666	2816
839.759	883
839.852	-340
839.945	273
840.038	-156
840.131	683
840.223	559
840.316	923
840.409	-32
840.502	92
840.594	1267
840.687	-491
840.780	530
840.873	-106
840.965	-148
841.058	916
841.150	3054
841.243	3216
841.336	1357
841.428	630
841.521	612
841.613	831
841.706	875
841.798	796
841.890	348
841.983	-493
842.075	852
842.167	189
842.260	667
842.352	1017
842.444	2282
842.537	3685
842.629	7993
842.721	2135
842.813	-61
842.905	-887
842.997	682
843.090	218
843.182	1963
843.274	3542
843.366	8962
843.458	20124
843.550	18997
843.642	2982
843.734	1176
843.826	1332
843.918	1980
844.009	530
844.101	-595
844.193	87
844.285	691
844.377	-121
844.469	1100
844.560	578
844.652	891
844.744	947
844.835	1219
844.927	654
845.019	1026
845.110	661
845.202	837
845.293	-168
845.385	-311
845.476	741
845.568	1116
845.659	472
845.751	617
845.842	-167
845.934	55
846.025	24
846.116	4
846.208	223
846.299	12
846.390	668
846.482	1282
846.573	61
846.664	1815
846.755	1631
846.846	2464
846.937	469
847.029	326
847.120	-232
847.211	36
847.302	774
847.393	-717
847.484	646
847.575	-91
847.666	-197
847.757	-625
847.847	235
847.938	202
848.029	335
848.120	-26
848.211	-728
848.302	213
848.392	-236
848.483	892
848.574	-351
848.664	110
848.755	413
848.846	90
848.936	-132
849.027	640
849.118	280
849.208	422
849.299	2158
849.389	3490
849.480	7024
849.570	16984
849.661	28226
849.751	60712
849.841	39094
849.932	5612
850.022	1216
850.112	1648
850.203	936
850.293	781
850.383	812
850.474	-167
850.564	630
850.654	47
850.744	125
850.834	-8
850.924	-354
851.014	1038
851.104	-234
851.194	81
851.284	260
851.374	1519
851.464	600
851.554	1137
851.644	600
851.734	1753
851.824	2002
851.914	-71
852.004	774
852.094	-497
852.183	84
852.273	148
852.363	22
852.452	616
852.542	749
852.632	-114
852.721	666
852.811	371
852.901	589
852.990	236
853.080	1848
853.169	856
853.259	1464
853.348	1160
853.438	2173
853.527	3672
853.617	5573
853.706	11092
853.795	17923
853.885	42050
853.974	87271
854.063	143430
854.152	280221
854.242	175257
854.331	33427
854.420	10397
854.509	5593
854.598	4483
854.687	3332
854.777	2099
854.866	1109
854.955	2495
855.044	665
855.133	228
855.222	454
855.311	901
855.400	969
855.488	319
855.577	511
855.666	832
855.755	645
855.844	480
855.933	-273
856.021	20
856.110	577
856.199	231
856.288	-711
856.376	129
856.465	-278
856.554	653
856.642	-357
856.731	-139
856.819	442
856.908	274
856.996	86
857.085	90
857.173	-1285
857.262	553
857.350	1173
857.438	-178
857.527	336
857.615	168
857.703	-102
857.792	-778
857.880	-753
857.968	-1066
858.056	-231
858.145	-73
858.233	-633
858.321	-289
858.409	1291
858.497	-267
858.585	-194
858.673	626
858.761	-259
858.849	112
858.937	-345
859.025	-35
859.113	23
859.201	-512
859.289	-487
859.377	-402
859.465	233
859.552	-64
859.640	250
859.728	435
859.816	-1245
859.903	-59
859.991	-1193
860.079	-295
860.166	-33
860.254	-899
860.342	-248
860.429	-387
860.517	-53
860.604	-96
860.692	74
860.779	-495
860.867	-131
860.954	407
861.042	479
861.129	610
861.216	262
861.304	-208
861.391	-699
861.478	610
861.565	660
861.653	667
861.740	-459
861.827	-336
861.914	302
862.001	-683
862.089	22
862.176	-55
862.263	-1111
862.350	-93
862.437	-838
862.524	-171
862.611	69
862.698	-483
862.785	-395
862.871	-526
862.958	-546
863.045	-396
863.132	289
863.219	608
863.306	-833
863.392	747
863.479	-378
863.566	-75
863.652	567
863.739	-391
863.826	861
863.912	-181
863.999	-206
864.086	424
864.172	378
864.259	-68
864.345	-249
864.432	115
864.518	-268
864.604	-316
864.691	-166
864.777	1018
864.863	363
864.950	1308
865.036	413
865.122	1613
865.209	2295
865.295	1853
865.381	2078
865.467	2375
865.553	4080
865.639	5268
865.726	10516
865.812	21443
865.898	44969
865.984	71686
866.070	112501
866.156	181259
866.242	75365
866.328	12886
866.414	6022
866.499	3906
866.585	3551
866.671	2363
866.757	2265
866.843	2039
866.928	1213
867.014	1499
867.100	1791
867.186	1419
867.271	1865
867.357	1841
867.442	3019
867.528	2609
867.614	581
867.699	460
867.785	923
867.870	939
867.956	594
868.041	2557
868.127	1253
868.212	790
868.297	985
868.383	1034
868.468	1715
868.553	3326
868.639	3413
868.724	6219
868.809	9336
868.894	3325
868.979	1430
869.065	1041
869.150	908
869.235	705
869.320	146
869.405	855
869.490	0
869.575	1226
869.660	660
869.745	795
869.830	392
869.915	983
870.000	1184
870.085	225
870.169	190
870.254	1410
870.339	505
870.424	-250
870.509	793
870.593	871
870.678	716
870.763	9
870.847	-923
870.932	434
871.016	1307
871.101	206
871.186	655
871.270	1360
871.355	221
871.439	415
871.523	365
871.608	1398
871.692	630
871.777	1038
871.861	-67
871.945	320
872.030	333
872.114	1035
872.198	416
872.282	407
872.367	93
872.451	-311
872.535	-894
872.619	257
872.703	662
872.787	-169
872.871	1190
872.955	-178
873.039	-307
873.123	478
873.207	1243
873.291	29
873.375	-215
873.459	1166
873.543	421
873.627	-702
873.711	755
873.794	-475
873.878	555
873.962	-397
874.045	100
874.129	293
874.137	258
874.213	-89
874.245	155
874.296	547
874.352	31
874.380	-218
874.460	-69
874.464	-64
874.547	-52
874.568	-66
874.631	-66
874.676	128
874.714	269
874.784	44
874.798	2
874.881	1616
874.892	1425
874.965	148
874.999	87
875.048	-23
875.107	609
875.131	850
875.215	212
875.215	212
875.298	216
875.323	113
875.381	-169
875.430	281
875.465	617
875.538	255
875.548	193
875.631	92
875.646	-53
875.714	-640
875.753	-459
875.798	-243
875.861	188
875.881	310
875.964	613
875.968	577
876.047	-34
876.076	226
876.130	592
876.183	416
876.213	406
876.291	811
876.296	830
876.379	70
876.398	140
876.462	260
876.506	47
876.545	-8
876.613	-44
876.628	-69
876.711	-15
876.721	-22
876.794	23
876.828	66
876.877	-17
876.935	-74
876.960	-58
877.043	642
877.043	641
877.125	372
877.150	601
877.208	1150
877.258	679
877.291	308
877.365	157
877.374	159
877.456	654
877.472	609
877.539	436
877.579	606
877.622	675
877.687	517
877.704	517
877.787	432
877.794	384
877.869	-260
877.901	162
877.952	799
878.008	-2
878.034	-299
878.115	-158
878.117	-157
878.199	-68
878.222	-26
878.282	154
878.329	729
878.364	1036
878.437	669
878.447	662
878.529	193
878.544	245
878.611	191
878.651	251
878.694	488
878.758	391
878.776	277
878.858	272
878.865	244
878.941	123
878.972	63
879.023	-37
879.078	71
879.105	156
879.185	-9
879.187	-13
879.269	892
879.292	603
879.351	-91
879.399	254
879.433	359
879.506	220
879.516	249
879.598	283
879.613	251
879.680	-45
879.720	90
879.762	362
879.827	286
879.844	184
879.926	335
879.933	340
880.007	413
880.040	383
880.089	436
880.147	423
880.171	484
880.253	3592
880.254	3606
880.335	5023
880.360	5467
880.417	6703
880.467	8844
880.499	10407
880.574	17141
880.580	17542
880.662	7267
880.680	5847
880.744	1201
880.787	611
880.825	525
880.893	318
880.907	155
880.989	-320
881.000	-313
881.070	327
881.106	294
881.152	127
881.213	269
881.233	250
881.315	-248
881.319	-241
881.396	292
881.426	245
881.478	-93
881.532	114
881.559	410
881.639	611
881.641	598
881.722	61
881.745	-30
881.803	98
881.852	14
881.885	-80
881.958	69
881.966	71
882.047	61
882.064	73
882.129	706
882.171	748
882.210	321
882.277	1006
882.291	1225
882.372	341
882.383	298
882.454	104
882.489	75
882.535	-122
882.596	-349
882.616	-357
882.697	377
882.702	350
882.778	-7
882.808	125
882.859	68
882.914	-277
882.940	-280
883.020	63
883.021	64
883.102	-288
883.127	-183
883.183	286
883.233	277
883.264	176
883.339	-437
883.345	-461
883.426	-96
883.445	49
883.507	365
883.551	303
883.587	307
883.657	347
883.668	295
883.749	146
883.763	53
883.830	239
883.869	287
883.910	19
883.975	172
883.991	177
884.072	-396
884.081	-437
884.152	-154
884.187	-34
884.233	42
884.292	324
884.314	304
884.394	-334
884.398	-353
884.475	-170
884.504	-56
884.555	-120
884.610	-260
884.636	-291
884.716	-249
884.716	-248
884.797	-248
884.821	-312
884.877	4
884.927	376
884.958	222
885.033	-335
885.038	-328
885.118	-48
885.139	8
885.199	-60
885.244	10
885.279	245
885.350	425
885.359	378
885.439	150
885.456	9
885.520	-335
885.561	-265
885.600	-338
885.667	-642
885.680	-530
885.760	62
885.773	206
885.840	273
885.878	206
885.920	414
885.984	513
886.000	398
886.080	143
886.089	101
886.160	10
886.195	-19
886.240	64
886.300	189
886.320	290
886.400	555
886.406	583
886.480	223
886.511	31
886.560	166
886.616	269
886.640	204
886.720	-40
886.722	-47
886.800	-48
886.827	33
886.879	96
886.932	-70
886.959	66
887.038	671
887.039	667
887.119	120
887.143	-86
887.198	82
887.248	178
887.278	251
887.354	628
887.358	603
887.437	-39
887.459	-257
887.517	-179
887.564	-39
887.596	68
887.669	255
887.676	215
887.755	-257
887.774	-409
887.835	-160
887.880	114
887.914	143
887.985	165
887.994	164
888.073	137
888.090	131
888.153	210
888.195	204
888.232	153
888.300	123
888.311	133
888.391	145
888.405	161
888.470	124
888.510	52
888.549	30
888.615	41
888.628	-33
888.708	-512
888.720	-585
888.787	-361
888.825	-247
888.866	-304
888.930	-374
888.945	-369
889.024	-338
889.035	-332
889.103	21
889.140	193
889.182	191
889.245	217
889.261	292
889.340	607
889.349	646
889.419	672
889.454	669
889.498	758
889.559	895
889.577	628
889.656	-560
889.664	-672
889.735	-94
889.768	187
889.814	362
889.873	593
889.978	-91
890.083	-50
890.187	-50
890.292	171
890.397	178
890.501	-27
890.606	147
890.710	944
890.815	328
890.919	-705
891.024	217
891.128	-263
891.233	752
891.337	-198
891.442	493
891.546	-772
891.650	-112
891.755	-544
891.859	1122
891.963	108
892.068	13
892.172	-86
892.276	-327
892.380	-52
892.484	-93
892.589	-252
892.693	-512
892.797	495
892.901	-60
893.005	-222
893.109	487
893.213	-214
893.317	477
893.421	-499
893.525	199
893.629	-589
893.733	642
893.837	-314
893.941	-44
894.045	-53
894.148	-144
894.252	-640
894.356	309
894.460	86
894.564	165
894.667	-1089
894.771	-269
894.875	-445
894.978	-370
895.082	-1176
895.186	-310
895.289	394
895.393	744
895.496	-446
895.600	-209
895.703	-166
895.807	-143
895.910	-1118
896.014	435
896.117	-767
896.221	425
896.324	-199
896.427	86
896.531	-746
896.634	178
896.737	102
896.840	203
896.944	-238
897.047	223
897.150	592
897.253	-289
897.356	-455
897.460	79
897.563	-618
897.666	-916
897.769	-748
897.872	-517
897.975	466
898.078	-173
898.181	-329
898.284	-271
898.387	-562
898.490	-53
898.593	-160
898.695	347
898.798	-331
898.901	-249
899.004	588
899.107	-269
899.209	-252
899.312	-145
899.415	367
899.518	-173
899.620	446
899.723	-191
899.826	9
899.928	117
900.031	-431
900.133	-863
900.236	-966
900.338	-3
900.441	-106
900.543	411
900.646	245
900.748	-494
900.851	-13
900.953	-227
901.055	-576
901.158	-57
901.260	-397
901.362	-980
901.465	-193
901.567	-769
901.669	-182
901.771	-591
901.873	93
901.976	-464
902.078	-1072
902.180	-585
902.282	-186
902.384	-74
902.486	-645
902.588	-238
902.690	-703
902.792	301
902.894	370
902.996	-128
903.098	-390
903.200	-142
903.302	-184
903.404	-294
903.505	-552
903.607	306
903.709	-488
903.811	162
903.913	674
904.014	-294
904.116	-768
904.218	-792
904.319	-63
904.421	-106
904.523	-664
904.624	-576
904.726	-462
904.827	-254
904.929	-813
905.030	48
905.132	-718
905.233	-387
905.335	27
905.436	-526
905.537	-218
905.639	404
905.740	-918
905.841	-570
905.943	-362
906.044	-722
906.145	-282
906.247	242
906.348	-192
906.449	246
906.550	-67
906.651	-234
906.752	-36
906.854	-187
906.955	-258
907.056	-778
907.157	-983
907.258	-66
907.359	246
907.460	-312
907.561	-839
907.662	-204
907.762	-557
907.863	141
907.964	-6
908.065	-868
908.166	22
908.267	52
908.367	-740
908.468	-800
908.569	-624
908.670	-230
908.770	-469
908.871	204
908.971	-72
909.072	-336
909.173	-444
909.273	-446
909.374	-108
909.474	-1072
909.575	-928
909.675	-489
909.776	93
909.876	-490
909.977	-347
910.077	-480
910.177	-760
910.278	-849
910.378	-27
910.478	-70
910.579	-808
910.679	-716
910.779	-446
910.879	-384
910.980	-243
911.080	-592
911.180	-236
911.280	-31
911.380	-394
911.480	-390
911.580	-376
911.680	-574
911.780	-754
911.880	11
911.980	-499
912.080	-680
912.180	430
912.280	103
912.380	-268
912.480	-162
912.580	-1387
912.679	-128
912.779	-723
912.879	-749
912.979	-554
913.078	-828
913.178	-321
913.278	-26
913.377	-662
913.477	-566
913.577	-152
913.676	-268
913.776	-749
913.875	-746
913.975	-668
914.074	-319
914.174	-933
914.273	-170
914.373	-737
914.472	-32
914.572	-1110
914.671	-98
914.770	-1312
914.870	-556
914.969	-1347
915.068	-736
915.167	-692
915.267	-335
915.366	-812
915.465	-752
915.564	-662
915.663	-365
915.763	-470
915.862	648
915.961	-845
916.060	-276
916.159	-190
916.258	-1110
916.357	-173
916.456	-728
916.555	-626
916.654	-455
916.752	-316
916.851	393
916.950	-764
917.049	-950
917.148	-797
917.247	-798
917.345	-362
917.444	-772
917.543	54
917.642	-166
917.740	-915
917.839	-935
917.937	-558
918.036	-116
918.135	-1276
918.233	-1108
918.332	-520
918.430	-809
918.529	-1171
918.627	-1058
918.726	-652
918.824	-192
918.923	-536
919.021	-943
919.119	-613
919.218	-1262
919.316	-608
919.414	-638
919.512	-1530
919.611	-711
919.709	-836
919.807	-178
919.905	537
920.003	-525
920.102	-636
920.200	-413
920.298	-15
920.396	-650
920.494	-196
920.592	-699
920.690	-281
920.788	-306
920.886	-689
920.984	15
921.082	-322
921.180	-417
921.277	-819
921.375	-80
921.473	-67
921.571	-1285
921.669	-430
921.766	89
921.864	60
921.962	382
922.060	-252
922.157	-9
922.255	-174
922.352	-712
922.450	20
922.548	-162
922.645	-191
922.743	376
922.840	1137
922.938	-936
923.035	406
923.133	210
923.230	-78
923.327	740
923.425	-98
923.522	836
923.619	186
923.717	420
923.814	-818
923.911	-194
924.008	523
924.106	244
924.203	7
924.300	-189
924.397	-368
924.494	210
924.591	-331
924.688	328
924.786	331
924.883	482
924.979	-69
925.077	391
925.173	-90
925.270	-131
925.367	-46
925.464	336
925.561	-360
925.658	622
925.755	-506
925.852	472
925.948	-142
926.045	-252
926.142	-277
926.239	-82
926.335	-233
926.432	736
926.529	-304
926.625	17
926.722	-378
926.818	-110
926.915	143
927.011	93
927.108	31
927.204	384
927.301	-286
927.397	396
927.494	175
927.590	-320
927.687	-631
927.783	-384
927.879	-102
927.976	-218
928.072	-240
928.168	528
928.264	-251
928.361	190
928.457	499
928.553	-133
928.649	-328
928.745	244
928.841	120
928.937	362
929.033	-446
929.129	423
929.225	-1269
929.321	-133
929.417	-333
929.513	-303
929.609	67
929.705	-2
929.801	-275
929.897	-935
929.993	-800
930.089	-331
930.184	-148
930.280	-202
930.376	-497
930.471	304
930.567	7
930.663	200
930.758	-498
930.854	-1019
930.950	-7
931.045	-134
931.141	-704
931.236	45
931.332	101
931.427	-329
931.523	-68
931.618	82
931.714	-486
931.809	-427
931.905	-262
932.000	-234
932.095	-1590
932.191	-242
932.286	321
932.381	552
932.476	492
932.572	-310
932.667	539
932.762	-135
932.857	-416
932.952	70
933.047	-267
933.142	-380
933.237	-391
933.332	-458
933.427	67
933.522	-31
933.617	-499
933.712	-213
933.807	-395
933.902	-15
933.997	-154
934.092	300
934.187	-579
934.282	-186
934.376	-755
934.471	510
934.566	-60
934.661	575
934.755	-809
934.850	-739
934.945	-398
935.039	93
935.134	-886
935.228	-420
935.323	-495
935.417	-217
935.512	-453
935.606	-1144
935.701	-283
935.795	-230
935.890	-522
935.984	174
936.079	-417
936.173	-161
936.267	-812
936.362	-714
936.456	-1051
936.550	47
936.644	-956
936.738	-762
936.833	-1111
936.927	-273
937.021	-319
937.115	-832
937.209	-1343
937.303	756
937.397	-1544
937.491	495
937.585	-705
937.679	-355
937.773	-64
937.867	-283
937.961	-658
938.055	-833
938.149	103
938.243	195
938.337	-1022
938.430	-415
938.524	-832
938.618	-277
938.712	-658
938.805	-1107
938.899	192
938.993	-279
939.086	-357
939.180	-319
939.274	-654
939.367	-457
939.461	-164
939.554	-392
939.648	-711
939.741	-923
939.835	-129
939.928	902
940.022	175
940.115	191
940.208	600
940.302	-601
940.395	-501
940.488	-1118
940.582	-317
940.675	-403
940.768	-801
940.861	-967
940.954	-257
941.048	-1153
941.141	-1254
941.234	-143
941.327	-907
941.420	-338
941.513	-75
941.606	-294
941.699	-142
941.792	-345
941.885	-537
941.978	-143
942.071	-746
942.164	-202
942.257	-692
942.349	30
942.442	-46
942.535	-240
942.628	-230
942.721	-460
942.813	-1471
942.906	154
942.999	-1182
943.091	-242
943.184	-403
943.277	-540
943.369	-772
943.462	-472
943.554	-1112
943.647	-163
943.739	-740
943.832	-1090
943.924	-1409
944.017	-645
944.109	-1513
944.201	-309
944.294	-919
944.386	-716
944.478	-780
944.571	-238
944.663	-532
944.755	-1166
944.847	-791
944.940	-798
945.032	-1992
945.124	-775
945.216	-105
945.308	-738
945.400	-882
945.492	-797
945.584	-284
945.676	-477
945.768	-950
945.860	-888
945.952	-1476
946.044	-521
946.136	-827
946.228	-704
946.320	-1196
946.412	-749
946.503	-1061
946.595	131
946.687	-1112
946.779	-454
946.870	-687
946.962	-1020
947.054	-460
947.145	-386
947.237	-967
947.329	-308
947.420	-1303
947.512	-892
947.603	-1860
947.695	-67
947.786	-795
947.878	-724
947.969	-691
948.061	-631
948.152	-997
948.243	-442
948.335	-1061
948.426	-808
948.517	-565
948.609	-731
948.700	-1167
948.791	-155
948.882	-1850
948.973	-12
949.065	-1224
949.156	-107
949.247	-1091
949.338	-352
949.429	-1305
949.520	-1111
949.611	-914
949.702	-416
949.793	-969
949.884	-706
949.975	-1390
950.066	-20
950.157	-957
950.247	-919
950.338	-708
950.429	-683
950.520	-1677
950.611	-1106
950.701	-631
950.792	-1016
950.883	-829
950.973	-549
951.064	-1561
951.155	-469
951.245	-625
951.336	-766
951.427	-1356
951.517	-828
951.608	-866
951.698	-1335
951.788	-714
951.879	-790
951.969	-1454
952.060	-1713
952.150	-1509
952.240	-1043
952.331	-1258
952.421	230
952.511	-1570
952.602	-600
952.692	-928
952.782	-1499
952.872	-1933
952.962	-1100
953.052	-677
953.143	-756
953.233	-1522
953.323	-829
953.413	-1141
953.503	-1135
953.593	-954
953.683	-991
953.773	-2042
953.863	-632
953.953	-1101
954.042	-1593
954.132	-1723
954.222	-1299
954.312	-911
954.402	-613
954.492	-1285
954.581	-1046
954.671	-692
954.761	-1455
954.850	-549
954.940	-424
955.030	-1166
955.119	-1539
955.209	-792
955.298	-1140
955.388	-1349
955.477	-421
955.567	-1323
955.656	-822
955.746	-783
955.835	-606
955.925	-1598
956.014	-1377
956.103	-1543
956.193	-788
956.282	-1334
956.371	-716
956.461	-820
956.550	-993
956.639	-109
956.728	-1588
956.817	-1347
956.906	-1748
956.995	-47
957.085	-858
957.174	-596
957.263	-906
957.352	-1224
957.441	-883
957.530	-1123
957.619	-1547
957.708	-1624
957.796	-1663
957.885	-1218
957.974	-1184
958.063	-919
958.152	-1188
958.241	-1811
958.329	-355
958.418	-1740
958.507	-1039
958.596	-995
958.684	-1580
958.773	-1240
958.861	-883
958.950	-1309
959.039	-803
959.127	-514
959.216	-887
959.304	-1334
959.393	-1069
959.481	-1631
959.570	-1265
959.658	-1081
959.746	-1896
959.835	-989
959.923	-1194
960.011	-1854
960.100	-376
960.188	-1039
960.276	-1606
960.365	-2284
960.453	-1126
960.541	-1804
960.629	-990
960.717	-1267
960.805	-1504
960.893	-1291
960.981	-1425
961.069	-737
961.158	-1330
961.245	-1323
961.333	-1317
961.421	-1896
961.509	-837
961.597	-1150
961.685	-835
961.773	-1410
961.861	-985
961.949	-592
962.036	-1373
962.124	-1775
962.212	-1406
962.299	-1526
962.387	-1723
962.475	-796
962.562	-2112
962.650	-1409
962.738	-708
962.825	-1463
962.913	-592
963.000	-729
963.088	-735
963.175	-1346
963.263	-1488
963.350	-1756
963.438	-554
963.525	-1593
963.612	-665
963.700	-1245
963.787	701
963.874	217
963.962	-1363
964.049	-1944
964.136	-1374
964.223	-1303
964.310	-1260
964.398	-1130
964.485	-1700
964.572	-1704
964.659	-688
964.746	-1445
964.833	-623
964.920	-1681
965.007	-1360
965.094	-1522
965.181	-1513
965.268	-865
965.355	-686
965.441	-1583
965.528	-1527
965.615	-1067
965.702	-1132
965.789	-2020
965.875	-708
965.962	-1853
966.049	-1225
966.136	-834
966.222	-1144
966.309	-1056
966.395	-869
966.482	-1250
966.569	-1270
966.655	-1925
966.742	-1119
966.828	-1775
966.915	-1741
967.001	-577
967.087	-1198
967.174	-1113
967.260	-1632
967.347	-1692
967.433	-1710
967.519	-5
967.605	-397
967.692	-1465
967.778	-1051
967.864	-969
967.950	-1571
968.036	-1132
968.123	-1435
968.209	-1771
968.295	-1767
968.381	-424
968.467	-1574
968.553	-1760
968.639	-871
968.725	-1569
968.811	-1404
968.897	-260
968.983	-1681
969.069	-1578
969.154	-1025
969.240	-952
969.326	-751
969.412	-1087
969.497	-1051
969.583	-725
969.669	-386
969.755	-1448
969.840	-1292
969.926	-963
970.012	-1048
970.097	-568
970.183	-827
970.268	-929
970.354	-1141
970.439	-1313
970.525	275
970.610	-1683
970.696	-1208
970.781	-1477
970.866	-1912
970.952	-1142
971.037	-2301
971.122	-1697
971.208	-981
971.293	-1468
971.378	-1601
971.463	-796
971.549	-1083
971.634	-1033
971.719	-1379
971.804	-1235
971.889	-1030
971.974	-1280
972.059	-1854
972.144	-1403
972.229	-849
972.314	-1560
972.399	-670
972.484	-1880
972.569	-1115
972.654	-1662
972.739	-367
972.824	-1080
972.908	-646
972.993	-1547
973.078	-1133
973.163	-1041
973.247	-1164
973.332	-2383
973.417	-1159
973.501	-1426
973.586	-631
973.671	-1588
973.755	-1053
973.840	-913
973.924	-1145
974.009	-1021
974.093	-1725
974.178	-626
974.262	-823
974.346	-649
974.431	-1791
974.515	-1184
974.600	-817
974.684	-1271
974.768	-1044
974.852	-622
974.937	-1129
975.021	-1441
975.105	-1031
975.189	-1602
975.273	-1240
975.358	-1934
975.442	-1488
975.526	-1109
975.610	-1989
975.694	-2166
975.778	-173
975.862	-1492
975.946	-1756
976.030	257
976.114	-1358
976.198	-984
976.281	-1129
976.365	-487
976.449	-744
976.533	-1684
976.617	-1578
976.700	-1859
976.784	-634
976.868	-1613
976.951	-1797
977.035	-2239
977.119	-515
977.202	-921
977.286	-948
977.369	-1535
977.453	-1357
977.536	-1754
977.620	-1546
977.703	-901
977.787	-1978
977.870	-256
977.953	-310
978.037	-1384
978.120	-504
978.203	-751
978.287	-586
978.370	-451
978.453	-1757
978.536	-899
978.620	-726
978.703	-1031
978.786	-1232
978.869	-1859
978.952	-1310
979.035	-304
979.118	-1139
979.201	-1380
979.284	-1106
979.367	-1466
979.450	-965
979.533	-1516
979.616	-964
979.699	-1264
979.782	-825
979.865	-842
979.948	-1764
980.030	-1909
980.113	-1518
980.196	-1123
980.279	-1232
980.361	-1725
980.444	-969
980.526	-1172
980.609	-1113
980.692	-1121
980.774	-627
980.857	-2232
980.939	584
981.022	-1374
981.104	-956
981.187	-1135
981.269	-1195
981.352	-1286
981.434	-758
981.516	-1681
981.599	-1063
981.681	-1200
981.763	-954
981.846	-860
981.928	-1344
982.010	-947
982.092	-1167
982.174	-1367
982.256	-1356
982.339	-1540
982.421	-686
982.503	-1550
982.585	-1629
982.667	-721
982.749	-967
982.831	-1573
982.913	-1038
982.995	-719
983.077	-939
983.158	-1334
983.240	-1379
983.322	-996
983.404	-517
983.486	-1892
983.568	-1655
983.649	-1085
983.731	-1432
983.813	-1431
983.894	-1973
983.976	-1405
984.058	-1421
984.139	-643
984.221	-1437
984.302	-868
984.384	-925
984.465	-1587
984.547	-1129
984.628	-1212
984.710	-541
984.791	-898
984.872	-1358
984.954	-1440
985.035	-1442
985.116	-2121
985.198	-1565
985.279	-683
985.360	-479
985.441	-1354
985.522	-1300
985.604	-1234
985.685	-2138
985.766	-1349
985.847	-336
985.928	-2070
986.009	-1200
986.090	-1689
986.171	-818
986.252	-1250
986.333	-705
986.414	-969
986.495	-1058
986.576	-1547
986.656	-1056
986.737	-921
986.818	-1502
986.899	-1875
986.980	-1415
987.060	-371
987.141	-1332
987.222	-1027
987.302	-1135
987.383	-1707
987.464	-1358
987.544	-1197
987.625	-1298
987.705	-844
987.786	-973
987.866	-2205
987.947	-1078
988.027	-1046
988.108	-1272
988.188	-1085
988.268	-1052
988.349	-972
988.429	-433
988.509	-869
988.589	-949
988.670	-2363
988.750	-268
988.830	-1483
988.910	-1349
988.990	-1734
989.070	-886
989.151	-1259
989.231	-1907
989.311	-1104
989.391	-1193
989.471	-1762
989.551	-1212
989.631	-1817
989.711	-810
989.791	-1107
989.870	-1047
989.950	-635
990.030	-896
990.110	-1180
990.190	-1708
990.269	-1761
990.349	-1621
990.429	-1248
990.509	-115
990.588	-1898
990.668	-882
990.747	-1868
990.827	-1223
990.907	-1030
990.986	-1177
991.066	-1902
991.145	-1386
991.225	-713
991.304	-290
991.383	-1098
991.463	-1052
991.542	-2085
991.622	-1536
991.701	-1621
991.780	-1185
991.859	-2227
991.939	-565
992.018	-1367
992.097	-807
992.176	-1686
992.256	-1924
992.335	-1723
992.414	-992
992.493	-1157
992.572	-1351
992.651	-832
992.730	-857
992.809	-829
992.888	-1710
992.967	-1830
993.046	-926
993.125	-2630
993.203	-1189
993.282	-931
993.361	-1068
993.440	-1413
993.519	-2050
993.597	-1249
993.676	-1418
993.755	-970
993.834	-630
993.912	-2667
993.991	-815
994.069	-2314
994.148	-1404
994.226	-2229
994.305	-1072
994.384	-1090
994.462	-956
994.540	-1398
994.619	-2212
994.697	-1727
994.776	-2045
994.854	-902
994.932	-1915
995.011	-1231
995.089	-1648
995.167	-1402
995.245	-1437
995.324	-2383
995.402	-463
995.480	-1624
995.558	-841
995.636	-2225
995.714	-1627
995.792	-962
995.870	-1883
995.948	-1054
996.026	-846
996.104	-1632
996.182	-209
996.260	-1074
996.338	-916
996.416	-1681
996.494	-1923
996.572	-576
996.649	-892
996.727	-2262
996.805	-1634
996.883	-1789
996.960	-1252
997.038	-1139
997.116	-681
997.193	-2335
997.271	-1070
997.348	-1946
997.426	-2127
997.504	-2415
997.581	-1538
997.658	-1199
997.736	-2034
997.813	-2007
997.891	-667
997.968	-1538
998.046	-1300
998.123	-1786
998.200	-1563
998.277	-1848
998.355	-951
998.432	-1989
998.509	-2134
998.586	-989
998.663	-830
998.741	-1679
998.818	-2046
998.895	-1515
998.972	-1221
999.049	-1573
999.126	-1260
999.203	-1545
999.280	-1566
999.357	-2402
999.434	-1729
999.511	-481
999.587	-1092
999.664	-2486
999.741	-949
999.818	-1291
999.895	-1671
999.971	-1630
1000.048	-1067
1000.125	-1146
1000.202	-1702
1000.278	-1042
1000.355	-1177
1000.431	-1949
1000.508	-2685
1000.584	-627
1000.661	-1952
1000.738	-1963
1000.814	-1849
1000.890	-1728
1000.967	-1927
1001.043	-1110
1001.120	-1566
1001.196	-2169
1001.272	-2398
1001.349	-1399
1001.425	-1910
1001.501	-1465
1001.577	-2231
1001.654	-1363
1001.730	-1364
1001.806	-1335
1001.882	-1560
1001.958	-835
1002.034	-761
1002.110	-1407
1002.186	-1761
1002.262	-1698
1002.338	-2165
1002.414	-1470
1002.490	-1178
1002.566	-1766
1002.642	-1896
1002.718	-1689
1002.794	-1626
1002.870	-1552
1002.945	-1648
1003.021	-1997
1003.097	-1987
1003.173	-1145
1003.248	-2160
1003.324	-1225
1003.400	-1505
1003.475	-2388
1003.551	-2079
1003.626	-1757
1003.702	-1640
1003.777	-2179
1003.853	-2086
1003.928	-2181
1004.004	-1838
1004.079	-1271
1004.155	-1246
1004.230	-2231
1004.305	-764
1004.381	-1733
1004.456	-1810
1004.531	-962
1004.607	-1919
1004.682	-2057
1004.757	-1493
1004.832	-1917
1004.907	-1919
1004.982	-1302
1005.057	-2482
1005.133	-1976
1005.208	-2134
1005.283	-1490
1005.358	-1250
1005.433	-2062
1005.508	-2217
1005.583	-2089
1005.657	-2167
1005.732	-1325
1005.807	-2131
1005.882	-1885
1005.957	-1121
1006.032	-1843
1006.106	-1831
1006.181	-1474
1006.256	-1706
1006.331	-1567
1006.405	-1695
1006.480	-1104
1006.554	-1856
1006.629	-1709
1006.704	-2005
1006.778	-2107
1006.853	-1094
1006.927	-2888
1007.002	-1698
1007.076	-1554
1007.150	-1789
1007.225	-1801
1007.299	-1701
1007.373	-1438
1007.448	-1320
1007.522	-1180
1007.596	-2046
1007.671	-2768
1007.745	-2332
1007.819	-2415
1007.893	-2381
1007.967	-1642
1008.041	-2595
1008.115	-1270
1008.190	-3295
1008.264	-1808
1008.338	-2419
1008.412	-1861
1008.486	-1573
1008.560	-1807
1008.633	-2367
1008.707	-1906
1008.781	-2153
1008.855	-2227
1008.929	-1903
1009.003	-2735
1009.076	-1959
1009.150	-2081
1009.224	-2478
1009.298	-1792
1009.371	-2370
1009.445	-1739
1009.519	-1821
1009.592	-2858
1009.666	-2444
1009.739	-1633
1009.813	-2143
1009.886	-1411
1009.960	-2455
1010.033	-1610
1010.107	-1555
1010.180	-1858
1010.253	-1686
1010.327	-2987
1010.400	-1686
1010.473	-2396
1010.547	-799
1010.620	-2302
1010.693	-2470
1010.766	-2124
1010.840	-2015
1010.913	-1739
1010.986	-2037
1011.059	-1829
1011.132	-1945
1011.205	-1480
1011.278	-2835
1011.351	-2414
1011.424	-2225
1011.497	-2439
1011.570	-2262
1011.643	-2685
1011.716	-2326
1011.789	-2305
1011.862	-1042
1011.934	-1450
1012.007	-3010
1012.080	-2690
1012.153	-2102
1012.225	-2082
1012.298	-1940
1012.371	-2009
1012.443	-2171
1012.516	-2295
1012.588	-1505
1012.661	-1884
1012.733	-2148
1012.806	-1097
1012.879	-1862
1012.951	-2337
1013.023	-1723
1013.096	-2276
1013.168	-2202
1013.241	-1560
1013.313	-2023
1013.385	-3345
1013.458	-1885
1013.530	-1706
1013.602	-2179
1013.674	-1360
1013.746	-2574
1013.819	-2994
1013.891	-1766
1013.963	-2307
1014.035	-1483
1014.107	-1353
1014.179	-2116
1014.251	-2289
1014.323	-1997
1014.395	-1782
1014.467	-1578
1014.539	-1859
1014.611	-2340
1014.683	-2434
1014.754	-1213
1014.826	-2887
1014.898	-1693
1014.970	-2403
1015.042	-1581
1015.113	-2389
1015.185	-1598
1015.257	-3101
1015.328	-1656
1015.400	-2271
1015.471	-2524
1015.543	-2429
1015.615	-1619
1015.686	-2335
1015.757	-1833
1015.829	-2278
1015.901	-1858
1015.972	-2080
1016.043	-2981
1016.115	-2590
1016.186	-1694
1016.257	-2240
1016.328	-2306
1016.400	-1257
1016.471	-2567
1016.542	-2624
1016.613	-1638
1016.685	-1756
1016.756	-1757
1016.827	-2658
1016.898	-2175
1016.969	-1443
1017.040	-1893
1017.111	-2847
1017.182	-2760
1017.253	-2521
1017.324	-2776
1017.395	-1845
1017.466	-2137
1017.537	-2065
1017.608	-1693
1017.678	-2494
1017.749	-2716
1017.820	-1719
1017.891	-2298
1017.961	-2501
1018.032	-2211
1018.103	-2212
1018.173	-2461
1018.244	-2071
1018.315	-1937
1018.385	-2394
1018.456	-1995
1018.526	-2520
1018.597	-1993
1018.667	-1754
1018.738	-2091
1018.808	-2492
1018.878	-2803
1018.949	-2495
1019.019	-1484
1019.089	-1961
1019.160	-1368
1019.230	-2885
1019.300	-1715
1019.371	-2716
1019.441	-2084
1019.511	-2251
1019.581	-2148
1019.651	-2442
1019.721	-1162
1019.791	-2410
1019.861	-1997
1019.931	-2395
1020.001	-2208
1020.071	-1859
1020.141	-2741
1020.211	-2479
1020.281	-2127
1020.351	-2381
1020.421	-1419
1020.491	-2338
1020.560	-2462
1020.630	-2550
1020.700	-2649
1020.770	-3353
1020.839	-2260
1020.909	-2262
1020.979	-2247
1021.048	-2366
1021.118	-2232
1021.187	-2518
1021.257	-2075
1021.326	-2432
1021.396	-1909
1021.465	-2269
1021.535	-1980
1021.604	-2928
1021.674	-2352
1021.743	-1571
1021.812	-2214
1021.882	-2008
1021.951	-1712
1022.020	-2869
1022.089	-2239
1022.159	-2923
1022.228	-2413
1022.297	-2107
1022.366	-1606
1022.435	-2733
1022.504	-2770
1022.573	-2390
1022.642	-1486
1022.711	-1571
1022.781	-2035
1022.849	-2238
1022.918	-2447
1022.987	-2456
1023.056	-2378
1023.125	-2675
1023.194	-2399
1023.263	-2147
1023.331	-1776
1023.400	-2816
1023.469	-2639
1023.538	-2235
1023.606	-2743
1023.675	-2085
1023.744	-2044
1023.812	-2500
1023.881	-2041
1023.949	-2524
1024.018	-2967
1024.086	-2632
1024.155	-1407
1024.223	-1655
1024.292	-2185
1024.360	-2850
1024.429	-2192
1024.497	-3295
1024.565	-2246
1024.634	-1964
1024.702	-2189
1024.770	-1931
1024.838	-2499
1024.907	-2559
1024.975	-2522
1025.043	-2155
1025.111	-2697
1025.179	-1112
1025.247	-2397
1025.315	-2027
1025.383	-1942
1025.451	-1666
1025.519	-2977
1025.587	-2387
1025.655	-2191
1025.723	-2094
1025.791	-2109
1025.859	-2295
1025.927	-1675
1025.995	-2582
1026.062	-2322
1026.130	-2162
1026.198	-2070
1026.266	-2509
1026.333	-1647
1026.401	-1952
1026.469	-2251
1026.536	-2758
1026.604	-2024
1026.671	-2082
1026.739	-2354
1026.806	-2348
1026.874	-2586
1026.941	-2951
1027.009	-2470
1027.076	-2739
1027.144	-2257
1027.211	-3327
1027.278	-2922
1027.345	-2086
1027.413	-2187
1027.480	-2577
1027.547	-2511
1027.614	-2821
1027.682	-2166
1027.749	-2437
1027.816	-2533
1027.883	-2694
1027.950	-2352
1028.017	-2461
1028.084	-1494
1028.151	-3287
1028.218	-3232
1028.285	-2186
1028.352	-2490
1028.419	-2993
1028.486	-2622
1028.553	-2941
1028.619	-1826
1028.686	-2425
1028.753	-2761
1028.820	-2687
1028.886	-2298
1028.953	-2383
1029.020	-1433
1029.086	-2430
1029.153	-2429
1029.220	-2266
1029.286	-1748
1029.353	-2322
1029.419	-2153
1029.486	-2632
1029.552	-2384
1029.619	-2433
1029.685	-1383
1029.751	-3004
1029.818	-1357
1029.884	-1941
1029.951	-1706
1030.017	-2949
1030.083	-1511
1030.149	-1905
1030.216	-1924
1030.282	-2803
1030.348	-2543
1030.414	-2636
1030.480	-2368
1030.546	-1970
1030.612	-1284
1030.678	-2313
1030.744	-2206
1030.810	-2019
1030.876	-1923
1030.942	-2376
1031.008	-2354
1031.074	-1934
1031.140	-1611
1031.206	-1918
1031.272	-2518
1031.337	-2490
1031.403	-1536
1031.469	-2638
1031.534	-2504
1031.600	-2287
1031.666	-2307
1031.731	-2648
1031.797	-2026
1031.863	-2764
1031.928	-3015
1031.994	-2899
1032.059	-1798
1032.125	-2513
1032.190	-2790
1032.256	-2393
1032.321	-2658
1032.386	-1874
1032.452	-1641
1032.517	-2397
1032.582	-2701
1032.647	-2710
1032.713	-2150
1032.778	-2519
1032.843	-2782
1032.908	-2186
1032.974	-1718
1033.039	-2531
1033.104	-1707
1033.169	-2702
1033.234	-2395
1033.299	-2271
1033.364	-1965
1033.429	-2443
1033.494	-1872
1033.559	-1938
1033.624	-2027
1033.688	-2025
1033.753	-2027
1033.818	-2210
1033.883	-2772
1033.948	-2715
1034.013	-2761
1034.077	-1765
1034.142	-1923
1034.207	-2800
1034.271	-1612
1034.336	-1764
1034.400	-1367
1034.465	-1723
1034.530	-2451
1034.594	-2760
1034.658	-1328
1034.723	-2584
1034.787	-1823
1034.852	-2334
1034.916	-1281
1034.981	-3211
1035.045	-1550
1035.109	-1855
1035.173	-2329
1035.238	-2319
1035.302	-2301
1035.366	-2800
1035.430	-1935
1035.495	-3001
1035.559	-1474
1035.623	-2449
1035.687	-2013
1035.751	-2239
1035.815	-1383
1035.879	-2347
1035.943	-1961
1036.007	-1905
1036.071	-1961
1036.135	-2319
1036.198	-2663
1036.262	-2386
1036.326	-2313
1036.390	-2184
1036.454	-2346
1036.517	-2414
1036.581	-2660
1036.645	-2061
1036.709	-1552
1036.772	-2755
1036.836	-2136
1036.900	-2446
1036.963	-2394
1037.026	-2462
1037.090	-2698
1037.154	-2225
1037.217	-2614
1037.280	-2278
1037.344	-1648
1037.407	-2662
1037.471	-2212
1037.534	-2218
1037.597	-1852
1037.661	-2069
1037.724	-1760
1037.787	-2555
1037.850	-2764
1037.913	-2629
1037.977	-1676
1038.040	-2843
1038.103	-1824
1038.166	-2377
1038.229	-1939
1038.292	-2282
1038.355	-2315
1038.418	-2994
1038.481	-2476
1038.544	-1951
1038.607	-1478
1038.670	-3548
1038.732	-2055
1038.795	-2768
1038.858	-1984
1038.921	-1534
1038.984	-1748
1039.046	-2183
1039.109	-2044
1039.172	-2573
1039.234	-2829
1039.297	-2809
1039.360	-1699
1039.422	-1969
1039.485	-1483
1039.547	-2763
1039.610	-1938
1039.672	-2612
1039.734	-2998
1039.797	-1591
1039.859	-2560
1039.922	-2506
1039.984	-2004
1040.046	-2646
1040.109	-2064
1040.171	-3122
1040.233	-2312
1040.295	-2197
1040.358	-1764
1040.420	-2769
1040.482	-2676
1040.544	-2025
1040.606	-1956
1040.668	-2015
1040.730	-1690
1040.792	-2416
1040.854	-2182
1040.916	-2862
1040.978	-2211
1041.040	-1963
1041.102	-2443
1041.164	-2041
1041.225	-2140
1041.287	-1850
1041.349	-2377
1041.411	-2780
1041.472	-1738
1041.534	-2766
1041.596	-3020
1041.657	-2289
1041.719	-2172
1041.781	-2423
1041.842	-2231
1041.904	-2145
1041.965	-1753
1042.027	-2077
1042.088	-2677
1042.150	-2452
1042.211	-2173
1042.272	-1974
1042.334	-2417
1042.395	-2639
1042.456	-2221
1042.518	-2058
1042.579	-1665
1042.640	-2297
1042.701	-2654
1042.763	-2274
1042.824	-2254
1042.885	-2589
1042.946	-1938
1043.007	-2223
1043.068	-2232
1043.129	-2197
1043.190	-2120
1043.251	-1437
1043.312	-2416
1043.373	-1702
1043.434	-1972
1043.495	-2559
1043.556	-1860
1043.616	-2879
1043.677	-2941
1043.738	-2238
1043.799	-1875
1043.859	-2423
1043.920	-2164
1043.981	-1478
1044.041	-1612
1044.102	-2435
1044.162	-2361
1044.223	-2201
1044.284	-1674
1044.344	-1945
1044.405	-2249
1044.465	-2349
1044.525	-2237
1044.586	-2725
1044.646	-1723
1044.707	-1554
1044.767	-2201
1044.827	-2341
1044.887	-1166
1044.948	-1975
1045.008	-1708
1045.068	-2344
1045.128	-1964
1045.188	-1710
1045.249	-1980
1045.309	-2727
1045.369	-1969
1045.429	-2583
1045.489	-1579
1045.549	-2243
1045.609	-1971
1045.669	-2494
1045.729	-2098
1045.789	-2051
1045.848	-2842
1045.908	-1274
1045.968	-1794
1046.028	-1817
1046.088	-2180
1046.147	-1862
1046.207	-1722
1046.267	-1718
1046.326	-1845
1046.386	-1764
1046.446	-1383
1046.505	-1590
1046.565	-1290
1046.624	-1333
1046.684	-1537
1046.743	-953
1046.803	-574
1046.862	-1250
1046.922	0
