'Start Wavelength	183.907
'End Wavelength	1046.922
'Gate Delay	5.000
'Gate Width (ms)	1.050
'Laser Output Level	0.000
'X Position	0.000
'Y Position	0.000
'Z Position	0.000
'Grid Point Number	1.000
'Shot Number	100.000
183.907	359.000
183.977	1.000
184.047	371
184.116	52
184.186	-316
184.256	748
184.325	202
184.395	-469
184.465	280
184.534	423
184.604	-529
184.674	1076
184.743	-210
184.813	734
184.883	279
184.952	430
185.022	607
185.092	108
185.161	-81
185.231	543
185.301	209
185.370	783
185.440	-438
185.509	36
185.579	-193
185.649	286
185.718	-333
185.788	1082
185.857	486
185.927	334
185.996	-96
186.066	564
186.136	-424
186.205	-499
186.275	-277
186.344	956
186.414	-113
186.483	-711
186.553	653
186.622	1076
186.692	813
186.761	-295
186.831	239
186.900	-27
186.970	185
187.039	386
187.109	658
187.178	-49
187.248	99
187.317	1042
187.387	80
187.456	642
187.526	-94
187.595	379
187.664	554
187.734	758
187.803	687
187.873	353
187.942	558
188.012	1369
188.081	657
188.150	336
188.220	660
188.289	941
188.358	845
188.428	1469
188.497	-308
188.567	716
188.636	-431
188.705	1245
188.775	589
188.844	285
188.913	759
188.983	696
189.052	476
189.121	24
189.191	66
189.260	575
189.329	418
189.399	392
189.468	98
189.537	-137
189.606	214
189.676	967
189.745	887
189.814	645
189.883	7
189.953	550
190.022	31
190.091	818
190.161	1410
190.230	1568
190.299	413
190.368	-257
190.437	56
190.507	556
190.576	723
190.645	870
190.714	794
190.783	726
190.853	274
190.922	307
190.991	423
191.060	404
191.129	-522
191.198	364
191.268	370
191.337	526
191.406	1380
191.475	-314
191.544	322
191.613	1050
191.682	-206
191.752	600
191.821	373
191.890	710
191.959	562
192.028	614
192.097	166
192.166	175
192.235	2
192.304	512
192.373	-374
192.442	752
192.511	383
192.580	857
192.650	489
192.719	550
192.788	58
192.857	1481
192.926	422
192.995	469
193.064	1550
193.133	689
193.202	1186
193.271	1435
193.340	573
193.409	1653
193.478	956
193.547	1322
193.615	1482
193.684	2616
193.753	924
193.822	1025
193.891	-5
193.960	1091
194.029	-11
194.098	948
194.167	507
194.236	504
194.305	-71
194.374	631
194.443	110
194.512	910
194.580	-35
194.649	1378
194.718	999
194.787	1066
194.856	-410
194.925	838
194.994	935
195.062	848
195.131	505
195.200	1295
195.269	1484
195.338	1154
195.407	495
195.475	290
195.544	990
195.613	868
195.682	1004
195.751	780
195.819	757
195.888	669
195.957	1516
196.026	1758
196.094	1732
196.163	1609
196.232	1203
196.301	1666
196.369	738
196.438	1152
196.507	963
196.576	487
196.644	135
196.713	541
196.782	38
196.850	416
196.919	44
196.988	1065
197.056	312
197.125	886
197.194	1154
197.262	585
197.331	1007
197.400	1104
197.468	364
197.537	566
197.606	877
197.674	976
197.743	1393
197.812	759
197.880	2443
197.949	1490
198.017	1027
198.086	1324
198.155	491
198.223	1135
198.292	1537
198.360	658
198.429	613
198.497	952
198.566	1112
198.635	2085
198.703	1747
198.772	1760
198.840	1667
198.909	2235
198.977	695
199.046	126
199.114	1175
199.183	1405
199.251	1033
199.320	1363
199.388	1127
199.457	508
199.525	1048
199.594	1300
199.662	585
199.731	615
199.799	1057
199.867	708
199.936	366
200.004	944
200.073	1336
200.141	33
200.210	695
200.278	1039
200.346	734
200.415	1569
200.483	1043
200.552	1852
200.620	1108
200.688	921
200.757	523
200.825	1113
200.893	788
200.962	1140
201.030	167
201.098	724
201.167	1393
201.235	114
201.303	1171
201.372	1808
201.440	921
201.508	1942
201.577	944
201.645	1578
201.713	635
201.781	1984
201.850	1743
201.918	1341
201.986	598
202.055	1533
202.123	735
202.191	1877
202.259	899
202.327	200
202.396	737
202.464	580
202.532	1526
202.600	5003
202.669	2841
202.737	930
202.805	595
202.873	960
202.941	1491
203.009	910
203.078	746
203.146	1226
203.214	969
203.282	151
203.350	725
203.418	1823
203.487	770
203.555	1137
203.623	1434
203.691	944
203.759	790
203.827	1142
203.895	1154
203.963	866
204.031	1378
204.099	1377
204.168	375
204.236	1845
204.304	1264
204.372	1430
204.440	1259
204.508	716
204.576	1100
204.644	1326
204.712	619
204.780	1330
204.848	1231
204.916	1215
204.984	1025
205.052	1775
205.120	1635
205.188	1603
205.256	733
205.324	899
205.392	670
205.460	1531
205.528	300
205.596	1548
205.664	1115
205.732	1612
205.799	2123
205.867	3012
205.935	358
206.003	2075
206.071	1352
206.139	956
206.207	1475
206.275	937
206.343	511
206.411	1227
206.478	691
206.546	1621
206.614	1268
206.682	1507
206.750	1052
206.818	1491
206.885	1827
206.953	-93
207.021	1563
207.089	685
207.157	1156
207.225	1039
207.292	1077
207.360	1582
207.428	1504
207.496	893
207.563	664
207.631	1173
207.699	690
207.767	1468
207.834	53
207.902	1717
207.970	1290
208.038	1291
208.105	1479
208.173	2325
208.241	1515
208.309	2420
208.376	1482
208.444	3034
208.512	1422
208.579	699
208.647	2085
208.715	2791
208.782	1054
208.850	1553
208.918	1089
208.985	1457
209.053	2322
209.120	1696
209.188	1557
209.256	2207
209.323	1500
209.391	2848
209.459	2926
209.526	1495
209.594	794
209.661	2020
209.729	1914
209.796	1978
209.864	1873
209.932	1322
209.999	2276
210.067	2396
210.134	1549
210.202	1968
210.269	3035
210.337	2957
210.404	1620
210.472	1882
210.539	1927
210.607	1868
210.674	2730
210.742	2048
210.809	1988
210.877	2160
210.944	3105
211.012	1526
211.079	2480
211.146	1771
211.214	1997
211.281	2303
211.349	2873
211.416	1957
211.484	2662
211.551	1802
211.618	2417
211.686	1655
211.753	1495
211.821	2417
211.888	2032
211.955	2320
212.023	1532
212.090	2253
212.157	2514
212.225	1586
212.292	3034
212.359	5059
212.427	8805
212.494	5641
212.561	2682
212.629	1917
212.696	1505
212.763	2892
212.831	1540
212.898	2887
212.965	1101
213.032	2282
213.100	2046
213.167	2248
213.234	2985
213.301	2397
213.369	1717
213.436	1426
213.503	975
213.570	2858
213.638	2610
213.705	1429
213.772	1033
213.839	2560
213.906	2717
213.973	2608
214.041	1909
214.108	2315
214.175	2066
214.242	2161
214.309	2045
214.376	2351
214.444	2275
214.511	3109
214.578	2173
214.645	2710
214.712	2899
214.779	3480
214.846	2451
214.913	3640
214.980	3224
215.048	3312
215.115	3602
215.182	3375
215.249	3385
215.316	2699
215.383	2308
215.450	2366
215.517	1745
215.584	2417
215.651	2270
215.718	1379
215.785	3242
215.852	2642
215.919	3088
215.986	3725
216.053	2154
216.120	2200
216.187	2806
216.254	2838
216.321	2151
216.388	2790
216.455	2702
216.522	3582
216.589	3540
216.656	4694
216.722	4121
216.789	3864
216.856	3101
216.923	3432
216.990	2332
217.057	3208
217.124	4628
217.191	3763
217.258	4791
217.324	4595
217.391	3925
217.458	4684
217.525	3492
217.592	2317
217.659	1457
217.725	4063
217.792	4035
217.859	4339
217.926	2258
217.993	2210
218.059	2328
218.126	2407
218.193	3093
218.260	2141
218.327	1815
218.393	2210
218.460	2116
218.527	2042
218.594	2478
218.660	3688
218.727	4317
218.794	1538
218.860	2336
218.927	1552
218.994	1491
219.061	1687
219.127	3025
219.194	3078
219.261	2744
219.327	1553
219.394	2437
219.461	2110
219.527	1509
219.594	2994
219.661	1851
219.727	1598
219.794	2352
219.860	2234
219.927	2527
219.994	4038
220.060	5220
220.127	4909
220.193	3065
220.260	2949
220.326	4558
220.393	5766
220.460	6447
220.526	5582
220.593	3961
220.659	4572
220.726	3535
220.792	6689
220.859	7395
220.925	8975
220.992	11426
221.058	10460
221.125	8321
221.191	6662
221.258	3210
221.324	3036
221.391	2863
221.457	2861
221.524	2254
221.590	3463
221.657	6917
221.723	5132
221.789	4577
221.856	5494
221.922	3142
221.989	4119
222.055	2347
222.121	2488
222.188	4747
222.254	3043
222.321	1731
222.387	2023
222.453	1977
222.520	2292
222.586	1594
222.652	2755
222.719	1426
222.785	1956
222.851	1733
222.918	2086
222.984	2492
223.050	2617
223.116	1140
223.183	3227
223.249	1130
223.315	1648
223.382	1548
223.448	2147
223.514	723
223.580	2483
223.647	1882
223.713	1517
223.779	2209
223.845	2783
223.911	1868
223.978	782
224.044	1439
224.110	2415
224.176	1736
224.242	1757
224.309	938
224.375	1789
224.441	1286
224.507	1713
224.573	1476
224.639	2906
224.705	627
224.772	2713
224.838	1539
224.904	2562
224.970	1325
225.036	1624
225.102	1453
225.168	2205
225.234	1828
225.300	1432
225.366	1763
225.432	1872
225.499	2208
225.565	2502
225.631	3504
225.697	3029
225.763	2919
225.829	4186
225.895	3973
225.961	4414
226.027	4523
226.093	3399
226.159	4950
226.225	6018
226.291	12125
226.357	18036
226.423	10588
226.489	6544
226.554	4867
226.620	4345
226.686	5868
226.752	8954
226.818	11928
226.884	21069
226.950	19230
227.016	9424
227.082	6738
227.148	4944
227.214	5287
227.279	4731
227.345	3964
227.411	3934
227.477	4305
227.543	8067
227.609	7658
227.674	5694
227.740	3756
227.806	3013
227.872	2174
227.938	3634
228.003	4749
228.069	2596
228.135	2874
228.201	2514
228.267	1817
228.332	2988
228.398	3036
228.464	3199
228.530	2233
228.595	1857
228.661	1875
228.727	3658
228.792	4016
228.858	2698
228.924	1530
228.990	4174
229.055	1992
229.121	4106
229.187	2603
229.252	2820
229.318	1764
229.384	2933
229.449	2636
229.515	921
229.581	634
229.646	3890
229.712	2457
229.777	4671
229.843	4776
229.909	5141
229.974	5567
230.040	4196
230.105	3822
230.171	3172
230.236	4211
230.302	6548
230.368	4674
230.433	3025
230.499	3402
230.564	5429
230.630	3443
230.695	2415
230.761	3478
230.826	1921
230.892	4894
230.957	2170
231.023	2369
231.088	3021
231.154	2912
231.219	3642
231.284	3268
231.350	4943
231.415	2482
231.481	3195
231.546	1853
231.612	3056
231.677	2403
231.742	1359
231.808	3532
231.873	2619
231.939	956
232.004	4724
232.069	3778
232.135	2958
232.200	2899
232.265	2771
232.331	2321
232.396	3031
232.461	1744
232.527	1930
232.592	1384
232.657	2674
232.723	2171
232.788	1948
232.853	2564
232.918	1940
232.984	1482
233.049	1965
233.114	1052
233.179	3283
233.245	2942
233.310	4871
233.375	1371
233.440	3369
233.506	1655
233.571	1677
233.636	1761
233.701	2748
233.766	2865
233.832	2933
233.897	3517
233.962	1826
234.027	3773
234.092	2549
234.157	2151
234.222	2633
234.288	3140
234.353	7140
234.418	6504
234.483	5886
234.548	5384
234.613	3802
234.678	4349
234.743	2792
234.808	7794
234.873	5440
234.938	4214
235.004	4197
235.069	3380
235.134	2974
235.199	3824
235.264	3325
235.329	2569
235.394	4076
235.459	3696
235.524	2519
235.589	3579
235.654	2815
235.719	1515
235.784	3146
235.849	3227
235.913	3995
235.978	5402
236.043	6007
236.108	3201
236.173	3659
236.238	3536
236.303	3080
236.368	2574
236.433	4478
236.498	4968
236.563	5437
236.627	9293
236.692	27066
236.757	22915
236.822	11437
236.887	7701
236.952	7471
237.017	4997
237.081	6764
237.146	6920
237.211	14780
237.276	26384
237.341	38163
237.405	21822
237.470	11039
237.535	6872
237.600	4916
237.664	4821
237.729	3572
237.794	4813
237.859	10681
237.923	6930
237.988	4352
238.053	5455
238.118	4493
238.182	8764
238.247	9109
238.312	4325
238.376	4525
238.441	2128
238.506	3958
238.570	1805
238.635	4242
238.700	2902
238.764	2276
238.829	5762
238.893	5814
238.958	4549
239.023	5033
239.087	3242
239.152	3807
239.216	2005
239.281	3567
239.346	3184
239.410	3510
239.475	2440
239.539	9696
239.604	5734
239.668	4137
239.733	3404
239.797	5172
239.862	12209
239.926	10744
239.991	5728
240.055	3821
240.120	3282
240.184	3850
240.249	1476
240.313	2829
240.378	2265
240.442	5530
240.507	7986
240.571	3035
240.635	4190
240.700	6422
240.764	3191
240.829	3450
240.893	679
240.957	2393
241.022	5468
241.086	8480
241.151	4954
241.215	2253
241.279	4066
241.344	4517
241.408	5016
241.472	4645
241.537	5290
241.601	4021
241.665	3095
241.730	4050
241.794	4819
241.858	4595
241.922	3803
241.987	4385
242.051	3738
242.115	3105
242.179	4270
242.244	3427
242.308	4403
242.372	5361
242.436	3454
242.501	4132
242.565	3425
242.629	3512
242.693	3222
242.757	2774
242.822	3115
242.886	3758
242.950	3167
243.014	3616
243.078	4454
243.142	5329
243.206	3498
243.271	4531
243.335	4099
243.399	5427
243.463	13247
243.527	31843
243.591	13341
243.655	6400
243.719	3058
243.783	5920
243.847	6745
243.911	9180
243.975	10552
244.040	7857
244.104	5484
244.168	4334
244.232	6351
244.296	8139
244.360	8251
244.424	5198
244.488	4372
244.552	3893
244.615	1752
244.679	3248
244.743	3818
244.807	5294
244.871	3460
244.935	3201
244.999	2476
245.063	3690
245.127	4651
245.191	6400
245.255	5831
245.319	6051
245.383	4256
245.446	5931
245.510	3458
245.574	4901
245.638	4526
245.702	3366
245.766	9435
245.829	6626
245.893	4437
245.957	3581
246.021	4788
246.085	3797
246.149	4961
246.212	12633
246.276	16622
246.340	8952
246.404	6792
246.467	6289
246.531	7840
246.595	6521
246.659	5653
246.722	4579
246.786	6726
246.850	7411
246.913	8171
246.977	3892
247.041	4171
247.104	5465
247.168	4410
247.232	11427
247.295	21067
247.359	12615
247.423	5872
247.486	10191
247.550	7294
247.614	5562
247.677	6393
247.741	4874
247.804	3857
247.868	5676
247.932	9452
247.995	21388
248.059	8852
248.122	5264
248.186	6707
248.249	11537
248.313	30712
248.376	34473
248.440	24042
248.503	10531
248.567	9270
248.630	11115
248.694	16398
248.757	20690
248.821	35191
248.884	25129
248.948	20535
249.011	28335
249.075	39092
249.138	35569
249.202	17179
249.265	10532
249.328	10326
249.392	8956
249.455	8456
249.519	6749
249.582	8063
249.645	12622
249.709	10018
249.772	7471
249.835	7123
249.899	7166
249.962	6751
250.025	6132
250.089	14767
250.152	20225
250.215	11376
250.279	8372
250.342	7299
250.405	8107
250.468	7089
250.532	9725
250.595	12698
250.658	30985
250.721	49885
250.785	23536
250.848	14582
250.911	8142
250.974	8677
251.038	11277
251.101	21567
251.164	12023
251.227	13065
251.290	11129
251.354	14066
251.417	43370
251.480	44475
251.543	33777
251.606	70078
251.669	60468
251.732	28052
251.795	29010
251.859	29191
251.922	50259
251.985	34413
252.048	15853
252.111	11508
252.174	10659
252.237	21047
252.300	40920
252.363	40149
252.426	63432
252.489	33071
252.552	16923
252.615	11464
252.678	12969
252.741	29215
252.804	36746
252.867	64454
252.930	47426
252.993	27704
253.056	18150
253.119	12171
253.182	9391
253.245	14753
253.308	12134
253.371	11639
253.434	11317
253.497	11359
253.559	20857
253.622	14620
253.685	19861
253.748	20646
253.811	9794
253.874	10895
253.937	11531
254.000	8552
254.062	14491
254.125	21886
254.188	20065
254.251	17915
254.314	8902
254.376	14900
254.439	18063
254.502	15525
254.565	14920
254.628	26425
254.690	16566
254.753	9066
254.816	7763
254.878	8215
254.941	14307
255.004	15129
255.067	8385
255.129	8797
255.192	4665
255.255	4584
255.317	6556
255.380	4104
255.443	3963
255.505	2937
255.568	4484
255.631	4238
255.693	6109
255.756	3393
255.819	3915
255.881	3471
255.944	4167
256.006	3562
256.069	2930
256.132	3896
256.194	5185
256.257	8515
256.319	7010
256.382	6624
256.444	6079
256.507	5446
256.569	4305
256.632	4641
256.694	6496
256.757	16933
256.819	46058
256.882	21751
256.944	10115
257.007	8291
257.069	8329
257.132	5789
257.194	5782
257.257	5790
257.319	5123
257.381	5207
257.444	12286
257.506	48215
257.569	60762
257.631	31087
257.693	18101
257.756	8149
257.818	6739
257.880	4516
257.943	5966
258.005	4374
258.067	5269
258.130	4604
258.192	6360
258.254	11357
258.317	7277
258.379	4885
258.441	11951
258.503	11230
258.566	10066
258.628	12055
258.690	4817
258.753	5605
258.815	11341
258.877	8014
258.939	5438
259.001	5579
259.064	5213
259.126	4685
259.188	6427
259.250	5541
259.312	6464
259.375	13701
259.437	9490
259.499	5306
259.561	4381
259.623	5890
259.685	4642
259.747	4751
259.809	9709
259.872	15999
259.934	24936
259.996	27834
260.058	11600
260.120	3983
260.182	4401
260.244	4539
260.306	3136
260.368	4772
260.430	4198
260.492	9255
260.554	16705
260.616	10632
260.678	16514
260.740	18782
260.802	6810
260.864	6328
260.926	4841
260.988	5148
261.050	5185
261.112	11544
261.174	24430
261.236	15557
261.298	7570
261.359	8225
261.421	12106
261.483	4919
261.545	5850
261.607	3083
261.669	4086
261.731	5845
261.793	14450
261.854	8929
261.916	7178
261.978	5468
262.040	6428
262.102	5011
262.164	5535
262.225	5990
262.287	5214
262.349	11310
262.411	9316
262.472	5281
262.534	5783
262.596	10766
262.658	5971
262.719	3535
262.781	4882
262.843	10093
262.904	6570
262.966	4821
263.028	6362
263.090	19759
263.151	50574
263.213	20803
263.275	15640
263.336	6484
263.398	4666
263.459	4375
263.521	4262
263.583	10882
263.644	8530
263.706	4783
263.767	3269
263.829	2771
263.891	2716
263.952	2700
264.014	2865
264.075	5892
264.137	15341
264.198	8294
264.260	3504
264.321	3271
264.383	9380
264.444	23377
264.506	8768
264.567	5781
264.629	10262
264.690	18154
264.752	8790
264.813	5471
264.875	3659
264.936	4252
264.998	3578
265.059	3167
265.120	4084
265.182	5769
265.243	25936
265.305	28151
265.366	8671
265.427	3602
265.489	5214
265.550	2057
265.611	4695
265.673	4686
265.734	4063
265.795	4141
265.857	3330
265.918	3151
265.979	7488
266.040	41396
266.102	37142
266.163	12455
266.224	10676
266.286	5706
266.347	4244
266.408	3332
266.469	4109
266.530	3529
266.592	3016
266.653	8051
266.714	13473
266.775	5354
266.836	4452
266.898	3600
266.959	6988
267.020	4790
267.081	4351
267.142	3784
267.203	3461
267.264	3458
267.326	5456
267.387	3748
267.448	2656
267.509	3499
267.570	3923
267.631	3096
267.692	2696
267.753	3808
267.814	3204
267.875	7023
267.936	15463
267.997	9002
268.058	8853
268.119	5332
268.180	5068
268.241	4197
268.302	3087
268.363	3126
268.424	4538
268.485	4140
268.546	3048
268.607	2499
268.668	3355
268.729	1897
268.790	3215
268.851	3867
268.912	10372
268.972	12506
269.033	7718
269.094	3945
269.155	2701
269.216	2813
269.277	4198
269.338	2942
269.398	2981
269.459	4333
269.520	6435
269.581	7576
269.642	9734
269.702	6626
269.763	5852
269.824	3603
269.885	5951
269.945	10239
270.006	4876
270.067	2807
270.128	3805
270.188	3546
270.249	3390
270.310	2967
270.370	3384
270.431	2743
270.492	2890
270.553	3153
270.613	9092
270.674	15961
270.734	6977
270.795	4103
270.856	6842
270.916	5083
270.977	4056
271.038	4919
271.098	5231
271.159	9031
271.219	8220
271.280	3459
271.340	3266
271.401	3656
271.462	7321
271.522	5948
271.583	4006
271.643	4234
271.704	4257
271.764	5375
271.825	12364
271.885	36159
271.946	48470
272.006	17817
272.066	22493
272.127	35543
272.187	14384
272.248	7426
272.308	7402
272.369	22965
272.429	14389
272.489	12157
272.550	13104
272.610	13048
272.671	11274
272.731	7666
272.791	10901
272.852	8800
272.912	8567
272.972	4367
273.033	4698
273.093	6795
273.153	8327
273.214	5628
273.274	5714
273.334	18621
273.394	35493
273.455	17621
273.515	15630
273.575	31379
273.635	14736
273.696	16243
273.756	32530
273.816	15393
273.876	8802
273.936	12209
273.997	19834
274.057	7692
274.117	7168
274.177	9534
274.237	41898
274.297	34644
274.358	19271
274.418	26712
274.478	22107
274.538	8134
274.598	5534
274.658	12918
274.718	19558
274.778	9365
274.838	5766
274.898	8624
274.958	22728
275.018	29043
275.078	22530
275.138	9561
275.198	5668
275.258	4177
275.318	5496
275.378	11012
275.438	13916
275.498	7920
275.558	12507
275.618	28362
275.678	24040
275.738	16646
275.798	13836
275.858	7459
275.918	4381
275.978	6037
276.038	5489
276.098	3887
276.157	9691
276.217	28102
276.277	14102
276.337	10701
276.397	6491
276.457	7343
276.517	4476
276.576	3505
276.636	4718
276.696	7644
276.756	17246
276.815	12474
276.875	5924
276.935	6690
276.995	6709
277.055	4301
277.114	4863
277.174	6389
277.234	21674
277.293	10397
277.353	7343
277.413	4948
277.472	5607
277.532	5323
277.592	5514
277.651	17936
277.711	34252
277.771	11393
277.830	39926
277.890	32590
277.950	22024
278.009	56638
278.069	23018
278.128	24986
278.188	37193
278.248	16098
278.307	39118
278.367	23039
278.426	8412
278.486	6500
278.545	5114
278.605	4694
278.664	4841
278.724	5186
278.783	12277
278.843	31458
278.902	12033
278.962	7463
279.021	8764
279.081	8179
279.140	8617
279.199	8840
279.259	9586
279.318	8450
279.378	10505
279.437	15544
279.496	53100
279.556	123392
279.615	100693
279.675	32740
279.734	19171
279.793	26496
279.853	42972
279.912	19042
279.971	11164
280.031	8954
280.090	17930
280.149	30749
280.208	20578
280.268	83578
280.327	88833
280.386	25186
280.445	20897
280.505	18882
280.564	9508
280.623	8007
280.682	12074
280.742	19218
280.801	7441
280.860	5761
280.919	6056
280.978	4936
281.037	4904
281.097	3755
281.156	5397
281.215	3583
281.274	5467
281.333	21700
281.392	17355
281.451	5193
281.510	4485
281.569	4454
281.628	3885
281.688	3432
281.747	5784
281.806	5403
281.865	4277
281.924	4300
281.983	4333
282.042	3326
282.101	3593
282.160	3137
282.219	3531
282.278	4403
282.337	15054
282.396	10741
282.454	5174
282.513	6641
282.572	23353
282.631	13755
282.690	5587
282.749	3854
282.808	6420
282.867	6591
282.926	6969
282.985	4053
283.043	3419
283.102	3070
283.161	4674
283.220	10728
283.279	22841
283.338	8817
283.396	5816
283.455	5986
283.514	6740
283.573	10562
283.631	8122
283.690	6132
283.749	5518
283.808	11447
283.866	14273
283.925	5537
283.984	5133
284.043	8643
284.101	9832
284.160	6406
284.219	8408
284.277	7581
284.336	11051
284.395	31813
284.453	27768
284.512	12379
284.570	17660
284.629	16159
284.688	16385
284.746	18235
284.805	22368
284.863	28310
284.922	35145
284.981	42990
285.039	61795
285.098	97607
285.156	161226
285.215	140359
285.273	144849
285.332	169278
285.390	117558
285.449	76435
285.507	53112
285.566	38813
285.624	29814
285.683	23459
285.741	18514
285.799	16458
285.858	14290
285.916	13691
285.975	11103
286.033	9975
286.091	9786
286.150	7899
286.208	7481
286.267	8268
286.325	8562
286.383	12792
286.442	11961
286.500	6564
286.558	5895
286.616	5912
286.675	7690
286.733	6512
286.791	6613
286.850	6571
286.908	9460
286.966	15235
287.024	7492
287.083	5112
287.141	4804
287.199	4777
287.257	8596
287.315	6173
287.374	5942
287.432	15640
287.490	10663
287.548	6788
287.606	5498
287.664	4079
287.723	7430
287.781	9250
287.839	5616
287.897	6061
287.955	6915
288.013	8103
288.071	16842
288.129	66127
288.187	174993
288.245	87978
288.303	30604
288.361	16788
288.419	12070
288.477	8995
288.535	7247
288.593	5397
288.651	4598
288.709	4306
288.767	4811
288.825	4596
288.883	4075
288.941	4258
288.999	4135
289.057	3480
289.115	3522
289.173	3081
289.231	4262
289.289	3647
289.346	4002
289.404	4788
289.462	8323
289.520	9016
289.578	5620
289.636	3135
289.694	3145
289.751	2835
289.809	3196
289.867	3645
289.925	4300
289.983	5547
290.040	3665
290.098	2054
290.156	4374
290.214	5341
290.271	3308
290.329	2039
290.387	3191
290.444	3184
290.502	2463
290.560	3173
290.617	2272
290.675	1882
290.733	3145
290.790	3996
290.848	3225
290.906	2896
290.963	3898
291.021	3177
291.078	3236
291.136	3470
291.194	12864
291.251	27355
291.309	8327
291.366	4530
291.424	4774
291.481	4028
291.539	4459
291.596	3617
291.654	2213
291.711	2254
291.769	3001
291.826	8360
291.884	5373
291.941	2523
291.999	3209
292.056	4134
292.114	5642
292.171	3325
292.228	3543
292.286	4942
292.343	9191
292.401	11202
292.458	7480
292.515	4429
292.573	5876
292.630	6054
292.687	4632
292.745	3941
292.802	5554
292.859	14733
292.917	27474
292.974	15849
293.031	7137
293.089	4019
293.146	3692
293.203	3494
293.260	2556
293.318	3463
293.375	8004
293.432	4606
293.489	3236
293.546	3072
293.604	4455
293.661	15023
293.718	40439
293.775	22912
293.832	11919
293.889	8944
293.947	8612
294.004	5463
294.061	6067
294.118	12503
294.175	28440
294.232	34263
294.289	15045
294.346	7965
294.403	6810
294.460	5359
294.517	4258
294.574	3791
294.631	4157
294.688	4226
294.745	11072
294.802	45072
294.859	51778
294.916	20375
294.973	11130
295.030	9643
295.087	8381
295.144	5501
295.201	4967
295.258	4042
295.315	5158
295.372	17145
295.429	31412
295.486	14414
295.542	8309
295.599	20831
295.656	36312
295.713	24358
295.770	30830
295.827	13067
295.883	7085
295.940	6250
295.997	11088
296.054	10353
296.111	6061
296.167	4403
296.224	3683
296.281	3323
296.338	2405
296.394	3329
296.451	4371
296.508	14347
296.564	27366
296.621	18010
296.678	37885
296.734	55268
296.791	22209
296.848	11085
296.904	11417
296.961	25691
297.018	37066
297.074	26733
297.131	11754
297.187	7614
297.244	9956
297.301	31840
297.357	57772
297.414	21315
297.470	10851
297.527	7298
297.583	6079
297.640	6228
297.696	4907
297.753	3970
297.809	3730
297.866	3225
297.922	3343
297.979	3084
298.035	4214
298.092	7244
298.148	21486
298.204	20258
298.261	9534
298.317	18572
298.374	45182
298.430	26314
298.486	11064
298.543	8070
298.599	9759
298.656	11627
298.712	16754
298.768	35882
298.824	23421
298.881	9553
298.937	6754
298.993	5507
299.050	7725
299.106	6648
299.162	5562
299.218	6282
299.275	4030
299.331	4755
299.387	9653
299.443	40856
299.500	44593
299.556	19168
299.612	10459
299.668	8922
299.724	13753
299.780	13740
299.837	7076
299.893	9209
299.949	35105
300.005	39417
300.061	35187
300.117	55825
300.173	26913
300.229	13066
300.285	17467
300.341	19174
300.397	9922
300.453	6127
300.510	6973
300.566	5843
300.622	8186
300.678	23402
300.734	42803
300.790	35311
300.845	37698
300.901	25673
300.957	40308
301.013	29031
301.069	11183
301.125	9004
301.181	8912
301.237	6753
301.293	5725
301.349	4882
301.405	5781
301.461	5875
301.516	10051
301.572	9003
301.628	14323
301.684	10756
301.740	17872
301.796	26051
301.851	18422
301.907	29299
301.963	25089
302.019	38485
302.074	101679
302.130	102286
302.186	51436
302.242	23019
302.297	13677
302.353	12708
302.409	24670
302.464	20150
302.520	16160
302.576	40788
302.631	45849
302.687	28670
302.743	12532
302.798	7894
302.854	6241
302.910	6281
302.965	8168
303.021	15210
303.076	14615
303.132	19029
303.187	22383
303.243	12041
303.299	7057
303.354	5193
303.410	5588
303.465	4962
303.521	4860
303.576	4890
303.632	5482
303.687	11351
303.743	35365
303.798	28684
303.853	12586
303.909	7438
303.964	6103
304.020	11295
304.075	16508
304.130	15655
304.186	29525
304.241	28957
304.297	22619
304.352	11791
304.358	11461
304.407	8783
304.449	8150
304.463	7948
304.518	8247
304.539	7540
304.573	6421
304.629	6197
304.630	6254
304.684	9011
304.720	20998
304.739	27061
304.794	38155
304.811	32475
304.850	19086
304.902	10274
304.905	9707
304.960	7471
304.992	6333
305.015	5487
305.071	7218
305.083	6682
305.126	4721
305.173	4323
305.181	4270
305.236	3595
305.264	4278
305.292	5012
305.347	6551
305.354	6701
305.402	7549
305.445	7510
305.457	7496
305.512	8411
305.535	8490
305.567	8666
305.622	7534
305.626	7827
305.678	13569
305.716	28227
305.733	33863
305.788	36260
305.807	31455
305.843	22978
305.897	31872
305.898	31977
305.953	31156
305.988	21696
306.008	16408
306.063	11651
306.078	10391
306.118	7195
306.168	4892
306.173	4682
306.228	4475
306.259	4081
306.283	3853
306.338	3444
306.349	3591
306.393	4051
306.440	4338
306.448	4397
306.503	4521
306.530	4742
306.558	5595
306.613	12670
306.620	13862
306.668	21632
306.711	30382
306.723	31970
306.778	24446
306.801	19244
306.833	12891
306.888	6684
306.892	6495
306.943	5121
306.982	4430
306.997	4128
307.052	4013
307.072	3832
307.107	3608
307.162	4669
307.163	4692
307.217	6921
307.253	8559
307.272	9055
307.327	9145
307.343	8604
307.381	7447
307.434	6795
307.436	6899
307.491	13009
307.524	20465
307.546	23732
307.600	25347
307.614	22695
307.655	13691
307.704	7640
307.710	7284
307.765	7417
307.795	9090
307.819	10555
307.874	16089
307.885	15859
307.929	12781
307.975	9935
307.984	9948
308.038	12067
308.065	15449
308.093	24860
308.148	56508
308.156	64806
308.202	106940
308.246	123914
308.257	122085
308.312	70971
308.336	53341
308.366	41271
308.421	26877
308.426	25660
308.475	15818
308.517	11547
308.530	10448
308.585	8598
308.607	7995
308.639	7649
308.694	8231
308.697	8381
308.748	12782
308.787	18276
308.803	18960
308.857	15324
308.877	13417
308.912	11555
308.967	11822
308.967	11873
309.021	16002
309.058	19953
309.076	23982
309.130	41930
309.148	49497
309.185	80337
309.238	138200
309.239	138498
309.293	153474
309.328	140795
309.348	124766
309.402	67346
309.418	53070
309.457	36652
309.508	24761
309.511	24237
309.566	22179
309.598	22838
309.620	25624
309.674	38832
309.688	42284
309.729	42839
309.778	34956
309.783	34055
309.837	22948
309.868	18236
309.892	19071
309.946	26449
309.959	29629
310.001	37876
310.049	42115
310.055	40886
310.109	24512
310.139	15586
310.163	11821
310.218	7276
310.229	6627
310.272	5427
310.319	4736
310.326	4532
310.381	3526
310.409	3231
310.435	3051
310.489	2556
310.499	2505
310.543	2874
310.589	3505
310.598	3475
310.652	3377
310.679	3152
310.706	2841
310.760	2313
310.769	2270
310.814	2394
310.859	2510
310.868	2475
310.923	2333
310.948	2351
310.977	2515
311.031	2805
311.038	2868
311.085	2224
311.128	1360
311.139	1419
311.193	1972
311.218	2294
311.247	2470
311.301	2634
311.308	2675
311.356	2312
311.398	2140
311.410	2162
311.464	2063
311.488	2060
311.518	1830
311.572	1533
311.578	1515
311.626	2799
311.668	4058
311.680	3967
311.734	3331
311.758	3074
311.788	2887
311.842	2755
311.847	2747
311.896	4034
311.937	5288
311.950	5087
312.004	4240
312.027	3865
312.058	3439
312.112	2749
312.117	2697
312.165	2404
312.207	2187
312.297	3848
312.386	3033
312.476	3356
312.566	5267
312.656	2467
312.745	2011
312.835	2186
312.925	3129
313.015	2341
313.104	2110
313.194	2138
313.284	2352
313.374	3839
313.463	2735
313.553	2284
313.643	1814
313.732	1685
313.822	1668
313.912	3229
314.001	2724
314.091	3209
314.180	4141
314.270	4396
314.360	2996
314.449	2982
314.539	2371
314.628	2259
314.718	2311
314.808	3430
314.897	1694
314.987	2419
315.076	3092
315.166	3566
315.255	3157
315.345	2712
315.434	2637
315.524	2931
315.613	3089
315.703	4507
315.792	5104
315.881	9906
315.971	3329
316.060	5424
316.150	6332
316.239	6463
316.328	3173
316.418	2532
316.507	2215
316.597	3328
316.686	2105
316.775	4652
316.865	7191
316.954	2279
317.043	1290
317.133	1755
317.222	1094
317.311	2215
317.400	1019
317.490	3773
317.579	2573
317.668	1603
317.757	3303
317.847	7086
317.936	18290
318.025	9379
318.114	5520
318.203	3975
318.293	8237
318.382	17149
318.471	10962
318.560	17106
318.649	28835
318.738	5334
318.828	3151
318.917	3593
319.006	4056
319.095	12985
319.184	35937
319.273	18078
319.362	7916
319.451	2948
319.540	2576
319.629	6901
319.718	10568
319.807	5010
319.896	13571
319.985	43963
320.074	12616
320.163	3418
320.252	4474
320.341	5620
320.430	4347
320.519	5896
320.608	2848
320.697	3607
320.786	3031
320.875	4237
320.964	4552
321.053	7697
321.142	11236
321.230	10397
321.319	9391
321.408	21122
321.497	8316
321.586	8172
321.675	8344
321.764	8269
321.852	6114
321.941	12098
322.030	6566
322.119	9034
322.207	19965
322.296	12069
322.385	6297
322.474	9655
322.562	25758
322.651	11791
322.740	9121
322.829	12290
322.917	10067
323.006	6631
323.095	5557
323.183	3620
323.272	5962
323.361	12509
323.449	30905
323.538	10840
323.626	22320
323.715	11970
323.804	5198
323.892	20341
323.981	9335
324.069	3367
324.158	10795
324.246	9806
324.335	4851
324.424	6945
324.512	2371
324.601	4303
324.689	12762
324.778	20503
324.866	7096
324.954	2547
325.043	2651
325.131	4630
325.220	8081
325.308	8187
325.397	7223
325.485	4789
325.574	1181
325.662	1770
325.750	2090
325.839	2710
325.927	1495
326.015	2436
326.104	2914
326.192	3450
326.280	1392
326.369	1949
326.457	3343
326.545	5863
326.634	2357
326.722	1949
326.810	1509
326.898	1558
326.987	2334
327.075	5137
327.163	4564
327.251	2671
327.340	10365
327.428	11673
327.516	1836
327.604	2484
327.692	1879
327.781	2304
327.869	3465
327.957	2285
328.045	2002
328.133	1764
328.221	1476
328.309	2150
328.397	1857
328.485	2066
328.574	3674
328.662	13583
328.750	5980
328.838	1828
328.926	1679
329.014	1677
329.102	2552
329.190	8870
329.278	4748
329.366	1632
329.454	1169
329.542	1450
329.630	1102
329.718	2479
329.806	1923
329.893	2695
329.981	1768
330.069	5078
330.157	26491
330.245	75401
330.333	33181
330.421	4813
330.509	4590
330.597	15683
330.684	9788
330.772	3609
330.860	4588
330.948	6706
331.036	2888
331.123	1202
331.211	935
331.299	2251
331.387	7105
331.475	10811
331.562	2966
331.650	1273
331.738	789
331.825	2532
331.913	925
332.001	1136
332.089	1558
332.176	4614
332.264	9581
332.352	7285
332.439	2413
332.527	1563
332.614	1325
332.702	2034
332.790	1137
332.877	4315
332.965	9919
333.052	2963
333.140	4039
333.228	9408
333.315	1921
333.403	1321
333.490	5721
333.578	6201
333.665	12396
333.753	4805
333.840	260
333.928	2028
334.015	6028
334.103	12610
334.190	40537
334.278	9910
334.365	4267
334.452	3459
334.540	1922
334.627	2670
334.715	3392
334.802	7385
334.889	37599
334.977	36451
335.064	6680
335.151	2376
335.239	2488
335.326	4353
335.413	23419
335.501	29511
335.588	2997
335.675	3233
335.762	3265
335.850	7285
335.937	3149
336.024	12471
336.111	48001
336.199	21791
336.286	4607
336.373	2735
336.460	1378
336.547	1820
336.635	2263
336.722	1982
336.809	1503
336.896	3518
336.983	12539
337.070	34088
337.157	45685
337.245	24226
337.332	15369
337.419	956
337.506	984
337.593	2433
337.680	10694
337.767	34483
337.854	7440
337.941	8455
338.028	7730
338.115	1849
338.202	4558
338.289	6389
338.376	22663
338.463	7200
338.550	18988
338.637	19783
338.724	4283
338.811	5764
338.898	1513
338.984	1542
339.071	1667
339.158	2820
339.245	7463
339.332	4770
339.419	4794
339.506	4413
339.593	450
339.679	1654
339.766	717
339.853	2574
339.940	5549
340.027	1718
340.113	2161
340.200	2554
340.287	1502
340.374	2341
340.460	4489
340.547	1447
340.634	3857
340.720	15685
340.807	7542
340.894	2012
340.980	643
341.067	712
341.154	2171
341.240	3792
341.327	7770
341.414	2755
341.500	2058
341.587	2219
341.674	1914
341.760	5295
341.847	4627
341.933	1824
342.020	-683
342.106	1198
342.193	1874
342.279	3975
342.366	2405
342.452	4720
342.539	1612
342.625	7109
342.712	15711
342.798	5542
342.885	2008
342.971	173
343.058	891
343.144	570
343.230	1154
343.317	1143
343.403	238
343.490	1484
343.576	451
343.662	1300
343.749	974
343.835	2197
343.921	4234
344.008	36438
344.094	74926
344.180	14461
344.267	5207
344.353	22513
344.439	19303
344.525	6219
344.612	2565
344.698	2743
344.784	191
344.870	1151
344.957	499
345.043	2733
345.129	1601
345.215	5141
345.301	2192
345.387	1649
345.474	-138
345.560	125
345.646	500
345.732	1579
345.818	1932
345.904	1579
345.990	1465
346.076	1764
346.162	2581
346.249	2282
346.335	610
346.421	2045
346.507	9104
346.593	30991
346.679	5148
346.765	2653
346.851	982
346.937	1197
347.023	1648
347.108	1731
347.194	993
347.280	455
347.366	2373
347.452	9124
347.538	36945
347.624	28570
347.710	20631
347.796	2290
347.882	892
347.967	1729
348.053	2220
348.139	1348
348.225	308
348.311	3
348.397	632
348.482	2110
348.568	1969
348.654	-114
348.740	1685
348.825	1620
348.911	4165
348.997	18026
349.083	32526
349.168	3860
349.254	1452
349.340	1590
349.425	626
349.511	1966
349.597	1867
349.682	5996
349.768	23202
349.854	9995
349.939	966
350.025	593
350.110	791
350.196	1380
350.282	-318
350.367	1745
350.453	2256
350.538	1793
350.624	1615
350.709	2082
350.795	605
350.880	1244
350.966	1794
351.051	2196
351.137	972
351.222	1431
351.308	7132
351.393	18249
351.479	3523
351.564	1065
351.649	652
351.735	1195
351.820	50
351.906	1016
351.991	1812
352.076	11859
352.162	17315
352.247	3055
352.332	1614
352.418	4364
352.503	6438
352.588	29191
352.673	19068
352.759	4446
352.844	76
352.929	2540
353.014	2474
353.100	2916
353.185	4466
353.270	6104
353.355	5568
353.441	1380
353.526	1135
353.611	5281
353.696	4829
353.781	3075
353.866	475
353.952	1790
354.037	4371
354.122	10760
354.207	9385
354.292	3476
354.377	935
354.462	1518
354.547	2082
354.632	2257
354.717	4651
354.802	5091
354.887	1374
354.972	1065
355.057	618
355.142	1091
355.227	1140
355.312	2029
355.397	7747
355.482	18740
355.567	7395
355.652	6961
355.737	7806
355.822	24130
355.907	17626
355.991	2954
356.076	455
356.161	1136
356.246	519
356.331	1134
356.416	4986
356.501	39513
356.585	37597
356.670	4284
356.755	2807
356.840	5071
356.924	27977
357.009	89966
357.094	32543
357.179	6284
357.263	3652
357.348	4303
357.433	3968
357.517	4105
357.602	1950
357.687	2794
357.771	6221
357.856	18727
357.941	9181
358.025	21595
358.110	87135
358.195	38932
358.279	4074
358.364	4029
358.448	16979
358.533	46551
358.617	32610
358.702	31457
358.787	10025
358.871	5318
358.956	4058
359.040	1660
359.125	186
359.209	2343
359.294	8944
359.378	12992
359.462	4723
359.547	2325
359.631	1946
359.716	532
359.800	1575
359.885	3265
359.969	1308
360.053	1626
360.138	1209
360.222	2643
360.306	5655
360.391	4598
360.475	10469
360.559	20157
360.644	15536
360.728	10681
360.812	21897
360.896	57624
360.981	22326
361.065	10714
361.149	2748
361.233	2839
361.318	1528
361.402	2532
361.486	2682
361.570	2094
361.654	1768
361.739	8360
361.823	37862
361.907	57746
361.991	7630
362.075	4990
362.159	10607
362.243	8706
362.327	8880
362.411	13523
362.495	6118
362.580	2931
362.664	1946
362.748	1435
362.832	2521
362.916	5792
363.000	23630
363.084	59924
363.168	69800
363.252	15163
363.336	4875
363.420	7883
363.503	30586
363.587	37373
363.671	5912
363.755	2909
363.839	5670
363.923	2197
364.007	5911
364.091	6821
364.175	11102
364.258	54001
364.342	42154
364.426	52158
364.510	24611
364.594	10826
364.677	12576
364.761	49667
364.845	34923
364.929	10300
365.013	7582
365.096	6238
365.180	7773
365.264	14516
365.347	50363
365.431	21909
365.515	4539
365.598	1288
365.682	2153
365.766	4460
365.849	6524
365.933	3132
366.017	4059
366.100	3029
366.184	481
366.267	2069
366.351	600
366.435	393
366.518	450
366.602	1023
366.685	575
366.769	1255
366.852	4115
366.936	7846
367.019	2969
367.103	2501
367.186	8055
367.270	2265
367.353	253
367.436	1514
367.520	570
367.603	2146
367.687	2354
367.770	5952
367.853	3887
367.937	17256
368.020	26511
368.104	4913
368.187	4625
368.270	7861
368.353	6761
368.437	6930
368.520	13946
368.603	12160
368.687	18520
368.770	33572
368.853	7338
368.936	6835
369.020	7821
369.103	1981
369.186	1306
369.269	1150
369.352	3971
369.436	6204
369.519	3250
369.602	269
369.685	2449
369.768	1289
369.851	2371
369.934	665
370.018	1457
370.101	4503
370.184	4884
370.267	4194
370.350	6349
370.433	10794
370.516	28090
370.599	32613
370.682	7870
370.765	18492
370.848	23809
370.931	41000
371.014	16289
371.097	2096
371.180	2262
371.263	1345
371.346	-158
371.429	1823
371.511	697
371.594	3444
371.677	6472
371.760	9247
371.843	8204
371.926	36131
372.009	77383
372.091	26618
372.174	18204
372.257	40703
372.340	16174
372.423	12045
372.505	13834
372.588	5851
372.671	13584
372.754	40107
372.836	20327
372.919	15770
373.002	31748
373.085	8837
373.167	6900
373.250	17714
373.332	41204
373.415	53719
373.498	98297
373.580	38315
373.663	48590
373.746	62638
373.828	13060
373.911	5783
373.993	6491
374.076	28673
374.159	27174
374.241	11914
374.324	34019
374.406	23528
374.489	32253
374.571	87544
374.654	34276
374.736	17099
374.819	53117
374.901	75653
374.983	72478
375.066	12555
375.148	4619
375.231	23624
375.313	46249
375.395	15792
375.478	2867
375.560	2764
375.643	3445
375.725	17428
375.807	61583
375.890	47202
375.972	13583
376.054	8440
376.136	11730
376.219	6573
376.301	19113
376.383	54196
376.465	20420
376.548	10441
376.630	16057
376.712	47570
376.794	21229
376.877	2385
376.959	590
377.041	2381
377.123	5156
377.205	7310
377.287	729
377.369	1090
377.452	569
377.534	752
377.616	1397
377.698	1158
377.780	87
377.862	1296
377.944	1734
378.026	711
378.108	205
378.190	1093
378.272	989
378.354	171
378.436	509
378.518	2667
378.600	11882
378.682	12085
378.764	23436
378.846	18371
378.928	4269
379.010	6699
379.091	3324
379.173	1407
379.255	425
379.337	2562
379.419	11767
379.501	35386
379.583	13249
379.664	2766
379.746	7246
379.828	25071
379.910	34455
379.991	27702
380.073	3834
380.155	2335
380.237	1848
380.318	1239
380.400	1035
380.482	3919
380.564	6055
380.645	6586
380.727	6470
380.809	4470
380.890	1725
380.972	1689
381.053	656
381.135	3295
381.217	8480
381.298	24828
381.380	11521
381.461	11226
381.543	45106
381.624	55173
381.706	9761
381.787	5791
381.869	6405
381.951	23249
382.032	74956
382.113	49898
382.195	9590
382.276	8374
382.358	16346
382.439	45494
382.521	50379
382.602	73018
382.684	35303
382.765	60266
382.846	74758
382.928	108275
383.009	59933
383.090	44075
383.172	147814
383.253	214427
383.334	76666
383.416	68583
383.497	37279
383.578	17896
383.659	36688
383.741	131119
383.822	299101
383.903	160120
383.984	55291
384.066	84241
384.147	48834
384.228	11223
384.309	6757
384.390	5977
384.471	3945
384.553	4762
384.634	5600
384.715	6949
384.796	3967
384.877	6236
384.958	22365
385.039	26967
385.120	9303
385.201	4852
385.282	4426
385.363	5787
385.444	4351
385.525	12175
385.606	36827
385.687	30323
385.768	6784
385.849	10031
385.930	39472
386.011	64611
386.092	16716
386.173	3292
386.254	2716
386.335	3768
386.416	3495
386.496	15761
386.577	24499
386.658	8451
386.739	3232
386.820	4051
386.901	2061
386.981	3764
387.062	2063
387.143	6027
387.224	23549
387.304	23048
387.385	7980
387.466	4437
387.547	6337
387.627	3983
387.708	11449
387.789	44882
387.869	52401
387.950	13907
388.031	2639
388.111	515
388.192	7871
388.273	11576
388.353	5967
388.434	3733
388.514	8981
388.595	41175
388.676	52844
388.756	24783
388.837	21158
388.917	12721
388.998	775
389.078	2568
389.159	1429
389.239	261
389.320	3937
389.400	2992
389.480	10524
389.561	27716
389.641	12748
389.722	4019
389.802	6281
389.883	13037
389.963	31848
390.043	18368
390.124	4204
390.204	9441
390.284	25797
390.365	17115
390.445	19231
390.525	39289
390.605	33497
390.686	13658
390.766	4866
390.846	2697
390.927	1112
391.007	741
391.087	2195
391.167	2968
391.247	911
391.328	3184
391.408	6326
391.488	5204
391.568	-395
391.648	2072
391.728	4809
391.808	4408
391.888	4489
391.969	15558
392.049	24049
392.129	10716
392.209	13312
392.289	32243
392.369	16750
392.449	13026
392.529	6767
392.609	5947
392.689	9858
392.769	30382
392.849	25462
392.929	19493
393.009	43420
393.089	30640
393.169	25654
393.248	81404
393.328	268011
393.408	288743
393.488	80451
393.568	21288
393.648	9859
393.728	5718
393.807	4073
393.887	4640
393.967	3476
394.047	5333
394.127	4942
394.206	11083
394.286	42912
394.366	163196
394.446	174232
394.525	38996
394.605	8279
394.685	8176
394.764	18264
394.844	33165
394.924	23647
395.003	6211
395.083	3431
395.163	3384
395.242	1885
395.322	3088
395.402	224
395.481	5314
395.561	13209
395.640	37182
395.720	31696
395.799	39217
395.879	31048
395.958	16902
396.038	61515
396.117	213271
396.197	232291
396.276	68973
396.356	21375
396.435	15869
396.515	10868
396.594	10925
396.673	23243
396.753	86866
396.832	248188
396.912	193708
396.991	47574
397.070	12314
397.150	5688
397.229	6166
397.308	8219
397.388	14759
397.467	6686
397.546	2877
397.625	-716
397.705	3097
397.784	2672
397.863	1598
397.942	293
398.022	1855
398.101	10550
398.180	32761
398.259	17593
398.338	4557
398.417	1214
398.497	1823
398.576	2453
398.655	364
398.734	966
398.813	1577
398.892	10842
398.971	37009
399.050	17457
399.129	910
399.208	734
399.287	1767
399.366	-63
399.445	-274
399.524	229
399.603	-655
399.682	3438
399.761	10848
399.840	37064
399.919	31099
399.998	3040
400.077	66
400.156	-723
400.235	2599
400.313	426
400.392	1565
400.471	12357
400.550	19523
400.629	4450
400.708	2324
400.786	1262
400.865	6679
400.944	7067
401.023	4201
401.102	-73
401.180	675
401.259	-194
401.338	985
401.416	1292
401.495	728
401.574	1587
401.652	878
401.731	1876
401.810	601
401.888	262
401.967	-142
402.046	1268
402.124	2083
402.203	1144
402.281	2198
402.360	1817
402.438	9124
402.517	5465
402.596	1472
402.674	485
402.753	532
402.831	366
402.910	2361
402.988	12569
403.066	36995
403.145	20769
403.223	14529
403.302	30868
403.380	24343
403.459	22630
403.537	7965
403.615	1546
403.694	-1343
403.772	385
403.850	-276
403.929	-552
404.007	-445
404.085	3556
404.164	3423
404.242	-191
404.320	2178
404.398	4093
404.477	13786
404.555	58974
404.633	51623
404.711	7159
404.789	1962
404.868	528
404.946	-467
405.024	-459
405.102	-135
405.180	-871
405.258	-1462
405.336	857
405.415	-16
405.493	2714
405.571	3071
405.649	-343
405.727	-899
405.805	1332
405.883	1406
405.961	1580
406.039	1597
406.117	-296
406.195	2782
406.273	13262
406.351	51073
406.429	30939
406.507	4185
406.585	-95
406.663	999
406.740	1217
406.818	300
406.896	-520
406.974	1706
407.052	4598
407.130	30294
407.208	41462
407.285	8171
407.363	-165
407.441	842
407.519	-41
407.596	820
407.674	2837
407.752	11990
407.830	12990
407.907	5453
407.985	445
408.063	38
408.141	-437
408.218	2184
408.296	2152
408.373	1511
408.451	1232
408.529	1056
408.606	-237
408.684	88
408.762	30
408.839	-357
408.917	-138
408.994	56
409.072	-407
409.149	507
409.227	1198
409.304	3296
409.382	1359
409.459	1946
409.537	3882
409.614	3431
409.692	967
409.769	2253
409.846	3080
409.924	6578
410.001	1844
410.079	1191
410.156	1558
410.233	1145
410.311	64
410.388	479
410.465	874
410.543	867
410.620	1082
410.697	1207
410.775	666
410.852	-682
410.929	1492
411.006	2712
411.083	1328
411.161	4281
411.238	4602
411.315	1521
411.392	97
411.469	1976
411.547	2243
411.624	-478
411.701	-109
411.778	1398
411.855	2506
411.932	1026
412.009	-1061
412.086	1034
412.163	333
412.240	756
412.317	1611
412.394	1624
412.471	199
412.548	-355
412.625	-217
412.702	985
412.779	3074
412.856	1984
412.933	-820
413.010	558
413.087	2568
413.164	11741
413.241	16698
413.318	2968
413.395	2301
413.471	2942
413.548	1586
413.625	1312
413.702	353
413.779	705
413.855	-741
413.932	-220
414.009	-1189
414.086	398
414.162	27
414.239	2029
414.316	11829
414.393	26053
414.469	7763
414.546	490
414.623	97
414.699	393
414.776	-214
414.853	-90
414.929	58
415.006	483
415.082	482
415.159	285
415.236	-192
415.312	1038
415.389	1465
415.465	1916
415.542	369
415.618	-138
415.695	2368
415.771	416
415.848	377
415.924	329
416.000	513
416.077	1099
416.153	-788
416.230	-242
416.306	-1234
416.383	-1313
416.459	42
416.535	-262
416.612	-567
416.688	48
416.764	-678
416.841	-136
416.917	225
416.993	339
417.069	1138
417.146	1005
417.222	839
417.298	784
417.374	-232
417.451	534
417.527	-363
417.603	360
417.679	-167
417.755	283
417.831	-1171
417.908	-388
417.984	-651
418.060	-300
418.136	1750
418.212	3153
418.288	40
418.364	855
418.440	-666
418.516	1014
418.592	1579
418.668	4876
418.744	6416
418.820	5049
418.896	186
418.972	-247
419.048	-133
419.124	3474
419.200	265
419.276	-75
419.352	-977
419.428	225
419.504	-1095
419.579	-346
419.655	-1214
419.731	1236
419.807	3964
419.883	7589
419.959	4356
420.034	1550
420.110	3903
420.186	15811
420.262	12550
420.337	1737
420.413	292
420.489	-239
420.565	368
420.640	-64
420.716	656
420.792	-709
420.867	694
420.943	367
421.019	1321
421.094	295
421.170	-94
421.245	98
421.321	1053
421.397	970
421.472	2406
421.548	6038
421.623	5042
421.699	1527
421.774	1816
421.850	1118
421.925	3912
422.001	3827
422.076	2837
422.152	4236
422.227	6995
422.302	10609
422.378	14755
422.453	30734
422.529	79396
422.604	194224
422.679	274136
422.755	187284
422.830	72649
422.905	29706
422.981	14876
423.056	9607
423.131	7626
423.207	4964
423.282	4350
423.357	7102
423.432	4496
423.508	4629
423.583	8449
423.658	6376
423.733	2271
423.808	2947
423.883	2676
423.959	2413
424.034	1495
424.109	1584
424.184	661
424.259	696
424.334	114
424.409	-603
424.484	399
424.559	647
424.634	-776
424.709	1875
424.784	758
424.859	563
424.934	1389
425.009	11143
425.084	18750
425.159	6230
425.234	891
425.309	823
425.384	6528
425.459	8633
425.534	1950
425.609	71
425.683	-32
425.758	345
425.833	-110
425.908	1624
425.983	6668
426.058	18231
426.132	7295
426.207	1190
426.282	2997
426.357	1117
426.431	183
426.506	920
426.581	-38
426.655	376
426.730	-7
426.805	164
426.879	58
426.954	618
427.029	2732
427.103	20147
427.178	46213
427.253	21222
427.327	1729
427.402	3996
427.476	11087
427.551	4661
427.625	389
427.700	1420
427.774	-921
427.849	681
427.923	-448
427.998	271
428.072	-339
428.147	4272
428.221	19681
428.296	53536
428.370	25905
428.444	3061
428.519	2180
428.593	6660
428.667	5580
428.742	7242
428.816	9375
428.890	36175
428.965	56064
429.039	17292
429.113	8349
429.188	2825
429.262	449
429.336	3254
429.410	8102
429.485	6467
429.559	5288
429.633	4637
429.707	1056
429.781	7249
429.855	38172
429.930	54010
430.004	24889
430.078	36645
430.152	38322
430.226	69218
430.300	68693
430.374	10037
430.448	3285
430.522	11604
430.596	33644
430.670	25960
430.744	57744
430.818	79644
430.892	15611
430.966	1290
431.040	477
431.114	-939
431.188	206
431.262	200
431.336	17
431.410	3192
431.484	8201
431.557	6063
431.631	-586
431.705	1730
431.779	11350
431.853	47882
431.927	32036
432.000	3110
432.074	-209
432.148	1568
432.222	503
432.295	-134
432.369	-468
432.443	2557
432.516	19057
432.590	47447
432.664	17837
432.737	1225
432.811	-888
432.885	-682
432.958	-140
433.032	1
433.106	-851
433.179	-1243
433.253	-486
433.326	-456
433.400	-593
433.473	-95
433.547	-1086
433.620	247
433.694	939
433.767	1271
433.841	-403
433.914	-144
433.988	-632
434.061	-189
434.134	-559
434.208	224
434.281	-1382
434.355	-577
434.428	-277
434.501	-716
434.575	-669
434.648	-138
434.721	-891
434.795	-586
434.868	-1017
434.941	-472
435.014	-378
435.088	-206
435.161	318
435.234	1887
435.307	1886
435.381	1410
435.454	368
435.527	1658
435.600	1285
435.673	1447
435.746	-293
435.819	423
435.892	-383
435.966	-65
436.039	-373
436.112	475
436.185	-906
436.258	492
436.331	-1213
436.404	-522
436.477	-753
436.550	-640
436.623	-802
436.696	-786
436.769	-112
436.842	132
436.915	-372
436.987	-83
437.060	-297
437.133	-359
437.206	-403
437.279	-212
437.352	-381
437.425	-81
437.498	-62
437.570	2345
437.643	1706
437.716	225
437.789	-875
437.861	2746
437.934	7474
438.007	3203
438.080	-505
438.152	370
438.225	4194
438.298	27376
438.370	69674
438.443	30955
438.516	6958
438.588	484
438.661	-379
438.734	-258
438.806	-318
438.879	1466
438.951	1266
439.024	3327
439.096	50
439.169	-1139
439.241	-259
439.314	196
439.386	98
439.459	2441
439.531	2365
439.604	577
439.676	-413
439.749	-291
439.821	-631
439.893	382
439.966	342
440.038	1020
440.110	-38
440.183	133
440.255	-406
440.327	1233
440.400	11728
440.472	44566
440.544	30052
440.617	3980
440.689	2130
440.761	3766
440.833	5626
440.905	4133
440.978	-545
441.050	-377
441.122	-523
441.194	-672
441.266	-98
441.338	189
441.411	1966
441.483	13966
441.555	20867
441.627	4954
441.699	1410
441.771	1704
441.843	-488
441.915	-122
441.987	-855
442.059	-183
442.131	285
442.203	1415
442.275	1478
442.347	3049
442.419	4100
442.491	25148
442.563	59085
442.635	25874
442.706	11756
442.778	9076
442.850	1313
442.922	247
442.994	342
443.066	2095
443.137	762
443.209	1085
443.281	2292
443.353	7234
443.425	32928
443.496	111655
443.568	106149
443.640	36982
443.711	6367
443.783	2067
443.855	1481
443.926	937
443.998	281
444.070	1371
444.141	910
444.213	2483
444.285	1774
444.356	1230
444.428	675
444.499	-196
444.571	380
444.642	421
444.714	277
444.785	2050
444.857	2681
444.928	6121
445.000	4039
445.071	4728
445.143	4751
445.214	2989
445.285	6244
445.357	21221
445.428	74737
445.500	163509
445.571	106184
445.642	53427
445.714	18059
445.785	14509
445.856	3513
445.928	3105
445.999	1980
446.070	1919
446.141	2178
446.213	3591
446.284	893
446.355	629
446.426	-124
446.497	565
446.569	1301
446.640	2588
446.711	2324
446.782	289
446.853	-254
446.924	769
446.995	102
447.066	366
447.138	1183
447.209	1069
447.280	-928
447.351	-228
447.422	-554
447.493	397
447.564	627
447.635	1893
447.706	-361
447.777	-1062
447.847	-934
447.918	-678
447.989	139
448.060	1381
448.131	3588
448.202	3445
448.273	2565
448.344	527
448.414	-186
448.485	144
448.556	-111
448.627	-257
448.698	516
448.768	-126
448.839	-602
448.910	1514
448.981	1575
449.051	334
449.122	-261
449.193	-394
449.263	2
449.334	-152
449.405	-205
449.475	2340
449.546	1655
449.616	2036
449.687	1768
449.758	421
449.828	196
449.899	-206
449.969	-753
450.040	-660
450.110	594
450.181	478
450.251	-150
450.322	-132
450.392	-615
450.463	-903
450.533	-655
450.604	143
450.674	-983
450.744	-78
450.815	-584
450.885	840
450.955	119
451.026	167
451.096	-699
451.166	246
451.237	2638
451.307	7695
451.377	2664
451.447	-761
451.518	-1190
451.588	-259
451.658	-248
451.728	1304
451.799	7278
451.869	9677
451.939	1137
452.009	-152
452.079	-1223
452.149	183
452.219	846
452.289	9700
452.360	6947
452.430	684
452.500	-171
452.570	1186
452.640	2429
452.710	9902
452.780	13097
452.850	8413
452.920	6142
452.990	2582
453.060	509
453.129	1882
453.199	1369
453.269	10959
453.339	25530
453.409	40154
453.479	36529
453.549	55483
453.619	57598
453.688	25025
453.758	2460
453.828	984
453.898	-18
453.968	-725
454.037	-609
454.087	-207
454.107	-63
454.168	-374
454.177	-449
454.247	-5
454.249	20
454.316	20
454.330	187
454.386	569
454.411	1770
454.456	3366
454.492	5778
454.525	7926
454.574	4211
454.595	2622
454.655	693
454.665	364
454.734	924
454.736	1040
454.804	2754
454.817	4132
454.873	8539
454.898	9297
454.943	10596
454.979	6450
455.013	2954
455.060	1852
455.082	1469
455.141	2339
455.152	2334
455.221	7162
455.222	7322
455.291	11179
455.303	9987
455.360	5418
455.384	4415
455.430	2860
455.465	3887
455.499	4224
455.546	7428
455.569	8434
455.627	5821
455.638	5507
455.707	438
455.708	461
455.777	703
455.789	729
455.846	573
455.869	818
455.916	1271
455.950	1280
455.985	1247
456.031	1498
456.054	1613
456.112	891
456.124	737
456.193	1200
456.193	1178
456.262	1104
456.274	1350
456.332	2244
456.355	1923
456.401	1055
456.436	1112
456.470	1080
456.516	910
456.540	958
456.597	1266
456.609	1250
456.678	1063
456.678	1047
456.747	948
456.759	933
456.817	563
456.840	745
456.886	1182
456.920	1140
456.955	1121
457.001	1724
457.024	2097
457.082	1777
457.093	1580
457.162	2394
457.163	2419
457.232	2188
457.243	2073
457.301	1568
457.324	1282
457.370	1002
457.405	1389
457.439	1658
457.485	1931
457.508	2297
457.566	2932
457.577	3071
457.646	4800
457.647	4845
457.715	8940
457.727	9828
457.784	15063
457.808	18451
457.853	20507
457.889	21932
457.922	20823
457.969	15486
457.991	16923
458.050	23164
458.060	24280
458.129	37593
458.130	38043
458.198	27672
458.211	23808
458.267	13241
458.292	9087
458.336	8185
458.372	9311
458.405	13912
458.453	20604
458.474	25475
458.533	43313
458.543	43728
458.611	54245
458.614	54479
458.680	27754
458.694	20354
458.749	9910
458.775	6909
458.818	4244
458.855	3408
458.887	3105
458.936	3191
458.955	3228
459.016	3379
459.024	3387
459.093	3769
459.097	3779
459.162	4116
459.177	4333
459.230	4977
459.257	5332
459.299	5611
459.338	5617
459.368	5549
459.418	5877
459.437	5568
459.499	4419
459.505	4405
459.574	3678
459.579	3689
459.643	3993
459.659	3955
459.711	3741
459.740	3830
459.780	4103
459.820	4118
459.849	4061
459.900	4655
459.917	4815
459.981	5211
459.986	5232
460.054	5385
460.061	5440
460.123	6129
460.141	6319
460.191	7322
460.222	7971
460.260	8396
460.302	9169
460.328	8554
460.382	6746
460.397	6736
460.462	6721
460.465	6919
460.534	11790
460.543	12508
460.602	26491
460.623	31553
460.671	47042
460.703	60392
460.739	48440
460.783	29643
460.808	24523
460.864	7445
460.876	6388
460.944	4837
460.945	4802
461.013	4132
461.024	4016
461.081	4712
461.104	5102
461.150	4823
461.184	4338
461.218	4267
461.264	4618
461.286	4812
461.345	4521
461.355	4452
461.423	4970
461.425	4966
461.491	5830
461.505	6215
461.559	11525
461.585	13659
461.628	18369
461.665	23428
461.696	23524
461.745	24562
461.764	21407
461.825	7934
461.832	7867
461.901	6334
461.905	6370
461.969	5136
461.985	4901
462.037	5442
462.065	5448
462.105	6330
462.145	7636
462.173	9808
462.225	13599
462.241	14413
462.305	18460
462.310	17913
462.378	9833
462.385	8600
462.446	6624
462.465	6442
462.514	6465
462.545	6404
462.582	5760
462.625	5466
462.650	5474
462.705	5041
462.718	5218
462.785	6515
462.786	6566
462.854	8880
462.865	9350
462.922	9980
462.945	10320
462.990	8405
463.025	6365
463.058	5985
463.104	5443
463.126	5179
463.184	5015
463.194	5083
463.262	5027
463.264	5043
463.330	5737
463.344	5812
463.398	6563
463.424	6921
463.466	6591
463.504	6335
463.533	6611
463.583	6937
463.601	7205
463.663	7965
463.669	8154
463.737	10711
463.743	10904
463.805	16151
463.823	17800
463.873	24989
463.903	29255
463.940	27862
463.982	26967
464.008	21767
464.062	9091
464.076	8697
464.142	6316
464.144	6291
464.211	5982
464.221	5975
464.279	6438
464.301	6563
464.347	7491
464.381	8253
464.414	9314
464.461	10706
464.482	11081
464.540	12327
464.550	12407
464.617	12269
464.620	12256
464.685	10926
464.699	10582
464.753	12023
464.779	12750
464.820	13383
464.859	13915
464.888	13466
464.938	12655
464.956	12908
465.018	13818
465.023	13783
465.091	12956
465.098	12835
465.158	13276
465.177	13475
465.226	12646
465.257	11977
465.293	12283
465.336	12655
465.361	13742
465.416	16071
465.428	16964
465.495	21660
465.496	21764
465.563	32079
465.575	33875
465.631	36206
465.654	37274
465.698	24232
465.734	12813
465.765	12038
465.813	10662
465.833	10503
465.893	10516
465.900	10557
465.968	10784
465.972	10785
466.035	11109
466.052	11110
466.102	11493
466.131	11748
466.170	11946
466.210	12063
466.237	12603
466.290	13646
466.304	13777
466.369	14149
466.372	14227
466.439	15752
466.449	15934
466.506	17695
466.528	18357
466.573	24931
466.607	29718
466.641	38545
466.687	50769
466.708	53136
466.766	59488
466.775	55414
466.842	23923
466.845	22374
466.909	18847
466.925	18033
466.977	17942
467.004	17880
467.044	18300
467.083	18664
467.111	20191
467.163	22924
467.178	22902
467.242	22598
467.245	22556
467.312	20710
467.321	20424
467.379	20040
467.400	19839
467.446	20549
467.480	20989
467.559	18813
467.638	16843
467.717	17097
467.796	19358
467.875	20383
467.955	20435
468.034	32427
468.113	57065
468.192	71708
468.271	21702
468.350	20077
468.429	23594
468.508	23153
468.588	18089
468.667	16418
468.746	16745
468.825	15450
468.904	14811
468.983	17258
469.062	24434
469.141	25029
469.220	13376
469.299	13639
469.378	15741
469.456	18635
469.535	16750
469.614	15563
469.693	17691
469.772	20800
469.851	28033
469.930	17008
470.009	15902
470.088	16313
470.166	22025
470.245	32182
470.324	37151
470.403	23467
470.482	16715
470.560	16032
470.639	16292
470.718	18510
470.797	15717
470.875	17889
470.954	23187
471.033	21684
471.111	11123
471.190	11580
471.269	11398
471.347	11881
471.426	14125
471.505	15751
471.583	15625
471.662	15340
471.740	13343
471.819	13971
471.898	12668
471.976	12663
472.055	13743
472.133	14647
472.212	18176
472.290	17948
472.369	12862
472.447	11844
472.526	11650
472.604	13010
472.683	14312
472.761	13966
472.839	13405
472.918	12980
472.996	13723
473.075	13871
473.153	14220
473.231	12356
473.310	14159
473.388	14326
473.466	13685
473.545	16863
473.623	20541
473.701	17955
473.780	14041
473.858	11852
473.936	15272
474.014	13736
474.093	15694
474.171	19741
474.249	25151
474.327	15541
474.405	12523
474.484	11651
474.562	12464
474.640	11079
474.718	13616
474.796	12983
474.874	13397
474.952	11768
475.030	12479
475.108	12767
475.187	16120
475.265	18033
475.343	24400
475.421	23037
475.499	12565
475.577	14626
475.655	18924
475.733	30722
475.811	47543
475.889	43008
475.966	24636
476.044	13114
476.122	18729
476.200	22625
476.278	15620
476.356	12067
476.434	13812
476.512	17156
476.590	21443
476.667	16845
476.745	12477
476.823	11905
476.901	11913
476.979	11615
477.056	12462
477.134	12476
477.212	13179
477.290	11925
477.367	10852
477.445	10984
477.523	10372
477.601	10711
477.678	11507
477.756	12674
477.834	14068
477.911	11064
477.989	11349
478.066	10681
478.144	14326
478.222	17671
478.299	28081
478.377	20494
478.454	10578
478.532	10029
478.609	11173
478.687	12483
478.764	10140
478.842	11018
478.919	12379
478.997	10626
479.074	10143
479.152	11968
479.229	15508
479.307	9752
479.384	9134
479.461	9855
479.539	10860
479.616	10840
479.694	10084
479.771	11956
479.848	12931
479.926	14545
480.003	15405
480.080	10217
480.157	9616
480.235	9541
480.312	9936
480.389	12336
480.467	17950
480.544	18792
480.621	12311
480.698	11647
480.775	13228
480.853	12570
480.930	10089
481.007	9636
481.084	12213
481.161	14014
481.238	12693
481.315	10649
481.392	9016
481.470	9431
481.547	10378
481.624	9894
481.701	10784
481.778	11443
481.855	13184
481.932	19139
482.009	27994
482.086	17071
482.163	13226
482.240	21037
482.317	35752
482.393	21442
482.470	11459
482.547	10798
482.624	11027
482.701	11185
482.778	10968
482.855	9642
482.932	10168
483.009	10071
483.085	12503
483.162	15017
483.239	14032
483.316	10179
483.393	11716
483.469	10422
483.546	12067
483.623	11650
483.699	9980
483.776	9980
483.853	12960
483.930	20600
484.006	45770
484.083	69381
484.160	39109
484.236	56027
484.313	40394
484.389	30503
484.466	28551
484.543	28392
484.619	30230
484.696	31450
484.772	30728
484.849	30546
484.925	25956
485.002	26145
485.078	28398
485.155	28977
485.231	24471
485.308	23889
485.384	26567
485.461	31464
485.537	47473
485.614	46615
485.690	24525
485.766	24390
485.843	27296
485.919	36420
485.995	32816
486.072	22329
486.148	21803
486.224	21397
486.301	23456
486.377	26914
486.453	29105
486.530	27059
486.606	36221
486.682	37448
486.758	42051
486.835	44478
486.911	40063
486.987	61940
487.063	67113
487.139	77752
487.215	52673
487.292	28249
487.368	27526
487.444	31054
487.520	40942
487.596	42178
487.672	82201
487.748	195458
487.824	244550
487.900	66744
487.976	34452
488.052	31370
488.128	38365
488.204	28934
488.280	24628
488.356	31376
488.432	55811
488.508	70352
488.584	27040
488.660	22576
488.736	22574
488.812	24346
488.888	30130
488.964	42723
489.039	86795
489.115	114214
489.191	53868
489.267	21531
489.343	21952
489.418	18109
489.494	19339
489.570	17634
489.646	19273
489.722	19355
489.797	21126
489.873	32741
489.949	59161
490.024	40366
490.100	17582
490.176	18689
490.251	24619
490.327	29038
490.403	18523
490.478	17527
490.554	15461
490.629	16400
490.705	16306
490.781	17151
490.856	16420
490.932	20243
491.007	18777
491.083	17440
491.158	17489
491.234	25129
491.309	47053
491.385	37649
491.460	16535
491.536	19125
491.611	16587
491.686	18447
491.762	27758
491.837	55827
491.913	84504
491.988	120267
492.063	123327
492.139	32849
492.214	21794
492.289	13322
492.365	14338
492.440	16941
492.515	16779
492.590	16424
492.666	14133
492.741	19943
492.816	26839
492.891	14711
492.967	13518
493.042	12907
493.117	12445
493.192	12519
493.267	15247
493.342	19103
493.418	18140
493.493	13171
493.568	12124
493.643	12682
493.718	17379
493.793	24404
493.868	27070
493.943	17570
494.018	13986
494.093	12028
494.168	13630
494.243	11109
494.318	11327
494.393	11595
494.468	11314
494.543	10895
494.618	13752
494.693	12203
494.768	11969
494.842	11884
494.917	11303
494.992	11951
495.067	11540
495.142	11033
495.217	12456
495.292	12349
495.366	14969
495.441	17771
495.516	24213
495.591	41722
495.665	127553
495.740	242091
495.815	64843
495.890	18076
495.964	15118
496.039	17818
496.114	15626
496.188	18209
496.263	17754
496.338	15536
496.412	17967
496.487	19989
496.561	21811
496.636	21313
496.710	17877
496.785	19053
496.860	22034
496.934	17038
497.009	19035
497.083	18828
497.158	22017
497.232	23564
497.307	27019
497.381	24439
497.455	28504
497.530	33600
497.604	25460
497.679	29522
497.753	44667
497.827	53558
497.902	51727
497.976	63375
498.050	150305
498.125	420636
498.199	312716
498.273	73951
498.348	61181
498.422	49833
498.496	46074
498.570	39810
498.645	29949
498.719	28091
498.793	33586
498.867	47352
498.941	67252
499.016	193349
499.090	402203
499.164	90826
499.238	19926
499.312	19007
499.386	25890
499.460	21103
499.534	20710
499.609	25595
499.683	32552
499.757	34294
499.831	93812
499.905	291725
499.979	193202
500.053	36230
500.127	36602
500.201	25898
500.275	18677
500.349	18816
500.422	22027
500.496	36840
500.570	80074
500.644	178228
500.718	257754
500.792	39003
500.866	18814
500.940	21991
501.013	17781
501.087	20268
501.161	37856
501.235	46538
501.309	109142
501.382	260133
501.456	165002
501.530	47648
501.603	72909
501.677	22731
501.751	13048
501.825	19271
501.898	41936
501.972	98135
502.046	45252
502.119	20206
502.193	52313
502.266	104034
502.340	41237
502.413	51960
502.487	83397
502.561	41270
502.634	15647
502.708	13949
502.781	12164
502.855	10186
502.928	9753
503.002	9722
503.075	9603
503.149	9207
503.222	10183
503.295	11612
503.369	16023
503.442	26331
503.516	85174
503.589	171820
503.662	90670
503.736	38595
503.809	84367
503.882	66627
503.956	114100
504.029	96250
504.102	112494
504.175	125616
504.249	38254
504.322	21849
504.395	17163
504.468	12394
504.542	12139
504.615	9353
504.688	9962
504.761	8521
504.834	13962
504.907	17160
504.980	24109
505.053	13367
505.127	17913
505.200	17972
505.273	15930
505.346	9702
505.419	8728
505.492	9802
505.565	7088
505.638	6858
505.711	7034
505.784	6535
505.857	7423
505.930	8460
506.003	7374
506.076	8867
506.149	12309
506.221	13447
506.294	17269
506.367	49359
506.440	134310
506.513	48849
506.586	15313
506.659	8730
506.731	9402
506.804	11304
506.877	15584
506.950	9710
507.022	9513
507.095	11049
507.168	13289
507.241	8993
507.313	8055
507.386	8672
507.459	13584
507.531	7941
507.604	7390
507.677	7071
507.749	6376
507.822	12872
507.894	24573
507.967	24421
508.040	13588
508.112	13437
508.185	12857
508.257	12475
508.330	19210
508.402	10402
508.475	11231
508.547	12781
508.620	13190
508.692	17358
508.765	10902
508.837	8427
508.909	8965
508.982	9496
509.054	11138
509.127	8697
509.199	9145
509.271	7904
509.344	8506
509.416	8617
509.488	8609
509.560	9416
509.633	10169
509.705	11209
509.777	11221
509.849	15942
509.922	9190
509.994	7902
510.066	10253
510.138	11302
510.210	23325
510.283	18262
510.355	16326
510.427	12926
510.499	13756
510.571	12903
510.643	12692
510.715	22311
510.787	16522
510.859	13657
510.931	16328
511.003	22305
511.076	17328
511.148	10583
511.219	12377
511.291	19557
511.363	18590
511.435	10926
511.507	8912
511.579	10704
511.651	10740
511.723	9249
511.795	10468
511.867	10264
511.939	13911
512.010	24154
512.082	16361
512.154	9902
512.226	11361
512.298	19114
512.369	26034
512.441	19004
512.513	17484
512.585	13326
512.656	16146
512.728	15782
512.800	12029
512.871	12860
512.943	12750
513.015	10124
513.086	12076
513.158	13349
513.230	14199
513.301	19478
513.373	20503
513.444	12249
513.516	10731
513.588	11643
513.659	13608
513.731	15206
513.802	15350
513.874	34108
513.945	45547
514.016	14884
514.088	11945
514.159	13455
514.231	18741
514.302	22797
514.374	16326
514.445	16907
514.516	31057
514.588	18876
514.659	16809
514.730	28448
514.802	21850
514.873	19689
514.944	20689
515.016	17759
515.087	19012
515.158	24007
515.229	29020
515.301	24216
515.372	28250
515.443	17669
515.514	14490
515.585	10811
515.656	12644
515.728	12367
515.799	11598
515.870	13115
515.941	13266
516.012	13671
516.083	19139
516.154	20011
516.225	24597
516.296	23032
516.367	21207
516.438	25973
516.509	38000
516.580	74250
516.651	248040
516.722	624475
516.793	163462
516.864	41923
516.935	40626
517.006	52578
517.077	91025
517.148	245634
517.219	821268
517.289	828492
517.360	186528
517.431	51784
517.502	24280
517.573	23840
517.643	22551
517.714	23804
517.785	25727
517.856	25796
517.926	31763
517.997	35681
518.068	48673
518.138	76738
518.209	163940
518.280	595678
518.350	1426927
518.421	358188
518.492	53352
518.562	36475
518.633	37219
518.703	41659
518.774	81069
518.845	173752
518.915	125209
518.986	41387
519.056	35385
519.127	54733
519.197	80774
519.268	153621
519.338	70620
519.408	25868
519.479	32490
519.549	20245
519.620	16952
519.690	11782
519.760	13470
519.831	14040
519.901	13852
519.971	11807
520.042	14419
520.112	15885
520.182	18912
520.253	19556
520.323	18783
520.393	40478
520.463	52623
520.534	45629
520.604	77144
520.674	25233
520.744	37156
520.814	104775
520.885	56706
520.955	63819
521.025	164590
521.095	44034
521.165	13201
521.235	12145
521.305	10572
521.375	10771
521.445	14311
521.515	15916
521.585	21316
521.655	15868
521.725	15764
521.795	12520
521.865	9687
521.935	18549
522.005	13530
522.075	9255
522.145	12733
522.215	12397
522.285	18112
522.355	25102
522.424	44270
522.494	32524
522.564	22764
522.634	52577
522.704	118343
522.774	29620
522.843	12047
522.913	12399
522.983	14457
523.053	11335
523.122	13048
523.192	22712
523.262	68975
523.331	43483
523.401	11736
523.471	8826
523.540	10475
523.610	6803
523.680	9167
523.749	10412
523.819	13298
523.888	10242
523.958	8804
524.027	9801
524.097	11159
524.166	9538
524.236	10074
524.305	10827
524.375	9461
524.444	8763
524.514	10840
524.583	10621
524.653	12720
524.722	14436
524.791	9789
524.861	10364
524.930	8751
524.999	10484
525.069	14323
525.138	11384
525.207	13898
525.277	9930
525.346	11198
525.415	10200
525.484	12397
525.554	13022
525.623	13666
525.692	12531
525.761	14708
525.830	16327
525.900	20478
525.969	33902
526.038	62370
526.107	147333
526.176	338680
526.245	206321
526.314	85071
526.383	199799
526.452	224952
526.522	417212
526.591	273740
526.660	69368
526.729	41617
526.797	61364
526.867	153263
526.935	502825
527.004	798150
527.073	283001
527.142	27339
527.211	16097
527.280	18191
527.349	14996
527.418	9638
527.487	11193
527.555	9410
527.624	7960
527.693	8089
527.762	8596
527.831	7807
527.899	8794
527.968	8646
528.037	7758
528.106	11756
528.174	19813
528.243	16774
528.312	25781
528.380	23978
528.449	8543
528.518	7899
528.586	5349
528.655	7337
528.723	7570
528.792	6783
528.861	6434
528.929	6548
528.998	7453
529.066	6371
529.135	7101
529.203	6343
529.272	5787
529.340	8590
529.409	9040
529.477	6735
529.545	10528
529.614	14107
529.682	13262
529.751	14507
529.819	18864
529.887	10588
529.956	8014
530.024	9859
530.092	7958
530.161	11533
530.229	14632
530.297	9301
530.365	8396
530.434	7865
530.502	6679
530.570	6678
530.638	6344
530.707	9177
530.775	9589
530.843	7056
530.911	6984
530.979	8239
531.047	7941
531.115	7522
531.183	8074
531.252	8292
531.320	7698
531.388	6811
531.456	8844
531.524	6106
531.592	8157
531.660	10302
531.728	6966
531.796	7706
531.864	7732
531.932	9228
532.000	7911
532.067	8199
532.135	10274
532.203	12309
532.271	12026
532.339	23955
532.407	48156
532.475	22315
532.542	13648
532.610	18349
532.678	33426
532.746	131176
532.814	208595
532.881	38650
532.949	10797
533.017	10567
533.084	8945
533.152	8783
533.220	8691
533.287	9384
533.355	8235
533.423	8253
533.490	7956
533.558	9418
533.625	9609
533.693	9039
533.761	9762
533.828	11406
533.896	9324
533.963	21196
534.031	22678
534.098	31130
534.166	13262
534.233	9541
534.300	11983
534.368	11099
534.435	10094
534.503	13201
534.570	17624
534.637	13363
534.705	15665
534.772	23738
534.840	47269
534.907	174531
534.974	135813
535.041	16960
535.109	12443
535.176	9746
535.243	10283
535.310	9354
535.378	7744
535.445	8901
535.512	8299
535.579	10191
535.646	8933
535.714	10612
535.781	12024
535.848	12722
535.915	12084
535.982	10443
536.049	9524
536.116	11598
536.183	9309
536.250	9869
536.317	10967
536.384	14005
536.451	17000
536.518	16386
536.585	11723
536.652	18016
536.719	21402
536.786	16118
536.853	14739
536.920	23445
536.987	32356
537.053	40742
537.120	136425
537.187	73176
537.254	12242
537.321	11032
537.388	12549
537.454	10800
537.521	9669
537.588	9731
537.654	12777
537.721	13534
537.788	13650
537.855	10685
537.921	11498
537.988	11166
538.055	10933
538.121	10877
538.188	12783
538.254	19526
538.321	29050
538.388	17550
538.454	11147
538.521	11688
538.587	10653
538.654	10981
538.720	9819
538.787	11506
538.853	11736
538.920	14309
538.986	12970
539.053	11821
539.119	12482
539.185	11878
539.252	16062
539.318	19203
539.385	16337
539.451	15251
539.517	16127
539.583	21744
539.650	48204
539.716	81066
539.782	19564
539.849	11824
539.915	12728
539.981	13099
540.047	14702
540.114	13181
540.180	14658
540.246	13700
540.312	18032
540.378	32575
540.444	31029
540.510	49552
540.576	95140
540.643	23043
540.709	11274
540.775	12282
540.841	12394
540.907	20268
540.973	29369
541.039	21266
541.105	19022
541.171	13874
541.237	12239
541.303	14887
541.369	16627
541.435	20272
541.500	26033
541.566	15354
541.632	11204
541.698	11559
541.764	11622
541.830	11348
541.896	10886
541.961	12389
542.027	12030
542.093	12753
542.159	12995
542.224	15095
542.290	21260
542.356	27951
542.421	26260
542.487	14655
542.553	13073
542.618	13698
542.684	12084
542.750	14506
542.815	18456
542.881	33282
542.947	94449
543.012	46098
543.078	12159
543.143	12051
543.209	13617
543.274	14167
543.340	18108
543.405	42606
543.471	44905
543.536	13652
543.602	12411
543.667	11772
543.732	13032
543.798	12023
543.863	11680
543.928	10588
543.994	10237
544.059	11917
544.124	11696
544.190	11972
544.255	12993
544.320	13377
544.386	13846
544.451	18049
544.516	20090
544.581	24833
544.646	66242
544.712	71115
544.777	17190
544.842	16088
544.907	16109
544.972	14965
545.037	14248
545.102	15706
545.168	14625
545.233	16623
545.298	17725
545.363	19105
545.428	23497
545.493	41582
545.558	68911
545.623	24888
545.688	15611
545.753	16468
545.818	15105
545.883	17937
545.947	15606
546.012	18068
546.077	17546
546.142	18950
546.207	18854
546.272	22411
546.337	21711
546.401	20578
546.466	20013
546.531	19660
546.596	21607
546.661	20934
546.725	21274
546.790	20403
546.855	21987
546.919	22990
546.984	25851
547.049	28634
547.113	31462
547.178	32628
547.243	37958
547.307	42509
547.372	46679
547.436	47482
547.501	45086
547.565	49175
547.630	47731
547.695	45820
547.759	47684
547.823	45179
547.888	43627
547.952	46706
548.017	47704
548.081	51946
548.146	54733
548.210	52189
548.274	50704
548.339	49957
548.403	44283
548.468	41842
548.532	43239
548.596	44338
548.660	45025
548.725	50224
548.789	54190
548.853	53745
548.917	48880
548.982	54029
549.046	45730
549.110	39643
549.174	41214
549.238	46481
549.303	48548
549.367	51899
549.431	48026
549.495	46504
549.559	47042
549.623	55174
549.687	60361
549.751	66817
549.815	69203
549.879	66719
549.943	63747
550.007	67884
550.071	66648
550.135	65944
550.199	58737
550.263	56737
550.327	56429
550.391	60536
550.455	62646
550.519	65008
550.582	70464
550.646	84782
550.710	81102
550.774	75958
550.838	74824
550.901	78389
550.965	83130
551.029	87275
551.093	96440
551.156	110134
551.220	140464
551.284	142105
551.347	101727
551.411	116412
551.475	105478
551.538	82130
551.602	72800
551.666	70774
551.729	64428
551.793	66304
551.856	63428
551.920	62290
551.983	63869
552.047	62315
552.110	62003
552.174	62781
552.237	63361
552.301	58744
552.364	56657
552.428	55632
552.491	58960
552.554	60585
552.618	60838
552.681	63882
552.745	65432
552.808	85363
552.871	92486
552.934	68580
552.998	59211
553.061	57927
553.124	54815
553.187	56441
553.251	58025
553.314	58101
553.377	57856
553.440	63310
553.503	66208
553.567	66849
553.630	59625
553.693	60492
553.756	59413
553.819	56522
553.882	55313
553.945	56157
554.008	55957
554.071	57229
554.134	55554
554.197	53972
554.260	52101
554.323	55281
554.386	56141
554.449	58270
554.512	55180
554.575	53965
554.638	53617
554.701	52785
554.764	51866
554.827	49362
554.889	47166
554.952	45868
555.015	44546
555.078	46433
555.141	46865
555.203	46384
555.266	45362
555.329	46037
555.391	43798
555.454	44367
555.517	43590
555.580	40874
555.642	39195
555.705	37458
555.768	38970
555.830	36924
555.893	35416
555.955	35369
556.018	35844
556.080	35844
556.143	36206
556.206	35774
556.268	35468
556.330	36079
556.393	34173
556.455	34428
556.518	38466
556.580	35955
556.643	30448
556.705	31089
556.767	28763
556.830	31182
556.892	32404
556.955	37555
557.017	31229
557.079	29655
557.142	29809
557.204	32086
557.266	43831
557.328	34076
557.391	24527
557.453	25663
557.515	26424
557.577	28925
557.639	28817
557.701	26434
557.764	24670
557.826	26373
557.888	28538
557.950	29203
558.012	35651
558.074	51432
558.136	113997
558.198	200173
558.260	54906
558.322	29739
558.384	31344
558.446	33680
558.508	38595
558.570	50562
558.632	77077
558.694	107924
558.756	164894
558.818	482057
558.880	798199
558.942	209753
559.003	210925
559.065	74849
559.127	39842
559.189	44523
559.251	58763
559.312	95894
559.374	240659
559.436	592693
559.498	182519
559.559	43081
559.621	44049
559.683	61871
559.744	110350
559.806	340251
559.868	337857
559.929	59223
559.991	50112
560.052	92516
560.114	214047
560.176	106343
560.237	139306
560.299	160856
560.360	30475
560.422	20337
560.483	18760
560.545	19233
560.606	18531
560.667	17197
560.729	16889
560.790	16555
560.852	16460
560.913	16197
560.974	15887
561.036	15777
561.097	16360
561.158	16531
561.220	16113
561.281	16348
561.342	16706
561.403	20174
561.465	23517
561.526	45984
561.587	43671
561.648	17270
561.709	15133
561.771	15768
561.832	14603
561.893	15143
561.954	15331
562.015	14898
562.076	15433
562.137	15825
562.198	15158
562.259	15317
562.320	15301
562.381	17058
562.442	22118
562.503	16767
562.564	14823
562.625	14991
562.686	15612
562.747	17110
562.808	14690
562.869	15525
562.930	17820
562.991	17172
563.051	15900
563.112	15314
563.173	15146
563.234	13875
563.294	14554
563.355	13994
563.416	14289
563.477	14887
563.537	14879
563.598	15795
563.659	15025
563.720	15337
563.780	15374
563.841	15191
563.901	15358
563.962	13910
564.023	14104
564.083	15648
564.144	15438
564.204	14558
564.265	16471
564.325	18127
564.386	27246
564.446	21707
564.507	14247
564.567	14124
564.628	14145
564.688	14363
564.749	13617
564.809	15862
564.869	17382
564.930	14925
564.990	14281
565.050	14419
565.111	14742
565.171	14483
565.231	14248
565.292	14795
565.352	13872
565.412	14031
565.472	13945
565.532	14931
565.593	13986
565.653	14870
565.713	15115
565.773	16057
565.833	17419
565.893	19815
565.953	14871
566.013	15335
566.074	15778
566.134	20040
566.194	26440
566.254	24429
566.314	16992
566.374	15396
566.434	15476
566.494	16177
566.554	15860
566.614	17224
566.673	16952
566.733	18094
566.793	18609
566.853	19360
566.913	19030
566.973	19750
567.033	20265
567.092	20482
567.152	19266
567.212	19693
567.272	19091
567.331	21457
567.391	20482
567.451	23296
567.511	27804
567.570	25830
567.630	19673
567.690	19515
567.749	20402
567.809	22316
567.868	24361
567.928	26727
567.988	31024
568.047	35777
568.107	46404
568.166	64303
568.226	103743
568.285	129464
568.345	96060
568.404	74261
568.464	61253
568.523	59595
568.582	61520
568.642	74738
568.701	97618
568.761	151420
568.820	228928
568.879	191459
568.939	130860
568.998	91724
569.057	67169
569.116	54308
569.176	43587
569.235	37450
569.294	33021
569.353	28257
569.413	26542
569.472	24740
569.531	21475
569.590	21385
569.649	19404
569.708	18895
569.767	18520
569.827	22094
569.886	17572
569.945	16198
570.004	16972
570.063	17313
570.122	17131
570.181	16880
570.240	18603
570.299	18241
570.358	17785
570.417	14647
570.475	14064
570.534	15316
570.593	15100
570.652	16307
570.711	15817
570.770	14494
570.829	15129
570.887	15148
570.946	15607
571.005	13247
571.064	14104
571.122	16555
571.181	16376
571.240	13787
571.299	13207
571.357	14986
571.416	15082
571.475	15389
571.533	15105
571.592	13727
571.650	14062
571.709	13303
571.768	13052
571.826	13766
571.885	12472
571.943	12872
572.002	12426
572.060	12835
572.119	11767
572.177	12264
572.236	11088
572.294	11327
572.352	12395
572.411	11913
572.469	10798
572.528	12060
572.586	12155
572.644	14417
572.703	16684
572.761	12935
572.819	10792
572.877	10706
572.936	9878
572.994	11733
573.052	10952
573.110	11383
573.169	11674
573.227	11035
573.285	10575
573.343	11408
573.401	11502
573.459	11891
573.517	10748
573.576	11221
573.634	11884
573.692	12622
573.750	11666
573.808	11016
573.866	10651
573.924	13906
573.982	12073
574.040	11167
574.098	10592
574.155	10503
574.213	10268
574.271	10198
574.329	11351
574.387	9354
574.445	10310
574.503	9992
574.560	9635
574.618	9899
574.676	9118
574.734	10419
574.792	9273
574.849	10248
574.907	8974
574.965	9661
575.022	8144
575.080	9465
575.138	10002
575.195	9291
575.253	10470
575.311	11257
575.368	8873
575.426	9967
575.483	9378
575.541	10173
575.598	9341
575.656	8937
575.713	9223
575.771	9474
575.828	9436
575.886	9552
575.943	10155
576.001	10203
576.058	8685
576.115	10973
576.173	11396
576.230	13433
576.287	13413
576.345	10702
576.402	9832
576.459	10026
576.517	10016
576.574	12158
576.631	10371
576.688	10230
576.746	10316
576.803	10375
576.860	9907
576.917	9954
576.974	9515
577.031	9670
577.089	9478
577.146	9538
577.203	9578
577.260	11198
577.317	10030
577.374	12517
577.431	10392
577.488	9907
577.545	9005
577.602	9653
577.659	9458
577.716	10336
577.773	9489
577.830	9203
577.886	9756
577.943	9141
578.000	9371
578.057	10047
578.114	10768
578.171	9353
578.227	9613
578.284	9266
578.341	10783
578.398	10284
578.454	10419
578.511	10711
578.568	11515
578.625	11254
578.681	9541
578.738	10182
578.794	9635
578.851	10626
578.908	10066
578.964	10738
579.021	10909
579.077	10850
579.134	10655
579.190	10733
579.247	9473
579.303	9636
579.360	9218
579.416	9551
579.473	9191
579.529	9645
579.586	9879
579.642	10358
579.698	9272
579.755	9655
579.811	10192
579.867	10304
579.924	9015
579.980	10160
580.036	9498
580.093	9906
580.149	9745
580.205	10060
580.261	9366
580.317	10599
580.374	10564
580.430	12029
580.486	10524
580.542	10344
580.598	10476
580.619	10516
580.654	10597
580.692	10632
580.710	10672
580.765	10515
580.767	10522
580.823	9474
580.838	9837
580.879	10832
580.911	11061
580.935	11258
580.984	10610
580.991	10537
581.047	10225
581.057	10321
581.103	10781
581.130	10532
581.159	10302
581.203	10627
581.215	10728
581.270	10591
581.276	10594
581.326	10684
581.349	10729
581.382	10864
581.422	11262
581.438	11443
581.494	11412
581.494	11402
581.550	11165
581.567	11232
581.606	11418
581.640	11352
581.661	11329
581.713	11771
581.717	11816
581.773	11527
581.786	11362
581.829	10799
581.859	11429
581.885	12057
581.932	11301
581.940	11155
581.996	11644
582.004	11583
582.052	11188
582.077	11388
582.107	11735
582.150	10924
582.163	10653
582.219	11018
582.223	11002
582.274	10952
582.296	11254
582.330	11776
582.368	11353
582.386	11217
582.441	11388
582.441	11390
582.497	11490
582.514	11344
582.552	11228
582.587	11273
582.608	11284
582.659	11342
582.663	11347
582.719	11523
582.732	11400
582.774	11123
582.805	11181
582.830	11186
582.877	11476
582.885	11541
582.941	11201
582.950	11386
582.996	12252
583.023	11950
583.052	11680
583.095	11576
583.107	11536
583.162	11976
583.168	12030
583.218	12485
583.240	11967
583.273	11270
583.313	11538
583.328	11643
583.384	11852
583.385	11822
583.439	10749
583.458	10861
583.494	11187
583.531	11367
583.549	11491
583.603	11406
583.605	11398
583.660	11976
583.676	11935
583.715	11844
583.748	11955
583.770	12014
583.820	12100
583.825	12113
583.881	12569
583.893	12364
583.936	11598
583.965	12000
583.991	12327
584.038	11522
584.046	11375
584.101	12538
584.110	12433
584.156	12149
584.183	12289
584.211	12221
584.255	12134
584.266	12177
584.321	12821
584.328	12733
584.376	11908
584.400	12186
584.431	12551
584.472	12414
584.486	12288
584.541	12716
584.545	12714
584.596	12907
584.617	13303
584.651	14069
584.689	13974
584.706	13768
584.761	14110
584.762	14108
584.816	13528
584.834	13958
584.871	14868
584.906	14433
584.926	14137
584.978	14632
584.980	14655
585.035	14872
585.051	15370
585.090	16502
585.123	16483
585.145	16467
585.195	16765
585.200	16809
585.254	17951
585.267	18467
585.309	19933
585.340	20823
585.364	21551
585.412	24214
585.419	24644
585.473	29348
585.484	30927
585.528	37535
585.556	43863
585.583	52559
585.628	75181
585.637	81754
585.692	168039
585.700	178076
585.747	218381
585.772	167272
585.801	92208
585.845	40976
585.856	33091
585.910	24097
585.917	23264
585.965	20984
585.989	20463
586.019	20256
586.061	20614
586.074	20577
586.128	19918
586.133	19926
586.183	20716
586.205	21159
586.237	21336
586.277	21390
586.292	21508
586.346	20990
586.349	21084
586.401	22501
586.421	22629
586.455	22978
586.493	24418
586.509	25266
586.564	27566
586.565	27768
586.618	36744
586.637	36022
586.672	31527
586.709	28572
586.727	27639
586.781	27020
586.781	27000
586.835	26204
586.853	26342
586.889	25834
586.925	25467
586.944	25789
586.996	26571
586.998	26573
587.052	27847
587.068	28279
587.106	29020
587.140	29512
587.161	30015
587.212	31420
587.215	31442
587.269	32841
587.284	33110
587.323	33815
587.356	34460
587.377	34969
587.427	37175
587.431	37288
587.485	38248
587.499	38566
587.539	39825
587.571	41280
587.593	42387
587.643	45375
587.648	45603
587.702	48122
587.715	48965
587.755	51745
587.786	53541
587.810	55007
587.858	58334
587.864	58768
587.917	64602
587.930	65935
587.971	70283
588.001	74229
588.025	77367
588.073	83385
588.079	84284
588.133	94471
588.145	96829
588.187	105741
588.217	112804
588.241	119179
588.288	132869
588.295	135025
588.348	156503
588.360	161402
588.402	180576
588.431	197095
588.456	212750
588.503	245965
588.510	251335
588.564	303657
588.575	316615
588.617	372946
588.646	417847
588.671	469178
588.718	581366
588.725	604758
588.778	810854
588.789	856676
588.832	1106930
588.861	1269878
588.886	1391430
588.932	1489356
588.939	1472803
588.993	1360528
589.004	1370554
589.047	1396055
589.075	1325171
589.100	1173193
589.147	849117
589.154	819934
589.207	633398
589.218	601916
589.261	552502
589.290	533137
589.314	547170
589.361	592330
589.368	609768
589.421	787599
589.433	831233
589.475	1092132
589.504	1245401
589.528	1308894
589.576	1358646
589.582	1335332
589.635	1218878
589.647	1168413
589.689	867543
589.718	649522
589.742	545707
589.790	367619
589.795	356006
589.849	268683
589.861	250731
589.902	213142
589.932	187687
589.955	172712
590.004	143855
590.009	141565
590.062	121522
590.075	116931
590.115	106532
590.146	99662
590.168	95129
590.218	85149
590.222	84469
590.275	77755
590.289	76035
590.328	71858
590.360	69163
590.381	67129
590.431	62233
590.435	61906
590.488	57774
590.503	56727
590.541	53753
590.574	51489
590.594	50589
590.645	48209
590.647	48076
590.700	46178
590.716	45610
590.753	43688
590.787	42117
590.806	41286
590.859	39378
590.859	39317
590.912	38452
590.930	38326
590.965	37579
591.001	36855
591.018	36269
591.071	34364
591.072	34387
591.124	33472
591.143	33172
591.177	32612
591.214	32186
591.230	32015
591.283	31586
591.285	31603
591.336	30947
591.356	30789
591.389	30802
591.427	30814
591.442	30121
591.495	27648
591.498	27517
591.547	27246
591.569	27130
591.600	26812
591.640	26464
591.653	26314
591.706	25980
591.711	25972
591.759	26148
591.782	26339
591.811	26347
591.853	26469
591.864	26340
591.917	25710
591.924	25650
591.969	25031
591.995	24844
592.022	24392
592.066	23653
592.075	23710
592.127	24324
592.137	24496
592.180	25476
592.208	26143
592.233	24990
592.279	22863
592.285	22790
592.338	22594
592.350	22600
592.390	22223
592.421	22014
592.443	21692
592.491	21137
592.495	21115
592.548	21469
592.562	21624
592.600	21738
592.633	21895
592.653	21620
592.704	20904
592.705	21026
592.775	21233
592.846	20664
592.916	20895
592.987	20964
593.058	20946
593.128	19904
593.199	19285
593.270	18828
593.341	19122
593.411	20061
593.482	19324
593.553	20706
593.623	19392
593.694	19433
593.764	20676
593.835	19173
593.906	18555
593.976	19345
594.047	19698
594.117	21364
594.188	21383
594.258	19314
594.329	19455
594.399	18659
594.470	19498
594.540	19688
594.611	19477
594.681	18776
594.751	19554
594.822	20775
594.892	20339
594.963	20397
595.033	20353
595.103	20677
595.174	20606
595.244	25384
595.314	27219
595.384	21860
595.455	20815
595.525	21768
595.595	21790
595.665	21590
595.736	21751
595.806	21483
595.876	22432
595.946	21309
596.016	20975
596.087	22782
596.157	21697
596.227	22283
596.297	23637
596.367	24245
596.437	25748
596.507	27950
596.577	30663
596.647	25897
596.717	25746
596.787	26528
596.857	26051
596.927	25801
596.997	26002
597.067	26298
597.137	27185
597.207	26878
597.277	27092
597.347	26286
597.417	26483
597.487	26133
597.557	26005
597.626	26487
597.696	27671
597.766	28359
597.836	29810
597.906	25949
597.975	24804
598.045	25292
598.115	24369
598.185	26048
598.254	28993
598.324	30248
598.394	30727
598.464	30494
598.533	29447
598.603	27650
598.672	27229
598.742	28241
598.812	27283
598.881	28336
598.951	26548
599.020	28106
599.090	29166
599.159	29361
599.229	28241
599.299	26083
599.368	28168
599.437	28081
599.507	25844
599.576	26473
599.646	25155
599.715	25661
599.785	25666
599.854	25092
599.924	26160
599.993	24320
600.062	24190
600.132	25190
600.201	26084
600.270	29967
600.340	31212
600.409	29176
600.478	29118
600.547	30668
600.617	27855
600.686	23636
600.755	21850
600.824	21936
600.894	20960
600.963	20689
601.032	20924
601.101	20178
601.170	19497
601.239	19546
601.308	19972
601.378	19960
601.447	19798
601.516	19971
601.585	21271
601.654	20583
601.723	20257
601.792	20466
601.861	21343
601.930	22359
601.999	22274
602.068	21019
602.137	22744
602.206	22943
602.275	21855
602.343	23156
602.412	24073
602.481	22268
602.550	22983
602.619	22841
602.688	23709
602.756	23283
602.825	24071
602.894	23504
602.963	23119
603.032	23602
603.100	24670
603.169	23900
603.238	24415
603.307	24710
603.375	24251
603.444	24449
603.513	24425
603.581	24403
603.650	25842
603.719	23752
603.787	24787
603.856	25695
603.924	26663
603.993	27180
604.061	27382
604.130	28059
604.198	28696
604.267	29417
604.335	29309
604.404	29628
604.472	30451
604.541	30126
604.609	29845
604.678	30822
604.746	31088
604.815	31585
604.883	31588
604.951	32359
605.020	32392
605.088	33551
605.156	33976
605.225	33962
605.293	34371
605.361	33436
605.429	34166
605.498	35494
605.566	36084
605.634	37207
605.702	37693
605.771	38856
605.839	39641
605.907	37597
605.975	37241
606.043	36402
606.111	36678
606.180	36108
606.248	35165
606.316	36029
606.384	35239
606.452	38120
606.520	39650
606.588	37358
606.656	36182
606.724	35831
606.792	34319
606.860	30819
606.928	28751
606.996	27696
607.064	27641
607.132	27664
607.200	29646
607.267	30097
607.335	30875
607.403	31573
607.471	30114
607.539	29562
607.607	29882
607.674	26504
607.742	26610
607.810	27038
607.878	27882
607.946	27082
608.013	27908
608.081	29384
608.149	29711
608.216	29796
608.284	29988
608.352	30356
608.419	29845
608.487	32116
608.555	28949
608.622	30310
608.690	30809
608.757	34363
608.825	34702
608.893	34348
608.960	33952
609.028	33622
609.095	34888
609.163	31409
609.230	29231
609.298	27817
609.365	27329
609.432	29607
609.500	32163
609.567	37197
609.635	40634
609.702	42293
609.769	43013
609.837	34378
609.904	30762
609.971	31433
610.039	37942
610.106	50798
610.173	97038
610.241	227239
610.308	179077
610.375	88644
610.442	39278
610.509	32085
610.577	32193
610.644	30726
610.711	31054
610.778	31764
610.845	32113
610.912	33943
610.980	34939
611.047	34875
611.114	35028
611.181	33209
611.248	32321
611.315	35553
611.382	34850
611.449	37309
611.516	39289
611.583	38359
611.650	37732
611.717	38620
611.784	39248
611.851	41267
611.918	46862
611.984	55949
612.051	83144
612.118	173125
612.185	423630
612.252	263290
612.319	65924
612.386	50692
612.452	46044
612.519	43275
612.586	45234
612.653	43661
612.719	44541
612.786	41956
612.853	39368
612.919	37135
612.986	38991
613.053	35702
613.120	33648
613.186	33030
613.253	34560
613.319	34274
613.386	33605
613.453	34470
613.519	36616
613.586	36002
613.652	40924
613.719	37653
613.785	37156
613.852	34649
613.918	34103
613.985	35102
614.051	35765
614.118	37946
614.184	34771
614.250	34029
614.317	35482
614.383	33635
614.449	34164
614.516	35229
614.582	34562
614.648	33018
614.715	34827
614.781	33661
614.847	33074
614.914	34191
614.980	33787
615.046	33832
615.112	34217
615.179	34532
615.245	36863
615.311	40044
615.377	52449
615.443	53743
615.509	42945
615.575	40072
615.642	38504
615.708	39525
615.774	42499
615.840	46019
615.906	55180
615.972	76750
616.038	132956
616.104	247933
616.170	526899
616.236	437742
616.302	100709
616.368	67087
616.434	50167
616.500	46695
616.565	50575
616.631	60960
616.697	50122
616.763	52190
616.829	76018
616.895	132965
616.961	124276
617.026	55892
617.092	39202
617.158	36557
617.224	35940
617.289	33976
617.355	31962
617.421	32152
617.487	32990
617.552	30266
617.618	30016
617.684	29083
617.749	31985
617.815	28575
617.880	27824
617.946	28501
618.012	29107
618.077	30116
618.143	28942
618.208	28240
618.274	30675
618.339	31136
618.405	24859
618.470	26175
618.536	26656
618.601	27450
618.667	24893
618.732	23253
618.798	23200
618.863	22991
618.928	23267
618.994	24237
619.059	24669
619.124	27498
619.190	25752
619.255	22574
619.320	24402
619.386	23585
619.451	22599
619.516	22619
619.581	23506
619.647	22668
619.712	24092
619.777	23401
619.842	22804
619.907	22715
619.972	22889
620.038	23176
620.103	23133
620.168	21442
620.233	23645
620.298	22227
620.363	23121
620.428	24032
620.493	24363
620.558	23758
620.623	24832
620.688	23368
620.753	24065
620.818	23928
620.883	24230
620.948	24762
621.013	24904
621.078	22854
621.143	22770
621.207	25628
621.272	23345
621.337	24502
621.402	24307
621.467	26069
621.532	26345
621.596	25160
621.661	23344
621.726	23323
621.791	23254
621.855	24664
621.920	24963
621.985	24204
622.049	25835
622.114	24960
622.179	25030
622.243	24123
622.308	24923
622.373	27980
622.437	27271
622.502	24411
622.566	24891
622.631	23923
622.695	25722
622.760	24767
622.824	25438
622.889	25163
622.953	26078
623.018	31464
623.082	30856
623.147	25879
623.211	25773
623.276	25145
623.340	23323
623.404	23299
623.469	23146
623.533	24644
623.597	23259
623.662	23069
623.726	20970
623.790	20733
623.854	20183
623.919	20797
623.983	20936
624.047	20831
624.111	21422
624.176	21755
624.240	21974
624.304	25556
624.368	21640
624.432	21307
624.496	22092
624.560	23504
624.625	24096
624.689	23320
624.753	23933
624.817	22501
624.881	21186
624.945	19520
625.009	21607
625.073	21236
625.137	21853
625.201	23847
625.265	23853
625.329	20628
625.393	21780
625.456	21355
625.520	21964
625.584	23216
625.648	25462
625.712	30001
625.776	46158
625.839	50202
625.903	25917
625.967	19127
626.031	26454
626.095	34763
626.158	22202
626.222	15998
626.286	16903
626.349	15776
626.413	14783
626.477	16739
626.540	15064
626.604	13801
626.668	15920
626.731	13576
626.795	14934
626.858	13871
626.922	13511
626.986	14395
627.049	13094
627.113	14604
627.176	14167
627.240	14267
627.303	13635
627.366	13690
627.430	14159
627.493	13093
627.557	12938
627.620	14709
627.684	13221
627.747	13623
627.810	10878
627.874	12103
627.937	10997
628.000	13865
628.064	12622
628.127	9933
628.190	11648
628.253	11544
628.317	10046
628.380	10334
628.443	10110
628.506	9998
628.569	10383
628.632	9168
628.696	10412
628.759	9772
628.822	9177
628.885	9035
628.948	9343
629.011	9391
629.074	8461
629.137	7852
629.200	8176
629.263	9677
629.326	6937
629.389	8446
629.452	8934
629.515	9281
629.578	9072
629.641	8997
629.704	8794
629.767	8405
629.830	8577
629.892	7897
629.955	7542
630.018	9579
630.081	7217
630.144	9910
630.207	7330
630.269	8936
630.332	8324
630.395	7255
630.458	7261
630.520	6340
630.583	8012
630.646	7629
630.708	7404
630.771	6709
630.834	8390
630.896	6827
630.959	7971
631.021	6732
631.084	6880
631.146	9026
631.209	8897
631.272	7412
631.334	8028
631.397	7233
631.459	7429
631.522	8247
631.584	7580
631.646	8466
631.709	9509
631.771	9048
631.834	9010
631.896	7689
631.958	7212
632.021	8841
632.083	6815
632.145	6752
632.208	6572
632.270	7556
632.332	6915
632.395	6631
632.457	7926
632.519	6932
632.581	8194
632.643	6083
632.706	7385
632.768	6181
632.830	7530
632.892	7126
632.954	6414
633.016	7444
633.078	7091
633.141	7489
633.203	7039
633.265	7925
633.327	7219
633.389	5760
633.451	8651
633.513	8299
633.575	8016
633.637	7044
633.698	7538
633.760	7120
633.822	7951
633.884	7810
633.946	7046
634.008	6750
634.070	7446
634.132	7668
634.193	8458
634.255	9428
634.317	8988
634.379	9533
634.441	7600
634.502	7708
634.564	7170
634.626	6771
634.687	6871
634.749	6696
634.811	7335
634.873	5319
634.934	6047
634.996	6856
635.057	6080
635.119	5995
635.181	7230
635.242	6843
635.304	5205
635.365	8890
635.427	6361
635.488	6545
635.550	5401
635.611	7251
635.673	4569
635.734	7670
635.796	6753
635.857	8533
635.918	7136
635.980	9606
636.041	8204
636.102	9399
636.164	8905
636.225	9993
636.286	6740
636.348	9018
636.409	6568
636.470	6283
636.531	7089
636.593	6814
636.654	6755
636.715	6939
636.776	5621
636.838	5283
636.899	6398
636.960	4499
637.021	5421
637.082	5102
637.143	5669
637.204	5045
637.265	4277
637.326	5208
637.387	5398
637.448	4310
637.509	5082
637.570	5176
637.631	6060
637.692	4678
637.753	3982
637.814	5252
637.875	4862
637.936	6037
637.997	5027
638.058	5339
638.119	6026
638.179	5151
638.240	4770
638.301	5325
638.362	4093
638.423	4271
638.483	5797
638.544	3641
638.605	4844
638.666	4322
638.726	5204
638.787	5986
638.848	4527
638.908	4221
638.969	3889
639.030	4121
639.090	3501
639.151	4615
639.211	4887
639.272	5926
639.332	8344
639.393	5486
639.453	4494
639.514	4857
639.574	4338
639.635	3580
639.695	3697
639.756	4086
639.816	4423
639.877	4957
639.937	6964
639.997	8688
640.058	4038
640.118	3101
640.178	5404
640.239	3920
640.299	3846
640.359	4039
640.420	5045
640.480	5169
640.540	4061
640.600	5280
640.661	4040
640.721	4264
640.781	5679
640.841	3688
640.901	5431
640.961	4437
641.021	5035
641.082	4133
641.142	5616
641.202	5539
641.262	2339
641.322	4802
641.382	3274
641.442	4976
641.502	4107
641.562	4793
641.622	3880
641.682	4420
641.742	4088
641.802	4672
641.861	4163
641.921	3872
641.981	5878
642.041	4782
642.101	5152
642.161	2951
642.221	4676
642.280	3107
642.340	3484
642.400	2927
642.460	5066
642.519	3329
642.579	3203
642.639	4095
642.698	1322
642.758	5984
642.818	3712
642.877	3302
642.937	3435
642.997	4434
643.056	6146
643.116	2921
643.175	5578
643.235	4153
643.294	4541
643.354	4596
643.414	5229
643.473	5904
643.532	7443
643.592	10042
643.651	16812
643.711	31476
643.770	61456
643.830	145650
643.889	315383
643.948	74200
644.008	11364
644.067	6814
644.126	5136
644.186	5279
644.245	5256
644.304	2423
644.363	5429
644.423	2885
644.482	4369
644.541	4376
644.600	2501
644.659	5255
644.719	5541
644.778	8330
644.837	15452
644.896	31496
644.955	73917
645.014	24592
645.073	6485
645.132	4345
645.191	5098
645.250	3695
645.309	5041
645.368	4206
645.427	5897
645.486	7594
645.545	15203
645.604	5252
645.663	4049
645.722	3834
645.781	5065
645.840	6094
645.898	6273
645.957	9981
646.016	14974
646.075	28862
646.134	56474
646.192	148004
646.251	220766
646.310	32041
646.369	8448
646.427	7219
646.486	3067
646.545	4583
646.603	3747
646.662	3993
646.721	3767
646.779	2950
646.838	3204
646.896	5572
646.955	5650
647.014	9152
647.072	16486
647.131	45932
647.189	21838
647.248	4403
647.306	2841
647.365	3844
647.423	1172
647.481	3877
647.540	1677
647.598	3630
647.657	2491
647.715	3364
647.773	2051
647.832	2922
647.890	1165
647.948	2009
648.007	3075
648.065	1040
648.123	2458
648.181	2984
648.240	2993
648.298	1743
648.356	1783
648.414	2539
648.472	2373
648.531	3060
648.589	2240
648.647	1489
648.705	2824
648.763	2573
648.821	2590
648.879	2267
648.937	2921
648.995	3500
649.053	4822
649.111	7868
649.169	13176
649.227	21745
649.285	44600
649.343	129254
649.401	63504
649.459	13004
649.516	8302
649.574	2560
649.632	5138
649.690	4791
649.748	5773
649.806	5906
649.863	11908
649.921	32305
649.979	22137
650.037	4290
650.094	1956
650.152	2290
650.210	1057
650.268	2727
650.325	1740
650.383	2496
650.440	1521
650.498	3086
650.556	1393
650.613	1879
650.671	1394
650.728	1759
650.786	2721
650.843	3159
650.901	499
650.958	2666
651.016	1938
651.073	1659
651.131	1116
651.188	249
651.246	2430
651.303	1101
651.360	1852
651.418	1380
651.475	1922
651.532	502
651.590	2069
651.647	848
651.704	789
651.762	913
651.819	1418
651.876	1287
651.933	1795
651.990	2511
652.048	659
652.105	882
652.162	1709
652.219	832
652.276	1204
652.333	1697
652.390	959
652.448	934
652.505	1002
652.562	1078
652.619	1512
652.676	2047
652.733	2716
652.790	675
652.847	-384
652.904	1347
652.961	278
653.017	1199
653.074	2493
653.131	1605
653.188	475
653.245	1296
653.302	1309
653.359	1108
653.415	1695
653.472	424
653.529	1677
653.586	351
653.642	1132
653.699	2159
653.756	1036
653.813	528
653.869	1425
653.926	258
653.983	1125
654.039	1468
654.096	1020
654.152	2022
654.209	134
654.266	2584
654.322	791
654.379	1450
654.435	1697
654.492	932
654.548	1901
654.605	1914
654.661	1772
654.717	634
654.774	1898
654.830	1452
654.887	1031
654.943	999
655.000	1280
655.056	977
655.112	1479
655.168	-43
655.225	860
655.281	1664
655.337	2045
655.394	2944
655.450	2517
655.506	1423
655.562	2934
655.618	2617
655.675	-56
655.731	652
655.787	834
655.843	1182
655.899	635
655.955	1126
656.011	1225
656.067	690
656.123	1308
656.179	1324
656.235	1494
656.291	35
656.347	1813
656.403	692
656.459	72
656.515	1472
656.571	953
656.627	713
656.683	1026
656.739	1307
656.795	1291
656.850	801
656.906	1974
656.962	1465
657.018	1108
657.074	1311
657.129	1298
657.185	1941
657.241	4030
657.297	2040
657.352	1505
657.408	722
657.464	1645
657.519	546
657.575	22
657.630	349
657.686	902
657.742	10
657.797	836
657.853	944
657.908	1097
657.964	393
658.019	1575
658.075	620
658.130	1280
658.186	-165
658.241	322
658.297	-352
658.352	1092
658.407	1138
658.463	6
658.518	829
658.573	1939
658.629	395
658.684	1118
658.739	1262
658.795	415
658.850	1469
658.905	-21
658.960	785
659.016	-162
659.071	493
659.126	738
659.181	886
659.236	2860
659.291	2800
659.346	746
659.401	53
659.457	1081
659.512	263
659.567	1252
659.622	693
659.677	827
659.732	740
659.787	314
659.842	690
659.897	1356
659.952	476
660.007	673
660.061	828
660.116	636
660.171	-77
660.226	996
660.281	1195
660.336	-46
660.391	1459
660.445	-50
660.500	1005
660.555	1077
660.610	-306
660.664	1318
660.719	1082
660.774	1928
660.828	115
660.883	1033
660.938	1061
660.992	-120
661.047	504
661.101	379
661.156	59
661.211	630
661.265	721
661.320	123
661.374	949
661.429	287
661.483	780
661.538	-706
661.592	262
661.647	-28
661.701	640
661.755	281
661.810	1239
661.864	808
661.919	260
661.973	1095
662.027	868
662.081	-140
662.136	348
662.190	354
662.244	1318
662.299	259
662.353	562
662.407	425
662.461	127
662.515	1027
662.569	482
662.624	1561
662.678	296
662.732	226
662.786	480
662.840	967
662.894	7
662.948	948
663.002	394
663.056	1463
663.110	-398
663.164	551
663.218	1259
663.272	411
663.326	484
663.380	863
663.434	883
663.488	558
663.542	757
663.595	808
663.649	895
663.703	1172
663.757	796
663.811	415
663.864	-400
663.918	149
663.972	-426
664.026	940
664.079	152
664.133	1519
664.187	644
664.240	471
664.294	213
664.348	722
664.401	1005
664.455	1040
664.508	738
664.562	-81
664.615	1117
664.669	111
664.722	1311
664.776	506
664.829	600
664.883	650
664.936	327
664.990	893
665.043	539
665.097	512
665.150	1960
665.203	581
665.257	330
665.310	1320
665.363	1011
665.417	1176
665.470	135
665.523	433
665.576	1365
665.630	122
665.683	-187
665.736	1173
665.789	1042
665.842	610
665.895	427
665.949	500
666.002	510
666.055	38
666.108	1852
666.161	1310
666.214	700
666.267	434
666.320	978
666.373	1219
666.426	1145
666.479	507
666.532	381
666.585	927
666.638	1302
666.691	1041
666.744	1114
666.796	412
666.849	745
666.902	1281
666.955	565
667.008	192
667.060	173
667.113	661
667.166	797
667.219	1236
667.271	1313
667.324	1153
667.377	751
667.430	1495
667.482	827
667.535	1318
667.587	1258
667.640	1316
667.693	1537
667.745	1363
667.798	2128
667.850	725
667.903	1250
667.955	681
668.008	1177
668.060	1288
668.113	236
668.165	642
668.218	1071
668.270	1067
668.322	1438
668.375	962
668.427	595
668.479	825
668.532	1088
668.584	825
668.636	1259
668.689	1228
668.741	506
668.793	1256
668.845	476
668.898	1370
668.950	895
669.002	679
669.054	884
669.106	1036
669.158	1293
669.211	765
669.263	1272
669.315	2120
669.367	888
669.419	620
669.471	911
669.523	1568
669.575	1627
669.627	1282
669.679	1361
669.731	1411
669.783	1425
669.835	1761
669.886	1746
669.938	1310
669.990	1171
670.042	817
670.094	2792
670.146	2300
670.197	2831
670.249	3930
670.301	5405
670.353	7036
670.404	10921
670.456	16968
670.508	27094
670.560	43801
670.611	73958
670.663	130465
670.715	304548
670.766	482298
670.818	178162
670.869	34783
670.921	15556
670.972	10583
671.024	7342
671.075	5344
671.127	4155
671.178	3374
671.230	3377
671.281	2596
671.333	2791
671.384	2249
671.436	2880
671.487	2778
671.538	3726
671.590	5188
671.641	8079
671.692	13097
671.744	23865
671.795	18292
671.846	5932
671.897	3245
671.949	2754
672.000	2204
672.051	2017
672.102	2136
672.153	658
672.204	2071
672.256	1845
672.307	1533
672.358	1258
672.409	530
672.460	1898
672.511	1081
672.562	-75
672.613	476
672.664	870
672.715	603
672.766	996
672.817	230
672.868	580
672.919	914
672.970	310
673.021	435
673.071	151
673.122	1069
673.173	711
673.224	669
673.275	493
673.326	789
673.376	1336
673.427	314
673.478	546
673.528	708
673.579	1282
673.630	360
673.680	1202
673.731	693
673.782	504
673.832	191
673.883	1237
673.934	459
673.984	512
674.035	-169
674.085	659
674.136	1028
674.186	908
674.237	1930
674.287	1225
674.338	345
674.388	827
674.438	665
674.489	698
674.539	810
674.589	348
674.640	925
674.690	1087
674.740	513
674.791	1203
674.841	1212
674.891	1641
674.942	822
674.992	253
675.042	578
675.092	162
675.142	161
675.193	-205
675.243	881
675.293	1076
675.343	600
675.393	322
675.443	454
675.493	800
675.543	-781
675.593	-244
675.643	664
675.693	1010
675.743	222
675.793	372
675.843	698
675.893	137
675.943	546
675.993	173
676.043	330
676.093	372
676.142	364
676.192	965
676.242	59
676.292	-4
676.341	86
676.391	136
676.441	-80
676.491	208
676.540	17
676.590	369
676.640	4
676.689	539
676.739	-569
676.789	190
676.838	-263
676.888	-161
676.937	283
676.987	-402
677.037	575
677.086	666
677.136	1212
677.185	-45
677.235	26
677.284	-8
677.333	-644
677.383	-205
677.432	-126
677.482	468
677.531	373
677.580	-277
677.630	4
677.679	714
677.728	-467
677.778	-17
677.827	1505
677.876	165
677.925	429
677.975	-451
678.024	434
678.073	324
678.122	-473
678.171	-326
678.220	543
678.269	577
678.319	299
678.368	243
678.417	1102
678.466	784
678.515	887
678.564	81
678.613	527
678.662	-232
678.711	493
678.760	-78
678.809	-53
678.857	-512
678.906	302
678.955	207
679.004	561
679.053	-3
679.102	-314
679.151	-126
679.199	355
679.248	661
679.297	512
679.346	-5
679.394	-168
679.443	257
679.492	100
679.540	666
679.589	419
679.638	160
679.686	462
679.735	14
679.784	-297
679.832	-366
679.881	50
679.929	778
679.978	-535
680.026	445
680.075	316
680.123	122
680.172	60
680.220	-588
680.268	-417
680.317	62
680.365	-47
680.414	-393
680.462	-216
680.510	450
680.559	-710
680.607	89
680.655	205
680.703	41
680.752	-901
680.800	-904
680.848	724
680.896	-801
680.945	-265
680.993	-626
681.041	4
681.089	-94
681.137	81
681.185	-862
681.233	-174
681.258	129
681.281	402
681.329	433
681.377	-105
681.380	-61
681.425	490
681.473	508
681.502	359
681.521	225
681.569	710
681.617	-331
681.624	-277
681.665	-25
681.713	629
681.745	637
681.761	626
681.809	302
681.857	907
681.867	882
681.904	740
681.952	369
681.989	563
682.000	602
682.048	449
682.096	-440
682.111	-110
682.143	551
682.191	1206
682.233	1034
682.239	990
682.286	710
682.334	105
682.354	248
682.382	431
682.430	335
682.476	436
682.477	426
682.525	-431
682.572	166
682.598	287
682.620	389
682.667	866
682.715	859
682.720	897
682.763	1083
682.810	1185
682.841	793
682.857	581
682.905	228
682.952	997
682.963	906
683.000	510
683.047	892
683.085	1785
683.095	2014
683.142	808
683.190	1324
683.206	985
683.237	384
683.284	1023
683.328	1660
683.332	1696
683.379	714
683.426	437
683.449	523
683.473	631
683.521	1577
683.568	1037
683.571	1081
683.615	1486
683.662	951
683.693	745
683.709	631
683.757	930
683.804	1253
683.814	1288
683.851	1329
683.898	1408
683.936	1009
683.945	903
683.992	1551
684.039	1486
684.057	1300
684.086	1048
684.133	1828
684.179	1684
684.180	1664
684.227	1970
684.274	1796
684.300	1919
684.321	2020
684.368	1257
684.415	2196
684.422	2085
684.462	1394
684.509	1090
684.543	1220
684.556	1259
684.603	1616
684.649	1595
684.665	1609
684.696	1613
684.743	1403
684.786	1992
684.790	2044
684.837	1693
684.883	1969
684.908	2348
684.930	2600
684.977	2058
685.023	1417
685.029	1511
685.070	2239
685.117	2131
685.150	2242
685.164	2274
685.210	2335
685.257	2531
685.272	2561
685.303	2525
685.350	2282
685.393	2308
685.396	2319
685.443	2571
685.490	2616
685.514	2913
685.536	3079
685.583	2448
685.629	2987
685.636	2910
685.675	2465
685.722	2776
685.757	3077
685.768	3190
685.815	2853
685.861	3378
685.878	3234
685.908	2989
685.954	3003
686.000	2891
686.000	2884
686.047	2779
686.093	3192
686.121	3377
686.139	3488
686.185	2438
686.232	2552
686.242	2640
686.278	2943
686.324	2827
686.363	2472
686.370	2404
686.416	2173
686.463	3028
686.484	2757
686.509	2546
686.555	2848
686.601	2813
686.606	2883
686.647	3222
686.693	2692
686.727	2642
686.739	2685
686.785	2291
686.831	2413
686.848	2529
686.877	2714
686.923	2827
686.969	3185
686.969	3187
687.015	2621
687.061	3014
687.090	2894
687.107	2808
687.153	3390
687.199	2966
687.211	2918
687.245	2826
687.291	2995
687.332	3147
687.336	3163
687.382	3260
687.428	3503
687.453	3593
687.474	3577
687.520	3168
687.565	3341
687.574	3242
687.611	3033
687.657	2784
687.695	3156
687.702	3259
687.748	3562
687.794	4090
687.816	3968
687.839	3585
687.885	3711
687.931	3579
687.937	3444
687.976	2818
688.022	3224
688.058	3544
688.067	3656
688.113	3435
688.158	3475
688.179	3543
688.204	3581
688.249	3709
688.295	3946
688.300	3930
688.340	3906
688.386	3717
688.421	3559
688.431	3490
688.477	3745
688.522	4026
688.542	3728
688.567	3427
688.613	4193
688.658	3787
688.663	3825
688.703	4075
688.749	3871
688.784	3453
688.794	3326
688.839	3754
688.884	3113
688.905	3212
688.930	3472
688.975	3827
689.020	3649
689.026	3682
689.065	3828
689.110	3742
689.146	3748
689.155	3733
689.201	3798
689.246	3914
689.267	3821
689.291	3765
689.336	3878
689.381	3579
689.388	3576
689.426	3712
689.471	3708
689.509	3749
689.516	3745
689.561	4052
689.606	4046
689.630	4117
689.651	4233
689.696	3734
689.741	4100
689.750	4051
689.785	3716
689.830	3687
689.871	3490
689.875	3503
689.920	3800
689.965	3783
689.992	3892
690.010	3948
690.054	3959
690.099	3872
690.112	4032
690.144	4407
690.189	4305
690.233	3566
690.233	3569
690.278	3791
690.323	4207
690.354	3836
690.367	3700
690.412	4172
690.457	4237
690.474	4102
690.501	3810
690.546	3960
690.590	4305
690.595	4214
690.635	3772
690.680	3917
690.716	3891
690.724	3868
690.769	3859
690.813	4445
690.836	4322
690.857	4314
690.902	4605
690.946	4500
690.957	4613
690.991	4970
691.035	4794
691.077	5236
691.080	5260
691.124	4803
691.168	4994
691.198	4773
691.213	4674
691.257	4667
691.301	4618
691.318	4585
691.346	4561
691.390	4225
691.434	4267
691.439	4271
691.478	4544
691.522	4586
691.559	4453
691.567	4450
691.611	4874
691.655	5071
691.680	4952
691.699	4749
691.743	5158
691.787	4461
691.800	4464
691.831	4704
691.875	4780
691.919	5024
691.921	5006
691.964	4831
692.008	5061
692.041	5080
692.052	5054
692.096	5305
692.139	5115
692.162	5053
692.183	4992
692.227	5013
692.271	4853
692.282	4812
692.315	4923
692.359	5231
692.402	5093
692.403	5103
692.447	5124
692.490	5197
692.523	4939
692.534	4936
692.578	5453
692.622	5718
692.643	5682
692.666	5472
692.709	5229
692.753	4906
692.763	4900
692.797	5077
692.840	4856
692.884	4763
692.884	4777
692.928	5148
692.971	5224
693.004	5379
693.015	5435
693.059	5415
693.102	5622
693.124	5772
693.146	5735
693.189	5217
693.233	4869
693.245	4787
693.276	4994
693.320	5528
693.363	5360
693.365	5345
693.407	5152
693.450	5447
693.485	5474
693.493	5493
693.537	5545
693.580	5131
693.605	5234
693.624	5396
693.667	5462
693.710	5521
693.725	5532
693.753	6044
693.797	6827
693.840	8058
693.845	8074
693.883	7159
693.926	7071
693.966	6178
693.970	6140
694.013	6071
694.056	6024
694.086	5918
694.099	5931
694.142	5771
694.185	5960
694.206	5868
694.229	5908
694.272	6026
694.315	6115
694.326	6130
694.358	6038
694.401	5881
694.444	6126
694.446	6093
694.487	6069
694.530	6422
694.566	6491
694.573	6416
694.616	6012
694.659	5423
694.686	5023
694.702	5036
694.745	5262
694.787	5310
694.806	5468
694.830	5693
694.873	5541
694.916	5593
694.926	5621
694.959	5612
695.002	5366
695.044	5060
695.046	5043
695.087	5365
695.130	5389
695.166	5634
695.172	5665
695.215	5733
695.258	5611
695.286	5438
695.301	5451
695.343	5920
695.386	6204
695.406	6276
695.428	6277
695.471	6110
695.514	6119
695.526	6096
695.556	6237
695.599	6407
695.641	6680
695.646	6660
695.684	6237
695.726	6151
695.766	5648
695.769	5655
695.811	5807
695.854	5717
695.886	5878
695.896	5970
695.938	6026
695.981	6072
696.005	6128
696.023	6160
696.065	6286
696.108	6360
696.125	6272
696.150	6149
696.192	6284
696.235	6099
696.245	6102
696.277	6115
696.319	5868
696.361	5773
696.365	5734
696.404	5738
696.446	5888
696.485	5979
696.488	6005
696.530	6014
696.572	6145
696.604	6190
696.614	6214
696.656	6277
696.698	6323
696.724	6256
696.740	6369
696.783	6745
696.825	7088
696.844	7242
696.867	7157
696.909	6812
696.951	6536
696.964	6441
696.992	6285
697.034	6159
697.076	5805
697.083	5740
697.118	5984
697.160	6222
697.202	6518
697.203	6506
697.244	6369
697.286	6110
697.323	5883
697.327	5934
697.369	6312
697.411	6622
697.442	6824
697.453	6813
697.494	6607
697.536	6520
697.562	6426
697.578	6545
697.620	6758
697.661	7094
697.682	7164
697.703	7252
697.744	7480
697.786	7792
697.801	7827
697.828	7853
697.869	7804
697.911	7840
697.921	7822
697.952	7572
697.994	7257
698.035	6974
698.040	6905
698.077	6936
698.118	6995
698.160	7081
698.160	7059
698.201	7245
698.243	7396
698.279	7551
698.284	7560
698.325	7404
698.367	7268
698.399	7108
698.408	7107
698.449	7011
698.491	6925
698.518	6852
698.532	7003
698.573	7384
698.614	7793
698.638	7995
698.656	7900
698.697	7623
698.738	7335
698.757	7185
698.779	7326
698.820	7541
698.862	7768
698.877	7828
698.903	7968
698.944	8148
698.985	8341
698.996	8368
699.026	8029
699.067	7534
699.116	6921
699.235	6886
699.354	7611
699.474	6986
699.593	8111
699.713	7785
699.832	7545
699.951	7414
700.070	7778
700.190	7383
700.309	7524
700.428	7153
700.547	7128
700.667	6652
700.786	7207
700.905	6563
701.024	7674
701.143	6565
701.262	6422
701.381	6505
701.500	7173
701.619	6489
701.738	6819
701.857	6714
701.976	6506
702.095	6076
702.214	7334
702.333	6363
702.452	6918
702.571	6402
702.690	6558
702.809	5989
702.928	6933
703.047	5992
703.165	6490
703.284	6035
703.403	5793
703.522	6772
703.640	6031
703.759	6503
703.878	8886
703.997	5876
704.115	6625
704.234	6306
704.353	7289
704.471	6466
704.590	5404
704.708	5424
704.827	6441
704.946	5350
705.064	6475
705.183	6127
705.301	6692
705.420	8890
705.538	8170
705.656	6159
705.775	5736
705.893	6387
706.012	7736
706.130	7013
706.249	7365
706.367	7151
706.485	7791
706.604	7112
706.722	7063
706.840	8221
706.958	8806
707.077	6908
707.195	6475
707.313	6644
707.431	6776
707.549	6863
707.668	6020
707.786	5759
707.904	6321
708.022	6738
708.140	7202
708.258	6140
708.376	6001
708.494	6102
708.612	5860
708.730	8972
708.848	8265
708.966	7462
709.084	7325
709.202	7084
709.320	7367
709.438	7121
709.556	8231
709.674	7520
709.791	6663
709.909	6871
710.027	7423
710.145	7211
710.263	7625
710.380	7662
710.498	7843
710.616	6995
710.733	7390
710.851	6266
710.969	7490
711.086	6077
711.204	6717
711.322	7002
711.439	7218
711.557	6213
711.674	6634
711.792	5722
711.909	6850
712.027	7251
712.144	6464
712.262	6228
712.379	7005
712.497	9413
712.614	9116
712.732	8027
712.849	8139
712.966	8108
713.084	9221
713.201	8183
713.318	7887
713.436	8258
713.553	9040
713.670	9294
713.787	9100
713.905	8563
714.022	8662
714.139	7075
714.256	9465
714.373	12179
714.490	19052
714.608	41524
714.725	176251
714.842	197839
714.959	16515
715.076	9090
715.193	7913
715.310	7461
715.427	7699
715.544	6413
715.661	6963
715.778	6967
715.895	7168
716.011	8124
716.128	6966
716.245	6756
716.362	8117
716.479	7394
716.596	7473
716.713	6524
716.829	6207
716.946	6946
717.063	6462
717.180	5504
717.296	6281
717.413	6442
717.530	5998
717.646	5750
717.763	6861
717.880	5843
717.996	5672
718.113	6319
718.229	5871
718.346	5435
718.462	5390
718.579	6618
718.695	8866
718.812	7863
718.928	8088
719.045	5963
719.161	5914
719.277	4562
719.394	5354
719.510	5988
719.626	5185
719.743	7070
719.859	8522
719.975	13839
720.092	48283
720.208	115548
720.324	15552
720.440	6214
720.557	6757
720.673	8617
720.789	10677
720.905	19594
721.021	8576
721.137	5682
721.253	6000
721.369	5648
721.486	6417
721.602	7406
721.718	6080
721.834	4677
721.950	5318
722.066	4457
722.181	5196
722.297	4805
722.413	5495
722.529	4687
722.645	5194
722.761	4383
722.877	4496
722.993	5158
723.108	5306
723.224	4762
723.340	4478
723.456	3990
723.571	5152
723.687	3806
723.803	4693
723.918	3287
724.034	4200
724.150	3985
724.265	4911
724.381	8591
724.497	10829
724.612	3932
724.728	4690
724.843	3848
724.959	4959
725.074	7348
725.190	8824
725.305	4591
725.421	4302
725.536	4119
725.651	3708
725.767	4163
725.882	3943
725.997	4633
726.113	3839
726.228	3299
726.343	4214
726.459	2878
726.574	4331
726.689	2915
726.804	4073
726.920	3108
727.035	3459
727.150	3592
727.265	3112
727.380	3862
727.495	4832
727.610	3411
727.725	3399
727.841	3415
727.956	3585
728.071	3450
728.186	2722
728.301	2766
728.416	4077
728.531	3374
728.645	3591
728.760	3761
728.875	4060
728.990	2438
729.105	3815
729.220	3068
729.335	3626
729.449	3212
729.564	2915
729.679	2338
729.794	3219
729.908	3778
730.023	3569
730.138	3106
730.253	3254
730.367	2720
730.482	3555
730.596	2720
730.711	3994
730.826	3114
730.940	3974
731.055	3789
731.169	2898
731.284	2281
731.398	2987
731.513	2740
731.627	3871
731.742	4049
731.856	4663
731.970	3372
732.085	3438
732.199	4493
732.313	7934
732.428	17856
732.542	58960
732.656	35162
732.771	7351
732.885	4354
732.999	4252
733.113	4115
733.227	4023
733.342	2836
733.456	2879
733.570	3272
733.684	2977
733.798	2864
733.912	3369
734.026	3303
734.140	3803
734.254	3599
734.368	4580
734.482	6104
734.596	3540
734.710	2529
734.824	2867
734.938	3245
735.052	3462
735.166	3699
735.280	3444
735.393	2677
735.507	3229
735.621	3943
735.735	5606
735.849	3225
735.962	3045
736.076	3864
736.190	3506
736.303	3826
736.417	4418
736.531	3145
736.644	2984
736.758	2365
736.872	2078
736.985	2324
737.099	3260
737.212	2396
737.326	2864
737.439	2606
737.553	2856
737.666	2519
737.780	2762
737.893	1770
738.007	2639
738.120	2392
738.233	2634
738.347	1933
738.460	3061
738.573	2711
738.687	3856
738.800	2646
738.913	3945
739.026	3296
739.140	3151
739.253	2356
739.366	2030
739.479	2401
739.592	3000
739.705	2723
739.818	3159
739.932	2723
740.045	3355
740.158	2200
740.271	3255
740.384	2043
740.497	2191
740.610	2869
740.723	2361
740.836	2917
740.949	2574
741.062	3482
741.174	3460
741.287	2928
741.400	2869
741.513	2593
741.626	2578
741.739	2072
741.851	2363
741.964	2645
742.077	1779
742.189	1806
742.302	2369
742.415	2494
742.527	2315
742.640	2310
742.753	3213
742.865	1971
742.978	1824
743.090	1763
743.203	1857
743.316	1025
743.428	2182
743.541	2008
743.653	1976
743.766	2361
743.878	1494
743.990	2240
744.103	2561
744.215	1628
744.327	1837
744.440	3692
744.552	3760
744.664	1758
744.777	1859
744.889	1612
745.001	2350
745.113	1152
745.226	2056
745.338	2007
745.450	2299
745.562	1313
745.674	2381
745.786	2484
745.898	2386
746.010	1894
746.122	2134
746.234	1814
746.347	2445
746.459	2131
746.570	1669
746.682	2173
746.794	1928
746.906	1942
747.018	1087
747.130	1686
747.242	2228
747.354	1551
747.466	2245
747.577	2394
747.689	2323
747.801	1118
747.913	2084
748.024	1398
748.136	1277
748.248	1344
748.359	2086
748.471	1722
748.583	1631
748.694	957
748.806	2208
748.918	2178
749.029	2010
749.141	2149
749.252	1796
749.364	1208
749.475	4303
749.587	2025
749.698	1867
749.809	1549
749.921	968
750.032	1783
750.144	2001
750.255	410
750.366	1739
750.478	834
750.589	1666
750.700	1645
750.811	2023
750.923	2226
751.034	3846
751.145	4248
751.256	1429
751.367	1822
751.479	1156
751.590	1096
751.701	1747
751.812	587
751.923	1843
752.034	1288
752.145	1880
752.256	1345
752.367	1488
752.478	1563
752.589	1905
752.700	861
752.811	957
752.922	1184
753.032	1745
753.143	1771
753.254	1250
753.365	1609
753.476	2356
753.586	454
753.697	1090
753.808	1451
753.919	1497
754.029	776
754.140	1030
754.251	1416
754.361	782
754.472	1172
754.582	1368
754.693	1897
754.804	1567
754.914	424
755.025	1267
755.135	1494
755.246	1531
755.356	454
755.466	1991
755.577	1051
755.687	1725
755.798	1341
755.908	1318
756.018	241
756.129	1258
756.239	1016
756.349	1790
756.460	1305
756.570	1670
756.680	1080
756.790	1303
756.900	1791
757.011	1877
757.121	1060
757.231	1116
757.341	1409
757.451	1619
757.561	84
757.671	1898
757.781	-76
757.891	1976
758.001	629
758.111	1164
758.221	1407
758.331	1044
758.441	2039
758.551	1342
758.661	2111
758.771	1392
758.880	196
758.990	1643
759.100	841
759.210	1391
759.320	1250
759.429	1754
759.539	1202
759.649	876
759.758	1663
759.868	1996
759.978	913
760.087	1496
760.197	1460
760.307	1313
760.416	1848
760.526	1481
760.635	932
760.745	1572
760.854	1266
760.964	2548
761.073	1384
761.182	868
761.292	1091
761.401	1651
761.511	1732
761.620	1286
761.729	1312
761.839	1236
761.948	1808
762.057	885
762.166	1510
762.276	271
762.385	1818
762.494	1388
762.603	941
762.712	1737
762.822	1863
762.931	1780
763.040	424
763.149	1145
763.258	634
763.367	2463
763.476	1783
763.585	1519
763.694	836
763.803	1310
763.912	1009
764.021	2144
764.130	1254
764.238	1975
764.347	789
764.456	1072
764.565	2047
764.674	2078
764.783	1028
764.891	1211
765.000	1829
765.109	1536
765.217	1390
765.326	2604
765.435	2140
765.543	3545
765.652	2153
765.761	3394
765.869	4749
765.978	8224
766.086	13642
766.195	27768
766.303	80451
766.412	258155
766.520	229151
766.629	42035
766.737	14712
766.846	8099
766.954	5191
767.062	5470
767.171	3419
767.279	3283
767.387	2074
767.496	2797
767.604	1676
767.712	1882
767.820	1789
767.928	2326
768.037	1334
768.145	2669
768.253	1335
768.361	1886
768.469	1763
768.577	2714
768.685	2256
768.793	1350
768.901	1798
769.009	3205
769.117	1414
769.225	2661
769.333	3879
769.441	6093
769.549	10945
769.657	28111
769.765	99591
769.873	234723
769.981	67150
770.088	11085
770.196	5225
770.304	4661
770.412	3319
770.519	2693
770.627	2112
770.735	2633
770.842	1443
770.950	1914
771.058	1869
771.165	1976
771.273	1949
771.380	1398
771.488	1985
771.595	2426
771.703	1189
771.810	2904
771.918	1551
772.025	2343
772.133	1645
772.240	1127
772.348	2490
772.455	2463
772.562	673
772.670	2562
772.777	1635
772.884	2397
772.991	1408
773.099	1479
773.206	1169
773.313	2545
773.420	2003
773.528	1238
773.635	1754
773.742	2558
773.849	1108
773.956	1486
774.063	736
774.170	1780
774.277	2186
774.384	993
774.491	1146
774.598	1791
774.705	2190
774.812	1729
774.919	1353
775.026	1585
775.133	1777
775.239	1365
775.346	821
775.453	2181
775.560	1401
775.667	552
775.773	421
775.880	2274
775.987	718
776.093	2130
776.200	851
776.307	1183
776.413	1303
776.520	1841
776.627	1091
776.733	1712
776.840	897
776.946	2482
777.053	922
777.159	1654
777.266	487
777.372	2156
777.478	1655
777.585	1371
777.691	885
777.798	1197
777.904	1319
778.010	2268
778.117	2125
778.223	1256
778.329	323
778.435	1358
778.542	1532
778.648	1866
778.754	492
778.860	1205
778.966	1697
779.072	954
779.178	1135
779.284	1780
779.391	667
779.497	624
779.603	2392
779.708	367
779.815	1802
779.920	4077
780.026	6730
780.132	1253
780.238	967
780.344	1170
780.450	1793
780.556	1516
780.661	68
780.767	1124
780.873	725
780.979	1714
781.085	973
781.190	1254
781.296	366
781.402	1279
781.507	43
781.613	1490
781.719	-152
781.824	800
781.930	769
782.035	1481
782.141	401
782.246	1124
782.352	408
782.457	1030
782.563	619
782.668	1151
782.773	1341
782.879	1134
782.984	1835
783.090	1496
783.195	1550
783.300	1203
783.405	786
783.511	1316
783.616	693
783.721	915
783.826	974
783.932	1851
784.037	792
784.142	932
784.247	-368
784.352	1388
784.457	734
784.562	450
784.667	1030
784.772	1028
784.877	-324
784.982	1454
785.087	372
785.192	990
785.297	141
785.402	670
785.507	939
785.611	311
785.716	899
785.821	1081
785.926	491
786.031	642
786.135	337
786.240	887
786.345	-716
786.450	735
786.554	692
786.659	707
786.763	-317
786.868	1609
786.973	1505
787.077	1131
787.182	487
787.286	565
787.391	545
787.495	843
787.600	1080
787.704	1025
787.809	248
787.913	703
788.017	878
788.122	273
788.226	379
788.330	-588
788.435	405
788.539	575
788.643	-19
788.747	657
788.852	784
788.956	834
789.060	643
789.164	1272
789.268	-209
789.372	711
789.476	317
789.580	599
789.684	-433
789.788	1131
789.892	-178
789.996	1343
790.100	-222
790.204	238
790.308	-320
790.412	440
790.516	241
790.620	-153
790.724	89
790.828	313
790.931	-960
791.035	1777
791.139	254
791.242	40
791.346	1381
791.450	437
791.554	126
791.657	-617
791.761	1162
791.864	1629
791.968	77
792.072	577
792.175	518
792.279	697
792.382	156
792.486	1121
792.589	998
792.693	951
792.796	-264
792.899	832
793.003	446
793.106	-721
793.209	52
793.313	1313
793.416	-1272
793.519	1157
793.623	959
793.726	1742
793.829	-103
793.932	615
794.035	-708
794.138	1626
794.242	-1
794.345	-36
794.448	1010
794.551	787
794.654	2310
794.757	3026
794.860	986
794.963	1514
795.066	-278
795.169	1343
795.272	-942
795.375	370
795.477	243
795.580	1122
795.683	-576
795.786	-112
795.889	-161
795.991	991
796.094	843
796.197	-1115
796.300	757
796.402	716
796.505	-727
796.608	-255
796.710	281
796.813	-11
796.915	-651
797.018	353
797.120	658
797.223	-455
797.326	997
797.428	-88
797.530	231
797.633	417
797.735	569
797.838	625
797.940	641
798.042	-40
798.145	70
798.247	292
798.349	-1006
798.452	217
798.554	-379
798.656	-306
798.758	1173
798.860	-87
798.962	-354
799.065	-127
799.167	-623
799.269	787
799.371	338
799.473	753
799.575	-199
799.677	449
799.779	1851
799.881	-29
799.983	990
800.085	599
800.187	285
800.289	-154
800.390	52
800.492	-28
800.594	547
800.696	236
800.798	-240
800.899	511
801.001	-37
801.103	269
801.205	-153
801.306	-171
801.408	-995
801.509	476
801.611	-388
801.713	365
801.814	-191
801.916	180
802.017	109
802.119	-663
802.220	188
802.322	-777
802.423	1607
802.525	-249
802.626	498
802.727	96
802.829	56
802.930	-1359
803.031	1587
803.133	329
803.234	-466
803.335	836
803.436	-857
803.538	-107
803.639	-1715
803.740	514
803.841	-88
803.942	815
804.043	118
804.144	-403
804.245	207
804.346	-239
804.447	-469
804.548	37
804.649	1629
804.750	84
804.851	-600
804.952	208
805.053	-502
805.154	-274
805.255	1350
805.355	662
805.456	-1254
805.557	282
805.658	-869
805.758	1100
805.859	510
805.960	368
806.061	-870
806.161	107
806.262	277
806.362	870
806.463	485
806.564	200
806.664	631
806.765	-309
806.865	313
806.966	-26
807.066	-662
807.166	150
807.267	273
807.367	-657
807.468	145
807.568	-579
807.668	445
807.769	1341
807.869	-1216
807.969	275
808.069	-69
808.170	356
808.270	-723
808.370	264
808.470	-186
808.570	-695
808.670	135
808.770	-2
808.870	-602
808.970	359
809.070	-166
809.170	-286
809.271	360
809.370	-48
809.470	-110
809.570	-278
809.670	-828
809.770	77
809.870	-93
809.970	-527
810.070	-410
810.169	997
810.269	-1887
810.369	463
810.469	-151
810.568	-282
810.668	-723
810.768	371
810.867	-464
810.967	-731
811.066	110
811.166	-517
811.265	659
811.365	-375
811.464	-244
811.564	-355
811.663	175
811.763	-1173
811.862	131
811.962	848
812.061	-184
812.160	-578
812.260	-228
812.359	725
812.458	317
812.557	3304
812.657	5157
812.756	2156
812.855	-537
812.954	61
813.053	35
813.153	-121
813.252	-346
813.351	466
813.450	-125
813.549	-878
813.648	-664
813.747	447
813.846	275
813.945	-1048
814.044	-43
814.143	744
814.242	682
814.341	-802
814.439	-143
814.538	988
814.637	-56
814.736	49
814.835	301
814.933	594
815.032	660
815.131	-339
815.229	-376
815.328	1151
815.427	390
815.525	1790
815.624	993
815.722	73
815.821	695
815.919	751
816.018	636
816.116	1191
816.215	351
816.313	1312
816.412	975
816.510	968
816.609	2900
816.707	1767
816.805	1003
816.904	1229
817.002	1096
817.100	1913
817.198	2216
817.296	2447
817.395	2307
817.493	3786
817.591	3052
817.689	5347
817.787	6067
817.885	11518
817.983	20872
818.081	45909
818.179	105986
818.277	245975
818.375	211491
818.473	59001
818.571	22413
818.669	14912
818.767	11731
818.865	13231
818.963	15154
819.061	23232
819.158	40368
819.256	85221
819.354	187224
819.452	366462
819.549	243723
819.647	76791
819.745	29888
819.842	18261
819.940	12772
820.038	8933
820.135	6588
820.233	6173
820.330	4261
820.428	3400
820.525	3355
820.623	2826
820.720	2135
820.818	3318
820.915	2501
821.012	2507
821.110	1045
821.207	2304
821.304	976
821.402	620
821.499	1339
821.596	1357
821.693	1041
821.791	1654
821.888	1045
821.985	1925
822.082	1432
822.179	1652
822.276	612
822.373	708
822.470	891
822.567	1229
822.664	-465
822.761	1632
822.858	50
822.955	470
823.052	552
823.149	711
823.246	-188
823.343	436
823.440	624
823.536	656
823.633	-226
823.730	1060
823.827	-80
823.923	928
824.020	1321
824.117	-249
824.213	-235
824.310	1042
824.407	-52
824.503	1125
824.600	654
824.696	710
824.793	684
824.889	-786
824.986	-502
825.082	-278
825.179	283
825.275	262
825.371	119
825.468	305
825.564	-1062
825.660	313
825.757	181
825.853	379
825.949	-379
826.045	215
826.142	-614
826.238	912
826.334	-208
826.430	-158
826.526	330
826.622	-455
826.718	433
826.814	-777
826.910	580
827.006	357
827.102	-573
827.198	345
827.294	-228
827.390	377
827.486	-342
827.582	-491
827.678	-857
827.774	543
827.869	-973
827.965	770
828.061	-675
828.157	217
828.252	-94
828.348	4
828.444	624
828.539	-297
828.635	-55
828.731	492
828.826	-906
828.922	476
829.017	342
829.113	115
829.208	123
829.304	182
829.399	584
829.495	-277
829.590	776
829.685	-414
829.781	297
829.876	-242
829.971	-843
830.066	-286
830.162	31
830.257	-153
830.352	-831
830.447	1166
830.543	-192
830.638	-804
830.733	614
830.828	45
830.923	282
831.018	-98
831.113	-423
831.208	-234
831.303	-478
831.398	-157
831.493	-1006
831.588	695
831.683	-1053
831.778	303
831.873	183
831.967	685
832.062	-786
832.157	-684
832.252	522
832.346	73
832.441	332
832.536	560
832.631	1852
832.725	1130
832.820	-883
832.914	-362
833.009	-679
833.104	-61
833.198	727
833.293	-355
833.387	89
833.482	365
833.576	-425
833.670	450
833.765	-343
833.859	-356
833.954	-501
834.048	-507
834.142	-78
834.237	-524
834.331	-1260
834.425	18
834.519	-1041
834.613	47
834.708	-1250
834.802	315
834.896	-234
834.990	-659
835.084	-360
835.178	5
835.272	-436
835.366	-27
835.460	-423
835.554	303
835.648	-209
835.742	-788
835.836	245
835.930	-868
836.024	46
836.117	955
836.211	-31
836.305	630
836.399	218
836.493	-523
836.586	322
836.680	548
836.774	-291
836.867	447
836.961	-1324
837.055	-364
837.148	318
837.242	-582
837.335	-1038
837.429	-58
837.522	57
837.616	266
837.709	13
837.803	54
837.896	49
837.989	34
838.083	-85
838.176	929
838.269	150
838.363	-475
838.456	2
838.549	359
838.642	577
838.735	1971
838.829	425
838.922	-552
839.015	-515
839.108	-580
839.201	26
839.294	359
839.387	-91
839.480	-441
839.573	-272
839.666	-409
839.759	104
839.852	-276
839.945	-488
840.038	-618
840.131	-516
840.223	-311
840.316	161
840.409	-1009
840.502	-1978
840.594	14
840.687	-1057
840.780	-24
840.873	-879
840.965	-86
841.058	-713
841.150	1024
841.243	-179
841.336	-311
841.428	-562
841.521	14
841.613	-1044
841.706	-137
841.798	-746
841.890	-93
841.983	-156
842.075	713
842.167	-109
842.260	-588
842.352	-468
842.444	460
842.537	774
842.629	2334
842.721	313
842.813	59
842.905	-1668
842.997	754
843.090	58
843.182	1148
843.274	74
843.366	3295
843.458	5673
843.550	3324
843.642	-284
843.734	202
843.826	-671
843.918	1332
844.009	-398
844.101	-726
844.193	-457
844.285	-305
844.377	-38
844.469	436
844.560	-475
844.652	-537
844.744	400
844.835	-208
844.927	-1495
845.019	-1020
845.110	-326
845.202	-575
845.293	-281
845.385	-462
845.476	-126
845.568	-469
845.659	-920
845.751	-210
845.842	-550
845.934	251
846.025	-795
846.116	-830
846.208	-1054
846.299	-900
846.390	-867
846.482	-632
846.573	-133
846.664	-302
846.755	145
846.846	890
846.937	-1467
847.029	-555
847.120	-699
847.211	-209
847.302	444
847.393	-1321
847.484	40
847.575	229
847.666	-341
847.757	-415
847.847	-250
847.938	76
848.029	-536
848.120	-893
848.211	-732
848.302	-408
848.392	-306
848.483	-199
848.574	-796
848.664	-770
848.755	-662
848.846	288
848.936	-1488
849.027	-289
849.118	-608
849.208	-493
849.299	-88
849.389	55
849.480	968
849.570	2950
849.661	7015
849.751	12294
849.841	3602
849.932	-352
850.022	-576
850.112	-170
850.203	-1767
850.293	-263
850.383	-1000
850.474	-1106
850.564	-535
850.654	-617
850.744	-644
850.834	-277
850.924	-405
851.014	-452
851.104	-233
851.194	-360
851.284	36
851.374	114
851.464	128
851.554	-297
851.644	-1305
851.734	69
851.824	-327
851.914	-360
852.004	-1085
852.094	-1103
852.183	-452
852.273	-462
852.363	-955
852.452	-756
852.542	-623
852.632	-550
852.721	267
852.811	-523
852.901	-547
852.990	45
853.080	-559
853.169	162
853.259	-1225
853.348	80
853.438	267
853.527	1268
853.617	748
853.706	3002
853.795	4547
853.885	12720
853.974	23457
854.063	44757
854.152	74003
854.242	26748
854.331	3371
854.420	803
854.509	366
854.598	1570
854.687	-780
854.777	281
854.866	324
854.955	137
855.044	-751
855.133	-130
855.222	-993
855.311	-136
855.400	-664
855.488	-270
855.577	-1155
855.666	24
855.755	-560
855.844	-285
855.933	-1094
856.021	-581
856.110	-572
856.199	-692
856.288	-961
856.376	-589
856.465	-1233
856.554	-614
856.642	-1286
856.731	-406
856.819	-849
856.908	-1180
856.996	-607
857.085	45
857.173	-925
857.262	-440
857.350	-1015
857.438	-60
857.527	304
857.615	-425
857.703	-419
857.792	-379
857.880	215
857.968	-858
858.056	-928
858.145	-689
858.233	-83
858.321	-842
858.409	-44
858.497	-318
858.585	-1282
858.673	546
858.761	-348
858.849	-607
858.937	-592
859.025	477
859.113	-426
859.201	-746
859.289	-247
859.377	224
859.465	179
859.552	-1103
859.640	-582
859.728	-6
859.816	-431
859.903	-238
859.991	-404
860.079	21
860.166	-1056
860.254	-215
860.342	-14
860.429	-342
860.517	-847
860.604	-587
860.692	5
860.779	-584
860.867	-993
860.954	-540
861.042	-106
861.129	237
861.216	-315
861.304	-639
861.391	-410
861.478	-169
861.565	235
861.653	448
861.740	-489
861.827	-595
861.914	-573
862.001	-655
862.089	-205
862.176	-760
862.263	-1122
862.350	-315
862.437	-295
862.524	-190
862.611	-1402
862.698	40
862.785	527
862.871	464
862.958	-1179
863.045	143
863.132	-580
863.219	-6
863.306	-672
863.392	329
863.479	-1233
863.566	-669
863.652	-829
863.739	-685
863.826	-120
863.912	-743
863.999	-1687
864.086	-926
864.172	-730
864.259	-271
864.345	-1246
864.432	47
864.518	-970
864.604	-734
864.691	-808
864.777	259
864.863	-446
864.950	661
865.036	211
865.122	856
865.209	432
865.295	1654
865.381	240
865.467	812
865.553	689
865.639	1981
865.726	2318
865.812	6229
865.898	12175
865.984	19223
866.070	34700
866.156	40523
866.242	8895
866.328	1888
866.414	234
866.499	1591
866.585	-310
866.671	870
866.757	251
866.843	686
866.928	-283
867.014	311
867.100	1212
867.186	382
867.271	881
867.357	611
867.442	928
867.528	830
867.614	317
867.699	-275
867.785	663
867.870	508
867.956	-212
868.041	569
868.127	461
868.212	453
868.297	400
868.383	19
868.468	169
868.553	1789
868.639	1297
868.724	2705
868.809	2410
868.894	757
868.979	215
869.065	774
869.150	-553
869.235	222
869.320	-225
869.405	-40
869.490	-723
869.575	222
869.660	-896
869.745	1404
869.830	-410
869.915	-751
870.000	72
870.085	952
870.169	-668
870.254	79
870.339	-375
870.424	-104
870.509	83
870.593	337
870.678	58
870.763	-49
870.847	-155
870.932	-599
871.016	31
871.101	-234
871.186	202
871.270	1246
871.355	-368
871.439	92
871.523	-283
871.608	-126
871.692	-441
871.777	872
871.861	-473
871.945	-253
872.030	-6
872.114	326
872.198	-548
872.282	321
872.367	-899
872.451	211
872.535	-791
872.619	37
872.703	-697
872.787	-388
872.871	-219
872.955	-562
873.039	-418
873.123	604
873.207	683
873.291	-145
873.375	-230
873.459	-181
873.543	-1088
873.627	-344
873.711	-502
873.794	167
873.878	-355
873.962	-38
874.045	2
874.129	-90
874.137	-167
874.213	-939
874.245	-434
874.296	385
874.352	-377
874.380	-759
874.460	-328
874.464	-310
874.547	-1150
874.568	-826
874.631	101
874.676	-183
874.714	-390
874.784	-339
874.798	-341
874.881	281
874.892	207
874.965	-274
874.999	-46
875.048	272
875.107	167
875.131	127
875.215	-73
875.215	-72
875.298	-334
875.323	-360
875.381	-381
875.430	-335
875.465	-317
875.538	258
875.548	326
875.631	-311
875.646	-357
875.714	-515
875.753	-411
875.798	-289
875.861	-320
875.881	-332
875.964	-407
875.968	-410
876.047	-402
876.076	-325
876.130	-224
876.183	-235
876.213	-225
876.291	930
876.296	1001
876.379	-582
876.398	-448
876.462	156
876.506	89
876.545	-106
876.613	156
876.628	279
876.711	167
876.721	271
876.794	844
876.828	760
876.877	665
876.935	-3
876.960	-257
877.043	-21
877.043	-18
877.125	797
877.150	783
877.208	638
877.258	609
877.291	663
877.365	91
877.374	12
877.456	620
877.472	509
877.539	190
877.579	406
877.622	580
877.687	764
877.704	839
877.787	936
877.794	903
877.869	447
877.901	469
877.952	535
878.008	306
878.034	158
878.115	242
878.117	251
878.199	390
878.222	512
878.282	765
878.329	798
878.364	816
878.437	937
878.447	931
878.529	213
878.544	251
878.611	604
878.651	431
878.694	334
878.758	946
878.776	1065
878.858	729
878.865	727
878.941	702
878.972	379
879.023	-60
879.078	22
879.105	161
879.185	883
879.187	897
879.269	1342
879.292	1124
879.351	304
879.399	307
879.433	532
879.506	993
879.516	1002
879.598	904
879.613	718
879.680	230
879.720	358
879.762	485
879.827	948
879.844	1078
879.926	876
879.933	917
880.007	1266
880.040	1249
880.089	1343
880.147	1364
880.171	1417
880.253	2963
880.254	2960
880.335	3155
880.360	3580
880.417	5916
880.467	8015
880.499	10086
880.574	14591
880.580	14244
880.662	6226
880.680	4749
880.744	2292
880.787	1043
880.825	718
880.893	837
880.907	917
880.989	830
881.000	887
881.070	1386
881.106	1301
881.152	1344
881.213	1881
881.233	1857
881.315	1087
881.319	1069
881.396	1384
881.426	1204
881.478	643
881.532	824
881.559	1249
881.639	1558
881.641	1544
881.722	1144
881.745	864
881.803	912
881.852	1767
881.885	1853
881.958	617
881.966	596
882.047	1491
882.064	1466
882.129	903
882.171	988
882.210	1942
882.277	3120
882.291	3040
882.372	2558
882.383	2480
882.454	2073
882.489	1966
882.535	1850
882.596	1354
882.616	1270
882.697	1396
882.702	1364
882.778	1173
882.808	1333
882.859	1451
882.914	1293
882.940	1265
883.020	1355
883.021	1364
883.102	1544
883.127	1709
883.183	1998
883.233	1779
883.264	1388
883.339	1054
883.345	1077
883.426	770
883.445	882
883.507	1423
883.551	1312
883.587	1249
883.657	1944
883.668	2090
883.749	2253
883.763	2331
883.830	2011
883.869	1721
883.910	1567
883.975	1614
883.991	1680
884.072	1909
884.081	1861
884.152	1548
884.187	1655
884.233	1907
884.292	1938
884.314	1805
884.394	1350
884.398	1329
884.475	1466
884.504	1342
884.555	1099
884.610	1254
884.636	1478
884.716	1716
884.716	1729
884.797	2699
884.821	2819
884.877	2041
884.927	1488
884.958	1710
885.033	2064
885.038	2030
885.118	1535
885.139	1398
885.199	1647
885.244	1749
885.279	1753
885.350	1476
885.359	1495
885.439	2224
885.456	2236
885.520	1893
885.561	1811
885.600	1663
885.667	1327
885.680	1349
885.760	1464
885.773	1465
885.840	1602
885.878	1764
885.920	1836
885.984	1794
886.000	1977
886.080	2688
886.089	2788
886.160	2877
886.195	2777
886.240	2507
886.300	2240
886.320	2304
886.400	2434
886.406	2434
886.480	2317
886.511	2233
886.560	2485
886.616	2852
886.640	2778
886.720	2262
886.722	2242
886.800	1967
886.827	1859
886.879	2114
886.932	2327
886.959	2427
887.038	2682
887.039	2697
887.119	2903
887.143	2947
887.198	2760
887.248	2565
887.278	2545
887.354	2476
887.358	2476
887.437	2067
887.459	2052
887.517	2688
887.564	3037
887.596	2510
887.669	1311
887.676	1358
887.755	1929
887.774	2027
887.835	2212
887.880	2427
887.914	2490
887.985	2517
887.994	2542
888.073	2614
888.090	2644
888.153	3140
888.195	3381
888.232	2949
888.300	2224
888.311	2267
888.391	2424
888.405	2443
888.470	2084
888.510	1838
888.549	2228
888.615	2890
888.628	2795
888.708	2198
888.720	2078
888.787	2526
888.825	2786
888.866	2425
888.930	1851
888.945	1975
889.024	2579
889.035	2648
889.103	2545
889.140	2464
889.182	2785
889.245	3271
889.261	3159
889.340	2530
889.349	2451
889.419	2505
889.454	2503
889.498	2202
889.559	1780
889.577	2127
889.656	3627
889.664	3765
889.735	2882
889.768	2446
889.814	2905
889.873	3497
889.978	3229
890.083	2936
890.187	2833
890.292	2427
890.397	3071
890.501	3415
890.606	2064
890.710	2784
890.815	2892
890.919	2769
891.024	2477
891.128	3108
891.233	1651
891.337	2974
891.442	1866
891.546	2575
891.650	1636
891.755	2765
891.859	2885
891.963	3419
892.068	2481
892.172	2149
892.276	2240
892.380	3234
892.484	2374
892.589	3285
892.693	2739
892.797	2471
892.901	1551
893.005	1922
893.109	2341
893.213	3368
893.317	2583
893.421	1777
893.525	1920
893.629	1970
893.733	2624
893.837	2599
893.941	1938
894.045	2698
894.148	1884
894.252	2506
894.356	3020
894.460	3223
894.564	2753
894.667	2994
894.771	1381
894.875	2430
894.978	1075
895.082	2792
895.186	2210
895.289	3024
895.393	2092
895.496	2436
895.600	1837
895.703	2919
895.807	2346
895.910	2516
896.014	2265
896.117	2870
896.221	2616
896.324	2711
896.427	1473
896.531	2227
896.634	2610
896.737	3250
896.840	1783
896.944	1915
897.047	2266
897.150	3136
897.253	1625
897.356	2052
897.460	1840
897.563	2842
897.666	2120
897.769	1821
897.872	1857
897.975	1988
898.078	2068
898.181	1524
898.284	1724
898.387	2989
898.490	2440
898.593	2027
898.695	1475
898.798	2306
898.901	2243
899.004	2438
899.107	1908
899.209	1486
899.312	2220
899.415	2108
899.518	1424
899.620	1555
899.723	1846
899.826	3496
899.928	3462
900.031	2400
900.133	1891
900.236	1927
900.338	295
900.441	1214
900.543	1982
900.646	2116
900.748	1362
900.851	2048
900.953	1966
901.055	3457
901.158	1412
901.260	1970
901.362	1732
901.465	2004
901.567	2088
901.669	2701
901.771	1696
901.873	2142
901.976	1934
902.078	2075
902.180	1435
902.282	1839
902.384	2187
902.486	2130
902.588	2583
902.690	2384
902.792	1923
902.894	2556
902.996	1896
903.098	2015
903.200	1016
903.302	2084
903.404	1222
903.505	1573
903.607	1769
903.709	3575
903.811	2072
903.913	2532
904.014	722
904.116	953
904.218	1221
904.319	2320
904.421	2471
904.523	2678
904.624	2054
904.726	2538
904.827	886
904.929	2498
905.030	2129
905.132	2014
905.233	1808
905.335	1917
905.436	1720
905.537	553
905.639	1929
905.740	1958
905.841	1577
905.943	2568
906.044	1425
906.145	1212
906.247	1435
906.348	2116
906.449	1821
906.550	2263
906.651	910
906.752	2284
906.854	1682
906.955	1602
907.056	1536
907.157	2549
907.258	1309
907.359	1731
907.460	1710
907.561	1229
907.662	1394
907.762	2214
907.863	1370
907.964	1955
908.065	2512
908.166	2042
908.267	1851
908.367	2338
908.468	1063
908.569	2686
908.670	1913
908.770	2759
908.871	2410
908.971	2234
909.072	1053
909.173	1585
909.273	1318
909.374	1590
909.474	1981
909.575	2268
909.675	1431
909.776	2737
909.876	1847
909.977	2249
910.077	2185
910.177	2030
910.278	1496
910.378	2017
910.478	2300
910.579	1931
910.679	2013
910.779	2708
910.879	1879
910.980	2149
911.080	1386
911.180	2036
911.280	1926
911.380	2906
911.480	1508
911.580	1530
911.680	1290
911.780	2303
911.880	1905
911.980	1719
912.080	1433
912.180	2415
912.280	2136
912.380	1826
912.480	831
912.580	2155
912.679	642
912.779	2318
912.879	2490
912.979	2033
913.078	1518
913.178	983
913.278	1396
913.377	1750
913.477	1593
913.577	859
913.676	1700
913.776	2549
913.875	1942
913.975	2164
914.074	1707
914.174	2166
914.273	824
914.373	2785
914.472	1599
914.572	1558
914.671	1334
914.770	1666
914.870	644
914.969	1476
915.068	1901
915.167	2192
915.267	1564
915.366	1694
915.465	1405
915.564	2073
915.663	2462
915.763	2314
915.862	1848
915.961	1917
916.060	1651
916.159	1519
916.258	1314
916.357	1687
916.456	1914
916.555	2351
916.654	1649
916.752	2427
916.851	1543
916.950	1592
917.049	1216
917.148	1839
917.247	1619
917.345	1349
917.444	1776
917.543	2198
917.642	949
917.740	1794
917.839	2222
917.937	2626
918.036	2117
918.135	1202
918.233	1595
918.332	960
918.430	1493
918.529	2429
918.627	1115
918.726	1354
918.824	1590
918.923	2094
919.021	1306
919.119	1594
919.218	1355
919.316	1131
919.414	793
919.512	1836
919.611	1009
919.709	1958
919.807	2404
919.905	2249
920.003	2820
920.102	1718
920.200	1179
920.298	1619
920.396	1379
920.494	2164
920.592	1907
920.690	2795
920.788	1379
920.886	1748
920.984	2525
921.082	2292
921.180	2240
921.277	2313
921.375	2101
921.473	2346
921.571	2609
921.669	2666
921.766	2088
921.864	3506
921.962	2222
922.060	2517
922.157	3260
922.255	2851
922.352	2734
922.450	3728
922.548	2855
922.645	3664
922.743	3820
922.840	5997
922.938	5135
923.035	6028
923.133	4858
923.230	6038
923.327	6848
923.425	6805
923.522	6737
923.619	5255
923.717	5658
923.814	5546
923.911	5034
924.008	6072
924.106	5090
924.203	5126
924.300	5386
924.397	5512
924.494	5631
924.591	5661
924.688	3846
924.786	5905
924.883	4532
924.979	6287
925.077	4933
925.173	5555
925.270	5247
925.367	4224
925.464	5058
925.561	6336
925.658	5393
925.755	4994
925.852	6081
925.948	4970
926.045	5595
926.142	5157
926.239	5090
926.335	4605
926.432	4608
926.529	5701
926.625	5977
926.722	4492
926.818	3910
926.915	6061
927.011	4523
927.108	4884
927.204	3974
927.301	4412
927.397	5020
927.494	5290
927.590	4453
927.687	3886
927.783	4905
927.879	5505
927.976	4393
928.072	4482
928.168	4081
928.264	5083
928.361	4868
928.457	5277
928.553	4283
928.649	4016
928.745	3924
928.841	4511
928.937	4085
929.033	4839
929.129	4429
929.225	4893
929.321	4523
929.417	5084
929.513	4194
929.609	4745
929.705	3869
929.801	4803
929.897	3677
929.993	3801
930.089	4087
930.184	3960
930.280	2662
930.376	5349
930.471	3548
930.567	4419
930.663	4036
930.758	3259
930.854	3175
930.950	3317
931.045	3965
931.141	4336
931.236	4398
931.332	4713
931.427	3014
931.523	4658
931.618	4259
931.714	3299
931.809	4307
931.905	4648
932.000	2500
932.095	3141
932.191	4508
932.286	4960
932.381	2367
932.476	3227
932.572	3142
932.667	3450
932.762	3591
932.857	4084
932.952	3734
933.047	3968
933.142	3074
933.237	3616
933.332	4019
933.427	4477
933.522	3408
933.617	3405
933.712	3680
933.807	4710
933.902	4103
933.997	4704
934.092	2867
934.187	3903
934.282	3524
934.376	4261
934.471	4038
934.566	3374
934.661	2592
934.755	3360
934.850	3566
934.945	3391
935.039	2666
935.134	3018
935.228	3210
935.323	5039
935.417	2467
935.512	2530
935.606	2506
935.701	3649
935.795	3595
935.890	3667
935.984	3116
936.079	2805
936.173	2877
936.267	2857
936.362	2546
936.456	3487
936.550	4377
936.644	3683
936.738	2323
936.833	3089
936.927	2108
937.021	3214
937.115	3344
937.209	3293
937.303	2859
937.397	2890
937.491	2299
937.585	3743
937.679	3413
937.773	2629
937.867	1539
937.961	2790
938.055	3825
938.149	3697
938.243	1976
938.337	2918
938.430	2639
938.524	3591
938.618	2598
938.712	2468
938.805	2976
938.899	3293
938.993	3381
939.086	2366
939.180	2075
939.274	2640
939.367	3031
939.461	3373
939.554	2864
939.648	3147
939.741	1715
939.835	3199
939.928	3690
940.022	3944
940.115	2944
940.208	3767
940.302	3246
940.395	3498
940.488	1510
940.582	2550
940.675	1408
940.768	3078
940.861	2795
940.954	3814
941.048	2063
941.141	3175
941.234	2356
941.327	3234
941.420	4435
941.513	3345
941.606	2862
941.699	3223
941.792	2852
941.885	2990
941.978	2617
942.071	2538
942.164	1553
942.257	2504
942.349	3318
942.442	3323
942.535	1425
942.628	3155
942.721	2046
942.813	2261
942.906	2587
942.999	2959
943.091	2059
943.184	2803
943.277	2438
943.369	2428
943.462	2192
943.554	2886
943.647	2164
943.739	3017
943.832	2383
943.924	1105
944.017	2100
944.109	1703
944.201	1537
944.294	2134
944.386	1890
944.478	2013
944.571	2027
944.663	2048
944.755	2347
944.847	2777
944.940	2100
945.032	1526
945.124	1864
945.216	3285
945.308	2749
945.400	3212
945.492	2439
945.584	2977
945.676	2586
945.768	2138
945.860	3139
945.952	2388
946.044	2181
946.136	2465
946.228	1976
946.320	2165
946.412	2353
946.503	3437
946.595	2901
946.687	1961
946.779	1852
946.870	1721
946.962	2034
947.054	1276
947.145	1701
947.237	2308
947.329	2351
947.420	1899
947.512	1650
947.603	2039
947.695	2092
947.786	1078
947.878	984
947.969	2549
948.061	2663
948.152	1597
948.243	650
948.335	2105
948.426	1154
948.517	1736
948.609	2188
948.700	2611
948.791	2391
948.882	2149
948.973	1213
949.065	1867
949.156	1688
949.247	1487
949.338	1327
949.429	887
949.520	1050
949.611	881
949.702	1515
949.793	2179
949.884	2659
949.975	1910
950.066	1541
950.157	1924
950.247	1699
950.338	2031
950.429	659
950.520	2005
950.611	1163
950.701	2074
950.792	2571
950.883	2370
950.973	2186
951.064	1883
951.155	2017
951.245	2883
951.336	2182
951.427	1534
951.517	2693
951.608	1673
951.698	1692
951.788	1734
951.879	1456
951.969	1902
952.060	2224
952.150	2178
952.240	2265
952.331	1047
952.421	3529
952.511	1341
952.602	872
952.692	1050
952.782	1432
952.872	1550
952.962	1360
953.052	2123
953.143	-17
953.233	1800
953.323	1535
953.413	1678
953.503	1678
953.593	1958
953.683	2340
953.773	804
953.863	1607
953.953	1633
954.042	1574
954.132	2391
954.222	869
954.312	1304
954.402	459
954.492	2135
954.581	2547
954.671	2018
954.761	1745
954.850	2893
954.940	812
955.030	1222
955.119	1995
955.209	1997
955.298	1466
955.388	1712
955.477	1890
955.567	950
955.656	864
955.746	1931
955.835	1085
955.925	1322
956.014	1690
956.103	2189
956.193	1520
956.282	2019
956.371	1474
956.461	1675
956.550	1315
956.639	1314
956.728	1114
956.817	1699
956.906	946
956.995	2232
957.085	588
957.174	1622
957.263	846
957.352	1536
957.441	1821
957.530	1523
957.619	1162
957.708	1292
957.796	1199
957.885	1367
957.974	1363
958.063	1587
958.152	30
958.241	1254
958.329	1031
958.418	1412
958.507	1262
958.596	3023
958.684	437
958.773	2061
958.861	904
958.950	1859
959.039	1275
959.127	1545
959.216	770
959.304	1311
959.393	1213
959.481	1218
959.570	1358
959.658	1046
959.746	1054
959.835	2100
959.923	2635
960.011	2235
960.100	1641
960.188	1906
960.276	930
960.365	803
960.453	734
960.541	1569
960.629	955
960.717	1278
960.805	571
960.893	1599
960.981	636
961.069	2396
961.158	489
961.245	2421
961.333	1578
961.421	1195
961.509	1397
961.597	2504
961.685	1028
961.773	1739
961.861	1079
961.949	1458
962.036	-547
962.124	1500
962.212	1101
962.299	1697
962.387	570
962.475	1640
962.562	702
962.650	2173
962.738	1952
962.825	1165
962.913	594
963.000	1070
963.088	1192
963.175	1046
963.263	986
963.350	1815
963.438	438
963.525	1443
963.612	2501
963.700	4155
963.787	10515
963.874	6651
963.962	1610
964.049	1416
964.136	713
964.223	1479
964.310	860
964.398	1806
964.485	959
964.572	988
964.659	1994
964.746	2362
964.833	949
964.920	795
965.007	1199
965.094	1195
965.181	932
965.268	1012
965.355	748
965.441	1862
965.528	428
965.615	1702
965.702	1340
965.789	1069
965.875	1041
965.962	796
966.049	280
966.136	1832
966.222	588
966.309	2088
966.395	634
966.482	1747
966.569	194
966.655	1650
966.742	565
966.828	1240
966.915	-439
967.001	1097
967.087	97
967.174	1384
967.260	1615
967.347	1377
967.433	3016
967.519	7187
967.605	3236
967.692	1126
967.778	861
967.864	1175
967.950	753
968.036	830
968.123	1322
968.209	785
968.295	438
968.381	2190
968.467	192
968.553	357
968.639	2384
968.725	1221
968.811	1393
968.897	3097
968.983	1179
969.069	202
969.154	950
969.240	2065
969.326	-118
969.412	351
969.497	315
969.583	463
969.669	1734
969.755	382
969.840	843
969.926	2460
970.012	1785
970.097	2369
970.183	1496
970.268	2087
970.354	1581
970.439	870
970.525	4802
970.610	1336
970.696	1676
970.781	292
970.866	16
970.952	1300
971.037	-139
971.122	1243
971.208	768
971.293	1382
971.378	-422
971.463	2120
971.549	927
971.634	848
971.719	132
971.804	1207
971.889	1901
971.974	1169
972.059	-192
972.144	1051
972.229	778
972.314	1329
972.399	1229
972.484	1790
972.569	1040
972.654	1047
972.739	2764
972.824	3047
972.908	687
972.993	1246
973.078	1462
973.163	924
973.247	433
973.332	-199
973.417	1079
973.501	183
973.586	1130
973.671	1215
973.755	-63
973.840	1606
973.924	2029
974.009	547
974.093	769
974.178	3086
974.262	1980
974.346	2479
974.431	685
974.515	153
974.600	94
974.684	956
974.768	150
974.852	1975
974.937	-919
975.021	1276
975.105	-45
975.189	960
975.273	533
975.358	477
975.442	-229
975.526	2241
975.610	-140
975.694	477
975.778	706
975.862	1199
975.946	-1391
976.030	2082
976.114	393
976.198	1209
976.281	947
976.365	702
976.449	381
976.533	1104
976.617	1057
976.700	1224
976.784	773
976.868	1469
976.951	1538
977.035	1248
977.119	1797
977.202	631
977.286	969
977.369	661
977.453	1219
977.536	1035
977.620	1035
977.703	1318
977.787	260
977.870	1445
977.953	1520
978.037	217
978.120	2133
978.203	1336
978.287	2548
978.370	1572
978.453	-385
978.536	1002
978.620	1819
978.703	2349
978.786	1180
978.869	1050
978.952	-786
979.035	1994
979.118	1231
979.201	1043
979.284	446
979.367	473
979.450	1408
979.533	340
979.616	449
979.699	-151
979.782	422
979.865	680
979.948	658
980.030	17
980.113	463
980.196	166
980.279	759
980.361	75
980.444	505
980.526	387
980.609	950
980.692	864
980.774	791
980.857	59
980.939	1287
981.022	1234
981.104	394
981.187	1281
981.269	1187
981.352	1435
981.434	-32
981.516	40
981.599	1144
981.681	1298
981.763	517
981.846	184
981.928	193
982.010	1261
982.092	538
982.174	1405
982.256	695
982.339	1759
982.421	973
982.503	556
982.585	-488
982.667	1226
982.749	717
982.831	-120
982.913	-1211
982.995	1601
983.077	355
983.158	1736
983.240	35
983.322	538
983.404	1251
983.486	1539
983.568	1079
983.649	843
983.731	995
983.813	191
983.894	1406
983.976	-137
984.058	552
984.139	1524
984.221	-404
984.302	1094
984.384	733
984.465	554
984.547	1313
984.628	99
984.710	1445
984.791	895
984.872	937
984.954	856
985.035	370
985.116	516
985.198	-87
985.279	991
985.360	-377
985.441	991
985.522	1128
985.604	281
985.685	-311
985.766	1571
985.847	775
985.928	-875
986.009	785
986.090	707
986.171	1061
986.252	791
986.333	259
986.414	591
986.495	1095
986.576	1079
986.656	-102
986.737	1556
986.818	513
986.899	750
986.980	-573
987.060	1338
987.141	475
987.222	1505
987.302	915
987.383	2355
987.464	740
987.544	1384
987.625	246
987.705	1935
987.786	1224
987.866	1415
987.947	504
988.027	619
988.108	788
988.188	1517
988.268	242
988.349	1005
988.429	115
988.509	1040
988.589	1480
988.670	-75
988.750	1541
988.830	752
988.910	223
988.990	1267
989.070	329
989.151	671
989.231	123
989.311	1042
989.391	-51
989.471	786
989.551	1040
989.631	986
989.711	1053
989.791	188
989.870	-1105
989.950	1750
990.030	321
990.110	1152
990.190	406
990.269	431
990.349	651
990.429	895
990.509	605
990.588	-667
990.668	1082
990.747	653
990.827	11
990.907	1273
990.986	212
991.066	664
991.145	58
991.225	1464
991.304	208
991.383	376
991.463	621
991.542	1921
991.622	377
991.701	242
991.780	145
991.859	34
991.939	26
992.018	451
992.097	1073
992.176	66
992.256	368
992.335	13
992.414	307
992.493	67
992.572	-450
992.651	1934
992.730	-479
992.809	296
992.888	511
992.967	381
993.046	514
993.125	29
993.203	-15
993.282	210
993.361	217
993.440	332
993.519	-706
993.597	606
993.676	-834
993.755	855
993.834	211
993.912	1
993.991	911
994.069	-97
994.148	25
994.226	452
994.305	111
994.384	-44
994.462	270
994.540	43
994.619	-1127
994.697	675
994.776	-650
994.854	1187
994.932	-742
995.011	1205
995.089	74
995.167	288
995.245	-776
995.324	-340
995.402	940
995.480	370
995.558	253
995.636	-1186
995.714	-84
995.792	1445
995.870	-776
995.948	316
996.026	-556
996.104	674
996.182	366
996.260	-163
996.338	-385
996.416	-170
996.494	-467
996.572	1083
996.649	-451
996.727	-474
996.805	-325
996.883	-277
996.960	-401
997.038	403
997.116	-118
997.193	-615
997.271	91
997.348	185
997.426	468
997.504	-753
997.581	516
997.658	437
997.736	241
997.813	-547
997.891	266
997.968	-172
998.046	163
998.123	213
998.200	242
998.277	-573
998.355	-327
998.432	-1008
998.509	-492
998.586	685
998.663	209
998.741	-379
998.818	-659
998.895	-509
998.972	-350
999.049	-156
999.126	-851
999.203	649
999.280	-347
999.357	-218
999.434	-1452
999.511	422
999.587	-671
999.664	-884
999.741	-78
999.818	58
999.895	-730
999.971	-893
1000.048	-772
1000.125	159
1000.202	-619
1000.278	-861
1000.355	-995
1000.431	-792
1000.508	-786
1000.584	-725
1000.661	259
1000.738	-824
1000.814	-830
1000.890	428
1000.967	203
1001.043	106
1001.120	-1429
1001.196	54
1001.272	-1321
1001.349	-643
1001.425	-308
1001.501	-382
1001.577	-618
1001.654	-352
1001.730	-336
1001.806	-290
1001.882	-1538
1001.958	-192
1002.034	352
1002.110	-306
1002.186	-925
1002.262	-835
1002.338	-693
1002.414	-245
1002.490	219
1002.566	-384
1002.642	-1391
1002.718	-327
1002.794	-709
1002.870	-446
1002.945	-853
1003.021	-389
1003.097	-588
1003.173	-286
1003.248	-1123
1003.324	-1639
1003.400	-766
1003.475	-551
1003.551	-776
1003.626	-361
1003.702	-974
1003.777	-599
1003.853	-1123
1003.928	-1238
1004.004	-601
1004.079	317
1004.155	-1306
1004.230	-1932
1004.305	108
1004.381	-763
1004.456	-1505
1004.531	-1220
1004.607	-908
1004.682	-141
1004.757	-744
1004.832	-752
1004.907	-1338
1004.982	110
1005.057	-1154
1005.133	33
1005.208	-735
1005.283	-882
1005.358	477
1005.433	-1000
1005.508	174
1005.583	-159
1005.657	-1032
1005.732	-533
1005.807	-926
1005.882	-68
1005.957	-965
1006.032	-42
1006.106	-353
1006.181	209
1006.256	-851
1006.331	-1281
1006.405	-1306
1006.480	-835
1006.554	-1525
1006.629	-815
1006.704	-504
1006.778	-298
1006.853	-465
1006.927	-459
1007.002	-1280
1007.076	-900
1007.150	-1188
1007.225	-1351
1007.299	-838
1007.373	-754
1007.448	-711
1007.522	-525
1007.596	-758
1007.671	-847
1007.745	-737
1007.819	-1463
1007.893	-973
1007.967	-721
1008.041	-1971
1008.115	-697
1008.190	-1520
1008.264	108
1008.338	-1725
1008.412	-548
1008.486	-660
1008.560	-1114
1008.633	-1766
1008.707	-1634
1008.781	-587
1008.855	-826
1008.929	-1366
1009.003	-1403
1009.076	-1758
1009.150	-912
1009.224	-1336
1009.298	-1059
1009.371	-1934
1009.445	-846
1009.519	-1700
1009.592	-1857
1009.666	-1454
1009.739	-311
1009.813	-1815
1009.886	-186
1009.960	-1208
1010.033	73
1010.107	-1062
1010.180	-1440
1010.253	-1136
1010.327	-1431
1010.400	-1151
1010.473	-327
1010.547	516
1010.620	-709
1010.693	-1056
1010.766	-1137
1010.840	-759
1010.913	-248
1010.986	-1218
1011.059	-1345
1011.132	-797
1011.205	-510
1011.278	-1128
1011.351	-1486
1011.424	-1738
1011.497	-1565
1011.570	-461
1011.643	-1137
1011.716	-1084
1011.789	-1437
1011.862	-1927
1011.934	-852
1012.007	-2433
1012.080	-974
1012.153	-1371
1012.225	-375
1012.298	-1989
1012.371	-374
1012.443	-1282
1012.516	-1947
1012.588	-1085
1012.661	-819
1012.733	-2371
1012.806	161
1012.879	-2269
1012.951	-764
1013.023	-2012
1013.096	-66
1013.168	-1973
1013.241	-344
1013.313	-2105
1013.385	-1489
1013.458	-1026
1013.530	-577
1013.602	-2308
1013.674	-254
1013.746	-1659
1013.819	-1187
1013.891	-1709
1013.963	-1766
1014.035	-1409
1014.107	-1451
1014.179	-935
1014.251	-1338
1014.323	-334
1014.395	-139
1014.467	-1052
1014.539	-280
1014.611	-1885
1014.683	-1234
1014.754	-595
1014.826	-1569
1014.898	-1685
1014.970	-1841
1015.042	-570
1015.113	-1017
1015.185	-1993
1015.257	-1787
1015.328	-298
1015.400	-1964
1015.471	-927
1015.543	-2146
1015.615	-1448
1015.686	-1427
1015.757	-1107
1015.829	-966
1015.901	-1591
1015.972	-725
1016.043	-1484
1016.115	-1453
1016.186	-2008
1016.257	-1189
1016.328	-1679
1016.400	243
1016.471	-1651
1016.542	-1365
1016.613	-2123
1016.685	-793
1016.756	-968
1016.827	-1186
1016.898	-2159
1016.969	-98
1017.040	-1468
1017.111	-1779
1017.182	-1740
1017.253	-1239
1017.324	-1941
1017.395	-1003
1017.466	-1860
1017.537	-1065
1017.608	-1016
1017.678	-1273
1017.749	-1395
1017.820	-1578
1017.891	-1520
1017.961	-812
1018.032	-1914
1018.103	-1105
1018.173	-1282
1018.244	-1143
1018.315	-1339
1018.385	-1168
1018.456	-1734
1018.526	-1505
1018.597	-1414
1018.667	-1269
1018.738	-1326
1018.808	-1294
1018.878	-944
1018.949	-940
1019.019	-1181
1019.089	-1085
1019.160	-1743
1019.230	-2208
1019.300	-1246
1019.371	-1931
1019.441	-841
1019.511	-1538
1019.581	-1424
1019.651	-1044
1019.721	-1622
1019.791	-1158
1019.861	-2114
1019.931	-1213
1020.001	-1773
1020.071	-565
1020.141	-2200
1020.211	-1006
1020.281	-1287
1020.351	-1279
1020.421	-821
1020.491	-695
1020.560	-1921
1020.630	-866
1020.700	-1849
1020.770	-1718
1020.839	-1903
1020.909	-1825
1020.979	-2011
1021.048	-1423
1021.118	-1205
1021.187	-1576
1021.257	-1734
1021.326	-817
1021.396	-2416
1021.465	-1722
1021.535	-1419
1021.604	-1332
1021.674	-969
1021.743	-710
1021.812	-1764
1021.882	-812
1021.951	-1769
1022.020	-813
1022.089	-1860
1022.159	-1102
1022.228	-1584
1022.297	-2064
1022.366	-2277
1022.435	-889
1022.504	-2403
1022.573	-1359
1022.642	-2246
1022.711	-1502
1022.781	-1355
1022.849	-2405
1022.918	-1462
1022.987	-1559
1023.056	-1732
1023.125	-1373
1023.194	-1635
1023.263	-1356
1023.331	-1118
1023.400	-2172
1023.469	-1677
1023.538	-1334
1023.606	-2460
1023.675	-1062
1023.744	-2265
1023.812	-1705
1023.881	-1657
1023.949	-1902
1024.018	-2029
1024.086	-1329
1024.155	-2447
1024.223	-1202
1024.292	-1396
1024.360	-1136
1024.429	-1960
1024.497	-1511
1024.565	-2297
1024.634	-1186
1024.702	-2046
1024.770	-1315
1024.838	-2481
1024.907	-1054
1024.975	-1519
1025.043	-993
1025.111	-1974
1025.179	-1502
1025.247	-2321
1025.315	-1908
1025.383	-1071
1025.451	-1994
1025.519	-2180
1025.587	-1177
1025.655	-2661
1025.723	-1836
1025.791	-1785
1025.859	-1422
1025.927	-1636
1025.995	-1924
1026.062	-1905
1026.130	-1735
1026.198	-2255
1026.266	-2115
1026.333	-2171
1026.401	-847
1026.469	-2098
1026.536	-1389
1026.604	-2708
1026.671	-1728
1026.739	-1760
1026.806	-1719
1026.874	-2453
1026.941	-1672
1027.009	-2112
1027.076	-2015
1027.144	-1135
1027.211	-1631
1027.278	-2244
1027.345	-904
1027.413	-1982
1027.480	-1850
1027.547	-2043
1027.614	-1434
1027.682	-1303
1027.749	-2125
1027.816	-2420
1027.883	-1005
1027.950	-1467
1028.017	-2347
1028.084	-1485
1028.151	-2603
1028.218	-1849
1028.285	-1720
1028.352	-1845
1028.419	-2105
1028.486	-2511
1028.553	-965
1028.619	-2329
1028.686	-988
1028.753	-2259
1028.820	-1244
1028.886	-2291
1028.953	-1891
1029.020	-1723
1029.086	-2215
1029.153	-2213
1029.220	-1149
1029.286	-2052
1029.353	-1565
1029.419	-2404
1029.486	-1578
1029.552	-2192
1029.619	-1065
1029.685	-2074
1029.751	-2390
1029.818	-1244
1029.884	-1799
1029.951	-1421
1030.017	-1747
1030.083	-2052
1030.149	-1978
1030.216	-2402
1030.282	-1716
1030.348	-2369
1030.414	-2135
1030.480	-1363
1030.546	-2427
1030.612	-1658
1030.678	-2087
1030.744	-1841
1030.810	-1617
1030.876	-1485
1030.942	-1941
1031.008	-1505
1031.074	-2500
1031.140	-1692
1031.206	-1553
1031.272	-1745
1031.337	-1376
1031.403	-2099
1031.469	-1908
1031.534	-1479
1031.600	-1578
1031.666	-2707
1031.731	-1689
1031.797	-2263
1031.863	-1808
1031.928	-1747
1031.994	-1617
1032.059	-1837
1032.125	-1699
1032.190	-2080
1032.256	-1766
1032.321	-2670
1032.386	-1951
1032.452	-1566
1032.517	-1978
1032.582	-2639
1032.647	-1953
1032.713	-2151
1032.778	-1383
1032.843	-2668
1032.908	-1576
1032.974	-1799
1033.039	-1742
1033.104	-867
1033.169	-2389
1033.234	-1225
1033.299	-758
1033.364	-1562
1033.429	-1565
1033.494	-1077
1033.559	-667
1033.624	-2429
1033.688	-1576
1033.753	-2089
1033.818	-1484
1033.883	-1986
1033.948	-1769
1034.013	-2568
1034.077	-1526
1034.142	-987
1034.207	-959
1034.271	63
1034.336	1598
1034.400	20
1034.465	-709
1034.530	-715
1034.594	-1211
1034.658	-2115
1034.723	-2154
1034.787	-2003
1034.852	-1701
1034.916	-2395
1034.981	-2198
1035.045	-2128
1035.109	-2182
1035.173	-1102
1035.238	-2210
1035.302	-2084
1035.366	-1565
1035.430	-2216
1035.495	-1601
1035.559	-2370
1035.623	-900
1035.687	-1995
1035.751	-1914
1035.815	-1831
1035.879	-1773
1035.943	-1897
1036.007	-2408
1036.071	-1452
1036.135	-1730
1036.198	-1444
1036.262	-1839
1036.326	-1091
1036.390	-1784
1036.454	-1387
1036.517	-1322
1036.581	-1158
1036.645	-257
1036.709	-832
1036.772	-1164
1036.836	-2166
1036.900	-1438
1036.963	-3275
1037.026	-1005
1037.090	-1928
1037.154	-2091
1037.217	-2085
1037.280	-2477
1037.344	-2145
1037.407	-2070
1037.471	-1901
1037.534	-1228
1037.597	-2028
1037.661	-1002
1037.724	-1887
1037.787	-1397
1037.850	-2200
1037.913	-2756
1037.977	-1670
1038.040	-2041
1038.103	-1946
1038.166	-1783
1038.229	-2267
1038.292	-1805
1038.355	-2399
1038.418	-1696
1038.481	-2356
1038.544	-1829
1038.607	-2648
1038.670	-1656
1038.732	-2462
1038.795	-2324
1038.858	-2220
1038.921	-2062
1038.984	-1888
1039.046	-2244
1039.109	-1901
1039.172	-1722
1039.234	-2392
1039.297	-1890
1039.360	-2869
1039.422	-2984
1039.485	-2184
1039.547	-2554
1039.610	-1972
1039.672	-2332
1039.734	-2200
1039.797	-1366
1039.859	-2227
1039.922	-2153
1039.984	-2518
1040.046	-1157
1040.109	-1525
1040.171	-2129
1040.233	-2444
1040.295	-1929
1040.358	-2000
1040.420	-2263
1040.482	-2097
1040.544	-2655
1040.606	-2522
1040.668	-1828
1040.730	-2427
1040.792	-2781
1040.854	-2120
1040.916	-1624
1040.978	-2150
1041.040	-1297
1041.102	-1824
1041.164	-1805
1041.225	-1717
1041.287	-2094
1041.349	-2728
1041.411	-2847
1041.472	-2658
1041.534	-2690
1041.596	-2015
1041.657	-2165
1041.719	-2269
1041.781	-2654
1041.842	-2572
1041.904	-2688
1041.965	-2671
1042.027	-1430
1042.088	-2440
1042.150	-2398
1042.211	-2604
1042.272	-1820
1042.334	-2259
1042.395	-2420
1042.456	-2302
1042.518	-1694
1042.579	-2782
1042.640	-1923
1042.701	-2611
1042.763	-2217
1042.824	-2496
1042.885	-2413
1042.946	-2720
1043.007	-1704
1043.068	-1797
1043.129	-1840
1043.190	-3057
1043.251	-1894
1043.312	-2967
1043.373	-2163
1043.434	-2844
1043.495	-1700
1043.556	-1284
1043.616	-1711
1043.677	-2861
1043.738	-1849
1043.799	-2234
1043.859	-1656
1043.920	-1766
1043.981	-1534
1044.041	-2205
1044.102	-1850
1044.162	-1873
1044.223	-2711
1044.284	-2461
1044.344	-2063
1044.405	-2058
1044.465	-1145
1044.525	-2017
1044.586	-1636
1044.646	-1913
1044.707	-1029
1044.767	-1848
1044.827	-1852
1044.887	-2091
1044.948	-2084
1045.008	-2245
1045.068	-1162
1045.128	-2227
1045.188	-1926
1045.249	-2583
1045.309	-1143
1045.369	-2397
1045.429	-1849
1045.489	-2289
1045.549	-1881
1045.609	-2871
1045.669	-1645
1045.729	-1947
1045.789	-1801
1045.848	-1956
1045.908	-1467
1045.968	-1860
1046.028	-1473
1046.088	-2896
1046.147	-1720
1046.207	-1858
1046.267	-2133
1046.326	-1889
1046.386	-1370
1046.446	-1865
1046.505	-1250
1046.565	-1387
1046.624	-945
1046.684	-1639
1046.743	-341
1046.803	-1056
1046.862	-481
1046.922	0
