'Start Wavelength	183.907
'End Wavelength	1046.922
'Gate Delay	5.000
'Gate Width (ms)	1.050
'Laser Output Level	0.000
'X Position	0.000
'Y Position	0.000
'Z Position	0.000
'Grid Point Number	1.000
'Shot Number	100.000
183.907	526.000
183.977	473.000
184.047	76
184.116	-293
184.186	677
184.256	-166
184.325	-607
184.395	-341
184.465	-332
184.534	464
184.604	-712
184.674	-437
184.743	-1031
184.813	-333
184.883	397
184.952	197
185.022	385
185.092	137
185.161	-318
185.231	410
185.301	240
185.370	-146
185.440	-243
185.509	25
185.579	280
185.649	-382
185.718	238
185.788	-137
185.857	-136
185.927	171
185.996	94
186.066	-206
186.136	413
186.205	40
186.275	-99
186.344	-86
186.414	-132
186.483	205
186.553	808
186.622	529
186.692	201
186.761	152
186.831	753
186.900	-347
186.970	219
187.039	144
187.109	732
187.178	192
187.248	313
187.317	202
187.387	194
187.456	570
187.526	527
187.595	53
187.664	604
187.734	201
187.803	387
187.873	212
187.942	528
188.012	201
188.081	26
188.150	240
188.220	468
188.289	183
188.358	666
188.428	-633
188.497	773
188.567	14
188.636	-339
188.705	-48
188.775	575
188.844	163
188.913	202
188.983	100
189.052	-285
189.121	-628
189.191	76
189.260	613
189.329	388
189.399	-429
189.468	573
189.537	121
189.606	-38
189.676	125
189.745	777
189.814	352
189.883	-8
189.953	420
190.022	538
190.091	1153
190.161	1170
190.230	30
190.299	483
190.368	-729
190.437	-370
190.507	570
190.576	-122
190.645	275
190.714	830
190.783	-35
190.853	364
190.922	108
190.991	386
191.060	428
191.129	529
191.198	-45
191.268	-4
191.337	-691
191.406	289
191.475	672
191.544	212
191.613	-470
191.682	-438
191.752	-359
191.821	672
191.890	298
191.959	532
192.028	-222
192.097	329
192.166	-128
192.235	-148
192.304	714
192.373	67
192.442	103
192.511	209
192.580	5
192.650	325
192.719	-104
192.788	156
192.857	383
192.926	356
192.995	-319
193.064	497
193.133	652
193.202	1056
193.271	-124
193.340	458
193.409	179
193.478	1035
193.547	513
193.615	1923
193.684	977
193.753	732
193.822	914
193.891	121
193.960	1014
194.029	759
194.098	229
194.167	-74
194.236	526
194.305	415
194.374	-781
194.443	106
194.512	-200
194.580	58
194.649	927
194.718	891
194.787	200
194.856	248
194.925	500
194.994	993
195.062	212
195.131	214
195.200	649
195.269	901
195.338	368
195.407	414
195.475	271
195.544	677
195.613	641
195.682	390
195.751	696
195.819	300
195.888	406
195.957	1048
196.026	1196
196.094	1107
196.163	990
196.232	1113
196.301	371
196.369	1153
196.438	840
196.507	701
196.576	177
196.644	920
196.713	487
196.782	157
196.850	105
196.919	-491
196.988	163
197.056	-153
197.125	-98
197.194	839
197.262	430
197.331	949
197.400	-351
197.468	102
197.537	-127
197.606	1343
197.674	1559
197.743	1519
197.812	1091
197.880	2175
197.949	622
198.017	1626
198.086	1049
198.155	68
198.223	221
198.292	2428
198.360	14
198.429	58
198.497	591
198.566	1560
198.635	1694
198.703	442
198.772	1296
198.840	2967
198.909	1271
198.977	498
199.046	743
199.114	462
199.183	356
199.251	94
199.320	-143
199.388	52
199.457	318
199.525	1137
199.594	109
199.662	38
199.731	-74
199.799	119
199.867	819
199.936	767
200.004	168
200.073	1048
200.141	131
200.210	667
200.278	49
200.346	691
200.415	1006
200.483	372
200.552	-333
200.620	241
200.688	781
200.757	549
200.825	830
200.893	192
200.962	421
201.030	574
201.098	-2
201.167	832
201.235	588
201.303	1786
201.372	446
201.440	703
201.508	142
201.577	537
201.645	895
201.713	713
201.781	548
201.850	1686
201.918	828
201.986	157
202.055	1159
202.123	631
202.191	558
202.259	498
202.327	-12
202.396	515
202.464	533
202.532	1352
202.600	2867
202.669	1643
202.737	469
202.805	192
202.873	573
202.941	721
203.009	459
203.078	595
203.146	519
203.214	571
203.282	154
203.350	399
203.418	-264
203.487	1041
203.555	-40
203.623	973
203.691	1096
203.759	211
203.827	252
203.895	945
203.963	-314
204.031	132
204.099	607
204.168	1166
204.236	604
204.304	997
204.372	493
204.440	616
204.508	-36
204.576	812
204.644	295
204.712	1024
204.780	412
204.848	916
204.916	200
204.984	1255
205.052	62
205.120	1267
205.188	22
205.256	95
205.324	22
205.392	265
205.460	422
205.528	934
205.596	839
205.664	840
205.732	273
205.799	3328
205.867	3246
205.935	812
206.003	618
206.071	-327
206.139	42
206.207	1296
206.275	667
206.343	701
206.411	687
206.478	639
206.546	567
206.614	1427
206.682	416
206.750	1091
206.818	950
206.885	1011
206.953	326
207.021	1154
207.089	621
207.157	294
207.225	676
207.292	91
207.360	433
207.428	519
207.496	749
207.563	799
207.631	435
207.699	264
207.767	411
207.834	373
207.902	656
207.970	702
208.038	299
208.105	430
208.173	896
208.241	1634
208.309	1528
208.376	1355
208.444	1770
208.512	960
208.579	175
208.647	1078
208.715	1395
208.782	582
208.850	652
208.918	559
208.985	525
209.053	1540
209.120	583
209.188	1081
209.256	771
209.323	394
209.391	1315
209.459	2135
209.526	473
209.594	788
209.661	283
209.729	473
209.796	761
209.864	1115
209.932	379
209.999	1486
210.067	457
210.134	1256
210.202	1122
210.269	2043
210.337	1261
210.404	878
210.472	1306
210.539	656
210.607	113
210.674	766
210.742	894
210.809	831
210.877	1759
210.944	1670
211.012	772
211.079	1787
211.146	541
211.214	878
211.281	2458
211.349	1176
211.416	841
211.484	1947
211.551	985
211.618	1215
211.686	861
211.753	658
211.821	1122
211.888	806
211.955	726
212.023	933
212.090	564
212.157	824
212.225	1561
212.292	2192
212.359	5168
212.427	10146
212.494	3938
212.561	2304
212.629	958
212.696	1114
212.763	662
212.831	735
212.898	1826
212.965	1209
213.032	1076
213.100	1598
213.167	1359
213.234	1981
213.301	1520
213.369	1131
213.436	963
213.503	1499
213.570	1695
213.638	1420
213.705	709
213.772	750
213.839	819
213.906	831
213.973	1635
214.041	986
214.108	961
214.175	1572
214.242	1309
214.309	1039
214.376	1781
214.444	2069
214.511	1180
214.578	1526
214.645	1749
214.712	2127
214.779	803
214.846	1186
214.913	1659
214.980	1679
215.048	1437
215.115	2603
215.182	2063
215.249	1709
215.316	446
215.383	1646
215.450	1628
215.517	1061
215.584	377
215.651	1065
215.718	1162
215.785	1310
215.852	962
215.919	1146
215.986	1684
216.053	465
216.120	877
216.187	1713
216.254	992
216.321	1069
216.388	1307
216.455	1228
216.522	1342
216.589	1346
216.656	2529
216.722	3370
216.789	2682
216.856	2107
216.923	1228
216.990	1565
217.057	2026
217.124	2477
217.191	1794
217.258	2365
217.324	3432
217.391	3152
217.458	2271
217.525	1955
217.592	1358
217.659	1465
217.725	1410
217.792	2330
217.859	1747
217.926	858
217.993	622
218.059	1315
218.126	806
218.193	976
218.260	995
218.327	954
218.393	1107
218.460	1511
218.527	1024
218.594	1189
218.660	2060
218.727	2689
218.794	956
218.860	1348
218.927	929
218.994	459
219.061	111
219.127	1078
219.194	2244
219.261	884
219.327	857
219.394	1202
219.461	429
219.527	1386
219.594	1511
219.661	898
219.727	779
219.794	1440
219.860	68
219.927	1770
219.994	1895
220.060	3886
220.127	1920
220.193	1859
220.260	1974
220.326	3044
220.393	4693
220.460	5597
220.526	3138
220.593	1253
220.659	2216
220.726	2743
220.792	6596
220.859	5002
220.925	8088
220.992	9513
221.058	8976
221.125	7509
221.191	5002
221.258	2165
221.324	2099
221.391	1181
221.457	556
221.524	1548
221.590	2185
221.657	7382
221.723	4161
221.789	4902
221.856	3701
221.922	1697
221.989	1923
222.055	378
222.121	238
222.188	2283
222.254	716
222.321	1460
222.387	-118
222.453	729
222.520	267
222.586	867
222.652	878
222.719	947
222.785	229
222.851	549
222.918	128
222.984	1223
223.050	943
223.116	280
223.183	1182
223.249	321
223.315	98
223.382	1016
223.448	580
223.514	423
223.580	-18
223.647	306
223.713	627
223.779	254
223.845	-86
223.911	607
223.978	86
224.044	1029
224.110	452
224.176	1038
224.242	1149
224.309	-183
224.375	540
224.441	-116
224.507	681
224.573	354
224.639	66
224.705	1022
224.772	155
224.838	1512
224.904	970
224.970	889
225.036	1007
225.102	488
225.168	855
225.234	694
225.300	1153
225.366	960
225.432	575
225.499	1009
225.565	780
225.631	1232
225.697	1057
225.763	1389
225.829	1647
225.895	1649
225.961	2465
226.027	1950
226.093	1325
226.159	2211
226.225	3676
226.291	10696
226.357	14281
226.423	7014
226.489	4116
226.554	2262
226.620	2339
226.686	3397
226.752	4794
226.818	8909
226.884	19824
226.950	14946
227.016	5561
227.082	3343
227.148	2427
227.214	3009
227.279	2668
227.345	1806
227.411	1677
227.477	1781
227.543	4589
227.609	4738
227.674	2681
227.740	1411
227.806	1165
227.872	700
227.938	1579
228.003	2495
228.069	340
228.135	1447
228.201	473
228.267	1692
228.332	1400
228.398	1496
228.464	1183
228.530	933
228.595	424
228.661	440
228.727	1570
228.792	1491
228.858	1261
228.924	441
228.990	1736
229.055	1147
229.121	1689
229.187	956
229.252	1628
229.318	677
229.384	1209
229.449	1716
229.515	235
229.581	-2
229.646	1767
229.712	1640
229.777	4344
229.843	2769
229.909	2754
229.974	3049
230.040	1579
230.105	1965
230.171	1146
230.236	2811
230.302	3932
230.368	3443
230.433	784
230.499	1400
230.564	1951
230.630	1248
230.695	402
230.761	1710
230.826	886
230.892	2564
230.957	1117
231.023	1255
231.088	304
231.154	827
231.219	1509
231.284	2770
231.350	2069
231.415	907
231.481	1455
231.546	371
231.612	540
231.677	852
231.742	294
231.808	1991
231.873	828
231.939	120
232.004	1697
232.069	2888
232.135	1057
232.200	665
232.265	661
232.331	1002
232.396	838
232.461	923
232.527	721
232.592	336
232.657	587
232.723	2324
232.788	873
232.853	1032
232.918	358
232.984	-80
233.049	640
233.114	1171
233.179	804
233.245	2553
233.310	2535
233.375	136
233.440	971
233.506	216
233.571	670
233.636	1150
233.701	624
233.766	1771
233.832	908
233.897	1730
233.962	498
234.027	1892
234.092	1393
234.157	1287
234.222	842
234.288	2429
234.353	6211
234.418	4625
234.483	4073
234.548	1851
234.613	1213
234.678	1525
234.743	1497
234.808	6936
234.873	2663
234.938	1785
235.004	1373
235.069	1729
235.134	933
235.199	1071
235.264	1093
235.329	214
235.394	2320
235.459	2090
235.524	960
235.589	1081
235.654	1147
235.719	614
235.784	1255
235.849	1269
235.913	3489
235.978	3584
236.043	3305
236.108	1152
236.173	1107
236.238	1357
236.303	847
236.368	948
236.433	3106
236.498	4404
236.563	2939
236.627	7546
236.692	24987
236.757	16041
236.822	6274
236.887	4751
236.952	3839
237.017	2791
237.081	3392
237.146	4778
237.211	9147
237.276	25464
237.341	34538
237.405	14901
237.470	6607
237.535	3661
237.600	2694
237.664	1966
237.729	2108
237.794	3691
237.859	5494
237.923	3199
237.988	2914
238.053	2686
238.118	2644
238.182	10238
238.247	7181
238.312	3336
238.376	2519
238.441	1191
238.506	2460
238.570	565
238.635	1877
238.700	1254
238.764	1451
238.829	5320
238.893	3834
238.958	2639
239.023	2014
239.087	1559
239.152	1868
239.216	685
239.281	929
239.346	613
239.410	1208
239.475	2032
239.539	9772
239.604	4940
239.668	2318
239.733	1180
239.797	2648
239.862	8178
239.926	7163
239.991	2536
240.055	1379
240.120	1550
240.184	833
240.249	1063
240.313	707
240.378	1110
240.442	5289
240.507	7307
240.571	1496
240.635	4493
240.700	4143
240.764	867
240.829	1332
240.893	-9
240.957	534
241.022	6292
241.086	7823
241.151	3310
241.215	935
241.279	2434
241.344	3548
241.408	1428
241.472	1200
241.537	1879
241.601	1284
241.665	1124
241.730	984
241.794	2059
241.858	1503
241.922	1276
241.987	1065
242.051	688
242.115	945
242.179	1285
242.244	872
242.308	1672
242.372	1046
242.436	1178
242.501	1409
242.565	1286
242.629	474
242.693	907
242.757	1289
242.822	1021
242.886	1399
242.950	1725
243.014	1355
243.078	1398
243.142	1036
243.206	441
243.271	1388
243.335	1196
243.399	2675
243.463	15453
243.527	29908
243.591	8602
243.655	3447
243.719	1887
243.783	2080
243.847	5340
243.911	5132
243.975	6828
244.040	2623
244.104	2042
244.168	1596
244.232	2747
244.296	4189
244.360	4666
244.424	1495
244.488	2243
244.552	1892
244.615	858
244.679	861
244.743	2232
244.807	1259
244.871	1303
244.935	703
244.999	-1
245.063	891
245.127	1665
245.191	4153
245.255	2485
245.319	2800
245.383	1296
245.446	1806
245.510	132
245.574	1413
245.638	1746
245.702	1238
245.766	5760
245.829	3171
245.893	1366
245.957	1297
246.021	2087
246.085	1163
246.149	2718
246.212	8138
246.276	9738
246.340	3576
246.404	2548
246.467	3283
246.531	3948
246.595	3907
246.659	2712
246.722	2212
246.786	2887
246.850	3996
246.913	3394
246.977	2156
247.041	3080
247.104	2221
247.168	2677
247.232	7150
247.295	13626
247.359	5366
247.423	4016
247.486	6272
247.550	3275
247.614	2800
247.677	3631
247.741	1813
247.804	1666
247.868	2420
247.932	7258
247.995	11022
248.059	4231
248.122	1403
248.186	3394
248.249	5983
248.313	24190
248.376	20480
248.440	13282
248.503	3380
248.567	4349
248.630	5629
248.694	7945
248.757	12040
248.821	22480
248.884	11409
248.948	12617
249.011	17451
249.075	28771
249.138	19585
249.202	8120
249.265	4800
249.328	5863
249.392	3451
249.455	3481
249.519	2960
249.582	3704
249.645	6727
249.709	4679
249.772	2297
249.835	2671
249.899	3121
249.962	3295
250.025	2252
250.089	11059
250.152	10164
250.215	5615
250.279	2345
250.342	3803
250.405	3342
250.468	2598
250.532	3803
250.595	8215
250.658	37172
250.721	43038
250.785	14198
250.848	8111
250.911	4688
250.974	4859
251.038	7481
251.101	13295
251.164	6426
251.227	7366
251.290	5961
251.354	10982
251.417	47768
251.480	33592
251.543	31038
251.606	82753
251.669	46981
251.732	19023
251.795	19862
251.859	22477
251.922	48199
251.985	21963
252.048	8777
252.111	6903
252.174	5558
252.237	14227
252.300	26763
252.363	35529
252.426	58989
252.489	21935
252.552	11926
252.615	7025
252.678	9199
252.741	20084
252.804	32927
252.867	60923
252.930	32917
252.993	18287
253.056	10768
253.119	7221
253.182	5202
253.245	10242
253.308	6907
253.371	6401
253.434	5603
253.497	7304
253.559	13208
253.622	7834
253.685	10635
253.748	8831
253.811	4687
253.874	6256
253.937	4428
254.000	4082
254.062	8797
254.125	12592
254.188	14099
254.251	8738
254.314	4828
254.376	9458
254.439	8764
254.502	6942
254.565	10548
254.628	14416
254.690	7845
254.753	4177
254.816	2584
254.878	4147
254.941	10658
255.004	7785
255.067	3704
255.129	3113
255.192	1614
255.255	2261
255.317	2644
255.380	1651
255.443	1570
255.505	1262
255.568	1256
255.631	2031
255.693	1637
255.756	1383
255.819	2357
255.881	1124
255.944	1307
256.006	1050
256.069	1150
256.132	607
256.194	3055
256.257	7346
256.319	4972
256.382	3465
256.444	2398
256.507	1673
256.569	1850
256.632	2197
256.694	3136
256.757	16725
256.819	33560
256.882	10540
256.944	5034
257.007	4407
257.069	3166
257.132	2185
257.194	2377
257.257	2365
257.319	1053
257.381	2191
257.444	8789
257.506	45890
257.569	39972
257.631	22368
257.693	10140
257.756	4508
257.818	4059
257.880	1861
257.943	2690
258.005	1373
258.067	1918
258.130	1531
258.192	2330
258.254	5160
258.317	2228
258.379	2537
258.441	8993
258.503	6977
258.566	11131
258.628	10199
258.690	2019
258.753	3792
258.815	5401
258.877	1969
258.939	2162
259.001	1577
259.064	1477
259.126	2120
259.188	2534
259.250	2243
259.312	4103
259.375	13048
259.437	5226
259.499	2733
259.561	1730
259.623	2292
259.685	1638
259.747	2441
259.809	10222
259.872	14779
259.934	29037
259.996	18854
260.058	4827
260.120	2553
260.182	1861
260.244	2008
260.306	947
260.368	2108
260.430	1271
260.492	6422
260.554	12376
260.616	7428
260.678	15926
260.740	13816
260.802	3680
260.864	3558
260.926	1695
260.988	2636
261.050	2320
261.112	8811
261.174	20407
261.236	10481
261.298	3487
261.359	8548
261.421	9349
261.483	2432
261.545	2416
261.607	843
261.669	1387
261.731	5931
261.793	10058
261.854	3215
261.916	3005
261.978	1987
262.040	3043
262.102	2018
262.164	3579
262.225	2754
262.287	2376
262.349	6748
262.411	4085
262.472	2194
262.534	5616
262.596	9093
262.658	2647
262.719	1091
262.781	3397
262.843	9545
262.904	3075
262.966	3038
263.028	3050
263.090	26899
263.151	47664
263.213	13682
263.275	7471
263.336	3597
263.398	2683
263.459	1057
263.521	2161
263.583	6713
263.644	3305
263.706	1697
263.767	36
263.829	1880
263.891	829
263.952	902
264.014	584
264.075	4371
264.137	8475
264.198	3400
264.260	1037
264.321	1293
264.383	6914
264.444	12946
264.506	3543
264.567	2344
264.629	6537
264.690	11013
264.752	3748
264.813	1968
264.875	227
264.936	1660
264.998	1455
265.059	838
265.120	1638
265.182	2833
265.243	21021
265.305	12836
265.366	3661
265.427	2196
265.489	1506
265.550	452
265.611	1445
265.673	1488
265.734	1087
265.795	1383
265.857	909
265.918	-164
265.979	5496
266.040	34666
266.102	19069
266.163	5629
266.224	4515
266.286	2324
266.347	928
266.408	1553
266.469	1747
266.530	822
266.592	698
266.653	4172
266.714	5049
266.775	1331
266.836	1181
266.898	1751
266.959	2578
267.020	1256
267.081	1680
267.142	904
267.203	1042
267.264	591
267.326	1230
267.387	999
267.448	-68
267.509	1785
267.570	1578
267.631	957
267.692	-178
267.753	1636
267.814	672
267.875	5024
267.936	7780
267.997	4741
268.058	3450
268.119	2007
268.180	1342
268.241	544
268.302	1432
268.363	777
268.424	606
268.485	1628
268.546	-45
268.607	471
268.668	733
268.729	481
268.790	1208
268.851	1905
268.912	6214
268.972	5777
269.033	2304
269.094	1108
269.155	826
269.216	740
269.277	25
269.338	487
269.398	357
269.459	1281
269.520	2446
269.581	2716
269.642	2976
269.702	2109
269.763	1813
269.824	874
269.885	2341
269.945	3239
270.006	1058
270.067	934
270.128	800
270.188	850
270.249	1108
270.310	807
270.370	1396
270.431	924
270.492	1124
270.553	738
270.613	4524
270.674	8231
270.734	1764
270.795	2178
270.856	2662
270.916	881
270.977	1110
271.038	2465
271.098	1394
271.159	4368
271.219	3037
271.280	1450
271.340	1317
271.401	2055
271.462	4210
271.522	2498
271.583	1703
271.643	1111
271.704	1159
271.764	1536
271.825	4816
271.885	23696
271.946	23691
272.006	6917
272.066	14561
272.127	19744
272.187	4998
272.248	2745
272.308	3965
272.369	16585
272.429	6360
272.489	6588
272.550	5077
272.610	6172
272.671	3962
272.731	4828
272.791	5723
272.852	3385
272.912	3093
272.972	2133
273.033	1074
273.093	2909
273.153	2896
273.214	2351
273.274	2794
273.334	16267
273.394	20574
273.455	7533
273.515	11116
273.575	19400
273.635	6194
273.696	12875
273.756	20414
273.816	6203
273.876	3317
273.936	12200
273.997	13907
274.057	3649
274.117	2838
274.177	6137
274.237	31214
274.297	18208
274.358	12770
274.418	18890
274.478	10456
274.538	4159
274.598	3722
274.658	14711
274.718	14740
274.778	4661
274.838	2844
274.898	8982
274.958	22044
275.018	23039
275.078	10387
275.138	3939
275.198	2103
275.258	2428
275.318	3163
275.378	5188
275.438	5705
275.498	3714
275.558	12676
275.618	23496
275.678	12848
275.738	9704
275.798	6201
275.858	2977
275.918	1735
275.978	2157
276.038	1946
276.098	1653
276.157	6466
276.217	13234
276.277	5568
276.337	3701
276.397	1644
276.457	3025
276.517	1249
276.576	1569
276.636	551
276.696	3385
276.756	9528
276.815	5389
276.875	1607
276.935	2749
276.995	2711
277.055	1512
277.114	1212
277.174	3817
277.234	11736
277.293	3926
277.353	2464
277.413	2182
277.472	1812
277.532	2628
277.592	2520
277.651	17023
277.711	20825
277.771	7627
277.830	32117
277.890	16445
277.950	18947
278.009	45708
278.069	12444
278.128	21342
278.188	19881
278.248	9931
278.307	29507
278.367	12293
278.426	4232
278.486	2536
278.545	2105
278.605	2118
278.664	1792
278.724	2500
278.783	11543
278.843	22464
278.902	4609
278.962	3757
279.021	3296
279.081	5061
279.140	4427
279.199	4082
279.259	4637
279.318	4427
279.378	4648
279.437	12021
279.496	49698
279.556	135819
279.615	73532
279.675	21068
279.734	13196
279.793	22771
279.853	31857
279.912	10428
279.971	5677
280.031	5221
280.090	17042
280.149	22180
280.208	17260
280.268	97996
280.327	65953
280.386	17050
280.445	14287
280.505	10576
280.564	5447
280.623	4120
280.682	7775
280.742	8916
280.801	3140
280.860	2301
280.919	2630
280.978	2478
281.037	1880
281.097	1675
281.156	1580
281.215	1992
281.274	2845
281.333	18744
281.392	8737
281.451	2691
281.510	1940
281.569	1760
281.628	1286
281.688	1700
281.747	2140
281.806	2243
281.865	820
281.924	2073
281.983	1110
282.042	1415
282.101	1117
282.160	1606
282.219	1411
282.278	1990
282.337	9158
282.396	4279
282.454	2035
282.513	3310
282.572	12619
282.631	5170
282.690	1680
282.749	1118
282.808	2689
282.867	2757
282.926	2296
282.985	1960
283.043	887
283.102	967
283.161	1403
283.220	8405
283.279	13276
283.338	3093
283.396	1879
283.455	2708
283.514	2377
283.573	4155
283.631	2661
283.690	1452
283.749	1564
283.808	6148
283.866	4613
283.925	1919
283.984	2357
284.043	2911
284.101	3202
284.160	2319
284.219	3277
284.277	2435
284.336	5277
284.395	19629
284.453	11762
284.512	5116
284.570	6996
284.629	5358
284.688	5093
284.746	5390
284.805	6561
284.863	9526
284.922	10896
284.981	12603
285.039	17258
285.098	33287
285.156	94010
285.215	158347
285.273	145784
285.332	79802
285.390	41954
285.449	25326
285.507	16719
285.566	11677
285.624	8875
285.683	7098
285.741	4598
285.799	4523
285.858	5068
285.916	3504
285.975	3390
286.033	3690
286.091	3032
286.150	2785
286.208	2839
286.267	3784
286.325	2555
286.383	5091
286.442	2968
286.500	1609
286.558	2198
286.616	2014
286.675	2702
286.733	2446
286.791	2036
286.850	2831
286.908	3664
286.966	5255
287.024	2478
287.083	1116
287.141	1081
287.199	1782
287.257	3036
287.315	1918
287.374	2709
287.432	7671
287.490	2974
287.548	2592
287.606	1323
287.664	1680
287.723	3249
287.781	4190
287.839	2420
287.897	3452
287.955	3450
288.013	4724
288.071	13477
288.129	82303
288.187	163895
288.245	56161
288.303	19696
288.361	12292
288.419	9547
288.477	5774
288.535	3363
288.593	2231
288.651	1994
288.709	1265
288.767	1939
288.825	877
288.883	1789
288.941	1474
288.999	1124
289.057	1209
289.115	1211
289.173	1389
289.231	1377
289.289	1370
289.346	904
289.404	1843
289.462	3560
289.520	3108
289.578	976
289.636	1461
289.694	749
289.751	816
289.809	1156
289.867	1116
289.925	1979
289.983	1926
290.040	1331
290.098	783
290.156	1681
290.214	2643
290.271	448
290.329	1548
290.387	378
290.444	735
290.502	175
290.560	731
290.617	1082
290.675	1276
290.733	1235
290.790	1488
290.848	790
290.906	1813
290.963	1176
291.021	1524
291.078	944
291.136	1017
291.194	10626
291.251	14660
291.309	4014
291.366	1312
291.424	1502
291.481	2832
291.539	1192
291.596	1617
291.654	448
291.711	1029
291.769	956
291.826	3851
291.884	1118
291.941	973
291.999	817
292.056	1350
292.114	1455
292.171	872
292.228	1085
292.286	1692
292.343	3718
292.401	4861
292.458	2669
292.515	1654
292.573	1788
292.630	1948
292.687	2067
292.745	1922
292.802	3377
292.859	10351
292.917	16527
292.974	6307
293.031	2624
293.089	2079
293.146	1154
293.203	411
293.260	903
293.318	3858
293.375	3439
293.432	1797
293.489	1658
293.546	839
293.604	1861
293.661	12390
293.718	26560
293.775	10750
293.832	4568
293.889	4879
293.947	5266
294.004	2492
294.061	2612
294.118	9348
294.175	17292
294.232	19602
294.289	7412
294.346	3566
294.403	2478
294.460	3173
294.517	1867
294.574	1598
294.631	1091
294.688	1784
294.745	9245
294.802	36658
294.859	30369
294.916	12468
294.973	6170
295.030	5563
295.087	3985
295.144	2663
295.201	1605
295.258	1826
295.315	2474
295.372	14602
295.429	19485
295.486	7116
295.542	4937
295.599	19472
295.656	22991
295.713	18775
295.770	19338
295.827	6760
295.883	2845
295.940	3791
295.997	6050
296.054	4305
296.111	2446
296.167	2051
296.224	1351
296.281	1558
296.338	898
296.394	1529
296.451	1791
296.508	12259
296.564	15490
296.621	9789
296.678	27758
296.734	28566
296.791	8920
296.848	5229
296.904	6304
296.961	14414
297.018	25387
297.074	15011
297.131	5053
297.187	3639
297.244	5787
297.301	32334
297.357	37928
297.414	11333
297.470	4819
297.527	4150
297.583	2982
297.640	2588
297.696	2522
297.753	1531
297.809	2022
297.866	1398
297.922	1048
297.979	992
298.035	1006
298.092	4163
298.148	16099
298.204	10068
298.261	4337
298.317	13425
298.374	28978
298.430	12754
298.486	6089
298.543	3993
298.599	3704
298.656	4212
298.712	10214
298.768	24110
298.824	12118
298.881	4719
298.937	3001
298.993	2905
299.050	3327
299.106	1960
299.162	2284
299.218	2598
299.275	1019
299.331	1981
299.387	6620
299.443	29710
299.500	22219
299.556	9572
299.612	4911
299.668	4119
299.724	6609
299.780	5339
299.837	1987
299.893	6563
299.949	24844
300.005	20650
300.061	24041
300.117	34647
300.173	13936
300.229	6971
300.285	8715
300.341	7627
300.397	4056
300.453	2503
300.510	2602
300.566	2007
300.622	3857
300.678	15513
300.734	21711
300.790	23656
300.845	23198
300.901	16022
300.957	23442
301.013	14900
301.069	5271
301.125	4954
301.181	4284
301.237	3053
301.293	1695
301.349	1341
301.405	803
301.461	2514
301.516	3563
301.572	3553
301.628	5218
301.684	4490
301.740	11194
301.796	13273
301.851	9143
301.907	13999
301.963	11529
302.019	32093
302.074	75694
302.130	59347
302.186	25481
302.242	10714
302.297	6892
302.353	7686
302.409	15131
302.464	10706
302.520	10160
302.576	29349
302.631	25815
302.687	13739
302.743	5421
302.798	4030
302.854	3267
302.910	2923
302.965	4404
303.021	7655
303.076	6020
303.132	10309
303.187	9427
303.243	4822
303.299	3144
303.354	2544
303.410	1639
303.465	1910
303.521	1876
303.576	1995
303.632	2446
303.687	10254
303.743	25815
303.798	16492
303.853	6292
303.909	4741
303.964	3383
304.020	4969
304.075	6517
304.130	8328
304.186	12435
304.241	12846
304.297	9474
304.352	5413
304.358	5150
304.407	3016
304.449	3355
304.463	3476
304.518	3312
304.539	3109
304.573	2771
304.629	2869
304.630	2933
304.684	5877
304.720	15635
304.739	20611
304.794	23684
304.811	19743
304.850	10210
304.902	4940
304.905	4613
304.960	3052
304.992	3678
305.015	4149
305.071	3251
305.083	3035
305.126	2187
305.173	1670
305.181	1595
305.236	1685
305.264	1632
305.292	1603
305.347	2736
305.354	2815
305.402	3290
305.445	3839
305.457	4011
305.512	4340
305.535	4154
305.567	3784
305.622	4037
305.626	4318
305.678	9881
305.716	22159
305.733	27003
305.788	23909
305.807	21453
305.843	16861
305.897	24628
305.898	24730
305.953	20591
305.988	13978
306.008	10159
306.063	7105
306.078	6323
306.118	4524
306.168	3263
306.173	3167
306.228	2533
306.259	2198
306.283	1955
306.338	2500
306.349	2421
306.393	2098
306.440	2875
306.448	3017
306.503	2950
306.530	3588
306.558	4864
306.613	12372
306.620	13249
306.668	18609
306.711	23143
306.723	23818
306.778	16191
306.801	12711
306.833	8201
306.888	4019
306.892	3864
306.943	3155
306.982	2940
306.997	2824
307.052	2537
307.072	2482
307.107	2596
307.162	4008
307.163	4038
307.217	7188
307.253	9527
307.272	10404
307.327	10406
307.343	9193
307.381	6061
307.434	5281
307.436	5392
307.491	12571
307.524	18786
307.546	21643
307.600	19143
307.614	17192
307.655	9791
307.704	5362
307.710	5175
307.765	5714
307.795	8289
307.819	11179
307.874	17708
307.885	17422
307.929	12689
307.975	8571
307.984	8378
308.038	9249
308.065	11850
308.093	19958
308.148	49939
308.156	57676
308.202	107924
308.246	122668
308.257	116541
308.312	59998
308.336	41130
308.366	31682
308.421	19681
308.426	18710
308.475	12092
308.517	8658
308.530	7958
308.585	6173
308.607	5882
308.639	5898
308.694	6382
308.697	6593
308.748	13310
308.787	20238
308.803	21270
308.857	15759
308.877	13766
308.912	10859
308.967	8967
308.967	8957
309.021	11593
309.058	14512
309.076	17882
309.130	31183
309.148	37828
309.185	69159
309.238	133646
309.239	134427
309.293	160547
309.328	151031
309.348	126780
309.402	59257
309.418	42952
309.457	29427
309.508	17527
309.511	17211
309.566	15308
309.598	15833
309.620	18387
309.674	28260
309.688	30273
309.729	29374
309.778	24149
309.783	23422
309.837	15388
309.868	11614
309.892	12254
309.946	17309
309.959	19095
310.001	26743
310.049	32038
310.055	31006
310.109	18544
310.139	12014
310.163	9386
310.218	5744
310.229	5047
310.272	4153
310.319	3775
310.326	3674
310.381	3129
310.409	2782
310.435	2627
310.489	2526
310.499	2546
310.543	2887
310.589	3183
310.598	3183
310.652	3426
310.679	3281
310.706	2790
310.760	1991
310.769	1888
310.814	2018
310.859	2044
310.868	1994
310.923	1956
310.948	1874
310.977	2354
311.031	3512
311.038	3634
311.085	2989
311.128	2471
311.139	2498
311.193	2503
311.218	2553
311.247	2573
311.301	2723
311.308	2716
311.356	2764
311.398	2905
311.410	2781
311.464	2158
311.488	1874
311.518	1868
311.572	1874
311.578	1887
311.626	2992
311.668	3941
311.680	3905
311.734	3594
311.758	3530
311.788	3712
311.842	3944
311.847	3974
311.896	4526
311.937	5052
311.950	5067
312.004	5093
312.027	5099
312.058	4141
312.112	2459
312.117	2297
312.165	2255
312.207	2233
312.297	3397
312.386	3065
312.476	1992
312.566	4241
312.656	3456
312.745	2305
312.835	2579
312.925	3084
313.015	2539
313.104	2830
313.194	2375
313.284	1492
313.374	3230
313.463	2820
313.553	1934
313.643	2032
313.732	2322
313.822	2414
313.912	3089
314.001	2410
314.091	3141
314.180	4553
314.270	3691
314.360	3342
314.449	3231
314.539	2404
314.628	2591
314.718	3019
314.808	3696
314.897	2932
314.987	2822
315.076	2547
315.166	3439
315.255	3163
315.345	3430
315.434	3599
315.524	2600
315.613	2946
315.703	3344
315.792	4306
315.881	12695
315.971	6422
316.060	5657
316.150	9084
316.239	9293
316.328	4241
316.418	2354
316.507	2833
316.597	3269
316.686	3000
316.775	3614
316.865	10527
316.954	3025
317.043	1827
317.133	1981
317.222	1707
317.311	1449
317.400	1342
317.490	3243
317.579	3096
317.668	2161
317.757	3612
317.847	7185
317.936	22550
318.025	11225
318.114	5913
318.203	5189
318.293	6318
318.382	14606
318.471	10854
318.560	16064
318.649	31328
318.738	7997
318.828	3072
318.917	3261
319.006	4847
319.095	13618
319.184	35156
319.273	20100
319.362	8367
319.451	2762
319.540	2315
319.629	4591
319.718	8663
319.807	4441
319.896	11245
319.985	44339
320.074	18404
320.163	3735
320.252	6139
320.341	6139
320.430	4971
320.519	5184
320.608	3624
320.697	2853
320.786	2656
320.875	3135
320.964	3962
321.053	6006
321.142	8349
321.230	9295
321.319	7465
321.408	17938
321.497	9881
321.586	6726
321.675	8651
321.764	8992
321.852	5858
321.941	9400
322.030	6425
322.119	6768
322.207	16988
322.296	15689
322.385	8076
322.474	8561
322.562	19299
322.651	13508
322.740	7454
322.829	12269
322.917	12945
323.006	8338
323.095	5570
323.183	4511
323.272	6409
323.361	11099
323.449	40230
323.538	15345
323.626	26183
323.715	20483
323.804	5722
323.892	23771
323.981	15239
324.069	4008
324.158	13078
324.246	15648
324.335	3826
324.424	7079
324.512	3032
324.601	3752
324.689	6015
324.778	14868
324.866	9675
324.954	3240
325.043	2143
325.131	5386
325.220	10807
325.308	11667
325.397	7781
325.485	5926
325.574	1710
325.662	1549
325.750	1825
325.839	2776
325.927	1798
326.015	2746
326.104	3951
326.192	6367
326.280	1758
326.369	1771
326.457	3010
326.545	4652
326.634	2242
326.722	1924
326.810	1247
326.898	2703
326.987	2009
327.075	4369
327.163	5825
327.251	2832
327.340	5189
327.428	8571
327.516	1937
327.604	1558
327.692	2515
327.781	2574
327.869	4065
327.957	3011
328.045	2269
328.133	1723
328.221	2592
328.309	1688
328.397	1763
328.485	3018
328.574	3473
328.662	10180
328.750	6603
328.838	2703
328.926	1571
329.014	1240
329.102	2496
329.190	7587
329.278	5202
329.366	1972
329.454	1469
329.542	2151
329.630	1370
329.718	2113
329.806	1963
329.893	2368
329.981	3335
330.069	3542
330.157	14833
330.245	60795
330.333	39122
330.421	5316
330.509	3689
330.597	11291
330.684	9199
330.772	4614
330.860	5301
330.948	8007
331.036	4031
331.123	1634
331.211	2088
331.299	2356
331.387	5652
331.475	12141
331.562	3368
331.650	1062
331.738	2108
331.825	2802
331.913	1752
332.001	1141
332.089	1963
332.176	5216
332.264	12168
332.352	11445
332.439	3358
332.527	2261
332.614	1691
332.702	3141
332.790	1336
332.877	4634
332.965	13309
333.052	4303
333.140	2879
333.228	9493
333.315	3586
333.403	2333
333.490	6984
333.578	7848
333.665	11107
333.753	6514
333.840	1930
333.928	2509
334.015	8029
334.103	12292
334.190	45989
334.278	15480
334.365	4720
334.452	4567
334.540	2120
334.627	3439
334.715	4047
334.802	6857
334.889	42008
334.977	59865
335.064	9255
335.151	3574
335.239	3389
335.326	4946
335.413	18527
335.501	38796
335.588	4584
335.675	3550
335.762	3362
335.850	7674
335.937	5239
336.024	10212
336.111	53820
336.199	33165
336.286	6512
336.373	3842
336.460	2292
336.547	1991
336.635	2718
336.722	2805
336.809	2593
336.896	3028
336.983	10550
337.070	31850
337.157	51468
337.245	31863
337.332	27917
337.419	3339
337.506	1496
337.593	2607
337.680	8324
337.767	36568
337.854	10241
337.941	10506
338.028	11250
338.115	4310
338.202	4324
338.289	7550
338.376	31699
338.463	12761
338.550	16368
338.637	26159
338.724	5314
338.811	11498
338.898	2325
338.984	1651
339.071	2326
339.158	2569
339.245	6479
339.332	4723
339.419	5513
339.506	8116
339.593	1331
339.679	1688
339.766	1820
339.853	1734
339.940	4368
340.027	1933
340.113	1270
340.200	2906
340.287	1653
340.374	2581
340.460	4282
340.547	2110
340.634	2625
340.720	11004
340.807	8916
340.894	871
340.980	1396
341.067	1890
341.154	1960
341.240	1605
341.327	6984
341.414	2101
341.500	2500
341.587	1835
341.674	1566
341.760	3343
341.847	4814
341.933	1849
342.020	1096
342.106	936
342.193	1706
342.279	2879
342.366	2704
342.452	4589
342.539	1822
342.625	4850
342.712	13134
342.798	6774
342.885	2708
342.971	1464
343.058	1323
343.144	669
343.230	1326
343.317	1893
343.403	1343
343.490	1727
343.576	531
343.662	965
343.749	1681
343.835	2095
343.921	3139
344.008	22518
344.094	73677
344.180	19447
344.267	4232
344.353	15531
344.439	23249
344.525	6496
344.612	3193
344.698	2806
344.784	1690
344.870	1194
344.957	1227
345.043	2933
345.129	1362
345.215	2940
345.301	2594
345.387	1403
345.474	1094
345.560	1592
345.646	1026
345.732	1476
345.818	1604
345.904	1497
345.990	1568
346.076	1346
346.162	4424
346.249	2280
346.335	1470
346.421	1502
346.507	4984
346.593	27685
346.679	8548
346.765	2075
346.851	1443
346.937	1453
347.023	1822
347.108	1971
347.194	1789
347.280	1537
347.366	2216
347.452	5984
347.538	30435
347.624	25388
347.710	21702
347.796	3727
347.882	1338
347.967	1576
348.053	2755
348.139	1942
348.225	1044
348.311	694
348.397	1370
348.482	2435
348.568	2510
348.654	1227
348.740	2020
348.825	2653
348.911	2595
348.997	10836
349.083	34290
349.168	7183
349.254	1583
349.340	1773
349.425	1274
349.511	1662
349.597	2250
349.682	3708
349.768	16022
349.854	10668
349.939	2734
350.025	1786
350.110	1100
350.196	599
350.282	840
350.367	759
350.453	2574
350.538	2951
350.624	1543
350.709	2527
350.795	794
350.880	1586
350.966	1935
351.051	1954
351.137	2229
351.222	1163
351.308	3609
351.393	14949
351.479	5079
351.564	2220
351.649	732
351.735	618
351.820	1042
351.906	1060
351.991	1204
352.076	6687
352.162	15118
352.247	2651
352.332	2041
352.418	2931
352.503	4778
352.588	16991
352.673	18649
352.759	3627
352.844	1364
352.929	1278
353.014	2675
353.100	1878
353.185	3865
353.270	5206
353.355	5264
353.441	1161
353.526	1737
353.611	3439
353.696	4704
353.781	2746
353.866	744
353.952	1457
354.037	2564
354.122	8329
354.207	8370
354.292	3671
354.377	865
354.462	1884
354.547	1018
354.632	2441
354.717	3297
354.802	4265
354.887	2756
354.972	1048
355.057	955
355.142	697
355.227	1692
355.312	2250
355.397	4529
355.482	13005
355.567	8817
355.652	4155
355.737	5653
355.822	16363
355.907	20070
355.991	3437
356.076	1351
356.161	1041
356.246	1336
356.331	1744
356.416	3573
356.501	27514
356.585	43915
356.670	6655
356.755	3453
356.840	3553
356.924	16010
357.009	76931
357.094	39448
357.179	5685
357.263	3630
357.348	3493
357.433	3779
357.517	3060
357.602	3506
357.687	2558
357.771	3603
357.856	15398
357.941	12226
358.025	12069
358.110	71543
358.195	48197
358.279	6462
358.364	3384
358.448	8705
358.533	32762
358.617	28165
358.702	25390
358.787	11941
358.871	4134
358.956	4421
359.040	2235
359.125	1563
359.209	1791
359.294	5650
359.378	13840
359.462	5445
359.547	2627
359.631	1763
359.716	1480
359.800	1726
359.885	2878
359.969	1831
360.053	1841
360.138	1883
360.222	2337
360.306	4802
360.391	3658
360.475	6445
360.559	18167
360.644	12525
360.728	10733
360.812	12453
360.896	52278
360.981	24593
361.065	11910
361.149	2655
361.233	2395
361.318	2402
361.402	2589
361.486	2669
361.570	2073
361.654	2485
361.739	4351
361.823	23545
361.907	58687
361.991	12873
362.075	3732
362.159	8327
362.243	7781
362.327	6522
362.411	12451
362.495	6353
362.580	2480
362.664	2318
362.748	2505
362.832	3198
362.916	3821
363.000	15101
363.084	45754
363.168	72044
363.252	19498
363.336	4930
363.420	6045
363.503	25426
363.587	45230
363.671	8070
363.755	3404
363.839	5574
363.923	3667
364.007	4562
364.091	6876
364.175	8768
364.258	47566
364.342	43490
364.426	43616
364.510	29725
364.594	9852
364.677	9242
364.761	37797
364.845	41634
364.929	9080
365.013	6571
365.096	5461
365.180	7402
365.264	9521
365.347	49532
365.431	30100
365.515	6053
365.598	1704
365.682	1958
365.766	3203
365.849	7628
365.933	2786
366.017	3575
366.100	4086
366.184	994
366.267	1584
366.351	575
366.435	1490
366.518	1222
366.602	1374
366.685	824
366.769	1894
366.852	3570
366.936	7097
367.019	3526
367.103	2894
367.186	7897
367.270	3094
367.353	804
367.436	1562
367.520	1932
367.603	2484
367.687	2542
367.770	4902
367.853	2714
367.937	9320
368.020	24172
368.104	6267
368.187	2941
368.270	5536
368.353	5462
368.437	6781
368.520	18416
368.603	13424
368.687	11620
368.770	29639
368.853	9034
368.936	5056
369.020	7622
369.103	2770
369.186	1516
369.269	1419
369.352	2866
369.436	5234
369.519	3228
369.602	1740
369.685	2260
369.768	2172
369.851	2382
369.934	1181
370.018	2167
370.101	3972
370.184	5065
370.267	3078
370.350	4854
370.433	8568
370.516	19511
370.599	34199
370.682	8660
370.765	11630
370.848	16239
370.931	33798
371.014	18468
371.097	3033
371.180	2924
371.263	1274
371.346	1295
371.429	1622
371.511	1330
371.594	3706
371.677	5730
371.760	8377
371.843	5555
371.926	18916
372.009	66658
372.091	28819
372.174	11572
372.257	34005
372.340	18847
372.423	8337
372.505	13478
372.588	5907
372.671	6740
372.754	30694
372.836	22400
372.919	12518
373.002	31700
373.085	11846
373.167	5542
373.250	11390
373.332	31104
373.415	37341
373.498	86590
373.580	41487
373.663	32721
373.746	65900
373.828	16815
373.911	6094
373.993	5866
374.076	24313
374.159	34048
374.241	10279
374.324	24001
374.406	22756
374.489	19347
374.571	72168
374.654	43005
374.736	12136
374.819	40126
374.901	60782
374.983	76368
375.066	17648
375.148	5254
375.231	18171
375.313	49376
375.395	21885
375.478	4802
375.560	3182
375.643	3590
375.725	9355
375.807	48368
375.890	55194
375.972	21488
376.054	9709
376.136	16132
376.219	8700
376.301	10978
376.383	47107
376.465	26721
376.548	8665
376.630	10556
376.712	36479
376.794	25766
376.877	3082
376.959	1750
377.041	2003
377.123	5616
377.205	8019
377.287	2261
377.369	1538
377.452	1105
377.534	1251
377.616	1314
377.698	2076
377.780	1201
377.862	2107
377.944	2194
378.026	946
378.108	1693
378.190	553
378.272	1647
378.354	535
378.436	391
378.518	2194
378.600	10691
378.682	9972
378.764	15521
378.846	18367
378.928	4980
379.010	5425
379.091	4312
379.173	1414
379.255	1084
379.337	1858
379.419	6636
379.501	25935
379.583	15430
379.664	2869
379.746	5020
379.828	15563
379.910	23900
379.991	25255
380.073	5361
380.155	2640
380.237	2462
380.318	1499
380.400	1612
380.482	3225
380.564	4863
380.645	6180
380.727	6768
380.809	3826
380.890	2409
380.972	2820
381.053	1473
381.135	1932
381.217	4626
381.298	17685
381.380	12326
381.461	6823
381.543	30113
381.624	55893
381.706	12967
381.787	5225
381.869	5620
381.951	12390
382.032	60551
382.113	55968
382.195	10876
382.276	6767
382.358	10958
382.439	35044
382.521	41295
382.602	67283
382.684	35933
382.765	42822
382.846	59561
382.928	84029
383.009	63178
383.090	28300
383.172	93582
383.253	203183
383.334	82502
383.416	57803
383.497	42218
383.578	15240
383.659	23083
383.741	76653
383.822	254434
383.903	182782
383.984	46110
384.066	64860
384.147	51940
384.228	13338
384.309	6600
384.390	5897
384.471	5165
384.553	4325
384.634	5840
384.715	5944
384.796	3644
384.877	4567
384.958	13303
385.039	22439
385.120	8880
385.201	3551
385.282	4651
385.363	5726
385.444	4134
385.525	7313
385.606	25872
385.687	32277
385.768	8367
385.849	6098
385.930	22802
386.011	56906
386.092	22352
386.173	4117
386.254	2323
386.335	3863
386.416	3823
386.496	9069
386.577	20145
386.658	8881
386.739	4621
386.820	5243
386.901	3789
386.981	3784
387.062	2302
387.143	3718
387.224	13951
387.304	20490
387.385	7586
387.466	4981
387.547	6284
387.627	4484
387.708	6059
387.789	26061
387.869	47136
387.950	17589
388.031	2749
388.111	1261
388.192	6526
388.273	11102
388.353	7342
388.434	2872
388.514	5156
388.595	26772
388.676	46924
388.756	23475
388.837	14965
388.917	13093
388.998	2855
389.078	3116
389.159	1942
389.239	1912
389.320	4496
389.400	2596
389.480	5508
389.561	19455
389.641	14856
389.722	3996
389.802	5368
389.883	7619
389.963	23449
390.043	20845
390.124	6751
390.204	6000
390.284	18120
390.365	15438
390.445	15168
390.525	40113
390.605	40603
390.686	14037
390.766	6266
390.846	2853
390.927	1649
391.007	1599
391.087	3102
391.167	3828
391.247	2662
391.328	3985
391.408	6082
391.488	6174
391.568	1499
391.648	1817
391.728	4539
391.808	3757
391.888	3896
391.969	8643
392.049	18447
392.129	11695
392.209	9060
392.289	23361
392.369	17933
392.449	12341
392.529	10433
392.609	6154
392.689	7232
392.769	20121
392.849	25605
392.929	14581
393.009	34269
393.089	35165
393.169	22488
393.248	58758
393.328	243578
393.408	364635
393.488	123943
393.568	29076
393.648	13445
393.728	8480
393.807	6652
393.887	6403
393.967	5817
394.047	5566
394.127	6658
394.206	10261
394.286	27762
394.366	139475
394.446	216255
394.525	62944
394.605	13829
394.685	9135
394.764	15996
394.844	29238
394.924	28713
395.003	7865
395.083	4525
395.163	4217
395.242	4227
395.322	4642
395.402	2954
395.481	5133
395.561	9528
395.640	32950
395.720	31523
395.799	36372
395.879	40167
395.958	18010
396.038	42110
396.117	184845
396.197	287248
396.276	100044
396.356	27944
396.435	18308
396.515	13460
396.594	12281
396.673	19806
396.753	62015
396.832	238307
396.912	249978
396.991	64552
397.070	16625
397.150	8035
397.229	7142
397.308	7614
397.388	13710
397.467	9910
397.546	3812
397.625	783
397.705	4075
397.784	2898
397.863	2604
397.942	2192
398.022	2320
398.101	7255
398.180	31726
398.259	23360
398.338	5569
398.417	2916
398.497	1253
398.576	2266
398.655	1036
398.734	1557
398.813	1784
398.892	7337
398.971	33096
399.050	26123
399.129	3223
399.208	890
399.287	1902
399.366	781
399.445	1293
399.524	1064
399.603	495
399.682	2333
399.761	6974
399.840	31117
399.919	39300
399.998	6000
400.077	690
400.156	-240
400.235	2639
400.313	1383
400.392	1614
400.471	6640
400.550	15606
400.629	5449
400.708	2345
400.786	1557
400.865	5778
400.944	8664
401.023	5117
401.102	550
401.180	703
401.259	262
401.338	1556
401.416	1726
401.495	1596
401.574	1532
401.652	941
401.731	1632
401.810	2653
401.888	1088
401.967	-233
402.046	849
402.124	1846
402.203	1925
402.281	1857
402.360	2415
402.438	8293
402.517	8537
402.596	2289
402.674	1469
402.753	960
402.831	1704
402.910	1539
402.988	5433
403.066	28158
403.145	25983
403.223	8890
403.302	23196
403.380	22895
403.459	20000
403.537	10503
403.615	2937
403.694	89
403.772	426
403.850	556
403.929	82
404.007	160
404.085	2875
404.164	2996
404.242	1470
404.320	2122
404.398	5046
404.477	7963
404.555	38893
404.633	54618
404.711	11083
404.789	2792
404.868	1642
404.946	495
405.024	104
405.102	748
405.180	472
405.258	-205
405.336	556
405.415	399
405.493	2773
405.571	4191
405.649	1027
405.727	-208
405.805	1999
405.883	2276
405.961	2014
406.039	2387
406.117	1294
406.195	1837
406.273	6509
406.351	36334
406.429	33766
406.507	5331
406.585	1720
406.663	1284
406.740	1456
406.818	1236
406.896	1415
406.974	1323
407.052	1450
407.130	16655
407.208	36204
407.285	10831
407.363	858
407.441	987
407.519	1112
407.596	1269
407.674	3688
407.752	19578
407.830	26114
407.907	8365
407.985	1980
408.063	1588
408.141	-75
408.218	2704
408.296	1704
408.373	1548
408.451	1257
408.529	236
408.606	-335
408.684	-235
408.762	380
408.839	228
408.917	-363
408.994	-47
409.072	-411
409.149	845
409.227	1457
409.304	2857
409.382	2129
409.459	2212
409.537	4011
409.614	3225
409.692	1694
409.769	1202
409.846	2578
409.924	5678
410.001	3192
410.079	1371
410.156	1509
410.233	1152
410.311	605
410.388	242
410.465	1056
410.543	387
410.620	2020
410.697	807
410.775	977
410.852	-86
410.929	1294
411.006	2346
411.083	518
411.161	2643
411.238	4658
411.315	2296
411.392	1602
411.469	1897
411.547	1867
411.624	-436
411.701	920
411.778	227
411.855	1799
411.932	1252
412.009	-306
412.086	775
412.163	462
412.240	390
412.317	1716
412.394	1243
412.471	988
412.548	248
412.625	463
412.702	501
412.779	2172
412.856	1743
412.933	-18
413.010	798
413.087	1059
413.164	5505
413.241	13033
413.318	3454
413.395	1133
413.471	1758
413.548	1451
413.625	874
413.702	293
413.779	520
413.855	-76
413.932	-432
414.009	-1245
414.086	-153
414.162	426
414.239	358
414.316	5204
414.393	16903
414.469	9656
414.546	904
414.623	-507
414.699	484
414.776	540
414.853	-555
414.929	59
415.006	401
415.082	286
415.159	1247
415.236	421
415.312	161
415.389	825
415.465	1197
415.542	1496
415.618	-163
415.695	931
415.771	531
415.848	668
415.924	389
416.000	675
416.077	373
416.153	-796
416.230	-1104
416.306	-540
416.383	-652
416.459	-82
416.535	-478
416.612	-303
416.688	189
416.764	-447
416.841	-16
416.917	-268
416.993	193
417.069	604
417.146	688
417.222	1315
417.298	494
417.374	172
417.451	-161
417.527	461
417.603	192
417.679	-28
417.755	687
417.831	-637
417.908	-29
417.984	-233
418.060	-610
418.136	412
418.212	2458
418.288	847
418.364	689
418.440	-523
418.516	1309
418.592	1779
418.668	2908
418.744	3886
418.820	4408
418.896	604
418.972	-316
419.048	-170
419.124	1734
419.200	1069
419.276	634
419.352	-211
419.428	-310
419.504	113
419.579	-85
419.655	226
419.731	169
419.807	2435
419.883	4603
419.959	4093
420.034	1423
420.110	1147
420.186	9066
420.262	11496
420.337	2011
420.413	585
420.489	919
420.565	454
420.640	-120
420.716	458
420.792	-326
420.867	1565
420.943	446
421.019	1287
421.094	1211
421.170	913
421.245	174
421.321	678
421.397	342
421.472	3110
421.548	10643
421.623	11888
421.699	3358
421.774	2232
421.850	1285
421.925	2255
422.001	3032
422.076	3091
422.152	3395
422.227	5097
422.302	7149
422.378	9615
422.453	17046
422.529	40525
422.604	113718
422.679	223237
422.755	186922
422.830	78039
422.905	28019
422.981	13861
423.056	9071
423.131	6368
423.207	4359
423.282	3164
423.357	5374
423.432	4067
423.508	3915
423.583	4101
423.658	6262
423.733	2698
423.808	1896
423.883	2197
423.959	1578
424.034	1534
424.109	1519
424.184	1086
424.259	1033
424.334	835
424.409	-123
424.484	897
424.559	808
424.634	7
424.709	584
424.784	1647
424.859	1074
424.934	127
425.009	5330
425.084	13600
425.159	7667
425.234	1741
425.309	151
425.384	2207
425.459	6759
425.534	3441
425.609	524
425.683	890
425.758	-12
425.833	626
425.908	583
425.983	2088
426.058	11459
426.132	8812
426.207	1491
426.282	2408
426.357	2705
426.431	391
426.506	693
426.581	871
426.655	613
426.730	768
426.805	2
426.879	1067
426.954	889
427.029	1326
427.103	9180
427.178	33838
427.253	26173
427.327	4175
427.402	1785
427.476	8350
427.551	7187
427.625	1386
427.700	1469
427.774	425
427.849	1233
427.923	433
427.998	135
428.072	986
428.147	2609
428.221	9198
428.296	40734
428.370	40147
428.444	5853
428.519	3296
428.593	7315
428.667	8678
428.742	7735
428.816	8479
428.890	22187
428.965	55481
429.039	26089
429.113	10305
429.188	5566
429.262	831
429.336	1561
429.410	6128
429.485	6645
429.559	5268
429.633	7204
429.707	2453
429.781	3858
429.855	22955
429.930	57950
430.004	31224
430.078	35031
430.152	41216
430.226	51774
430.300	82063
430.374	21425
430.448	4174
430.522	7557
430.596	31898
430.670	31630
430.744	35280
430.818	79621
430.892	27680
430.966	2570
431.040	928
431.114	74
431.188	127
431.262	1284
431.336	426
431.410	3350
431.484	7877
431.557	9445
431.631	1782
431.705	1336
431.779	4806
431.853	33706
431.927	45446
432.000	8421
432.074	1050
432.148	1398
432.222	1465
432.295	828
432.369	69
432.443	1165
432.516	9048
432.590	36198
432.664	26113
432.737	3144
432.811	-481
432.885	-490
432.958	-230
433.032	-257
433.106	-1073
433.179	-331
433.253	28
433.326	31
433.400	-633
433.473	-700
433.547	-410
433.620	-217
433.694	714
433.767	1152
433.841	400
433.914	-86
433.988	-707
434.061	290
434.134	28
434.208	-671
434.281	18
434.355	-406
434.428	419
434.501	-303
434.575	-284
434.648	-360
434.721	-765
434.795	-875
434.868	161
434.941	-388
435.014	-654
435.088	-356
435.161	309
435.234	1602
435.307	2056
435.381	1630
435.454	619
435.527	1704
435.600	2229
435.673	1338
435.746	328
435.819	614
435.892	176
435.966	518
436.039	-892
436.112	653
436.185	730
436.258	275
436.331	-1108
436.404	-291
436.477	-521
436.550	27
436.623	-157
436.696	-59
436.769	-61
436.842	-268
436.915	168
436.987	353
437.060	687
437.133	-116
437.206	-821
437.279	177
437.352	-348
437.425	-451
437.498	-256
437.570	862
437.643	1430
437.716	409
437.789	-308
437.861	1111
437.934	7225
438.007	6579
438.080	762
438.152	649
438.225	1936
438.298	12512
438.370	58016
438.443	46415
438.516	11017
438.588	3438
438.661	507
438.734	1138
438.806	378
438.879	1508
438.951	930
439.024	3508
439.096	2065
439.169	552
439.241	-465
439.314	-469
439.386	678
439.459	2325
439.531	3044
439.604	3445
439.676	259
439.749	-172
439.821	-375
439.893	358
439.966	-53
440.038	557
440.110	1731
440.183	358
440.255	316
440.327	1163
440.400	4632
440.472	29945
440.544	41662
440.617	8120
440.689	2497
440.761	3474
440.833	7027
440.905	5918
440.978	1042
441.050	70
441.122	129
441.194	79
441.266	618
441.338	-312
441.411	952
441.483	6441
441.555	19739
441.627	9270
441.699	2287
441.771	2529
441.843	1415
441.915	552
441.987	634
442.059	135
442.131	1205
442.203	2022
442.275	3256
442.347	3848
442.419	3699
442.491	14221
442.563	57934
442.635	48973
442.706	16221
442.778	14903
442.850	4454
442.922	1047
442.994	1965
443.066	2171
443.137	3007
443.209	2410
443.281	3158
443.353	6030
443.425	21801
443.496	89579
443.568	141705
443.640	73404
443.711	17349
443.783	4592
443.855	2223
443.926	2243
443.998	1467
444.070	2045
444.141	2296
444.213	2304
444.285	3350
444.356	2623
444.428	2893
444.499	1766
444.571	478
444.642	711
444.714	706
444.785	2513
444.857	2761
444.928	7861
445.000	9789
445.071	6039
445.143	9535
445.214	7645
445.285	7152
445.357	20995
445.428	56575
445.500	166670
445.571	160965
445.642	88268
445.714	35995
445.785	23239
445.856	12927
445.928	3949
445.999	3713
446.070	3964
446.141	2679
446.213	3498
446.284	3184
446.355	2441
446.426	2462
446.497	1037
446.569	2392
446.640	4046
446.711	3924
446.782	1840
446.853	1003
446.924	1794
446.995	856
447.066	1094
447.138	2390
447.209	3547
447.280	-387
447.351	-50
447.422	-807
447.493	986
447.564	2092
447.635	1009
447.706	1428
447.777	-421
447.847	502
447.918	-56
447.989	1458
448.060	1925
448.131	4661
448.202	8732
448.273	4497
448.344	1524
448.414	339
448.485	570
448.556	210
448.627	-99
448.698	940
448.768	-49
448.839	493
448.910	2372
448.981	4902
449.051	1317
449.122	366
449.193	-160
449.263	648
449.334	521
449.405	559
449.475	3326
449.546	4339
449.616	3383
449.687	4883
449.758	2068
449.828	646
449.899	421
449.969	17
450.040	681
450.110	786
450.181	1874
450.251	424
450.322	385
450.392	686
450.463	1200
450.533	167
450.604	780
450.674	394
450.744	1284
450.815	593
450.885	325
450.955	-65
451.026	78
451.096	206
451.166	1418
451.237	2545
451.307	11837
451.377	11339
451.447	1426
451.518	501
451.588	637
451.658	1547
451.728	1471
451.799	8037
451.869	20259
451.939	9748
452.009	1466
452.079	390
452.149	1400
452.219	1542
452.289	10973
452.360	19597
452.430	6451
452.500	1419
452.570	2135
452.640	3355
452.710	8027
452.780	20607
452.850	17099
452.920	10673
452.990	6945
453.060	2048
453.129	2234
453.199	3705
453.269	9512
453.339	48142
453.409	86814
453.479	57117
453.549	87375
453.619	106577
453.688	78836
453.758	16672
453.828	2943
453.898	2129
453.968	1597
454.037	1846
454.087	1301
454.107	1074
454.168	1159
454.177	1166
454.247	1276
454.249	1265
454.316	796
454.330	896
454.386	1198
454.411	2511
454.456	4499
454.492	9814
454.525	14571
454.574	11703
454.595	10522
454.655	3172
454.665	1977
454.734	2143
454.736	2194
454.804	3241
454.817	4530
454.873	9284
454.898	13545
454.943	21215
454.979	16293
455.013	11976
455.060	6248
455.082	3754
455.141	2551
455.152	2295
455.221	6800
455.222	7014
455.291	19670
455.303	19618
455.360	19926
455.384	19790
455.430	18645
455.465	17681
455.499	16956
455.546	13788
455.569	12040
455.627	14369
455.638	14964
455.707	5164
455.708	5145
455.777	1069
455.789	1076
455.846	932
455.869	1105
455.916	1557
455.950	1347
455.985	1062
456.031	1408
456.054	1575
456.112	1489
456.124	1479
456.193	1114
456.193	1105
456.262	943
456.274	1090
456.332	1597
456.355	1676
456.401	1549
456.436	1357
456.470	1303
456.516	946
456.540	709
456.597	168
456.609	94
456.678	371
456.678	366
456.747	151
456.759	206
456.817	218
456.840	82
456.886	-63
456.920	510
456.955	1105
457.001	992
457.024	998
457.082	1887
457.093	2058
457.162	2505
457.163	2523
457.232	2814
457.243	2696
457.301	2210
457.324	1786
457.370	1058
457.405	783
457.439	580
457.485	1091
457.508	1427
457.566	1537
457.577	1588
457.646	1979
457.647	1999
457.715	3552
457.727	3902
457.784	6041
457.808	7634
457.853	9425
457.889	11854
457.922	13208
457.969	11589
457.991	12136
458.050	10994
458.060	10888
458.129	15976
458.130	16221
458.198	19298
458.211	18224
458.267	15186
458.292	11538
458.336	7136
458.372	5993
458.405	5976
458.453	7586
458.474	9030
458.533	14721
458.543	14981
458.611	24904
458.614	25301
458.680	26378
458.694	22919
458.749	15321
458.775	11263
458.818	5460
458.855	4082
458.887	2813
458.936	2534
458.955	2456
459.016	2181
459.024	2192
459.093	2219
459.097	2239
459.162	2062
459.177	1982
459.230	1990
459.257	2434
459.299	3261
459.338	3315
459.368	3006
459.418	3252
459.437	3229
459.499	2737
459.505	2764
459.574	2099
459.579	2109
459.643	1758
459.659	1650
459.711	1773
459.740	2029
459.780	2093
459.820	2016
459.849	2093
459.900	2269
459.917	2286
459.981	2663
459.986	2664
460.054	2705
460.061	2639
460.123	2600
460.141	2698
460.191	3091
460.222	3257
460.260	3318
460.302	3823
460.328	3729
460.382	3767
460.397	4076
460.462	3381
460.465	3422
460.534	5812
460.543	6234
460.602	15249
460.623	18436
460.671	29556
460.703	40321
460.739	35418
460.783	32161
460.808	32336
460.864	13096
460.876	10887
460.944	3118
460.945	3029
461.013	2676
461.024	2733
461.081	2564
461.104	2630
461.150	2701
461.184	2219
461.218	2127
461.264	2221
461.286	2196
461.345	2336
461.355	2357
461.423	2633
461.425	2627
461.491	2592
461.505	2751
461.559	5820
461.585	7128
461.628	10521
461.665	13873
461.696	14499
461.745	18615
461.764	17393
461.825	11098
461.832	11394
461.901	5013
461.905	4921
461.969	2344
461.985	2137
462.037	3127
462.065	3527
462.105	3663
462.145	3643
462.173	4875
462.225	7565
462.241	8303
462.305	12308
462.310	11976
462.378	8421
462.385	7574
462.446	6032
462.465	5046
462.514	2958
462.545	2931
462.582	2778
462.625	2769
462.650	2835
462.705	2688
462.718	2789
462.785	3466
462.786	3489
462.854	4787
462.865	5002
462.922	6093
462.945	6899
462.990	5686
463.025	4040
463.058	3696
463.104	2640
463.126	2355
463.184	2294
463.194	2345
463.262	2833
463.264	2847
463.330	2682
463.344	2698
463.398	3279
463.424	3411
463.466	2982
463.504	2954
463.533	3351
463.583	3580
463.601	3712
463.663	4205
463.669	4317
463.737	5612
463.743	5749
463.805	8442
463.823	9279
463.873	15018
463.903	18635
463.940	18297
463.982	18971
464.008	16091
464.062	9066
464.076	9121
464.142	4867
464.144	4770
464.211	3411
464.221	3401
464.279	2981
464.301	2861
464.347	3510
464.381	3847
464.414	4197
464.461	5051
464.482	5241
464.540	5722
464.550	5633
464.617	4885
464.620	4843
464.685	4939
464.699	4939
464.753	5388
464.779	5744
464.820	6082
464.859	6457
464.888	6717
464.938	7036
464.956	6936
465.018	6401
465.023	6351
465.091	5805
465.098	5729
465.158	5169
465.177	4993
465.226	4907
465.257	4873
465.293	5119
465.336	5377
465.361	5884
465.416	7034
465.428	7497
465.495	9970
465.496	10029
465.563	17172
465.575	18412
465.631	21309
465.654	22990
465.698	14927
465.734	7496
465.765	7367
465.813	5896
465.833	5415
465.893	5100
465.900	5099
465.968	5429
465.972	5443
466.035	4764
466.052	4585
466.102	4522
466.131	4514
466.170	4786
466.210	5059
466.237	5257
466.290	5512
466.304	5566
466.369	5852
466.372	5884
466.439	6660
466.449	6765
466.506	8082
466.528	8588
466.573	11644
466.607	13915
466.641	19666
466.687	27631
466.708	29194
466.766	33612
466.775	31205
466.842	13200
466.845	12320
466.909	9673
466.925	9053
466.977	8150
467.004	7895
467.044	8268
467.083	8621
467.111	9006
467.163	9737
467.178	9752
467.242	9746
467.245	9704
467.312	8659
467.321	8513
467.379	8304
467.400	8213
467.446	9353
467.480	10159
467.559	8138
467.638	7254
467.717	6812
467.796	7993
467.875	8334
467.955	8481
468.034	14498
468.113	30945
468.192	41682
468.271	10156
468.350	7702
468.429	9430
468.508	9471
468.588	6244
468.667	6624
468.746	7368
468.825	7242
468.904	6220
468.983	7342
469.062	11443
469.141	13583
469.220	6116
469.299	5771
469.378	6649
469.456	7831
469.535	7127
469.614	6280
469.693	7755
469.772	9453
469.851	12979
469.930	8695
470.009	7280
470.088	6705
470.166	8566
470.245	12925
470.324	14408
470.403	9188
470.482	6721
470.560	7222
470.639	6018
470.718	7160
470.797	6817
470.875	8585
470.954	10820
471.033	10942
471.111	5208
471.190	4965
471.269	4948
471.347	5877
471.426	5722
471.505	6610
471.583	6881
471.662	6118
471.740	5975
471.819	5958
471.898	5955
471.976	5169
472.055	4897
472.133	6564
472.212	8838
472.290	9248
472.369	5784
472.447	4999
472.526	4231
472.604	6085
472.683	5668
472.761	5257
472.839	5691
472.918	5197
472.996	5798
473.075	6639
473.153	6159
473.231	5044
473.310	6346
473.388	6210
473.466	5481
473.545	5951
473.623	8743
473.701	7850
473.780	4637
473.858	5121
473.936	5839
474.014	5191
474.093	6074
474.171	9539
474.249	13025
474.327	7375
474.405	5067
474.484	4734
474.562	4310
474.640	4749
474.718	6385
474.796	5826
474.874	5708
474.952	4408
475.030	4485
475.108	5233
475.187	5817
475.265	7579
475.343	10561
475.421	11937
475.499	4624
475.577	5850
475.655	8439
475.733	16726
475.811	27445
475.889	25410
475.966	14096
476.044	6383
476.122	8040
476.200	11051
476.278	7397
476.356	5606
476.434	5203
476.512	7846
476.590	10943
476.667	8385
476.745	4269
476.823	5751
476.901	4261
476.979	4970
477.056	5272
477.134	5160
477.212	5645
477.290	4623
477.367	4778
477.445	4570
477.523	5213
477.601	4865
477.678	4764
477.756	6402
477.834	6782
477.911	4399
477.989	4780
478.066	4920
478.144	5908
478.222	8379
478.299	13931
478.377	9736
478.454	4227
478.532	4170
478.609	4122
478.687	5357
478.764	4307
478.842	4773
478.919	5065
478.997	4527
479.074	4214
479.152	5509
479.229	7838
479.307	3799
479.384	3978
479.461	3399
479.539	4549
479.616	5505
479.694	4240
479.771	4958
479.848	5067
479.926	7955
480.003	7637
480.080	4050
480.157	4912
480.235	4139
480.312	4228
480.389	5118
480.467	9373
480.544	11081
480.621	4782
480.698	5634
480.775	5575
480.853	6112
480.930	4155
481.007	5813
481.084	5935
481.161	6725
481.238	6150
481.315	3959
481.392	4243
481.470	4233
481.547	4668
481.624	4767
481.701	3667
481.778	4777
481.855	5117
481.932	8954
482.009	16182
482.086	8428
482.163	5244
482.240	9149
482.317	17412
482.393	10619
482.470	5230
482.547	5198
482.624	4077
482.701	4634
482.778	4311
482.855	3714
482.932	3637
483.009	3978
483.085	4912
483.162	7107
483.239	5295
483.316	4888
483.393	4132
483.469	4221
483.546	4524
483.623	5185
483.699	4523
483.776	4509
483.853	5552
483.930	9069
484.006	23936
484.083	40089
484.160	16769
484.236	23224
484.313	18372
484.389	13352
484.466	11595
484.543	11897
484.619	12029
484.696	12931
484.772	13636
484.849	13844
484.925	10599
485.002	10814
485.078	11411
485.155	12220
485.231	10402
485.308	10079
485.384	10196
485.461	15185
485.537	23909
485.614	26086
485.690	10513
485.766	9609
485.843	11364
485.919	14086
485.995	12839
486.072	9933
486.148	9509
486.224	9181
486.301	9551
486.377	11750
486.453	11813
486.530	11473
486.606	14942
486.682	15562
486.758	20011
486.835	21575
486.911	18082
486.987	30176
487.063	28068
487.139	30911
487.215	21612
487.292	11502
487.368	10698
487.444	13124
487.520	16448
487.596	14911
487.672	24300
487.748	57475
487.824	77803
487.900	23026
487.976	12526
488.052	12465
488.128	16342
488.204	11610
488.280	10366
488.356	13259
488.432	28290
488.508	41875
488.584	12576
488.660	9069
488.736	9021
488.812	9211
488.888	12018
488.964	16530
489.039	32251
489.115	45676
489.191	23810
489.267	9489
489.343	8982
489.418	7111
489.494	7996
489.570	6916
489.646	8075
489.722	7828
489.797	9306
489.873	14476
489.949	31445
490.024	22373
490.100	7468
490.176	7719
490.251	8867
490.327	11959
490.403	7646
490.478	6399
490.554	5943
490.629	6175
490.705	6842
490.781	7086
490.856	7480
490.932	7902
491.007	7922
491.083	8227
491.158	6969
491.234	10844
491.309	24332
491.385	21448
491.460	7092
491.536	7897
491.611	5801
491.686	6601
491.762	10388
491.837	20012
491.913	33076
491.988	47327
492.063	52177
492.139	16878
492.214	9794
492.289	6177
492.365	5391
492.440	6555
492.515	6875
492.590	6660
492.666	5664
492.741	8509
492.816	12817
492.891	6202
492.967	5123
493.042	4851
493.117	4724
493.192	6425
493.267	10579
493.342	27079
493.418	35241
493.493	7149
493.568	4489
493.643	5861
493.718	7235
493.793	10634
493.868	10603
493.943	6230
494.018	5787
494.093	5079
494.168	5342
494.243	5003
494.318	5163
494.393	4786
494.468	3465
494.543	4122
494.618	5174
494.693	3836
494.768	4472
494.842	4732
494.917	3662
494.992	4497
495.067	4258
495.142	3728
495.217	3604
495.292	4680
495.366	5458
495.441	7377
495.516	8242
495.591	14165
495.665	44603
495.740	97666
495.815	30682
495.890	6768
495.964	5746
496.039	7500
496.114	6550
496.188	7599
496.263	7102
496.338	6387
496.412	7664
496.487	8226
496.561	8556
496.636	8133
496.710	6698
496.785	8040
496.860	9107
496.934	6688
497.009	6368
497.083	7005
497.158	7214
497.232	9405
497.307	11678
497.381	9324
497.455	12291
497.530	14901
497.604	10072
497.679	12346
497.753	18866
497.827	25185
497.902	22710
497.976	28973
498.050	74333
498.125	244690
498.199	205479
498.273	34899
498.348	26370
498.422	19718
498.496	17874
498.570	15790
498.645	11322
498.719	11326
498.793	12774
498.867	21821
498.941	34275
499.016	99328
499.090	250248
499.164	60865
499.238	8622
499.312	7621
499.386	10407
499.460	8265
499.534	7896
499.609	10209
499.683	15822
499.757	18462
499.831	46662
499.905	166542
499.979	126344
500.053	18647
500.127	17403
500.201	10680
500.275	7558
500.349	7978
500.422	8768
500.496	14755
500.570	33767
500.644	87868
500.718	155623
500.792	24008
500.866	7842
500.940	10419
501.013	7718
501.087	8009
501.161	14307
501.235	22252
501.309	54103
501.382	143402
501.456	102705
501.530	23968
501.603	42454
501.677	12149
501.751	5783
501.825	9176
501.898	20249
501.972	54089
502.046	26748
502.119	9439
502.193	23843
502.266	59424
502.340	23374
502.413	26251
502.487	47342
502.561	24416
502.634	6710
502.708	5899
502.781	4774
502.855	4974
502.928	3664
503.002	4765
503.075	4085
503.149	3881
503.222	3818
503.295	3856
503.369	6909
503.442	12106
503.516	42964
503.589	99530
503.662	54872
503.736	17928
503.809	45466
503.882	34556
503.956	55043
504.029	44078
504.102	34516
504.175	40146
504.249	11449
504.322	8853
504.395	7038
504.468	4432
504.542	4845
504.615	3651
504.688	3385
504.761	3263
504.834	4863
504.907	6027
504.980	9672
505.053	4658
505.127	4976
505.200	8005
505.273	7268
505.346	4996
505.419	3134
505.492	3242
505.565	2863
505.638	2726
505.711	3972
505.784	3143
505.857	2551
505.930	3609
506.003	2570
506.076	4103
506.149	5218
506.221	6777
506.294	8331
506.367	24560
506.440	73300
506.513	29686
506.586	7527
506.659	4371
506.731	4189
506.804	4437
506.877	6684
506.950	5354
507.022	3881
507.095	5314
507.168	6287
507.241	4160
507.313	2828
507.386	3276
507.459	5963
507.531	3371
507.604	1927
507.677	2820
507.749	2309
507.822	4525
507.894	8688
507.967	9484
508.040	4275
508.112	4769
508.185	4741
508.257	4503
508.330	6947
508.402	4376
508.475	5349
508.547	4951
508.620	4650
508.692	8598
508.765	4025
508.837	3397
508.909	3490
508.982	2685
509.054	4151
509.127	3025
509.199	3463
509.271	2575
509.344	2216
509.416	3116
509.488	3116
509.560	3677
509.633	3538
509.705	3615
509.777	3945
509.849	5698
509.922	2546
509.994	3327
510.066	3916
510.138	4498
510.210	8946
510.283	7391
510.355	5912
510.427	5597
510.499	4570
510.571	4798
510.643	5136
510.715	7177
510.787	5862
510.859	5522
510.931	5519
511.003	7351
511.076	6521
511.148	3433
511.219	3864
511.291	9481
511.363	8642
511.435	4336
511.507	3385
511.579	4484
511.651	3840
511.723	3502
511.795	4025
511.867	3389
511.939	6306
512.010	13075
512.082	8895
512.154	4716
512.226	3823
512.298	7117
512.369	9310
512.441	7264
512.513	7052
512.585	5555
512.656	5653
512.728	5984
512.800	5583
512.871	5032
512.943	4421
513.015	3628
513.086	4162
513.158	5008
513.230	4654
513.301	7305
513.373	8779
513.444	4515
513.516	4124
513.588	3724
513.659	4040
513.731	6202
513.802	6018
513.874	11056
513.945	17092
514.016	5051
514.088	3657
514.159	4471
514.231	6163
514.302	8652
514.374	6124
514.445	6487
514.516	14985
514.588	9233
514.659	6186
514.730	13251
514.802	8686
514.873	6965
514.944	8151
515.016	6421
515.087	6631
515.158	9849
515.229	13247
515.301	8832
515.372	10322
515.443	6270
515.514	4628
515.585	4055
515.656	4629
515.728	5551
515.799	3650
515.870	4733
515.941	4205
516.012	5150
516.083	6241
516.154	6371
516.225	9555
516.296	6682
516.367	6025
516.438	7801
516.509	12056
516.580	22251
516.651	68760
516.722	204766
516.793	67888
516.864	13341
516.935	13319
517.006	17463
517.077	30980
517.148	78651
517.219	271413
517.289	347753
517.360	91163
517.431	25500
517.502	8198
517.573	7700
517.643	7794
517.714	8238
517.785	8191
517.856	8309
517.926	10234
517.997	12226
518.068	16600
518.138	26194
518.209	57651
518.280	199732
518.350	591021
518.421	169549
518.492	18115
518.562	11629
518.633	12035
518.703	11906
518.774	22766
518.845	49723
518.915	43042
518.986	14215
519.056	12717
519.127	19889
519.197	33056
519.268	75016
519.338	40781
519.408	10547
519.479	11210
519.549	7279
519.620	5655
519.690	4948
519.760	4461
519.831	5454
519.901	4281
519.971	5412
520.042	5401
520.112	6128
520.182	6742
520.253	7377
520.323	5721
520.393	8914
520.463	12502
520.534	7887
520.604	18910
520.674	7551
520.744	9559
520.814	22637
520.885	19574
520.955	28685
521.025	89744
521.095	25224
521.165	6198
521.235	4632
521.305	4026
521.375	4379
521.445	5129
521.515	6421
521.585	6321
521.655	5487
521.725	6290
521.795	5214
521.865	3299
521.935	8026
522.005	5575
522.075	3814
522.145	4988
522.215	4583
522.285	8020
522.355	10937
522.424	22439
522.494	16978
522.564	8265
522.634	16472
522.704	41125
522.774	12898
522.843	4316
522.913	4013
522.983	5251
523.053	3871
523.122	5580
523.192	7692
523.262	23999
523.331	18769
523.401	5132
523.471	2800
523.540	3547
523.610	2779
523.680	3022
523.749	3628
523.819	4668
523.888	4045
523.958	2350
524.027	3778
524.097	3460
524.166	2645
524.236	3137
524.305	4737
524.375	2422
524.444	2622
524.514	3691
524.583	4285
524.653	4897
524.722	5627
524.791	2782
524.861	3913
524.930	2450
524.999	3525
525.069	5760
525.138	4535
525.207	5004
525.277	3833
525.346	3743
525.415	3983
525.484	3880
525.554	4502
525.623	4217
525.692	3931
525.761	4399
525.830	4227
525.900	5207
525.969	10397
526.038	17688
526.107	35637
526.176	90981
526.245	66130
526.314	25309
526.383	52598
526.452	66325
526.522	114617
526.591	98713
526.660	24415
526.729	12445
526.797	19853
526.867	46544
526.935	158409
527.004	254857
527.073	117715
527.142	10284
527.211	5841
527.280	6239
527.349	5124
527.418	2194
527.487	3820
527.555	2687
527.624	1738
527.693	2168
527.762	2606
527.831	1772
527.899	3477
527.968	2243
528.037	1722
528.106	3965
528.174	7194
528.243	6300
528.312	9270
528.380	9737
528.449	2618
528.518	2648
528.586	1763
528.655	2657
528.723	2422
528.792	1464
528.861	3180
528.929	1057
528.998	2051
529.066	2167
529.135	2488
529.203	1082
529.272	1323
529.340	2564
529.409	2861
529.477	2049
529.545	3218
529.614	4988
529.682	4235
529.751	5426
529.819	6559
529.887	3159
529.956	2228
530.024	3194
530.092	1256
530.161	2957
530.229	4504
530.297	2015
530.365	2767
530.434	1319
530.502	1441
530.570	2617
530.638	857
530.707	3483
530.775	3524
530.843	1612
530.911	687
530.979	2182
531.047	1332
531.115	2373
531.183	2416
531.252	2278
531.320	2433
531.388	1456
531.456	2408
531.524	819
531.592	2563
531.660	3467
531.728	1294
531.796	1911
531.864	2204
531.932	1403
532.000	1568
532.067	2246
532.135	1736
532.203	3242
532.271	3173
532.339	7185
532.407	16734
532.475	8072
532.542	5014
532.610	5380
532.678	9960
532.746	37060
532.814	76234
532.881	15240
532.949	3828
533.017	2572
533.084	2835
533.152	1887
533.220	2387
533.287	2560
533.355	2837
533.423	1937
533.490	1999
533.558	2072
533.625	2331
533.693	2316
533.761	2445
533.828	2881
533.896	2346
533.963	6085
534.031	7229
534.098	10358
534.166	4712
534.233	1430
534.300	2844
534.368	3290
534.435	2008
534.503	2878
534.570	4159
534.637	2919
534.705	3805
534.772	6537
534.840	12384
534.907	43422
534.974	47609
535.041	6061
535.109	4706
535.176	2119
535.243	3181
535.310	3644
535.378	2370
535.445	1680
535.512	2430
535.579	2348
535.646	2569
535.714	2635
535.781	3822
535.848	3496
535.915	3252
535.982	2732
536.049	1959
536.116	3789
536.183	2999
536.250	2572
536.317	3119
536.384	3431
536.451	5126
536.518	6325
536.585	3162
536.652	5636
536.719	7626
536.786	5336
536.853	4675
536.920	8059
536.987	12452
537.053	12340
537.120	39789
537.187	29079
537.254	3804
537.321	2115
537.388	4519
537.454	2576
537.521	2585
537.588	2099
537.654	4099
537.721	3835
537.788	3874
537.855	2390
537.921	3468
537.988	2800
538.055	3271
538.121	3246
538.188	3919
538.254	5336
538.321	11475
538.388	6509
538.454	3290
538.521	3541
538.587	3192
538.654	2173
538.720	3098
538.787	3844
538.853	3134
538.920	4556
538.986	4600
539.053	3078
539.119	4473
539.185	3536
539.252	4793
539.318	6289
539.385	4675
539.451	3632
539.517	4971
539.583	6500
539.650	12133
539.716	28149
539.782	6907
539.849	3120
539.915	4186
539.981	3776
540.047	4947
540.114	3703
540.180	4143
540.246	3870
540.312	6267
540.378	10368
540.444	11672
540.510	12704
540.576	30731
540.643	8302
540.709	3441
540.775	3032
540.841	4263
540.907	5615
540.973	8972
541.039	6569
541.105	6749
541.171	3550
541.237	4235
541.303	4199
541.369	5647
541.435	6505
541.500	9741
541.566	5973
541.632	3421
541.698	3229
541.764	3424
541.830	3313
541.896	2774
541.961	3145
542.027	3611
542.093	3288
542.159	4605
542.224	4599
542.290	6223
542.356	8968
542.421	11308
542.487	4222
542.553	3706
542.618	4876
542.684	3484
542.750	3550
542.815	6555
542.881	10080
542.947	27384
543.012	18702
543.078	2886
543.143	2670
543.209	4439
543.274	3882
543.340	6187
543.405	10959
543.471	14128
543.536	4034
543.602	3490
543.667	3204
543.732	4345
543.798	2221
543.863	3891
543.928	2967
543.994	2098
544.059	3394
544.124	3470
544.190	2892
544.255	3573
544.320	3284
544.386	2746
544.451	5649
544.516	7408
544.581	6952
544.646	18705
544.712	24294
544.777	5853
544.842	5300
544.907	5420
544.972	4287
545.037	4107
545.102	5152
545.168	4939
545.233	5709
545.298	5467
545.363	6972
545.428	7541
545.493	12669
545.558	22267
545.623	9322
545.688	5393
545.753	4512
545.818	4666
545.883	5778
545.947	5348
546.012	6078
546.077	5966
546.142	6140
546.207	5599
546.272	7235
546.337	7314
546.401	6692
546.466	5883
546.531	5088
546.596	7056
546.661	6708
546.725	7429
546.790	6133
546.855	7012
546.919	7032
546.984	7427
547.049	8187
547.113	10084
547.178	8871
547.243	11218
547.307	14171
547.372	14668
547.436	14916
547.501	12762
547.565	15348
547.630	14623
547.695	14069
547.759	15682
547.823	13359
547.888	13594
547.952	14500
548.017	15542
548.081	17241
548.146	17255
548.210	16051
548.274	15502
548.339	15521
548.403	13722
548.468	10823
548.532	12836
548.596	13202
548.660	13477
548.725	15121
548.789	17419
548.853	17454
548.917	15575
548.982	16722
549.046	15211
549.110	11393
549.174	12248
549.238	13872
549.303	14215
549.367	16180
549.431	13885
549.495	14411
549.559	13977
549.623	16705
549.687	18571
549.751	20370
549.815	20061
549.879	21759
549.943	18645
550.007	20412
550.071	19168
550.135	19977
550.199	17307
550.263	17327
550.327	17366
550.391	19613
550.455	19359
550.519	19160
550.582	20548
550.646	24173
550.710	24886
550.774	23034
550.838	23107
550.901	23342
550.965	25453
551.029	26046
551.093	30030
551.156	34109
551.220	45496
551.284	51576
551.347	33931
551.411	42795
551.475	40521
551.538	25832
551.602	23133
551.666	20841
551.729	19507
551.793	19230
551.856	19298
551.920	18960
551.983	20359
552.047	19502
552.110	19356
552.174	18694
552.237	19840
552.301	17324
552.364	18285
552.428	16309
552.491	17888
552.554	18612
552.618	18298
552.681	19878
552.745	19884
552.808	26597
552.871	30693
552.934	21023
552.998	18696
553.061	18954
553.124	17803
553.187	16871
553.251	18371
553.314	17971
553.377	18887
553.440	22250
553.503	30946
553.567	38755
553.630	21212
553.693	19042
553.756	18733
553.819	18347
553.882	17154
553.945	16943
554.008	18153
554.071	17054
554.134	18388
554.197	16879
554.260	16719
554.323	17431
554.386	17407
554.449	17935
554.512	18724
554.575	16791
554.638	17949
554.701	16288
554.764	16168
554.827	15825
554.889	15503
554.952	14176
555.015	13908
555.078	14374
555.141	15058
555.203	14217
555.266	14098
555.329	14956
555.391	14972
555.454	13596
555.517	14313
555.580	12112
555.642	12383
555.705	11753
555.768	12346
555.830	12024
555.893	11615
555.955	12068
556.018	11350
556.080	11626
556.143	11325
556.206	10584
556.268	11053
556.330	11680
556.393	11611
556.455	10605
556.518	14018
556.580	12635
556.643	10302
556.705	9882
556.767	8865
556.830	11224
556.892	10565
556.955	12008
557.017	10671
557.079	10954
557.142	9632
557.204	10207
557.266	16280
557.328	12182
557.391	8088
557.453	7527
557.515	8225
557.577	8536
557.639	9791
557.701	8459
557.764	6803
557.826	8050
557.888	9812
557.950	9410
558.012	11555
558.074	16870
558.136	30966
558.198	65610
558.260	23587
558.322	8961
558.384	9651
558.446	12215
558.508	12396
558.570	18088
558.632	28666
558.694	46242
558.756	66831
558.818	152349
558.880	336763
558.942	99170
559.003	68538
559.065	32850
559.127	13791
559.189	15287
559.251	23099
559.312	37607
559.374	73835
559.436	211812
559.498	96048
559.559	15253
559.621	15693
559.683	24589
559.744	40613
559.806	99154
559.868	143647
559.929	27241
559.991	20209
560.052	28910
560.114	68875
560.176	46715
560.237	39367
560.299	61157
560.360	14017
560.422	7749
560.483	8033
560.545	6017
560.606	6597
560.667	6542
560.729	6148
560.790	5739
560.852	5469
560.913	5748
560.974	4735
561.036	5299
561.097	6148
561.158	5479
561.220	6110
561.281	5740
561.342	5799
561.403	8851
561.465	9676
561.526	16768
561.587	20389
561.648	6552
561.709	5736
561.771	5040
561.832	5030
561.893	4890
561.954	6326
562.015	5187
562.076	5061
562.137	5396
562.198	5735
562.259	6266
562.320	5512
562.381	6350
562.442	8256
562.503	7122
562.564	5693
562.625	5144
562.686	6292
562.747	5737
562.808	6446
562.869	5665
562.930	6904
562.991	6268
563.051	6338
563.112	6123
563.173	5884
563.234	4566
563.294	4522
563.355	5705
563.416	5911
563.477	5212
563.537	5458
563.598	5075
563.659	5780
563.720	5009
563.780	6160
563.841	5630
563.901	6309
563.962	4662
564.023	5800
564.083	5678
564.144	5734
564.204	5803
564.265	6851
564.325	7616
564.386	12861
564.446	11493
564.507	5814
564.567	5730
564.628	6265
564.688	4731
564.749	4947
564.809	6520
564.869	7339
564.930	5428
564.990	5954
565.050	5301
565.111	5457
565.171	5250
565.231	6034
565.292	5400
565.352	5676
565.412	6077
565.472	5930
565.532	6751
565.593	5293
565.653	5932
565.713	7042
565.773	6494
565.833	6974
565.893	8905
565.953	6314
566.013	6653
566.074	8507
566.134	9375
566.194	12746
566.254	13717
566.314	9476
566.374	7396
566.434	7523
566.494	6684
566.554	7773
566.614	8271
566.673	8446
566.733	8585
566.793	8918
566.853	10117
566.913	10074
566.973	10244
567.033	9859
567.092	10567
567.152	10414
567.212	10581
567.272	10634
567.331	10929
567.391	11456
567.451	12185
567.511	15217
567.570	15044
567.630	10783
567.690	10628
567.749	10760
567.809	11668
567.868	13013
567.928	15686
567.988	17022
568.047	21214
568.107	28231
568.166	37529
568.226	55851
568.285	75614
568.345	62166
568.404	49133
568.464	41736
568.523	40840
568.582	43357
568.642	50845
568.701	65159
568.761	90427
568.820	135378
568.879	126522
568.939	91856
568.998	67711
569.057	53370
569.116	42993
569.176	34537
569.235	28954
569.294	25476
569.353	22035
569.413	20201
569.472	17887
569.531	16249
569.590	13265
569.649	14513
569.708	12164
569.767	13332
569.827	13718
569.886	13048
569.945	10007
570.004	10263
570.063	9690
570.122	10473
570.181	9239
570.240	10567
570.299	10327
570.358	11000
570.417	8881
570.475	8704
570.534	8964
570.593	8203
570.652	8740
570.711	8709
570.770	7743
570.829	8770
570.887	8368
570.946	8914
571.005	7353
571.064	7991
571.122	8627
571.181	9160
571.240	7903
571.299	6223
571.357	7644
571.416	7338
571.475	7412
571.533	9179
571.592	6254
571.650	7597
571.709	6502
571.768	6929
571.826	6842
571.885	5726
571.943	5596
572.002	6335
572.060	5996
572.119	5784
572.177	5901
572.236	5591
572.294	5561
572.352	6173
572.411	5841
572.469	6221
572.528	5566
572.586	6940
572.644	6364
572.703	9911
572.761	7047
572.819	6333
572.877	5590
572.936	5933
572.994	6143
573.052	5461
573.110	5589
573.169	5884
573.227	5049
573.285	5393
573.343	5896
573.401	5588
573.459	5826
573.517	5583
573.576	6173
573.634	5248
573.692	6472
573.750	5876
573.808	6159
573.866	6191
573.924	8045
573.982	7257
574.040	5627
574.098	6443
574.155	5089
574.213	4746
574.271	5270
574.329	5507
574.387	3952
574.445	4861
574.503	4116
574.560	5172
574.618	5090
574.676	5085
574.734	4411
574.792	5411
574.849	4983
574.907	4914
574.965	4541
575.022	4637
575.080	4151
575.138	4797
575.195	5013
575.253	4720
575.311	5356
575.368	4896
575.426	4758
575.483	5817
575.541	4957
575.598	5148
575.656	5014
575.713	5347
575.771	4619
575.828	4726
575.886	4903
575.943	6045
576.001	6179
576.058	5315
576.115	6010
576.173	7423
576.230	8140
576.287	8142
576.345	7601
576.402	5666
576.459	5698
576.517	6115
576.574	6435
576.631	6999
576.688	5648
576.746	5977
576.803	5589
576.860	6040
576.917	5683
576.974	6198
577.031	4745
577.089	6322
577.146	5804
577.203	5906
577.260	6419
577.317	6496
577.374	7343
577.431	7162
577.488	5885
577.545	5566
577.602	5816
577.659	5304
577.716	5196
577.773	5766
577.830	4623
577.886	5729
577.943	4697
578.000	5612
578.057	6010
578.114	5622
578.171	5494
578.227	5845
578.284	5707
578.341	6795
578.398	6508
578.454	7081
578.511	7259
578.568	8092
578.625	6225
578.681	6347
578.738	5461
578.794	6105
578.851	5498
578.908	5619
578.964	6216
579.021	6198
579.077	5897
579.134	5971
579.190	5199
579.247	5977
579.303	5149
579.360	6203
579.416	5564
579.473	5479
579.529	5129
579.586	5857
579.642	5567
579.698	5684
579.755	6066
579.811	5826
579.867	5846
579.924	6156
579.980	5329
580.036	6928
580.093	6097
580.149	7136
580.205	7439
580.261	6784
580.317	6920
580.374	7143
580.430	8561
580.486	7062
580.542	7420
580.598	7690
580.619	7274
580.654	6556
580.692	6843
580.710	6990
580.765	6894
580.767	6894
580.823	6225
580.838	6337
580.879	6643
580.911	6402
580.935	6235
580.984	6156
580.991	6146
581.047	6658
581.057	6788
581.103	7375
581.130	7278
581.159	7170
581.203	7765
581.215	7937
581.270	7107
581.276	7137
581.326	7368
581.349	7297
581.382	7224
581.422	7057
581.438	6974
581.494	8115
581.494	8110
581.550	7515
581.567	7836
581.606	8594
581.640	8080
581.661	7754
581.713	7714
581.717	7716
581.773	7509
581.786	7572
581.829	7723
581.859	7331
581.885	6990
581.932	7459
581.940	7566
581.996	7588
582.004	7632
582.052	7666
582.077	7441
582.107	7265
582.150	7233
582.163	7228
582.219	8402
582.223	8421
582.274	8593
582.296	8596
582.330	8597
582.368	8872
582.386	8974
582.441	8222
582.441	8221
582.497	7717
582.514	7744
582.552	7893
582.587	8778
582.608	9228
582.659	8444
582.663	8397
582.719	9238
582.732	9043
582.774	8326
582.805	8489
582.830	8716
582.877	9003
582.885	9021
582.941	9214
582.950	9213
582.996	9157
583.023	9159
583.052	9283
583.095	9405
583.107	9430
583.162	9489
583.168	9637
583.218	10862
583.240	10462
583.273	9994
583.313	10270
583.328	10327
583.384	10463
583.385	10432
583.439	9448
583.458	9577
583.494	9914
583.531	9376
583.549	9142
583.603	9996
583.605	10016
583.660	9839
583.676	9942
583.715	10330
583.748	10175
583.770	10085
583.820	10462
583.825	10497
583.881	11065
583.893	11038
583.936	11039
583.965	11338
583.991	11415
584.038	11152
584.046	11155
584.101	11021
584.110	11146
584.156	11764
584.183	11632
584.211	11511
584.255	11866
584.266	11981
584.321	11647
584.328	11656
584.376	11456
584.400	11915
584.431	12715
584.472	12233
584.486	11971
584.541	12562
584.545	12572
584.596	13120
584.617	13068
584.651	13236
584.689	13676
584.706	13744
584.761	13896
584.762	13886
584.816	13452
584.834	13773
584.871	14640
584.906	14736
584.926	14561
584.978	14899
584.980	14946
585.035	16029
585.051	16068
585.090	16140
585.123	16965
585.145	17553
585.195	17899
585.200	17974
585.254	20011
585.267	20323
585.309	21842
585.340	23807
585.364	25107
585.412	27501
585.419	27848
585.473	32078
585.484	33305
585.528	39884
585.556	44999
585.583	54178
585.628	72027
585.637	81041
585.692	152960
585.700	167057
585.747	247616
585.772	246271
585.801	174834
585.845	76017
585.856	63635
585.910	33809
585.917	30747
585.965	27057
585.989	25838
586.019	25300
586.061	23961
586.074	23719
586.128	23748
586.133	23790
586.183	25094
586.205	25316
586.237	25753
586.277	26438
586.292	26547
586.346	26831
586.349	26822
586.401	27303
586.421	27671
586.455	28501
586.493	29242
586.509	30447
586.564	35103
586.565	35277
586.618	48565
586.637	50874
586.672	47771
586.709	41711
586.727	38673
586.781	34114
586.781	34146
586.835	33788
586.853	33781
586.889	33939
586.925	33477
586.944	33496
586.996	33886
586.998	33975
587.052	36273
587.068	37083
587.106	37662
587.140	37616
587.161	38208
587.212	40149
587.215	40289
587.269	42462
587.284	43016
587.323	44295
587.356	44713
587.377	45414
587.427	48500
587.431	48731
587.485	50359
587.499	50764
587.539	52702
587.571	54449
587.593	55839
587.643	59231
587.648	59667
587.702	63147
587.715	64268
587.755	69014
587.786	71770
587.810	73380
587.858	77725
587.864	78489
587.917	84729
587.930	86430
587.971	93580
588.001	98823
588.025	103582
588.073	112631
588.079	114050
588.133	126513
588.145	129397
588.187	142294
588.217	151733
588.241	161501
588.288	181969
588.295	185234
588.348	212498
588.360	218857
588.402	248273
588.431	269729
588.456	292033
588.503	338867
588.510	347462
588.564	420727
588.575	437284
588.617	522517
588.646	584563
588.671	661421
588.718	814336
588.725	851797
588.778	1150206
588.789	1213253
588.832	1580163
588.861	1825827
588.886	1946865
588.932	2090325
588.939	2052781
588.993	1658786
589.004	1608655
589.047	1925083
589.075	2087916
589.100	1955100
589.147	1631239
589.154	1578726
589.207	1162495
589.218	1080413
589.261	956336
589.290	880262
589.314	887684
589.361	913039
589.368	939719
589.421	1171957
589.433	1224086
589.475	1569906
589.504	1800553
589.528	1859535
589.576	1878700
589.582	1873524
589.635	1855667
589.647	1836704
589.689	1575352
589.718	1360094
589.742	1143649
589.790	724137
589.795	702583
589.849	504748
589.861	460551
589.902	390965
589.932	339512
589.955	311345
590.004	253333
590.009	249957
590.062	211361
590.075	202029
590.115	183230
590.146	168556
590.168	161551
590.218	145502
590.222	144698
590.275	132011
590.289	128555
590.328	121106
590.360	114662
590.381	111411
590.431	103989
590.435	103777
590.488	96847
590.503	94871
590.541	91032
590.574	87459
590.594	86041
590.645	82096
590.647	82083
590.700	77640
590.716	76244
590.753	74356
590.787	72324
590.806	71027
590.859	67039
590.859	67141
590.912	65606
590.930	65003
590.965	63881
591.001	62464
591.018	62092
591.071	60642
591.072	60501
591.124	58554
591.143	57720
591.177	56847
591.214	55582
591.230	55543
591.283	55258
591.285	55118
591.336	54061
591.356	53522
591.389	53001
591.427	52008
591.442	51698
591.495	50158
591.498	49933
591.547	49135
591.569	48617
591.600	48225
591.640	47343
591.653	47399
591.706	47277
591.711	47141
591.759	47506
591.782	47608
591.811	48926
591.853	50507
591.864	50137
591.917	47419
591.924	46924
591.969	46541
591.995	46133
592.022	46118
592.066	45777
592.075	46076
592.127	47194
592.137	47307
592.180	50410
592.208	52110
592.233	50219
592.279	46183
592.285	46102
592.338	44457
592.350	43961
592.390	43472
592.421	42886
592.443	43001
592.491	42917
592.495	43064
592.548	43500
592.562	43503
592.600	43016
592.633	42379
592.653	42169
592.704	41099
592.705	41339
592.775	41498
592.846	42527
592.916	42367
592.987	41991
593.058	42312
593.128	40462
593.199	39930
593.270	39753
593.341	38948
593.411	39661
593.482	41135
593.553	41578
593.623	39943
593.694	39898
593.764	42444
593.835	41739
593.906	40581
593.976	40082
594.047	41395
594.117	44616
594.188	48131
594.258	42192
594.329	40302
594.399	40991
594.470	41519
594.540	40872
594.611	41795
594.681	41856
594.751	40821
594.822	42548
594.892	44614
594.963	45450
595.033	45102
595.103	46341
595.174	48088
595.244	53940
595.314	67730
595.384	52047
595.455	47171
595.525	48793
595.595	50350
595.665	49476
595.736	49181
595.806	48496
595.876	50380
595.946	49577
596.016	49939
596.087	52063
596.157	52164
596.227	51098
596.297	53037
596.367	56326
596.437	59448
596.507	64916
596.577	74784
596.647	63660
596.717	59940
596.787	61925
596.857	61313
596.927	61290
596.997	62915
597.067	62418
597.137	64899
597.207	65332
597.277	64812
597.347	62337
597.417	61466
597.487	60139
597.557	61791
597.626	62996
597.696	64841
597.766	68186
597.836	73614
597.906	63653
597.975	56500
598.045	55822
598.115	59480
598.185	60845
598.254	65256
598.324	72440
598.394	73895
598.464	72251
598.533	70636
598.603	66828
598.672	64533
598.742	66148
598.812	65792
598.881	68077
598.951	66944
599.020	66384
599.090	69072
599.159	70291
599.229	68270
599.299	66142
599.368	67702
599.437	67167
599.507	64732
599.576	62919
599.646	60639
599.715	60890
599.785	59252
599.854	58553
599.924	60064
599.993	59732
600.062	58536
600.132	59324
600.201	60188
600.270	69211
600.340	73472
600.409	73023
600.478	71560
600.547	72207
600.617	71775
600.686	59548
600.755	53212
600.824	51859
600.894	49547
600.963	49536
601.032	47568
601.101	47768
601.170	46096
601.239	44439
601.308	46381
601.378	46961
601.447	44402
601.516	44905
601.585	45383
601.654	48279
601.723	48158
601.792	45962
601.861	48230
601.930	50588
601.999	51873
602.068	50096
602.137	51674
602.206	53513
602.275	52547
602.343	54009
602.412	54039
602.481	51947
602.550	51677
602.619	52258
602.688	54416
602.756	53748
602.825	53753
602.894	54152
602.963	55861
603.032	57365
603.100	57334
603.169	56710
603.238	57507
603.307	57618
603.375	56983
603.444	58231
603.513	59531
603.581	58457
603.650	62330
603.719	57545
603.787	59299
603.856	61092
603.924	63408
603.993	65373
604.061	66220
604.130	69694
604.198	71219
604.267	71468
604.335	72559
604.404	72809
604.472	74653
604.541	73831
604.609	75256
604.678	75680
604.746	75888
604.815	76741
604.883	78301
604.951	78431
605.020	77857
605.088	80827
605.156	82691
605.225	83611
605.293	83816
605.361	83221
605.429	84319
605.498	86437
605.566	87964
605.634	91477
605.702	95326
605.771	98443
605.839	98863
605.907	97211
605.975	93401
606.043	91619
606.111	91837
606.180	91618
606.248	91813
606.316	91894
606.384	91021
606.452	94166
606.520	94930
606.588	95491
606.656	94176
606.724	93185
606.792	89697
606.860	81455
606.928	73080
606.996	70142
607.064	67373
607.132	69901
607.200	72033
607.267	77654
607.335	77332
607.403	79904
607.471	78634
607.539	74465
607.607	76100
607.674	67332
607.742	66226
607.810	67278
607.878	66343
607.946	67418
608.013	71350
608.081	72945
608.149	73674
608.216	73778
608.284	77564
608.352	76606
608.419	78645
608.487	81402
608.555	78452
608.622	74090
608.690	77617
608.757	85252
608.825	91173
608.893	88166
608.960	88910
609.028	87322
609.095	87682
609.163	83391
609.230	74365
609.298	66601
609.365	66035
609.432	71791
609.500	78462
609.567	87533
609.635	100708
609.702	108445
609.769	108701
609.837	93345
609.904	74205
609.971	74399
610.039	81398
610.106	100214
610.173	181111
610.241	443529
610.308	460277
610.375	168150
610.442	92034
610.509	76714
610.577	74976
610.644	73960
610.711	75291
610.778	78752
610.845	80264
610.912	85311
610.980	90877
611.047	93409
611.114	92443
611.181	86338
611.248	84092
611.315	87278
611.382	90990
611.449	91813
611.516	95509
611.583	94192
611.650	95666
611.717	97060
611.784	99781
611.851	102892
611.918	111543
611.984	127972
612.051	175102
612.118	336659
612.185	868747
612.252	972007
612.319	210758
612.386	132293
612.452	120173
612.519	113058
612.586	114832
612.653	114074
612.719	111987
612.786	109846
612.853	102894
612.919	96744
612.986	99555
613.053	94613
613.120	89959
613.186	85148
613.253	85911
613.319	85021
613.386	85511
613.453	85632
613.519	89724
613.586	89719
613.652	97699
613.719	91962
613.785	92059
613.852	88541
613.918	88200
613.985	89207
614.051	94135
614.118	108344
614.184	117599
614.250	89571
614.317	89484
614.383	86210
614.449	88661
614.516	88316
614.582	90055
614.648	88936
614.715	86238
614.781	86881
614.847	85561
614.914	86698
614.980	84763
615.046	83183
615.112	84519
615.179	86369
615.245	90064
615.311	95539
615.377	114536
615.443	136313
615.509	106036
615.575	96173
615.642	94556
615.708	94615
615.774	101608
615.840	110142
615.906	122474
615.972	158507
616.038	259649
616.104	487492
616.170	1031716
616.236	1469479
616.302	350843
616.368	179953
616.434	135092
616.500	115987
616.565	118509
616.631	150165
616.697	135841
616.763	122363
616.829	161621
616.895	296876
616.961	368005
617.026	178684
617.092	102943
617.158	92592
617.224	91183
617.289	85601
617.355	81125
617.421	79520
617.487	80317
617.552	76619
617.618	74573
617.684	73835
617.749	75883
617.815	72080
617.880	69449
617.946	71497
618.012	70962
618.077	73180
618.143	69674
618.208	69401
618.274	74406
618.339	77620
618.405	67986
618.470	63282
618.536	65617
618.601	64792
618.667	63345
618.732	58059
618.798	57049
618.863	55942
618.928	55928
618.994	57139
619.059	58251
619.124	62715
619.190	60982
619.255	57078
619.320	56210
619.386	55695
619.451	55398
619.516	54420
619.581	54137
619.647	54440
619.712	56298
619.777	53407
619.842	53675
619.907	55705
619.972	56551
620.038	56055
620.103	54875
620.168	53721
620.233	53599
620.298	54902
620.363	55195
620.428	54937
620.493	58381
620.558	58316
620.623	57769
620.688	59610
620.753	57303
620.818	59164
620.883	58298
620.948	58595
621.013	58676
621.078	58487
621.143	57172
621.207	61713
621.272	59299
621.337	60646
621.402	59462
621.467	62739
621.532	66620
621.596	62599
621.661	59274
621.726	56264
621.791	57122
621.855	58047
621.920	58195
621.985	59184
622.049	63794
622.114	62162
622.179	61229
622.243	61948
622.308	63718
622.373	65367
622.437	64800
622.502	62460
622.566	59349
622.631	59718
622.695	60726
622.760	61125
622.824	59445
622.889	60989
622.953	62510
623.018	67794
623.082	76201
623.147	65635
623.211	62845
623.276	62926
623.340	61363
623.404	57765
623.469	56619
623.533	57944
623.597	57883
623.662	56759
623.726	54548
623.790	50201
623.854	49694
623.919	50773
623.983	49982
624.047	52551
624.111	52200
624.176	53635
624.240	54443
624.304	60750
624.368	54351
624.432	52826
624.496	53098
624.560	56796
624.625	58559
624.689	58206
624.753	56618
624.817	56777
624.881	54479
624.945	50638
625.009	47916
625.073	49335
625.137	52200
625.201	56747
625.265	58813
625.329	51374
625.393	51735
625.456	53000
625.520	53899
625.584	55506
625.648	60388
625.712	70423
625.776	110980
625.839	139468
625.903	91804
625.967	49660
626.031	57643
626.095	89951
626.158	67030
626.222	43997
626.286	38989
626.349	36581
626.413	36241
626.477	36241
626.540	35308
626.604	34862
626.668	34678
626.731	33947
626.795	34844
626.858	35740
626.922	35073
626.986	35054
627.049	32660
627.113	34555
627.176	34090
627.240	33139
627.303	33257
627.366	34077
627.430	34117
627.493	33230
627.557	33848
627.620	34011
627.684	34450
627.747	35482
627.810	34326
627.874	30721
627.937	29439
628.000	30226
628.064	30347
628.127	27998
628.190	27338
628.253	26649
628.317	26760
628.380	25617
628.443	23776
628.506	25693
628.569	23592
628.632	22548
628.696	22946
628.759	22890
628.822	22502
628.885	20704
628.948	21409
629.011	21423
629.074	21436
629.137	21195
629.200	20785
629.263	22440
629.326	20005
629.389	19725
629.452	19302
629.515	20828
629.578	20364
629.641	20957
629.704	20618
629.767	20626
629.830	20147
629.892	18878
629.955	18745
630.018	19789
630.081	20689
630.144	22029
630.207	21144
630.269	21263
630.332	21643
630.395	20946
630.458	18822
630.520	17723
630.583	18738
630.646	17385
630.708	18254
630.771	17761
630.834	18434
630.896	18892
630.959	17985
631.021	18030
631.084	16968
631.146	18901
631.209	21576
631.272	19287
631.334	18451
631.397	17615
631.459	17925
631.522	18763
631.584	18505
631.646	19247
631.709	20902
631.771	23277
631.834	22525
631.896	18667
631.958	18488
632.021	18662
632.083	17057
632.145	17664
632.208	17143
632.270	17241
632.332	16852
632.395	15919
632.457	16788
632.519	16123
632.581	17332
632.643	15726
632.706	16836
632.768	15954
632.830	16308
632.892	15933
632.954	16838
633.016	17083
633.078	16309
633.141	16385
633.203	16528
633.265	16700
633.327	16821
633.389	15272
633.451	17242
633.513	18589
633.575	18935
633.637	18543
633.698	18714
633.760	17069
633.822	16945
633.884	17092
633.946	17083
634.008	17839
634.070	18763
634.132	19751
634.193	21256
634.255	20948
634.317	21466
634.379	21122
634.441	19610
634.502	19918
634.564	17643
634.626	16666
634.687	16242
634.749	16343
634.811	15116
634.873	14983
634.934	15231
634.996	14932
635.057	15451
635.119	14793
635.181	15368
635.242	16041
635.304	14006
635.365	16105
635.427	14541
635.488	15825
635.550	15661
635.611	15514
635.673	14799
635.734	16399
635.796	16890
635.857	17875
635.918	18265
635.980	19503
636.041	19802
636.102	22055
636.164	21980
636.225	21900
636.286	20172
636.348	19185
636.409	15674
636.470	15651
636.531	15692
636.593	16229
636.654	16469
636.715	13430
636.776	13766
636.838	13400
636.899	13132
636.960	13866
637.021	12096
637.082	11929
637.143	12366
637.204	11885
637.265	11542
637.326	11814
637.387	11603
637.448	12173
637.509	12549
637.570	12705
637.631	12011
637.692	12420
637.753	10808
637.814	11406
637.875	11089
637.936	11826
637.997	12076
638.058	11629
638.119	12579
638.179	11268
638.240	11684
638.301	11249
638.362	10116
638.423	10944
638.483	11776
638.544	10934
638.605	11161
638.666	10855
638.726	11796
638.787	10880
638.848	10461
638.908	10855
638.969	9124
639.030	11338
639.090	9301
639.151	9608
639.211	10557
639.272	12073
639.332	16512
639.393	14051
639.453	10437
639.514	11379
639.574	11305
639.635	9665
639.695	10068
639.756	10131
639.816	10259
639.877	10577
639.937	12813
639.997	17630
640.058	11604
640.118	9536
640.178	10224
640.239	9140
640.299	9078
640.359	8930
640.420	9918
640.480	11169
640.540	11361
640.600	12419
640.661	12010
640.721	10347
640.781	13344
640.841	11766
640.901	11752
640.961	9443
641.021	9427
641.082	11191
641.142	12306
641.202	11756
641.262	8718
641.322	9776
641.382	8667
641.442	9418
641.502	9114
641.562	8235
641.622	8508
641.682	9759
641.742	10042
641.802	11232
641.861	10057
641.921	8726
641.981	10095
642.041	10347
642.101	11453
642.161	9857
642.221	8163
642.280	9210
642.340	7811
642.400	8654
642.460	8651
642.519	8178
642.579	8931
642.639	9101
642.698	8001
642.758	9331
642.818	8332
642.877	9593
642.937	9902
642.997	9590
643.056	12485
643.116	10307
643.175	10034
643.235	9041
643.294	9525
643.354	10303
643.414	11199
643.473	12727
643.532	15908
643.592	21426
643.651	32132
643.711	57310
643.770	106705
643.830	235778
643.889	723651
643.948	380429
644.008	42757
644.067	20099
644.126	14925
644.186	13703
644.245	11975
644.304	10079
644.363	9884
644.423	9240
644.482	9784
644.541	9071
644.600	8778
644.659	11320
644.719	13032
644.778	20671
644.837	31525
644.896	59726
644.955	161733
645.014	116517
645.073	18551
645.132	11489
645.191	10323
645.250	9659
645.309	10271
645.368	9997
645.427	12246
645.486	16565
645.545	37076
645.604	20479
645.663	9439
645.722	8754
645.781	10517
645.840	11826
645.898	12892
645.957	18701
646.016	29765
646.075	53736
646.134	102639
646.192	231955
646.251	607610
646.310	181383
646.369	26887
646.427	16783
646.486	13982
646.545	10145
646.603	9902
646.662	9795
646.721	8167
646.779	8365
646.838	7227
646.896	10102
646.955	13290
647.014	19633
647.072	32986
647.131	88210
647.189	97494
647.248	13951
647.306	8611
647.365	7559
647.423	6350
647.481	7769
647.540	5594
647.598	6971
647.657	6188
647.715	7966
647.773	5673
647.832	6071
647.890	5927
647.948	6042
648.007	6252
648.065	5456
648.123	5622
648.181	6470
648.240	7075
648.298	6555
648.356	6438
648.414	5777
648.472	5763
648.531	6218
648.589	5725
648.647	5692
648.705	5025
648.763	6599
648.821	6311
648.879	6084
648.937	7331
648.995	8001
649.053	10058
649.111	13918
649.169	24123
649.227	43100
649.285	80907
649.343	247890
649.401	272568
649.459	36921
649.516	22811
649.574	12424
649.632	15536
649.690	24403
649.748	15504
649.806	15921
649.863	29302
649.921	58698
649.979	84415
650.037	13831
650.094	5937
650.152	6134
650.210	5038
650.268	5873
650.325	6096
650.383	6680
650.440	5288
650.498	5161
650.556	5039
650.613	4492
650.671	4968
650.728	4457
650.786	5093
650.843	5669
650.901	4721
650.958	3735
651.016	4488
651.073	4646
651.131	4397
651.188	3193
651.246	5212
651.303	3314
651.360	4663
651.418	3960
651.475	3673
651.532	3239
651.590	4770
651.647	3901
651.704	4251
651.762	3930
651.819	3739
651.876	3077
651.933	4155
651.990	4039
652.048	3197
652.105	3280
652.162	4024
652.219	3279
652.276	3325
652.333	3262
652.390	3314
652.448	3424
652.505	4128
652.562	3678
652.619	4006
652.676	4735
652.733	6645
652.790	3775
652.847	2210
652.904	3733
652.961	2576
653.017	2595
653.074	4216
653.131	3799
653.188	2943
653.245	2751
653.302	3816
653.359	2722
653.415	4255
653.472	2693
653.529	3399
653.586	2675
653.642	2379
653.699	3298
653.756	2920
653.813	2997
653.869	3996
653.926	2704
653.983	2905
654.039	3038
654.096	2881
654.152	4403
654.209	2631
654.266	3638
654.322	2877
654.379	4354
654.435	3822
654.492	4652
654.548	4903
654.605	7860
654.661	6702
654.717	3334
654.774	3825
654.830	3665
654.887	3536
654.943	3970
655.000	4131
655.056	3211
655.112	4056
655.168	2817
655.225	3170
655.281	3831
655.337	4721
655.394	7301
655.450	7449
655.506	5386
655.562	6722
655.618	9720
655.675	3264
655.731	3202
655.787	3481
655.843	2891
655.899	2978
655.955	3876
656.011	3143
656.067	2854
656.123	3304
656.179	2410
656.235	3584
656.291	2356
656.347	3834
656.403	2523
656.459	3565
656.515	3156
656.571	3334
656.627	3226
656.683	3586
656.739	3524
656.795	2747
656.850	3290
656.906	3832
656.962	4103
657.018	2647
657.074	2898
657.129	3942
657.185	4842
657.241	9250
657.297	10731
657.352	3870
657.408	2402
657.464	3502
657.519	3393
657.575	2554
657.630	2688
657.686	2439
657.742	2305
657.797	3113
657.853	2678
657.908	4676
657.964	2233
658.019	3379
658.075	3119
658.130	2802
658.186	1933
658.241	2729
658.297	2111
658.352	2119
658.407	3940
658.463	2604
658.518	3334
658.573	2846
658.629	2035
658.684	2881
658.739	3410
658.795	2020
658.850	2799
658.905	2410
658.960	3812
659.016	2761
659.071	2084
659.126	2969
659.181	2615
659.236	4507
659.291	5264
659.346	3467
659.401	3589
659.457	3124
659.512	3228
659.567	4208
659.622	2996
659.677	2833
659.732	2618
659.787	2844
659.842	2530
659.897	4361
659.952	3761
660.007	3335
660.061	2889
660.116	2610
660.171	1881
660.226	2688
660.281	3141
660.336	2441
660.391	3095
660.445	2245
660.500	2366
660.555	2716
660.610	2471
660.664	3408
660.719	1836
660.774	2987
660.828	2169
660.883	2405
660.938	3343
660.992	2010
661.047	3198
661.101	2301
661.156	2156
661.211	2691
661.265	1883
661.320	2011
661.374	2501
661.429	2223
661.483	2696
661.538	2738
661.592	2188
661.647	2852
661.701	3754
661.755	2519
661.810	3001
661.864	2074
661.919	2053
661.973	3800
662.027	2362
662.081	2337
662.136	2637
662.190	2799
662.244	3396
662.299	3002
662.353	3611
662.407	2531
662.461	2481
662.515	2531
662.569	2157
662.624	3996
662.678	1890
662.732	2355
662.786	1760
662.840	2738
662.894	3305
662.948	2657
663.002	1914
663.056	2654
663.110	2079
663.164	2583
663.218	3187
663.272	2046
663.326	2712
663.380	3021
663.434	2756
663.488	2433
663.542	2449
663.595	2571
663.649	2396
663.703	2426
663.757	2369
663.811	2131
663.864	2756
663.918	3544
663.972	1675
664.026	2310
664.079	2027
664.133	3743
664.187	3071
664.240	2259
664.294	2551
664.348	2473
664.401	3036
664.455	3141
664.508	1990
664.562	2252
664.615	2389
664.669	2093
664.722	2411
664.776	2623
664.829	2470
664.883	3343
664.936	2313
664.990	2729
665.043	3045
665.097	2747
665.150	3319
665.203	2390
665.257	2302
665.310	2916
665.363	3280
665.417	3228
665.470	3397
665.523	2978
665.576	2402
665.630	2244
665.683	3028
665.736	2546
665.789	2999
665.842	2351
665.895	2966
665.949	2970
666.002	2902
666.055	2518
666.108	2829
666.161	3001
666.214	3331
666.267	3046
666.320	3749
666.373	3579
666.426	2168
666.479	2295
666.532	2707
666.585	4038
666.638	3596
666.691	3538
666.744	3761
666.796	4161
666.849	4263
666.902	3184
666.955	2352
667.008	2829
667.060	1785
667.113	2757
667.166	1854
667.219	2024
667.271	2646
667.324	2471
667.377	2468
667.430	2855
667.482	2567
667.535	3878
667.587	2785
667.640	3334
667.693	3735
667.745	4218
667.798	5792
667.850	4447
667.903	2482
667.955	2735
668.008	3096
668.060	4129
668.113	3362
668.165	3212
668.218	2812
668.270	3705
668.322	2942
668.375	3879
668.427	3936
668.479	2427
668.532	3357
668.584	2803
668.636	3473
668.689	2794
668.741	1983
668.793	3115
668.845	2724
668.898	3725
668.950	3057
669.002	3226
669.054	2889
669.106	2757
669.158	3514
669.211	3389
669.263	2572
669.315	3572
669.367	3042
669.419	3693
669.471	4223
669.523	4363
669.575	5486
669.627	4265
669.679	3563
669.731	3455
669.783	3149
669.835	3345
669.886	4021
669.938	3342
669.990	2643
670.042	2816
670.094	2851
670.146	3874
670.197	3841
670.249	5194
670.301	4887
670.353	6816
670.404	9370
670.456	14244
670.508	22256
670.560	40167
670.611	71878
670.663	127557
670.715	251054
670.766	616928
670.818	341515
670.869	44681
670.921	17347
670.972	12520
671.024	8813
671.075	6827
671.127	5051
671.178	4635
671.230	5702
671.281	4351
671.333	4360
671.384	4007
671.436	4866
671.487	5875
671.538	7639
671.590	8727
671.641	13735
671.692	21331
671.744	43651
671.795	46965
671.846	16198
671.897	7408
671.949	4795
672.000	4229
672.051	3882
672.102	3969
672.153	3083
672.204	3248
672.256	3286
672.307	3630
672.358	2942
672.409	4290
672.460	3350
672.511	2637
672.562	2334
672.613	2691
672.664	2431
672.715	2659
672.766	2755
672.817	2756
672.868	2355
672.919	2912
672.970	3142
673.021	2349
673.071	1887
673.122	2687
673.173	2159
673.224	2726
673.275	2175
673.326	2512
673.376	2796
673.427	1813
673.478	2553
673.528	3080
673.579	3125
673.630	1437
673.680	2751
673.731	2401
673.782	1591
673.832	2069
673.883	2083
673.934	2577
673.984	2209
674.035	2739
674.085	2535
674.136	2332
674.186	2920
674.237	3093
674.287	5103
674.338	4259
674.388	2313
674.438	1983
674.489	2405
674.539	2928
674.589	2288
674.640	2478
674.690	2759
674.740	2682
674.791	2402
674.841	2654
674.891	2569
674.942	2112
674.992	1595
675.042	1720
675.092	1469
675.142	2316
675.193	1447
675.243	1019
675.293	2308
675.343	2300
675.393	2978
675.443	2179
675.493	1657
675.543	1618
675.593	2579
675.643	2699
675.693	2300
675.743	2593
675.793	2088
675.843	1510
675.893	2497
675.943	2937
675.993	1642
676.043	1828
676.093	3160
676.142	1029
676.192	2110
676.242	1611
676.292	1714
676.341	1374
676.391	2023
676.441	1929
676.491	1028
676.540	1367
676.590	1848
676.640	938
676.689	2215
676.739	1354
676.789	655
676.838	1026
676.888	2010
676.937	884
676.987	1735
677.037	1179
677.086	1167
677.136	1975
677.185	1208
677.235	2257
677.284	1689
677.333	875
677.383	1160
677.432	1812
677.482	1283
677.531	1437
677.580	1343
677.630	1112
677.679	888
677.728	1784
677.778	1519
677.827	970
677.876	772
677.925	513
677.975	1021
678.024	1679
678.073	1260
678.122	2053
678.171	820
678.220	1278
678.269	1820
678.319	1854
678.368	1767
678.417	1945
678.466	2460
678.515	1757
678.564	1493
678.613	1277
678.662	1336
678.711	1313
678.760	2136
678.809	1377
678.857	1592
678.906	1332
678.955	1693
679.004	2004
679.053	1296
679.102	1361
679.151	978
679.199	1630
679.248	1614
679.297	1352
679.346	1966
679.394	1416
679.443	842
679.492	1089
679.540	1777
679.589	2010
679.638	1725
679.686	1317
679.735	952
679.784	1038
679.832	1700
679.881	1291
679.929	1110
679.978	1266
680.026	1051
680.075	1206
680.123	1321
680.172	2116
680.220	1001
680.268	1286
680.317	966
680.365	1226
680.414	985
680.462	1538
680.510	1473
680.559	1295
680.607	736
680.655	1062
680.703	833
680.752	1100
680.800	1085
680.848	1079
680.896	382
680.945	1609
680.993	1015
681.041	1132
681.089	1103
681.137	1320
681.185	56
681.233	1059
681.258	1240
681.281	1377
681.329	1096
681.377	465
681.380	553
681.425	1476
681.473	1833
681.502	1755
681.521	1638
681.569	2560
681.617	1319
681.624	1433
681.665	1886
681.713	1891
681.745	1958
681.761	1944
681.809	1632
681.857	1430
681.867	1748
681.904	2689
681.952	2709
681.989	2185
682.000	1989
682.048	2503
682.096	2026
682.111	2317
682.143	2806
682.191	2725
682.233	2401
682.239	2320
682.286	3174
682.334	2142
682.354	2406
682.382	2692
682.430	2380
682.476	2962
682.477	2944
682.525	2529
682.572	2505
682.598	2524
682.620	2501
682.667	3195
682.715	2920
682.720	3045
682.763	3911
682.810	2889
682.841	3278
682.857	3422
682.905	2776
682.952	3418
682.963	3419
683.000	3276
683.047	3654
683.085	3959
683.095	4008
683.142	4220
683.190	2949
683.206	3228
683.237	3723
683.284	4140
683.328	3378
683.332	3281
683.379	3750
683.426	3520
683.449	3314
683.473	3071
683.521	4161
683.568	4067
683.571	4066
683.615	3662
683.662	4298
683.693	3904
683.709	3656
683.757	3909
683.804	4633
683.814	4652
683.851	4620
683.898	4084
683.936	3978
683.945	3933
683.992	4583
684.039	4391
684.057	4657
684.086	5078
684.133	4958
684.179	4949
684.180	4923
684.227	5264
684.274	5976
684.300	5618
684.321	5275
684.368	5029
684.415	5762
684.422	5709
684.462	5189
684.509	4943
684.543	5400
684.556	5584
684.603	4782
684.649	5909
684.665	5762
684.696	5364
684.743	5838
684.786	5681
684.790	5666
684.837	5970
684.883	5941
684.908	6298
684.930	6610
684.977	7143
685.023	6841
685.029	6862
685.070	6510
685.117	6783
685.150	6419
685.164	6364
685.210	7422
685.257	7757
685.272	7800
685.303	7688
685.350	6852
685.393	7160
685.396	7191
685.443	7254
685.490	7786
685.514	7878
685.536	7820
685.583	8168
685.629	7890
685.636	7978
685.675	8282
685.722	8078
685.757	7684
685.768	7591
685.815	7867
685.861	7731
685.878	8045
685.908	8559
685.954	8468
686.000	8413
686.000	8410
686.047	9315
686.093	9593
686.121	10011
686.139	10156
686.185	10198
686.232	10125
686.242	10176
686.278	9512
686.324	8963
686.363	7818
686.370	7733
686.416	7898
686.463	8193
686.484	8425
686.509	8763
686.555	8623
686.601	8265
686.606	8344
686.647	8860
686.693	9118
686.727	8534
686.739	8309
686.785	8767
686.831	8527
686.848	8508
686.877	8432
686.923	8515
686.969	8360
686.969	8358
687.015	8478
687.061	8991
687.090	8839
687.107	8772
687.153	9416
687.199	9375
687.211	9327
687.245	9089
687.291	8917
687.332	9143
687.336	9205
687.382	9864
687.428	10262
687.453	10336
687.474	9953
687.520	9435
687.565	8670
687.574	8526
687.611	8545
687.657	8970
687.695	9466
687.702	9617
687.748	9734
687.794	10992
687.816	11366
687.839	11534
687.885	10633
687.931	10605
687.937	10672
687.976	10439
688.022	9838
688.058	9453
688.067	9564
688.113	9051
688.158	10521
688.179	10556
688.204	10358
688.249	10383
688.295	10020
688.300	9968
688.340	9973
688.386	10756
688.421	10446
688.431	10288
688.477	10435
688.522	10424
688.542	10486
688.567	10763
688.613	10997
688.658	10853
688.663	10907
688.703	11134
688.749	10597
688.784	10910
688.794	11041
688.839	10827
688.884	10647
688.905	10740
688.930	10785
688.975	10751
689.020	10370
689.026	10355
689.065	10578
689.110	10676
689.146	10803
689.155	10816
689.201	11157
689.246	11173
689.267	10977
689.291	10770
689.336	11034
689.381	10835
689.388	10804
689.426	10891
689.471	11303
689.509	11224
689.516	11176
689.561	10744
689.606	10614
689.630	10519
689.651	10551
689.696	10552
689.741	11220
689.750	11190
689.785	11168
689.830	11182
689.871	11206
689.875	11207
689.920	10714
689.965	10681
689.992	10542
690.010	10525
690.054	10825
690.099	10791
690.112	10785
690.144	10829
690.189	10252
690.233	10605
690.233	10623
690.278	10951
690.323	10985
690.354	11082
690.367	11094
690.412	11155
690.457	10994
690.474	11082
690.501	11302
690.546	11363
690.590	11395
690.595	11371
690.635	11270
690.680	11116
690.716	11344
690.724	11464
690.769	11748
690.813	11932
690.836	12099
690.857	12310
690.902	12333
690.946	12538
690.957	12624
690.991	13693
691.035	15329
691.077	16491
691.080	16613
691.124	18072
691.168	19861
691.198	21007
691.213	20640
691.257	19559
691.301	18268
691.318	17829
691.346	17103
691.390	15476
691.434	14241
691.439	14051
691.478	13750
691.522	13642
691.559	13244
691.567	13267
691.611	13443
691.655	13828
691.680	13847
691.699	13765
691.743	13378
691.787	13185
691.800	13138
691.831	13319
691.875	13804
691.919	13537
691.921	13519
691.964	13902
692.008	14192
692.041	14298
692.052	14375
692.096	14463
692.139	14992
692.162	15003
692.183	14782
692.227	14679
692.271	14456
692.282	14223
692.315	13660
692.359	13774
692.402	13338
692.403	13367
692.447	13809
692.490	13919
692.523	14116
692.534	14198
692.578	14752
692.622	14945
692.643	14897
692.666	14631
692.709	14277
692.753	14083
692.763	13962
692.797	13823
692.840	13606
692.884	13500
692.884	13529
692.928	13521
692.971	13359
693.004	13091
693.015	13156
693.059	13770
693.102	14234
693.124	14543
693.146	14590
693.189	14177
693.233	14135
693.245	13988
693.276	14163
693.320	14691
693.363	15296
693.365	15279
693.407	15528
693.450	15505
693.485	15704
693.493	15832
693.537	16237
693.580	16470
693.605	16839
693.624	17271
693.667	17699
693.710	18398
693.725	18625
693.753	20460
693.797	23023
693.840	25922
693.845	26183
693.883	29131
693.926	32472
693.966	35543
693.970	35220
694.013	30907
694.056	26699
694.086	23632
694.099	23040
694.142	20985
694.185	19512
694.206	18385
694.229	17998
694.272	17487
694.315	16984
694.326	16851
694.358	17070
694.401	17042
694.444	17500
694.446	17459
694.487	17235
694.530	17191
694.566	16813
694.573	16680
694.616	15799
694.659	15128
694.686	14565
694.702	14545
694.745	14288
694.787	14004
694.806	13862
694.830	13901
694.873	14138
694.916	14123
694.926	14071
694.959	14094
695.002	14434
695.044	14483
695.046	14447
695.087	14458
695.130	14731
695.166	14611
695.172	14613
695.215	14657
695.258	14627
695.286	14536
695.301	14571
695.343	14508
695.386	14638
695.406	14575
695.428	14593
695.471	14519
695.514	14702
695.526	14638
695.556	14659
695.599	14930
695.641	15048
695.646	15008
695.684	14801
695.726	14651
695.766	14491
695.769	14534
695.811	14567
695.854	14589
695.886	14677
695.896	14786
695.938	14820
695.981	15102
696.005	15117
696.023	15106
696.065	15049
696.108	15200
696.125	15078
696.150	15213
696.192	15658
696.235	16007
696.245	16031
696.277	16010
696.319	15958
696.361	15957
696.365	15918
696.404	15967
696.446	15815
696.485	15705
696.488	15750
696.530	15875
696.572	15923
696.604	15868
696.614	15894
696.656	15895
696.698	15998
696.724	15871
696.740	15678
696.783	15280
696.825	14782
696.844	14515
696.867	14673
696.909	14944
696.951	15094
696.964	15158
696.992	15214
697.034	15057
697.076	15028
697.083	14946
697.118	15136
697.160	15561
697.202	15849
697.203	15817
697.244	15582
697.286	15170
697.323	14707
697.327	14792
697.369	15259
697.411	15704
697.442	15994
697.453	15999
697.494	15821
697.536	15678
697.562	15554
697.578	15700
697.620	15913
697.661	16222
697.682	16280
697.703	16458
697.744	16765
697.786	17102
697.801	17170
697.828	17563
697.869	18031
697.911	18591
697.921	18669
697.952	17936
697.994	16935
698.035	15867
698.040	15700
698.077	15913
698.118	16073
698.160	16220
698.160	16174
698.201	15943
698.243	15738
698.279	15444
698.284	15534
698.325	15993
698.367	16459
698.399	16742
698.408	16780
698.449	16749
698.491	16728
698.518	16670
698.532	16730
698.573	16775
698.614	16812
698.638	16777
698.656	16861
698.697	16968
698.738	17065
698.757	17063
698.779	17122
698.820	17137
698.862	17158
698.877	17120
698.903	17243
698.944	17357
698.985	17480
698.996	17465
699.026	17481
699.067	17441
699.116	17346
699.235	16597
699.354	16358
699.474	16476
699.593	17306
699.713	19875
699.832	15906
699.951	17798
700.070	17227
700.190	15623
700.309	16296
700.428	18009
700.547	16783
700.667	16043
700.786	17232
700.905	17729
701.024	15917
701.143	18217
701.262	14036
701.381	13579
701.500	15056
701.619	16546
701.738	16362
701.857	14538
701.976	13909
702.095	14045
702.214	14420
702.333	16712
702.452	15205
702.571	14323
702.690	13475
702.809	14262
702.928	13475
703.047	13161
703.165	13135
703.284	13552
703.403	13090
703.522	15115
703.640	16485
703.759	15904
703.878	22972
703.997	18185
704.115	13632
704.234	13927
704.353	13126
704.471	13017
704.590	12834
704.708	12730
704.827	11587
704.946	12454
705.064	14615
705.183	14208
705.301	14392
705.420	19454
705.538	21013
705.656	17877
705.775	15910
705.893	19062
706.012	32684
706.130	21143
706.249	17200
706.367	16919
706.485	17318
706.604	17511
706.722	17531
706.840	19878
706.958	24532
707.077	22454
707.195	16560
707.313	15315
707.431	15099
707.549	14233
707.668	15526
707.786	16114
707.904	14527
708.022	14538
708.140	14278
708.258	14982
708.376	14915
708.494	14926
708.612	15694
708.730	20444
708.848	23319
708.966	19974
709.084	19204
709.202	18028
709.320	18241
709.438	18117
709.556	18056
709.674	19000
709.791	18489
709.909	16682
710.027	16352
710.145	17834
710.263	17996
710.380	17616
710.498	17781
710.616	17587
710.733	16847
710.851	17854
710.969	18176
711.086	17695
711.204	17227
711.322	17028
711.439	16544
711.557	18453
711.674	16759
711.792	16534
711.909	16870
712.027	16186
712.144	15683
712.262	16426
712.379	16949
712.497	21869
712.614	26821
712.732	21838
712.849	19787
712.966	20617
713.084	25422
713.201	24568
713.318	20936
713.436	19726
713.553	19584
713.670	20729
713.787	21972
713.905	25949
714.022	19974
714.139	19535
714.256	23332
714.373	27097
714.490	38760
714.608	67800
714.725	246764
714.842	748617
714.959	126142
715.076	29455
715.193	22054
715.310	20648
715.427	18161
715.544	18073
715.661	17145
715.778	16568
715.895	18680
716.011	19019
716.128	18949
716.245	17230
716.362	17771
716.479	21058
716.596	16704
716.713	17100
716.829	15362
716.946	16650
717.063	14264
717.180	15645
717.296	14928
717.413	15152
717.530	15245
717.646	14810
717.763	14638
717.880	13955
717.996	15153
718.113	15014
718.229	13772
718.346	14274
718.462	13984
718.579	16079
718.695	21730
718.812	27235
718.928	21571
719.045	21118
719.161	12795
719.277	13608
719.394	13707
719.510	14167
719.626	13567
719.743	17574
719.859	20235
719.975	28619
720.092	71987
720.208	289575
720.324	143883
720.440	20843
720.557	16924
720.673	20967
720.789	29942
720.905	53836
721.021	56005
721.137	14586
721.253	13775
721.369	13826
721.486	14843
721.602	21217
721.718	16955
721.834	11672
721.950	11794
722.066	12165
722.181	11542
722.297	11680
722.413	12029
722.529	11375
722.645	10846
722.761	11049
722.877	11509
722.993	10221
723.108	11482
723.224	12007
723.340	11588
723.456	11321
723.571	9835
723.687	10545
723.803	10404
723.918	11290
724.034	11192
724.150	10361
724.265	11268
724.381	17344
724.497	42006
724.612	15855
724.728	9713
724.843	9557
724.959	10985
725.074	16214
725.190	37997
725.305	14111
725.421	12221
725.536	9578
725.651	9828
725.767	8991
725.882	8160
725.997	9034
726.113	8641
726.228	9124
726.343	9122
726.459	8012
726.574	8838
726.689	9790
726.804	7859
726.920	8811
727.035	8552
727.150	9282
727.265	8658
727.380	9004
727.495	8699
727.610	8314
727.725	7841
727.841	8299
727.956	10056
728.071	15408
728.186	9912
728.301	7829
728.416	8069
728.531	8093
728.645	7825
728.760	7663
728.875	9255
728.990	9024
729.105	8031
729.220	7975
729.335	8448
729.449	7470
729.564	7529
729.679	7152
729.794	7624
729.908	8335
730.023	8864
730.138	7431
730.253	6350
730.367	8005
730.482	6855
730.596	7400
730.711	7402
730.826	7914
730.940	8350
731.055	7838
731.169	7439
731.284	6955
731.398	6881
731.513	8388
731.627	8927
731.742	9515
731.856	12223
731.970	9016
732.085	9819
732.199	12863
732.313	17937
732.428	35925
732.542	104419
732.656	156814
732.771	34094
732.885	13974
732.999	10319
733.113	10913
733.227	9644
733.342	8704
733.456	7419
733.570	8655
733.684	7482
733.798	7742
733.912	7990
734.026	6672
734.140	6975
734.254	8611
734.368	10738
734.482	22694
734.596	8949
734.710	7417
734.824	6318
734.938	6581
735.052	6541
735.166	7702
735.280	7698
735.393	6430
735.507	6694
735.621	8424
735.735	14475
735.849	15326
735.962	6197
736.076	7088
736.190	7747
736.303	8068
736.417	15846
736.531	8625
736.644	6968
736.758	6556
736.872	5923
736.985	5934
737.099	6037
737.212	5552
737.326	6063
737.439	5731
737.553	6077
737.666	5391
737.780	5180
737.893	5800
738.007	6123
738.120	5713
738.233	5288
738.347	5433
738.460	5308
738.573	6352
738.687	6676
738.800	5850
738.913	6959
739.026	7235
739.140	6023
739.253	5921
739.366	5435
739.479	5717
739.592	4414
739.705	4748
739.818	4830
739.932	6151
740.045	5546
740.158	5187
740.271	5702
740.384	5260
740.497	4963
740.610	5348
740.723	5235
740.836	5507
740.949	5798
741.062	6779
741.174	7860
741.287	5691
741.400	5260
741.513	4696
741.626	5540
741.739	5981
741.851	5413
741.964	5657
742.077	5548
742.189	5388
742.302	5908
742.415	5594
742.527	5137
742.640	5476
742.753	4822
742.865	4425
742.978	4267
743.090	5045
743.203	4358
743.316	4713
743.428	4135
743.541	4257
743.653	4602
743.766	4738
743.878	4534
743.990	5459
744.103	7710
744.215	4854
744.327	4666
744.440	5364
744.552	7772
744.664	7148
744.777	4084
744.889	4317
745.001	4420
745.113	4235
745.226	4619
745.338	3443
745.450	3862
745.562	4518
745.674	3564
745.786	4077
745.898	3641
746.010	3910
746.122	3774
746.234	4914
746.347	4306
746.459	4114
746.570	3993
746.682	3473
746.794	3862
746.906	4329
747.018	3513
747.130	4255
747.242	4131
747.354	3878
747.466	3975
747.577	4198
747.689	3801
747.801	3798
747.913	3672
748.024	3848
748.136	3628
748.248	3606
748.359	3992
748.471	4143
748.583	3602
748.694	3598
748.806	3397
748.918	5229
749.029	6114
749.141	4378
749.252	4833
749.364	3853
749.475	7697
749.587	9636
749.698	4741
749.809	3864
749.921	3713
750.032	3300
750.144	4160
750.255	2556
750.366	3373
750.478	3226
750.589	3689
750.700	3081
750.811	3103
750.923	4462
751.034	7109
751.145	13461
751.256	5473
751.367	3118
751.479	4211
751.590	3974
751.701	3551
751.812	2884
751.923	2802
752.034	3622
752.145	3283
752.256	3868
752.367	2940
752.478	3858
752.589	3709
752.700	2620
752.811	3242
752.922	3825
753.032	2798
753.143	4895
753.254	2904
753.365	3942
753.476	3021
753.586	3517
753.697	3126
753.808	3152
753.919	2821
754.029	2792
754.140	2482
754.251	2962
754.361	3557
754.472	2936
754.582	3202
754.693	2743
754.804	3067
754.914	2948
755.025	2932
755.135	2919
755.246	3069
755.356	2881
755.466	2325
755.577	2132
755.687	3068
755.798	3091
755.908	3147
756.018	2306
756.129	2601
756.239	2930
756.349	2385
756.460	2467
756.570	3185
756.680	2946
756.790	3194
756.900	4207
757.011	2883
757.121	3577
757.231	2734
757.341	2997
757.451	3014
757.561	2583
757.671	2798
757.781	2808
757.891	2521
758.001	3942
758.111	4162
758.221	3395
758.331	3700
758.441	4803
758.551	4051
758.661	5554
758.771	4510
758.880	4465
758.990	3626
759.100	3934
759.210	3378
759.320	3563
759.429	4012
759.539	4232
759.649	3880
759.758	4311
759.868	4798
759.978	3436
760.087	4100
760.197	4389
760.307	4663
760.416	4447
760.526	3661
760.635	4877
760.745	4803
760.854	4548
760.964	4899
761.073	5407
761.182	4828
761.292	5059
761.401	4315
761.511	4677
761.620	4168
761.729	4076
761.839	3769
761.948	4481
762.057	3524
762.166	4076
762.276	3759
762.385	4555
762.494	3854
762.603	3324
762.712	4384
762.822	4026
762.931	4277
763.040	3277
763.149	3425
763.258	3970
763.367	4021
763.476	3383
763.585	3423
763.694	4365
763.803	4011
763.912	4762
764.021	4242
764.130	5080
764.238	4567
764.347	4930
764.456	4995
764.565	5084
764.674	5039
764.783	6058
764.891	5993
765.000	5354
765.109	6330
765.217	6889
765.326	8140
765.435	9816
765.543	10988
765.652	11534
765.761	14533
765.869	19993
765.978	28354
766.086	46587
766.195	85677
766.303	185072
766.412	471544
766.520	722572
766.629	427140
766.737	129679
766.846	62552
766.954	37742
767.062	27116
767.171	20046
767.279	16574
767.387	12354
767.496	10765
767.604	9227
767.712	8865
767.820	8473
767.928	7122
768.037	7693
768.145	7006
768.253	6584
768.361	6357
768.469	5811
768.577	5499
768.685	7077
768.793	6956
768.901	7280
769.009	8029
769.117	8200
769.225	10073
769.333	13493
769.441	18758
769.549	33187
769.657	65247
769.765	169417
769.873	480950
769.981	476740
770.088	126418
770.196	41739
770.304	24626
770.412	18257
770.519	13708
770.627	11309
770.735	8633
770.842	7726
770.950	7136
771.058	6417
771.165	6108
771.273	6588
771.380	6285
771.488	5107
771.595	4836
771.703	5003
771.810	4755
771.918	4091
772.025	3879
772.133	5406
772.240	4420
772.348	4306
772.455	4530
772.562	4664
772.670	4617
772.777	4616
772.884	4032
772.991	3930
773.099	4271
773.206	3763
773.313	3798
773.420	4095
773.528	2865
773.635	3597
773.742	3583
773.849	3622
773.956	3529
774.063	4109
774.170	3883
774.277	4156
774.384	3641
774.491	3978
774.598	3722
774.705	4078
774.812	4189
774.919	4441
775.026	3330
775.133	4113
775.239	2655
775.346	4694
775.453	3046
775.560	3242
775.667	3557
775.773	3729
775.880	3073
775.987	4270
776.093	3973
776.200	4032
776.307	3625
776.413	4009
776.520	3090
776.627	3722
776.733	3363
776.840	3290
776.946	4169
777.053	3046
777.159	3222
777.266	3012
777.372	2951
777.478	3631
777.585	3487
777.691	3571
777.798	3126
777.904	3678
778.010	4802
778.117	5566
778.223	3680
778.329	4072
778.435	3203
778.542	4022
778.648	3460
778.754	2619
778.860	2941
778.966	2890
779.072	2855
779.178	3685
779.284	3168
779.391	3152
779.497	3331
779.603	4242
779.708	2714
779.815	4076
779.920	6314
780.026	19205
780.132	12276
780.238	3512
780.344	3016
780.450	3323
780.556	2891
780.661	2011
780.767	2892
780.873	3151
780.979	2567
781.085	2341
781.190	3124
781.296	2615
781.402	2611
781.507	2033
781.613	2499
781.719	2356
781.824	2797
781.930	3045
782.035	2935
782.141	2832
782.246	3051
782.352	2306
782.457	2163
782.563	3303
782.668	2868
782.773	2998
782.879	2918
782.984	2850
783.090	3410
783.195	4231
783.300	4909
783.405	3438
783.511	2790
783.616	3405
783.721	2655
783.826	2808
783.932	1887
784.037	3958
784.142	3051
784.247	2893
784.352	3182
784.457	2594
784.562	2275
784.667	2582
784.772	2596
784.877	2903
784.982	2345
785.087	2140
785.192	2814
785.297	2467
785.402	2521
785.507	2678
785.611	3298
785.716	2005
785.821	2902
785.926	2121
786.031	2178
786.135	1943
786.240	2121
786.345	1752
786.450	2620
786.554	1823
786.659	2373
786.763	1378
786.868	2625
786.973	2419
787.077	1473
787.182	2349
787.286	1434
787.391	2271
787.495	2758
787.600	3043
787.704	2040
787.809	2085
787.913	1560
788.017	1869
788.122	2303
788.226	2078
788.330	1460
788.435	2090
788.539	2197
788.643	1983
788.747	2034
788.852	1843
788.956	1716
789.060	2341
789.164	1189
789.268	1115
789.372	2130
789.476	1851
789.580	1256
789.684	1401
789.788	1568
789.892	1708
789.996	1676
790.100	3146
790.204	1730
790.308	2046
790.412	2757
790.516	2659
790.620	2238
790.724	2236
790.828	2154
790.931	1936
791.035	2215
791.139	2321
791.242	1980
791.346	3116
791.450	1381
791.554	2494
791.657	1482
791.761	2099
791.864	1834
791.968	2260
792.072	1814
792.175	1911
792.279	980
792.382	2461
792.486	1703
792.589	1689
792.693	2110
792.796	1070
792.899	2749
793.003	2022
793.106	1860
793.209	1863
793.313	2230
793.416	1120
793.519	2449
793.623	2192
793.726	4797
793.829	4005
793.932	1907
794.035	1585
794.138	1821
794.242	1917
794.345	2204
794.448	3426
794.551	2771
794.654	6200
794.757	9081
794.860	7500
794.963	3894
795.066	2360
795.169	2155
795.272	1013
795.375	2165
795.477	1127
795.580	1187
795.683	761
795.786	1955
795.889	677
795.991	1880
796.094	2559
796.197	2448
796.300	1857
796.402	1259
796.505	753
796.608	1058
796.710	926
796.813	1049
796.915	2307
797.018	1594
797.120	990
797.223	517
797.326	2120
797.428	1204
797.530	1492
797.633	1590
797.735	2081
797.838	2445
797.940	5607
798.042	1549
798.145	1135
798.247	1472
798.349	1033
798.452	1544
798.554	1828
798.656	1677
798.758	1614
798.860	2514
798.962	1780
799.065	1105
799.167	698
799.269	1959
799.371	1326
799.473	2167
799.575	2123
799.677	3179
799.779	3200
799.881	2255
799.983	3570
800.085	1512
800.187	1424
800.289	1027
800.390	1419
800.492	1202
800.594	1603
800.696	992
800.798	553
800.899	921
801.001	1909
801.103	1367
801.205	882
801.306	1290
801.408	1291
801.509	1454
801.611	1472
801.713	1132
801.814	1035
801.916	386
802.017	736
802.119	955
802.220	780
802.322	-97
802.423	2800
802.525	2334
802.626	1352
802.727	615
802.829	973
802.930	-8
803.031	1824
803.133	347
803.234	1222
803.335	747
803.436	834
803.538	832
803.639	1181
803.740	945
803.841	735
803.942	1128
804.043	1106
804.144	679
804.245	1419
804.346	747
804.447	-77
804.548	1752
804.649	2982
804.750	1447
804.851	1130
804.952	1178
805.053	1082
805.154	-181
805.255	1210
805.355	799
805.456	645
805.557	386
805.658	-590
805.758	1575
805.859	857
805.960	262
806.061	636
806.161	1204
806.262	1412
806.362	331
806.463	516
806.564	1228
806.664	1435
806.765	2030
806.865	2714
806.966	763
807.066	1527
807.166	1371
807.267	1188
807.367	258
807.468	1541
807.568	146
807.668	971
807.769	1325
807.869	580
807.969	839
808.069	926
808.170	561
808.270	946
808.370	812
808.470	1293
808.570	1682
808.670	1275
808.770	1001
808.870	875
808.970	421
809.070	235
809.170	867
809.271	976
809.370	752
809.470	1066
809.570	738
809.670	943
809.770	159
809.870	850
809.970	809
810.070	743
810.169	435
810.269	352
810.369	1706
810.469	652
810.568	185
810.668	797
810.768	139
810.867	846
810.967	311
811.066	1472
811.166	1427
811.265	621
811.365	225
811.464	650
811.564	1060
811.663	930
811.763	973
811.862	1414
811.962	1954
812.061	707
812.160	221
812.260	1039
812.359	1360
812.458	2018
812.557	3606
812.657	8132
812.756	7148
812.855	2464
812.954	1926
813.053	1894
813.153	1375
813.252	1138
813.351	1106
813.450	1069
813.549	1404
813.648	1124
813.747	450
813.846	1894
813.945	1434
814.044	2519
814.143	1307
814.242	1741
814.341	1720
814.439	1940
814.538	1330
814.637	1554
814.736	1424
814.835	2319
814.933	2395
815.032	3117
815.131	1891
815.229	3009
815.328	2714
815.427	2647
815.525	3045
815.624	3313
815.722	2743
815.821	3289
815.919	3236
816.018	3489
816.116	3473
816.215	4062
816.313	4020
816.412	4804
816.510	4788
816.609	5018
816.707	5340
816.805	6681
816.904	5427
817.002	6866
817.100	7852
817.198	8822
817.296	10831
817.395	11359
817.493	13328
817.591	16079
817.689	19641
817.787	26446
817.885	38071
817.983	62085
818.081	109920
818.179	218223
818.277	454775
818.375	724303
818.473	461534
818.571	191770
818.669	100921
818.767	72781
818.865	63443
818.963	68008
819.061	82654
819.158	121157
819.256	202530
819.354	370618
819.452	681866
819.549	836476
819.647	543367
819.745	259837
819.842	138075
819.940	87319
820.038	60397
820.135	44347
820.233	34531
820.330	27515
820.428	21975
820.525	19182
820.623	15834
820.720	13738
820.818	12819
820.915	10948
821.012	9966
821.110	8268
821.207	8448
821.304	6565
821.402	6917
821.499	6755
821.596	6378
821.693	5475
821.791	5730
821.888	5056
821.985	6816
822.082	8357
822.179	5509
822.276	4135
822.373	3807
822.470	3483
822.567	2805
822.664	2464
822.761	3376
822.858	2204
822.955	2642
823.052	3367
823.149	2027
823.246	2758
823.343	2261
823.440	2792
823.536	1848
823.633	1518
823.730	1724
823.827	2025
823.923	1238
824.020	2829
824.117	2030
824.213	1018
824.310	2814
824.407	1560
824.503	1897
824.600	1909
824.696	1259
824.793	2110
824.889	1122
824.986	2072
825.082	1433
825.179	1148
825.275	1226
825.371	1583
825.468	1075
825.564	10
825.660	1653
825.757	1472
825.853	717
825.949	1640
826.045	1375
826.142	982
826.238	1098
826.334	1591
826.430	372
826.526	1741
826.622	1040
826.718	1004
826.814	362
826.910	1356
827.006	784
827.102	64
827.198	1322
827.294	791
827.390	821
827.486	1025
827.582	922
827.678	427
827.774	201
827.869	400
827.965	788
828.061	412
828.157	518
828.252	1674
828.348	531
828.444	1103
828.539	-231
828.635	102
828.731	1178
828.826	-439
828.922	-182
829.017	967
829.113	1023
829.208	1605
829.304	427
829.399	1540
829.495	1078
829.590	1790
829.685	312
829.781	283
829.876	593
829.971	587
830.066	702
830.162	614
830.257	-319
830.352	263
830.447	1100
830.543	950
830.638	586
830.733	1220
830.828	748
830.923	935
831.018	489
831.113	-170
831.208	171
831.303	936
831.398	381
831.493	488
831.588	846
831.683	748
831.778	1205
831.873	490
831.967	1482
832.062	820
832.157	-204
832.252	840
832.346	25
832.441	446
832.536	1297
832.631	3126
832.725	5432
832.820	1439
832.914	325
833.009	860
833.104	420
833.198	955
833.293	755
833.387	966
833.482	648
833.576	278
833.670	1127
833.765	142
833.859	720
833.954	1331
834.048	29
834.142	734
834.237	-699
834.331	619
834.425	396
834.519	-223
834.613	612
834.708	-320
834.802	253
834.896	367
834.990	60
835.084	423
835.178	578
835.272	-157
835.366	-570
835.460	359
835.554	-8
835.648	206
835.742	-26
835.836	411
835.930	-1145
836.024	147
836.117	1054
836.211	225
836.305	651
836.399	2315
836.493	1691
836.586	875
836.680	28
836.774	-185
836.867	363
836.961	-500
837.055	275
837.148	-307
837.242	-126
837.335	-266
837.429	490
837.522	-108
837.616	238
837.709	2011
837.803	2838
837.896	916
837.989	1016
838.083	1328
838.176	2848
838.269	5265
838.363	2679
838.456	564
838.549	995
838.642	2351
838.735	3752
838.829	5189
838.922	-115
839.015	909
839.108	-11
839.201	151
839.294	725
839.387	1118
839.480	-68
839.573	971
839.666	2333
839.759	2220
839.852	-21
839.945	407
840.038	226
840.131	69
840.223	-115
840.316	752
840.409	114
840.502	297
840.594	873
840.687	-257
840.780	425
840.873	203
840.965	69
841.058	1598
841.150	2649
841.243	4685
841.336	1795
841.428	1010
841.521	280
841.613	-5
841.706	472
841.798	247
841.890	83
841.983	-311
842.075	1193
842.167	175
842.260	271
842.352	979
842.444	1066
842.537	3443
842.629	6656
842.721	4426
842.813	-25
842.905	-97
842.997	249
843.090	-324
843.182	697
843.274	2439
843.366	7240
843.458	15858
843.550	22012
843.642	6701
843.734	735
843.826	356
843.918	1821
844.009	588
844.101	-51
844.193	399
844.285	579
844.377	155
844.469	484
844.560	111
844.652	-192
844.744	347
844.835	337
844.927	470
845.019	588
845.110	612
845.202	539
845.293	91
845.385	-377
845.476	-370
845.568	54
845.659	-522
845.751	530
845.842	-467
845.934	-441
846.025	-648
846.116	466
846.208	-847
846.299	-538
846.390	-155
846.482	750
846.573	123
846.664	800
846.755	1242
846.846	2657
846.937	395
847.029	-192
847.120	-312
847.211	-728
847.302	364
847.393	-414
847.484	662
847.575	-806
847.666	-1046
847.757	-133
847.847	14
847.938	84
848.029	-251
848.120	-164
848.211	-349
848.302	-883
848.392	-288
848.483	-558
848.574	-958
848.664	-1196
848.755	15
848.846	-257
848.936	354
849.027	-147
849.118	334
849.208	-206
849.299	175
849.389	1007
849.480	2897
849.570	5339
849.661	10791
849.751	20468
849.841	20371
849.932	4551
850.022	-515
850.112	-21
850.203	34
850.293	-173
850.383	275
850.474	-692
850.564	214
850.654	283
850.744	-94
850.834	190
850.924	-373
851.014	245
851.104	-670
851.194	-715
851.284	839
851.374	590
851.464	394
851.554	709
851.644	415
851.734	544
851.824	1661
851.914	-229
852.004	26
852.094	-703
852.183	348
852.273	445
852.363	223
852.452	-195
852.542	718
852.632	29
852.721	443
852.811	-227
852.901	867
852.990	248
853.080	131
853.169	-133
853.259	883
853.348	357
853.438	684
853.527	961
853.617	1918
853.706	4363
853.795	7461
853.885	17329
853.974	38021
854.063	64669
854.152	126096
854.242	122762
854.331	28273
854.420	6838
854.509	3220
854.598	2065
854.687	2075
854.777	1120
854.866	1535
854.955	784
855.044	-49
855.133	121
855.222	644
855.311	-311
855.400	-128
855.488	-143
855.577	-20
855.666	262
855.755	507
855.844	804
855.933	273
856.021	681
856.110	-96
856.199	-286
856.288	23
856.376	-111
856.465	-179
856.554	71
856.642	370
856.731	269
856.819	-119
856.908	-392
856.996	82
857.085	-587
857.173	33
857.262	-177
857.350	-248
857.438	-534
857.527	322
857.615	-715
857.703	637
857.792	-669
857.880	-554
857.968	-807
858.056	-155
858.145	-526
858.233	-609
858.321	-530
858.409	166
858.497	-767
858.585	220
858.673	-231
858.761	-945
858.849	-1277
858.937	-860
859.025	-475
859.113	-560
859.201	-1652
859.289	332
859.377	-1448
859.465	-112
859.552	-644
859.640	-474
859.728	-784
859.816	10
859.903	85
859.991	465
860.079	-19
860.166	-821
860.254	-430
860.342	-309
860.429	-325
860.517	-181
860.604	-44
860.692	205
860.779	78
860.867	-150
860.954	-205
861.042	136
861.129	131
861.216	938
861.304	-1097
861.391	-223
861.478	-521
861.565	645
861.653	833
861.740	-387
861.827	-410
861.914	76
862.001	-746
862.089	387
862.176	-266
862.263	87
862.350	-657
862.437	-864
862.524	-850
862.611	-449
862.698	-478
862.785	-435
862.871	-129
862.958	-371
863.045	-224
863.132	-612
863.219	-320
863.306	-309
863.392	496
863.479	-631
863.566	-129
863.652	121
863.739	-576
863.826	-50
863.912	-252
863.999	-494
864.086	-605
864.172	-536
864.259	-645
864.345	-321
864.432	-230
864.518	619
864.604	77
864.691	-424
864.777	-287
864.863	-110
864.950	324
865.036	-334
865.122	554
865.209	1620
865.295	829
865.381	1110
865.467	997
865.553	2034
865.639	2366
865.726	3940
865.812	8414
865.898	18423
865.984	30730
866.070	45507
866.156	86108
866.242	53795
866.328	11203
866.414	2455
866.499	1623
866.585	1933
866.671	1083
866.757	500
866.843	1125
866.928	430
867.014	237
867.100	1151
867.186	598
867.271	777
867.357	1110
867.442	1462
867.528	1487
867.614	966
867.699	223
867.785	1048
867.870	-123
867.956	408
868.041	966
868.127	1220
868.212	369
868.297	1678
868.383	165
868.468	581
868.553	2227
868.639	2690
868.724	3823
868.809	7948
868.894	3634
868.979	505
869.065	361
869.150	133
869.235	462
869.320	-335
869.405	-177
869.490	-897
869.575	-710
869.660	160
869.745	352
869.830	-738
869.915	215
870.000	654
870.085	216
870.169	13
870.254	246
870.339	-475
870.424	372
870.509	94
870.593	531
870.678	-484
870.763	111
870.847	93
870.932	-98
871.016	518
871.101	20
871.186	-307
871.270	-349
871.355	-250
871.439	418
871.523	-340
871.608	-394
871.692	-33
871.777	-488
871.861	389
871.945	-369
872.030	457
872.114	-699
872.198	-650
872.282	-262
872.367	-261
872.451	-523
872.535	-689
872.619	-38
872.703	-1371
872.787	97
872.871	326
872.955	272
873.039	-170
873.123	-636
873.207	-169
873.291	-714
873.375	-502
873.459	-191
873.543	-810
873.627	-319
873.711	-416
873.794	-325
873.878	-304
873.962	-607
874.045	-90
874.129	-164
874.137	-153
874.213	-49
874.245	-41
874.296	-23
874.352	-247
874.380	-360
874.460	-694
874.464	-708
874.547	-886
874.568	-798
874.631	-497
874.676	-455
874.714	-442
874.784	-278
874.798	-243
874.881	534
874.892	444
874.965	-170
874.999	-322
875.048	-525
875.107	-75
875.131	95
875.215	411
875.215	411
875.298	-363
875.323	-208
875.381	153
875.430	-115
875.465	-279
875.538	384
875.548	464
875.631	-203
875.646	-285
875.714	-654
875.753	-764
875.798	-935
875.861	-1275
875.881	-1331
875.964	-393
875.968	-401
876.047	-733
876.076	-496
876.130	3
876.183	-33
876.213	-57
876.291	-106
876.296	-113
876.379	23
876.398	-31
876.462	-141
876.506	-158
876.545	-226
876.613	-133
876.628	-90
876.711	429
876.721	393
876.794	-11
876.828	-231
876.877	-493
876.935	-290
876.960	-191
877.043	76
877.043	75
877.125	-110
877.150	10
877.208	132
877.258	-261
877.291	-413
877.365	415
877.374	497
877.456	56
877.472	53
877.539	-10
877.579	-130
877.622	-167
877.687	422
877.704	545
877.787	-432
877.794	-385
877.869	312
877.901	319
877.952	202
878.008	93
878.034	84
878.115	-414
878.117	-423
878.199	-499
878.222	-353
878.282	-13
878.329	12
878.364	68
878.437	102
878.447	96
878.529	-416
878.544	-363
878.611	-215
878.651	-277
878.694	-230
878.758	-151
878.776	-112
878.858	-151
878.865	-130
878.941	-98
878.972	115
879.023	534
879.078	239
879.105	95
879.185	81
879.187	81
879.269	298
879.292	278
879.351	285
879.399	481
879.433	535
879.506	-208
879.516	-288
879.598	-243
879.613	-229
879.680	-276
879.720	-337
879.762	-200
879.827	-417
879.844	-531
879.926	-127
879.933	-127
880.007	-30
880.040	37
880.089	93
880.147	480
880.171	571
880.253	1226
880.254	1235
880.335	3114
880.360	3513
880.417	4153
880.467	4632
880.499	5309
880.574	10783
880.580	11098
880.662	7766
880.680	6413
880.744	1450
880.787	391
880.825	52
880.893	-204
880.907	-332
880.989	-559
881.000	-601
881.070	-439
881.106	-398
881.152	-441
881.213	-561
881.233	-637
881.315	-359
881.319	-355
881.396	-228
881.426	-330
881.478	-279
881.532	-79
881.559	-146
881.639	-652
881.641	-655
881.722	-178
881.745	-152
881.803	16
881.852	82
881.885	-77
881.958	-280
881.966	-261
882.047	448
882.064	451
882.129	508
882.171	511
882.210	256
882.277	495
882.291	653
882.372	596
882.383	529
882.454	-154
882.489	-48
882.535	22
882.596	-23
882.616	37
882.697	-476
882.702	-452
882.778	-395
882.808	-433
882.859	-102
882.914	-87
882.940	-324
883.020	-286
883.021	-280
883.102	-417
883.127	-323
883.183	-141
883.233	14
883.264	-34
883.339	-646
883.345	-630
883.426	-130
883.445	95
883.507	99
883.551	-241
883.587	-147
883.657	87
883.668	26
883.749	20
883.763	-83
883.830	-184
883.869	15
883.910	248
883.975	49
883.991	-108
884.072	-148
884.081	-217
884.152	-42
884.187	215
884.233	264
884.292	38
884.314	-43
884.394	-7
884.398	-32
884.475	-524
884.504	-512
884.555	-341
884.610	-221
884.636	-5
884.716	614
884.716	612
884.797	-302
884.821	-562
884.877	-99
884.927	344
884.958	316
885.033	64
885.038	60
885.118	103
885.139	116
885.199	7
885.244	-26
885.279	-97
885.350	-356
885.359	-327
885.439	-291
885.456	-192
885.520	-326
885.561	-598
885.600	-383
885.667	33
885.680	62
885.760	250
885.773	293
885.840	360
885.878	359
885.920	246
885.984	-76
886.000	-49
886.080	352
886.089	377
886.160	-100
886.195	-273
886.240	15
886.300	194
886.320	87
886.400	-135
886.406	-159
886.480	73
886.511	178
886.560	53
886.616	-60
886.640	-29
886.720	-145
886.722	-147
886.800	-259
886.827	-279
886.879	-2
886.932	135
886.959	304
887.038	1020
887.039	1014
887.119	-30
887.143	-328
887.198	4
887.248	331
887.278	112
887.354	-622
887.358	-579
887.437	434
887.459	684
887.517	384
887.564	148
887.596	205
887.669	337
887.676	303
887.755	-133
887.774	-274
887.835	-337
887.880	-281
887.914	-357
887.985	-630
887.994	-578
888.073	-120
888.090	-5
888.153	-282
888.195	-514
888.232	-188
888.300	391
888.311	401
888.391	481
888.405	489
888.470	-57
888.510	-385
888.549	-199
888.615	93
888.628	199
888.708	858
888.720	948
888.787	531
888.825	289
888.866	-28
888.930	-530
888.945	-438
889.024	96
889.035	161
889.103	98
889.140	73
889.182	-76
889.245	-309
889.261	-307
889.340	-276
889.349	-275
889.419	49
889.454	225
889.498	236
889.559	230
889.577	105
889.656	-434
889.664	-486
889.735	-284
889.768	-185
889.814	-44
889.873	147
889.978	-226
890.083	240
890.187	420
890.292	516
890.397	224
890.501	899
890.606	100
890.710	530
890.815	45
890.919	142
891.024	177
891.128	342
891.233	37
891.337	-179
891.442	-394
891.546	-683
891.650	320
891.755	164
891.859	1059
891.963	428
892.068	-66
892.172	385
892.276	463
892.380	-682
892.484	291
892.589	383
892.693	972
892.797	336
892.901	322
893.005	181
893.109	-376
893.213	-203
893.317	-247
893.421	242
893.525	-561
893.629	-319
893.733	52
893.837	-29
893.941	-497
894.045	993
894.148	-720
894.252	351
894.356	-40
894.460	-61
894.564	-351
894.667	229
894.771	354
894.875	57
894.978	434
895.082	8
895.186	219
895.289	590
895.393	278
895.496	252
895.600	-162
895.703	173
895.807	-586
895.910	389
896.014	-228
896.117	475
896.221	-492
896.324	352
896.427	283
896.531	221
896.634	275
896.737	-264
896.840	158
896.944	-76
897.047	-123
897.150	753
897.253	-57
897.356	171
897.460	206
897.563	331
897.666	410
897.769	106
897.872	278
897.975	-294
898.078	718
898.181	750
898.284	-575
898.387	1052
898.490	385
898.593	187
898.695	-102
898.798	294
898.901	-93
899.004	110
899.107	155
899.209	110
899.312	597
899.415	-54
899.518	219
899.620	-469
899.723	13
899.826	557
899.928	955
900.031	893
900.133	161
900.236	255
900.338	38
900.441	-15
900.543	-597
900.646	523
900.748	-259
900.851	607
900.953	-28
901.055	-428
901.158	-48
901.260	-117
901.362	-261
901.465	68
901.567	-293
901.669	64
901.771	447
901.873	-887
901.976	-81
902.078	-387
902.180	50
902.282	279
902.384	332
902.486	-265
902.588	383
902.690	-17
902.792	256
902.894	274
902.996	-582
903.098	-555
903.200	137
903.302	6
903.404	245
903.505	74
903.607	-393
903.709	129
903.811	-422
903.913	-62
904.014	-433
904.116	-177
904.218	167
904.319	-157
904.421	-47
904.523	-461
904.624	439
904.726	390
904.827	-176
904.929	-22
905.030	-231
905.132	14
905.233	261
905.335	-1230
905.436	-193
905.537	11
905.639	116
905.740	-686
905.841	-415
905.943	-565
906.044	-688
906.145	138
906.247	450
906.348	-634
906.449	473
906.550	-1
906.651	-360
906.752	-101
906.854	-484
906.955	524
907.056	175
907.157	316
907.258	277
907.359	-91
907.460	-169
907.561	-98
907.662	507
907.762	-455
907.863	-408
907.964	198
908.065	372
908.166	754
908.267	-6
908.367	164
908.468	73
908.569	-371
908.670	-329
908.770	-112
908.871	82
908.971	143
909.072	421
909.173	223
909.273	-186
909.374	1187
909.474	1
909.575	315
909.675	97
909.776	-318
909.876	-304
909.977	-691
910.077	-478
910.177	542
910.278	-319
910.378	-269
910.478	-268
910.579	-453
910.679	-717
910.779	-392
910.879	-185
910.980	188
911.080	-27
911.180	-831
911.280	387
911.380	2
911.480	17
911.580	117
911.680	214
911.780	714
911.880	-542
911.980	532
912.080	-15
912.180	503
912.280	294
912.380	-387
912.480	638
912.580	-260
912.679	310
912.779	151
912.879	-82
912.979	-457
913.078	-568
913.178	510
913.278	-357
913.377	-507
913.477	-893
913.577	114
913.676	820
913.776	27
913.875	-266
913.975	504
914.074	-283
914.174	-1167
914.273	-397
914.373	70
914.472	476
914.572	-207
914.671	-99
914.770	-727
914.870	-81
914.969	-60
915.068	-60
915.167	-210
915.267	-149
915.366	-285
915.465	-268
915.564	376
915.663	-67
915.763	-162
915.862	-245
915.961	221
916.060	-816
916.159	89
916.258	-228
916.357	-1190
916.456	-105
916.555	-464
916.654	-535
916.752	-69
916.851	233
916.950	210
917.049	252
917.148	-398
917.247	221
917.345	-180
917.444	-177
917.543	-138
917.642	-724
917.740	-358
917.839	208
917.937	489
918.036	759
918.135	-365
918.233	-356
918.332	507
918.430	-261
918.529	79
918.627	-1244
918.726	463
918.824	-675
918.923	147
919.021	-691
919.119	-920
919.218	-165
919.316	14
919.414	-149
919.512	-413
919.611	393
919.709	-256
919.807	-250
919.905	-142
920.003	-314
920.102	-988
920.200	-65
920.298	204
920.396	451
920.494	5
920.592	-64
920.690	540
920.788	-581
920.886	-695
920.984	48
921.082	-300
921.180	426
921.277	-324
921.375	234
921.473	158
921.571	-363
921.669	-259
921.766	-203
921.864	-6
921.962	-161
922.060	-102
922.157	510
922.255	-229
922.352	339
922.450	49
922.548	-613
922.645	-821
922.743	178
922.840	34
922.938	-556
923.035	-8
923.133	270
923.230	-606
923.327	607
923.425	103
923.522	-164
923.619	257
923.717	-21
923.814	500
923.911	375
924.008	1212
924.106	314
924.203	114
924.300	400
924.397	125
924.494	257
924.591	254
924.688	-330
924.786	525
924.883	-473
924.979	932
925.077	175
925.173	1015
925.270	148
925.367	411
925.464	401
925.561	500
925.658	556
925.755	443
925.852	296
925.948	365
926.045	332
926.142	-314
926.239	348
926.335	-54
926.432	254
926.529	488
926.625	-69
926.722	221
926.818	795
926.915	145
927.011	-279
927.108	401
927.204	274
927.301	205
927.397	-230
927.494	91
927.590	6
927.687	-297
927.783	571
927.879	-45
927.976	-182
928.072	-148
928.168	-593
928.264	561
928.361	-103
928.457	-195
928.553	-1084
928.649	101
928.745	259
928.841	78
928.937	-277
929.033	165
929.129	986
929.225	307
929.321	571
929.417	123
929.513	-293
929.609	234
929.705	-11
929.801	490
929.897	-30
929.993	-290
930.089	203
930.184	-156
930.280	846
930.376	56
930.471	15
930.567	-565
930.663	-585
930.758	-277
930.854	-294
930.950	-621
931.045	248
931.141	339
931.236	560
931.332	-541
931.427	-272
931.523	2
931.618	-90
931.714	-976
931.809	274
931.905	184
932.000	-884
932.095	-88
932.191	645
932.286	-407
932.381	-494
932.476	-36
932.572	-143
932.667	-106
932.762	-51
932.857	33
932.952	125
933.047	-331
933.142	21
933.237	-692
933.332	-483
933.427	-492
933.522	169
933.617	-143
933.712	161
933.807	183
933.902	228
933.997	-443
934.092	-226
934.187	-777
934.282	-133
934.376	286
934.471	-262
934.566	178
934.661	108
934.755	267
934.850	-521
934.945	175
935.039	157
935.134	681
935.228	-350
935.323	-328
935.417	-596
935.512	-280
935.606	-409
935.701	-805
935.795	593
935.890	273
935.984	-181
936.079	-683
936.173	117
936.267	526
936.362	-590
936.456	363
936.550	-225
936.644	416
936.738	-346
936.833	-124
936.927	-203
937.021	-210
937.115	102
937.209	-397
937.303	413
937.397	192
937.491	-57
937.585	579
937.679	-227
937.773	178
937.867	-179
937.961	-13
938.055	-548
938.149	1
938.243	-634
938.337	-306
938.430	-717
938.524	545
938.618	-517
938.712	299
938.805	-191
938.899	504
938.993	343
939.086	-201
939.180	-654
939.274	-93
939.367	-415
939.461	49
939.554	62
939.648	-1067
939.741	-423
939.835	98
939.928	-218
940.022	133
940.115	-596
940.208	-547
940.302	861
940.395	-191
940.488	-892
940.582	188
940.675	-59
940.768	-261
940.861	-610
940.954	226
941.048	-636
941.141	113
941.234	-796
941.327	-43
941.420	764
941.513	256
941.606	-711
941.699	323
941.792	250
941.885	-1223
941.978	-117
942.071	-43
942.164	-290
942.257	-864
942.349	360
942.442	-218
942.535	-769
942.628	-118
942.721	232
942.813	-1510
942.906	334
942.999	-60
943.091	-129
943.184	-142
943.277	-24
943.369	72
943.462	-359
943.554	129
943.647	-414
943.739	-254
943.832	36
943.924	-479
944.017	-536
944.109	-960
944.201	323
944.294	-292
944.386	-979
944.478	371
944.571	-601
944.663	-687
944.755	60
944.847	444
944.940	-654
945.032	-815
945.124	-527
945.216	-363
945.308	-870
945.400	650
945.492	149
945.584	-246
945.676	-1288
945.768	-462
945.860	-479
945.952	-116
946.044	-538
946.136	33
946.228	-836
946.320	-429
946.412	-203
946.503	-643
946.595	745
946.687	-601
946.779	-51
946.870	-788
946.962	345
947.054	-190
947.145	-101
947.237	-82
947.329	-227
947.420	-1242
947.512	-152
947.603	-541
947.695	-508
947.786	-82
947.878	-537
947.969	-25
948.061	180
948.152	-593
948.243	-576
948.335	-684
948.426	-526
948.517	-100
948.609	-38
948.700	109
948.791	-118
948.882	-754
948.973	230
949.065	-398
949.156	-269
949.247	206
949.338	-423
949.429	-270
949.520	-98
949.611	-1101
949.702	-472
949.793	-523
949.884	72
949.975	-120
950.066	486
950.157	-1373
950.247	-743
950.338	-143
950.429	-499
950.520	-819
950.611	-362
950.701	450
950.792	-352
950.883	579
950.973	-549
951.064	-655
951.155	-807
951.245	-677
951.336	331
951.427	-444
951.517	-122
951.608	-455
951.698	28
951.788	216
951.879	-245
951.969	-575
952.060	-419
952.150	-102
952.240	-355
952.331	-612
952.421	884
952.511	-115
952.602	-149
952.692	-998
952.782	-515
952.872	-1174
952.962	-661
953.052	230
953.143	-524
953.233	-191
953.323	98
953.413	-1022
953.503	-659
953.593	493
953.683	-356
953.773	-899
953.863	-696
953.953	-652
954.042	-253
954.132	-884
954.222	-484
954.312	-216
954.402	-370
954.492	-1115
954.581	-601
954.671	-95
954.761	-832
954.850	-756
954.940	-535
955.030	-376
955.119	-274
955.209	-1223
955.298	-604
955.388	-407
955.477	-1130
955.567	-818
955.656	-38
955.746	283
955.835	-561
955.925	-653
956.014	-586
956.103	-537
956.193	-210
956.282	-1026
956.371	-374
956.461	190
956.550	-1473
956.639	-796
956.728	-881
956.817	-644
956.906	-952
956.995	-159
957.085	-800
957.174	-793
957.263	-600
957.352	-760
957.441	-943
957.530	17
957.619	-431
957.708	-1052
957.796	-731
957.885	-390
957.974	-267
958.063	417
958.152	-719
958.241	-679
958.329	-623
958.418	-419
958.507	-537
958.596	-403
958.684	-347
958.773	-476
958.861	-80
958.950	-783
959.039	-420
959.127	-782
959.216	-663
959.304	-679
959.393	-672
959.481	-778
959.570	-735
959.658	-788
959.746	-404
959.835	-340
959.923	-277
960.011	-471
960.100	-653
960.188	-1135
960.276	-290
960.365	-739
960.453	-106
960.541	-1145
960.629	-256
960.717	-418
960.805	-897
960.893	-99
960.981	-1180
961.069	-373
961.158	-606
961.245	86
961.333	-120
961.421	-906
961.509	-656
961.597	-527
961.685	-1186
961.773	-730
961.861	-525
961.949	-558
962.036	-1511
962.124	-179
962.212	-1535
962.299	-543
962.387	-1113
962.475	-1394
962.562	-1101
962.650	-291
962.738	-1114
962.825	-358
962.913	-122
963.000	-611
963.088	-255
963.175	-1331
963.263	-809
963.350	-355
963.438	-876
963.525	-222
963.612	-470
963.700	101
963.787	2194
963.874	3049
963.962	335
964.049	19
964.136	-203
964.223	-513
964.310	-1082
964.398	-616
964.485	-1182
964.572	-73
964.659	-510
964.746	-356
964.833	-27
964.920	-1186
965.007	-1219
965.094	-1066
965.181	-1490
965.268	-167
965.355	-1169
965.441	-930
965.528	-643
965.615	0
965.702	-124
965.789	-1360
965.875	-980
965.962	18
966.049	-1228
966.136	-855
966.222	-699
966.309	-666
966.395	-1955
966.482	-338
966.569	64
966.655	-365
966.742	-496
966.828	-959
966.915	-1733
967.001	-412
967.087	-822
967.174	-717
967.260	-891
967.347	-583
967.433	-174
967.519	1158
967.605	1796
967.692	-956
967.778	-518
967.864	-171
967.950	-766
968.036	-980
968.123	243
968.209	-573
968.295	-1076
968.381	-670
968.467	-292
968.553	-875
968.639	-218
968.725	-1310
968.811	-646
968.897	69
968.983	-173
969.069	-1145
969.154	-191
969.240	8
969.326	-1041
969.412	-1016
969.497	-755
969.583	-353
969.669	-888
969.755	-624
969.840	-284
969.926	-381
970.012	-748
970.097	-556
970.183	-482
970.268	-920
970.354	-559
970.439	-920
970.525	450
970.610	659
970.696	-23
970.781	-142
970.866	-701
970.952	-336
971.037	-708
971.122	-670
971.208	-210
971.293	-426
971.378	-1577
971.463	-929
971.549	-1142
971.634	-716
971.719	-677
971.804	-556
971.889	510
971.974	-991
972.059	-793
972.144	-1211
972.229	-635
972.314	-1209
972.399	-502
972.484	-447
972.569	-283
972.654	-661
972.739	-290
972.824	226
972.908	502
972.993	-1074
973.078	-46
973.163	-907
973.247	-1027
973.332	-1452
973.417	-26
973.501	-1072
973.586	-1074
973.671	-29
973.755	-134
973.840	225
973.924	-727
974.009	-1062
974.093	-1302
974.178	169
974.262	-351
974.346	1143
974.431	326
974.515	-1082
974.600	-825
974.684	-696
974.768	-1137
974.852	-299
974.937	-872
975.021	-356
975.105	-1131
975.189	-283
975.273	-705
975.358	-1036
975.442	-1462
975.526	-554
975.610	-1328
975.694	-1140
975.778	-154
975.862	-467
975.946	-1735
976.030	451
976.114	-1169
976.198	-838
976.281	-973
976.365	480
976.449	-536
976.533	-1307
976.617	-1245
976.700	-397
976.784	-340
976.868	-1596
976.951	-1414
977.035	-598
977.119	-1111
977.202	-438
977.286	-701
977.369	-818
977.453	-462
977.536	-1055
977.620	-446
977.703	-26
977.787	-1095
977.870	118
977.953	-1004
978.037	-1620
978.120	-412
978.203	-790
978.287	-498
978.370	91
978.453	-661
978.536	-728
978.620	-787
978.703	-860
978.786	-451
978.869	-1109
978.952	-1383
979.035	-449
979.118	-355
979.201	-460
979.284	-954
979.367	-413
979.450	-312
979.533	-815
979.616	-726
979.699	-1699
979.782	-522
979.865	-724
979.948	-1372
980.030	-1501
980.113	-966
980.196	-306
980.279	-1011
980.361	-1143
980.444	-710
980.526	-664
980.609	-785
980.692	-951
980.774	-1255
980.857	-1393
980.939	134
981.022	-1166
981.104	-833
981.187	-1603
981.269	-550
981.352	-568
981.434	-1855
981.516	-1530
981.599	-397
981.681	-535
981.763	-1071
981.846	-1334
981.928	-118
982.010	-783
982.092	-1096
982.174	-878
982.256	-1464
982.339	-1570
982.421	-956
982.503	-418
982.585	-307
982.667	-1641
982.749	-777
982.831	-550
982.913	-1614
982.995	-82
983.077	-694
983.158	-620
983.240	-848
983.322	-647
983.404	-451
983.486	-1459
983.568	-487
983.649	-884
983.731	-127
983.813	-1213
983.894	-780
983.976	-1217
984.058	-817
984.139	-173
984.221	-1164
984.302	-629
984.384	-1539
984.465	-1034
984.547	-731
984.628	-702
984.710	-405
984.791	-1062
984.872	-222
984.954	-1021
985.035	-498
985.116	-984
985.198	-1055
985.279	-962
985.360	-1108
985.441	-918
985.522	-1244
985.604	-977
985.685	-2152
985.766	-787
985.847	-76
985.928	-1276
986.009	-991
986.090	-1267
986.171	-592
986.252	-885
986.333	-1124
986.414	-1620
986.495	-877
986.576	-766
986.656	-1424
986.737	-1257
986.818	-280
986.899	-1671
986.980	-1156
987.060	-1061
987.141	-978
987.222	-1262
987.302	-1038
987.383	-302
987.464	-1598
987.544	-1190
987.625	-1225
987.705	-539
987.786	-1296
987.866	-876
987.947	-1116
988.027	-1031
988.108	-949
988.188	-581
988.268	-648
988.349	-639
988.429	-812
988.509	-1741
988.589	-664
988.670	-2328
988.750	435
988.830	-1276
988.910	-1393
988.990	-363
989.070	-497
989.151	-439
989.231	-1174
989.311	-995
989.391	-585
989.471	-1028
989.551	-872
989.631	-1384
989.711	-583
989.791	-688
989.870	-1191
989.950	-168
990.030	-1561
990.110	-1253
990.190	-1651
990.269	-162
990.349	-1401
990.429	-1333
990.509	-476
990.588	-949
990.668	-903
990.747	-755
990.827	-1547
990.907	-1215
990.986	-425
991.066	-947
991.145	-1358
991.225	-851
991.304	-1133
991.383	-126
991.463	-1023
991.542	-287
991.622	-1177
991.701	-808
991.780	-851
991.859	-725
991.939	-1445
992.018	-1360
992.097	-742
992.176	-1241
992.256	-552
992.335	-1427
992.414	-552
992.493	-1384
992.572	-618
992.651	-835
992.730	-1490
992.809	-1899
992.888	-1183
992.967	-721
993.046	-556
993.125	-1351
993.203	-836
993.282	-779
993.361	-753
993.440	-1330
993.519	-968
993.597	-1095
993.676	-1131
993.755	-640
993.834	-1439
993.912	-975
993.991	-606
994.069	-1398
994.148	-1435
994.226	-777
994.305	-2117
994.384	-1012
994.462	-382
994.540	-812
994.619	-396
994.697	-738
994.776	-1471
994.854	-867
994.932	-2139
995.011	-1010
995.089	-1320
995.167	-1335
995.245	-587
995.324	-393
995.402	-167
995.480	-1339
995.558	-1052
995.636	-2263
995.714	-998
995.792	-680
995.870	-1726
995.948	-1828
996.026	-523
996.104	-1596
996.182	-293
996.260	-1284
996.338	-1228
996.416	-1721
996.494	-1451
996.572	-778
996.649	-919
996.727	-1590
996.805	-1535
996.883	-1055
996.960	-1245
997.038	-986
997.116	-1066
997.193	-1559
997.271	-393
997.348	-1749
997.426	-577
997.504	-1397
997.581	-1265
997.658	-839
997.736	-979
997.813	-1009
997.891	-481
997.968	-1370
998.046	-1324
998.123	-1171
998.200	-669
998.277	-1353
998.355	-1070
998.432	-1458
998.509	-1013
998.586	-903
998.663	-917
998.741	-1426
998.818	-319
998.895	-1901
998.972	-495
999.049	-1298
999.126	-1018
999.203	-1005
999.280	-1512
999.357	-1101
999.434	-1598
999.511	-717
999.587	-786
999.664	-1296
999.741	-1387
999.818	-299
999.895	-949
999.971	-2086
1000.048	-1521
1000.125	-584
1000.202	-742
1000.278	-1528
1000.355	-927
1000.431	-1396
1000.508	-840
1000.584	-881
1000.661	-1103
1000.738	-1534
1000.814	-1419
1000.890	-1511
1000.967	-908
1001.043	-706
1001.120	-1071
1001.196	-1196
1001.272	-2151
1001.349	-1223
1001.425	-818
1001.501	-656
1001.577	-1613
1001.654	-1382
1001.730	-842
1001.806	-1656
1001.882	-1788
1001.958	-540
1002.034	-1399
1002.110	-1707
1002.186	-1216
1002.262	-1155
1002.338	-1885
1002.414	-695
1002.490	-1196
1002.566	-1001
1002.642	-1104
1002.718	-1168
1002.794	-1054
1002.870	-1115
1002.945	-879
1003.021	-937
1003.097	-990
1003.173	-1404
1003.248	-1990
1003.324	-1317
1003.400	-1294
1003.475	-1516
1003.551	-1246
1003.626	-1339
1003.702	-1351
1003.777	-694
1003.853	-1428
1003.928	-1125
1004.004	-1146
1004.079	-862
1004.155	-1837
1004.230	-1103
1004.305	-1283
1004.381	-735
1004.456	-1967
1004.531	-1268
1004.607	-715
1004.682	-1570
1004.757	-1291
1004.832	-1756
1004.907	-303
1004.982	-1652
1005.057	-1310
1005.133	-1185
1005.208	-1153
1005.283	-1624
1005.358	-667
1005.433	-1467
1005.508	-1567
1005.583	-1457
1005.657	-1116
1005.732	-1011
1005.807	-1632
1005.882	-568
1005.957	-899
1006.032	-1363
1006.106	-1598
1006.181	-936
1006.256	-1320
1006.331	-1484
1006.405	-1611
1006.480	-1392
1006.554	-1587
1006.629	-1348
1006.704	-1492
1006.778	-1335
1006.853	-1351
1006.927	-1177
1007.002	-940
1007.076	-1515
1007.150	-2247
1007.225	-1697
1007.299	-1259
1007.373	-1427
1007.448	-563
1007.522	-1061
1007.596	-1606
1007.671	-1154
1007.745	-860
1007.819	-1734
1007.893	-1661
1007.967	-831
1008.041	-1343
1008.115	-457
1008.190	-1827
1008.264	-1822
1008.338	-1580
1008.412	-1705
1008.486	-1361
1008.560	-930
1008.633	-2589
1008.707	-1363
1008.781	-1336
1008.855	-1744
1008.929	-810
1009.003	-1611
1009.076	-1772
1009.150	-1411
1009.224	-2113
1009.298	-1782
1009.371	-1901
1009.445	-1521
1009.519	-1267
1009.592	-2248
1009.666	-1593
1009.739	-1037
1009.813	-2252
1009.886	-1550
1009.960	-1865
1010.033	-1297
1010.107	-1467
1010.180	-1425
1010.253	-1640
1010.327	-1543
1010.400	-1910
1010.473	-642
1010.547	-1363
1010.620	-2306
1010.693	-1048
1010.766	-2408
1010.840	-1362
1010.913	-1185
1010.986	-1950
1011.059	-977
1011.132	-1373
1011.205	-1446
1011.278	-1922
1011.351	-1523
1011.424	-2336
1011.497	-1856
1011.570	-1994
1011.643	-1370
1011.716	-1581
1011.789	-2265
1011.862	-1225
1011.934	-945
1012.007	-2131
1012.080	-1421
1012.153	-2242
1012.225	-1041
1012.298	-1880
1012.371	-1258
1012.443	-1692
1012.516	-1358
1012.588	-1288
1012.661	-2072
1012.733	-1914
1012.806	-1351
1012.879	-2243
1012.951	-845
1013.023	-1254
1013.096	-1173
1013.168	-2317
1013.241	-971
1013.313	-1581
1013.385	-1036
1013.458	-1699
1013.530	-2091
1013.602	-1650
1013.674	-1413
1013.746	-2007
1013.819	-1965
1013.891	-1291
1013.963	-2071
1014.035	-1973
1014.107	-1145
1014.179	-1234
1014.251	-1509
1014.323	-1400
1014.395	-1422
1014.467	-969
1014.539	-1494
1014.611	-1605
1014.683	-1525
1014.754	-1794
1014.826	-1144
1014.898	-960
1014.970	-2364
1015.042	-1428
1015.113	-1477
1015.185	-1142
1015.257	-1293
1015.328	-822
1015.400	-1902
1015.471	-1564
1015.543	-1949
1015.615	-1804
1015.686	-1645
1015.757	-1433
1015.829	-1033
1015.901	-1431
1015.972	-2089
1016.043	-1916
1016.115	-1741
1016.186	-1503
1016.257	-1883
1016.328	-1968
1016.400	-1586
1016.471	-2357
1016.542	-2359
1016.613	-1044
1016.685	-1234
1016.756	-1738
1016.827	-1774
1016.898	-1927
1016.969	-1139
1017.040	-1495
1017.111	-1094
1017.182	-1880
1017.253	-2002
1017.324	-2244
1017.395	-1658
1017.466	-1840
1017.537	-1979
1017.608	-1549
1017.678	-2299
1017.749	-1762
1017.820	-1508
1017.891	-1725
1017.961	-2034
1018.032	-1554
1018.103	-1692
1018.173	-912
1018.244	-2290
1018.315	-1783
1018.385	-1617
1018.456	-1291
1018.526	-1834
1018.597	-1785
1018.667	-1292
1018.738	-1665
1018.808	-1366
1018.878	-2560
1018.949	-1747
1019.019	-2250
1019.089	-2170
1019.160	-1349
1019.230	-2030
1019.300	-1165
1019.371	-1100
1019.441	-1238
1019.511	-1343
1019.581	-1596
1019.651	-958
1019.721	-1260
1019.791	-1479
1019.861	-1379
1019.931	-1664
1020.001	-1787
1020.071	-2010
1020.141	-1558
1020.211	-2140
1020.281	-2293
1020.351	-2044
1020.421	-2336
1020.491	-1057
1020.560	-1790
1020.630	-1751
1020.700	-906
1020.770	-2613
1020.839	-1641
1020.909	-1820
1020.979	-1972
1021.048	-1857
1021.118	-820
1021.187	-2897
1021.257	-1933
1021.326	-904
1021.396	-1849
1021.465	-1001
1021.535	-1306
1021.604	-1874
1021.674	-1752
1021.743	-1476
1021.812	-1447
1021.882	-2637
1021.951	-1062
1022.020	-1955
1022.089	-1186
1022.159	-1958
1022.228	-1707
1022.297	-2060
1022.366	-1622
1022.435	-1887
1022.504	-2151
1022.573	-1361
1022.642	-2170
1022.711	-1944
1022.781	-1768
1022.849	-1813
1022.918	-2156
1022.987	-1899
1023.056	-1394
1023.125	-2136
1023.194	-1557
1023.263	-2171
1023.331	-1803
1023.400	-1290
1023.469	-1964
1023.538	-1029
1023.606	-1433
1023.675	-2641
1023.744	-1984
1023.812	-1571
1023.881	-1938
1023.949	-1857
1024.018	-1361
1024.086	-1684
1024.155	-1247
1024.223	-1294
1024.292	-1207
1024.360	-1356
1024.429	-2320
1024.497	-2486
1024.565	-2097
1024.634	-1641
1024.702	-1842
1024.770	-1684
1024.838	-2143
1024.907	-1602
1024.975	-2655
1025.043	-1485
1025.111	-2529
1025.179	-1652
1025.247	-2101
1025.315	-2089
1025.383	-1727
1025.451	-1204
1025.519	-1932
1025.587	-1505
1025.655	-1824
1025.723	-1958
1025.791	-1475
1025.859	-1062
1025.927	-2082
1025.995	-1296
1026.062	-1623
1026.130	-1600
1026.198	-1560
1026.266	-1974
1026.333	-1592
1026.401	-1601
1026.469	-1805
1026.536	-2025
1026.604	-1539
1026.671	-2658
1026.739	-1886
1026.806	-1561
1026.874	-1921
1026.941	-1626
1027.009	-1959
1027.076	-1843
1027.144	-964
1027.211	-1527
1027.278	-1734
1027.345	-1923
1027.413	-1472
1027.480	-1798
1027.547	-1961
1027.614	-2299
1027.682	-2236
1027.749	-1420
1027.816	-1330
1027.883	-1202
1027.950	-1467
1028.017	-2880
1028.084	-1872
1028.151	-2208
1028.218	-2839
1028.285	-1499
1028.352	-2179
1028.419	-2133
1028.486	-2010
1028.553	-1983
1028.619	-1942
1028.686	-1459
1028.753	-2391
1028.820	-2134
1028.886	-1579
1028.953	-2001
1029.020	-1540
1029.086	-2054
1029.153	-2456
1029.220	-1448
1029.286	-829
1029.353	-1685
1029.419	-2737
1029.486	-1765
1029.552	-1732
1029.619	-2080
1029.685	-1817
1029.751	-2134
1029.818	-577
1029.884	-2245
1029.951	-1161
1030.017	-1863
1030.083	-1785
1030.149	-2380
1030.216	-2090
1030.282	-1103
1030.348	-1746
1030.414	-1593
1030.480	-1330
1030.546	-1620
1030.612	-2231
1030.678	-1877
1030.744	-1013
1030.810	-1560
1030.876	-1267
1030.942	-2263
1031.008	-2693
1031.074	-2412
1031.140	-1436
1031.206	-1325
1031.272	-2543
1031.337	-2277
1031.403	-2079
1031.469	-1649
1031.534	-1976
1031.600	-1826
1031.666	-2157
1031.731	-2147
1031.797	-1618
1031.863	-2062
1031.928	-1675
1031.994	-2131
1032.059	-2420
1032.125	-1346
1032.190	-2009
1032.256	-1852
1032.321	-2298
1032.386	-2001
1032.452	-735
1032.517	-2372
1032.582	-1949
1032.647	-1399
1032.713	-1363
1032.778	-1864
1032.843	-2000
1032.908	-1833
1032.974	-1791
1033.039	-1856
1033.104	-2286
1033.169	-2326
1033.234	-2308
1033.299	-1570
1033.364	-1824
1033.429	-1206
1033.494	-1202
1033.559	-1986
1033.624	-2160
1033.688	-1743
1033.753	-2098
1033.818	-2673
1033.883	-2375
1033.948	-1381
1034.013	-1906
1034.077	-955
1034.142	-2315
1034.207	-1832
1034.271	-1469
1034.336	-739
1034.400	-1781
1034.465	-1181
1034.530	-921
1034.594	-1338
1034.658	-1910
1034.723	-1645
1034.787	-1686
1034.852	-2309
1034.916	-1888
1034.981	-2357
1035.045	-2124
1035.109	-2096
1035.173	-1762
1035.238	-2302
1035.302	-2258
1035.366	-2004
1035.430	-1781
1035.495	-2077
1035.559	-2150
1035.623	-1557
1035.687	-2652
1035.751	-813
1035.815	-2261
1035.879	-2577
1035.943	-1554
1036.007	-2284
1036.071	-1915
1036.135	-2101
1036.198	-1866
1036.262	-1938
1036.326	-2053
1036.390	-1782
1036.454	-2299
1036.517	-2279
1036.581	-1577
1036.645	-1531
1036.709	-1872
1036.772	-2571
1036.836	-2119
1036.900	-1820
1036.963	-2506
1037.026	-2247
1037.090	-2373
1037.154	-2070
1037.217	-1842
1037.280	-2266
1037.344	-2177
1037.407	-2324
1037.471	-2444
1037.534	-2048
1037.597	-2460
1037.661	-1904
1037.724	-2506
1037.787	-2767
1037.850	-1987
1037.913	-1807
1037.977	-2647
1038.040	-2519
1038.103	-2263
1038.166	-2361
1038.229	-2840
1038.292	-2141
1038.355	-2037
1038.418	-2111
1038.481	-537
1038.544	-1685
1038.607	-1453
1038.670	-1622
1038.732	-2017
1038.795	-1891
1038.858	-1812
1038.921	-2130
1038.984	-2102
1039.046	-2155
1039.109	-2508
1039.172	-2380
1039.234	-2133
1039.297	-2146
1039.360	-1936
1039.422	-2161
1039.485	-1840
1039.547	-2681
1039.610	-2435
1039.672	-1741
1039.734	-1788
1039.797	-2200
1039.859	-1852
1039.922	-1635
1039.984	-1794
1040.046	-2020
1040.109	-2562
1040.171	-2091
1040.233	-1868
1040.295	-2120
1040.358	-2201
1040.420	-1642
1040.482	-2152
1040.544	-1269
1040.606	-1928
1040.668	-1819
1040.730	-1652
1040.792	-2781
1040.854	-1796
1040.916	-2042
1040.978	-2182
1041.040	-2586
1041.102	-1917
1041.164	-1974
1041.225	-2245
1041.287	-1358
1041.349	-2000
1041.411	-2351
1041.472	-2829
1041.534	-2834
1041.596	-2658
1041.657	-2285
1041.719	-2390
1041.781	-1763
1041.842	-2536
1041.904	-2369
1041.965	-2046
1042.027	-1908
1042.088	-1607
1042.150	-2638
1042.211	-2319
1042.272	-1905
1042.334	-2309
1042.395	-1871
1042.456	-2493
1042.518	-2015
1042.579	-1763
1042.640	-2086
1042.701	-1474
1042.763	-2249
1042.824	-1921
1042.885	-1991
1042.946	-2365
1043.007	-2463
1043.068	-2176
1043.129	-2074
1043.190	-1915
1043.251	-2194
1043.312	-1675
1043.373	-1979
1043.434	-1948
1043.495	-2549
1043.556	-1817
1043.616	-2119
1043.677	-2213
1043.738	-2811
1043.799	-2392
1043.859	-2059
1043.920	-2310
1043.981	-1696
1044.041	-1845
1044.102	-1885
1044.162	-1975
1044.223	-2654
1044.284	-2770
1044.344	-2055
1044.405	-2093
1044.465	-2254
1044.525	-1932
1044.586	-2103
1044.646	-1895
1044.707	-1417
1044.767	-1552
1044.827	-1145
1044.887	-2344
1044.948	-1994
1045.008	-1996
1045.068	-2509
1045.128	-1805
1045.188	-2105
1045.249	-1711
1045.309	-2171
1045.369	-2030
1045.429	-1358
1045.489	-2489
1045.549	-1802
1045.609	-1575
1045.669	-2313
1045.729	-2207
1045.789	-1519
1045.848	-1831
1045.908	-1923
1045.968	-2185
1046.028	-2068
1046.088	-1591
1046.147	-2107
1046.207	-2291
1046.267	-1093
1046.326	-1997
1046.386	-1824
1046.446	-1037
1046.505	-2338
1046.565	-1686
1046.624	-1509
1046.684	-861
1046.743	-966
1046.803	-1126
1046.862	-1627
1046.922	0
