'Start Wavelength	183.907
'End Wavelength	1046.922
'Gate Delay	5.000
'Gate Width (ms)	1.050
'Laser Output Level	0.000
'X Position	0.000
'Y Position	0.000
'Z Position	0.000
'Grid Point Number	1.000
'Shot Number	100.000
183.907	844.000
183.977	686.000
184.047	302
184.116	943
184.186	-24
184.256	124
184.325	493
184.395	-695
184.465	554
184.534	792
184.604	-665
184.674	1338
184.743	149
184.813	1000
184.883	627
184.952	163
185.022	1272
185.092	233
185.161	647
185.231	1351
185.301	1059
185.370	1489
185.440	145
185.509	607
185.579	453
185.649	941
185.718	870
185.788	762
185.857	112
185.927	-87
185.996	536
186.066	353
186.136	234
186.205	730
186.275	493
186.344	1825
186.414	797
186.483	454
186.553	2294
186.622	2400
186.692	618
186.761	615
186.831	608
186.900	426
186.970	1022
187.039	1464
187.109	2026
187.178	1986
187.248	401
187.317	1519
187.387	137
187.456	1273
187.526	1788
187.595	1271
187.664	509
187.734	1194
187.803	1488
187.873	1079
187.942	1707
188.012	1473
188.081	363
188.150	1847
188.220	2138
188.289	2375
188.358	1226
188.428	1608
188.497	-69
188.567	1608
188.636	1508
188.705	982
188.775	-89
188.844	1359
188.913	1761
188.983	1218
189.052	1249
189.121	1134
189.191	756
189.260	2134
189.329	1741
189.399	1406
189.468	959
189.537	637
189.606	1474
189.676	1562
189.745	1299
189.814	2470
189.883	1189
189.953	1778
190.022	1750
190.091	5464
190.161	6212
190.230	2799
190.299	911
190.368	1189
190.437	1637
190.507	1077
190.576	1024
190.645	1527
190.714	430
190.783	1143
190.853	1787
190.922	1730
190.991	2157
191.060	1438
191.129	1052
191.198	1859
191.268	1300
191.337	1804
191.406	2089
191.475	1669
191.544	450
191.613	2053
191.682	1032
191.752	933
191.821	633
191.890	737
191.959	1994
192.028	1450
192.097	729
192.166	2176
192.235	643
192.304	1675
192.373	1530
192.442	732
192.511	554
192.580	669
192.650	1208
192.719	1392
192.788	880
192.857	2030
192.926	1842
192.995	1383
193.064	2450
193.133	3224
193.202	4273
193.271	3993
193.340	2776
193.409	3951
193.478	3499
193.547	4023
193.615	5072
193.684	6474
193.753	3405
193.822	3230
193.891	1580
193.960	2091
194.029	2279
194.098	1645
194.167	620
194.236	1548
194.305	1055
194.374	1676
194.443	1564
194.512	2139
194.580	1274
194.649	3172
194.718	3660
194.787	2097
194.856	1648
194.925	1788
194.994	2122
195.062	2873
195.131	2781
195.200	3977
195.269	4008
195.338	3014
195.407	1724
195.475	2302
195.544	2665
195.613	2749
195.682	2441
195.751	3795
195.819	3306
195.888	2592
195.957	3158
196.026	3838
196.094	3994
196.163	3998
196.232	3615
196.301	3995
196.369	2534
196.438	2334
196.507	2827
196.576	1973
196.644	1757
196.713	1843
196.782	1213
196.850	1941
196.919	1877
196.988	2180
197.056	1633
197.125	3309
197.194	2239
197.262	1594
197.331	2309
197.400	1649
197.468	1999
197.537	1948
197.606	2724
197.674	3642
197.743	6749
197.812	3149
197.880	6326
197.949	5003
198.017	6368
198.086	4269
198.155	2777
198.223	3604
198.292	7866
198.360	3820
198.429	2574
198.497	2529
198.566	5028
198.635	7800
198.703	3123
198.772	3755
198.840	8844
198.909	8432
198.977	2751
199.046	2359
199.114	2477
199.183	2445
199.251	2533
199.320	1829
199.388	3124
199.457	2454
199.525	1891
199.594	2963
199.662	2354
199.731	2764
199.799	2857
199.867	3569
199.936	2972
200.004	1953
200.073	2404
200.141	2632
200.210	2030
200.278	2309
200.346	2514
200.415	4099
200.483	4248
200.552	3555
200.620	3151
200.688	2962
200.757	2804
200.825	2458
200.893	2941
200.962	3541
201.030	2108
201.098	2279
201.167	2276
201.235	3399
201.303	1952
201.372	3487
201.440	2658
201.508	4604
201.577	3401
201.645	3462
201.713	2537
201.781	2943
201.850	4560
201.918	3519
201.986	2267
202.055	3275
202.123	3362
202.191	3168
202.259	2191
202.327	2495
202.396	2435
202.464	3755
202.532	4492
202.600	12794
202.669	7701
202.737	3563
202.805	3171
202.873	2461
202.941	2705
203.009	1974
203.078	2162
203.146	3158
203.214	2253
203.282	2946
203.350	2724
203.418	2696
203.487	2680
203.555	2673
203.623	2519
203.691	2481
203.759	2334
203.827	2311
203.895	2893
203.963	3562
204.031	2821
204.099	3145
204.168	2832
204.236	3593
204.304	3195
204.372	3472
204.440	3540
204.508	2265
204.576	2213
204.644	1993
204.712	2371
204.780	2564
204.848	2754
204.916	2865
204.984	2666
205.052	3165
205.120	3211
205.188	3317
205.256	1777
205.324	2922
205.392	2756
205.460	3422
205.528	2502
205.596	3190
205.664	2732
205.732	3016
205.799	9596
205.867	15534
205.935	4909
206.003	4228
206.071	3289
206.139	3917
206.207	3832
206.275	3271
206.343	3503
206.411	3054
206.478	2994
206.546	3385
206.614	2732
206.682	3035
206.750	3422
206.818	4795
206.885	4261
206.953	2521
207.021	3184
207.089	3502
207.157	3010
207.225	3340
207.292	2700
207.360	4470
207.428	3341
207.496	3046
207.563	2899
207.631	2674
207.699	3434
207.767	2976
207.834	3374
207.902	4196
207.970	3857
208.038	3048
208.105	3466
208.173	4087
208.241	6033
208.309	5453
208.376	5228
208.444	9193
208.512	5357
208.579	3423
208.647	5081
208.715	5270
208.782	3418
208.850	4252
208.918	4341
208.985	4120
209.053	4297
209.120	4341
209.188	3812
209.256	4281
209.323	4076
209.391	6128
209.459	4913
209.526	3438
209.594	3558
209.661	3504
209.729	4299
209.796	3831
209.864	4215
209.932	3906
209.999	4918
210.067	5861
210.134	5626
210.202	4699
210.269	7065
210.337	7537
210.404	4119
210.472	4004
210.539	4239
210.607	4908
210.674	6476
210.742	4432
210.809	4327
210.877	5018
210.944	7102
211.012	5736
211.079	5808
211.146	5309
211.214	4829
211.281	6899
211.349	6737
211.416	5067
211.484	5127
211.551	5106
211.618	3908
211.686	5161
211.753	3704
211.821	4663
211.888	5040
211.955	4749
212.023	5128
212.090	5213
212.157	4908
212.225	5633
212.292	9855
212.359	17536
212.427	36254
212.494	19463
212.561	7804
212.629	6479
212.696	5797
212.763	5847
212.831	4804
212.898	5996
212.965	4440
213.032	5227
213.100	6035
213.167	6232
213.234	7126
213.301	5539
213.369	5077
213.436	4843
213.503	5509
213.570	6681
213.638	6365
213.705	4065
213.772	4060
213.839	7476
213.906	7413
213.973	6840
214.041	5210
214.108	5783
214.175	4906
214.242	5513
214.309	4651
214.376	5763
214.444	5241
214.511	6535
214.578	5535
214.645	6924
214.712	6473
214.779	5870
214.846	5583
214.913	7135
214.980	7604
215.048	7410
215.115	8792
215.182	8104
215.249	6405
215.316	6825
215.383	5370
215.450	5950
215.517	5328
215.584	5348
215.651	5448
215.718	5347
215.785	6002
215.852	6959
215.919	7512
215.986	7176
216.053	5070
216.120	4921
216.187	6374
216.254	7087
216.321	6315
216.388	6982
216.455	8356
216.522	8505
216.589	9741
216.656	14482
216.722	14197
216.789	8939
216.856	9114
216.923	7663
216.990	7065
217.057	8002
217.124	9300
217.191	9725
217.258	10040
217.324	12533
217.391	11233
217.458	9308
217.525	7483
217.592	7537
217.659	6408
217.725	7421
217.792	9968
217.859	10786
217.926	7171
217.993	6148
218.059	5057
218.126	5126
218.193	5548
218.260	4776
218.327	3712
218.393	5046
218.460	4670
218.527	4428
218.594	6141
218.660	11264
218.727	11546
218.794	5471
218.860	4674
218.927	4316
218.994	3850
219.061	5366
219.127	5910
219.194	10484
219.261	5547
219.327	4318
219.394	4582
219.461	3518
219.527	3923
219.594	7485
219.661	5900
219.727	3553
219.794	5364
219.860	3690
219.927	7200
219.994	11694
220.060	16453
220.127	11946
220.193	7732
220.260	7868
220.326	9772
220.393	15230
220.460	17141
220.526	12766
220.593	8712
220.659	9764
220.726	9061
220.792	20278
220.859	19744
220.925	23105
220.992	28405
221.058	28761
221.125	27846
221.191	21848
221.258	9745
221.324	7122
221.391	7737
221.457	8034
221.524	6315
221.590	8280
221.657	24538
221.723	18957
221.789	16778
221.856	14914
221.922	9693
221.989	7516
222.055	5212
222.121	5027
222.188	8063
222.254	6900
222.321	4622
222.387	5244
222.453	3947
222.520	5311
222.586	4825
222.652	5497
222.719	4688
222.785	7512
222.851	5079
222.918	5379
222.984	7275
223.050	7965
223.116	4466
223.183	5194
223.249	2842
223.315	3084
223.382	4350
223.448	3194
223.514	3042
223.580	3842
223.647	4285
223.713	3518
223.779	3425
223.845	4133
223.911	4489
223.978	4213
224.044	4313
224.110	3516
224.176	4025
224.242	3265
224.309	3796
224.375	3797
224.441	3665
224.507	3664
224.573	3991
224.639	3897
224.705	2851
224.772	4062
224.838	3420
224.904	5252
224.970	4294
225.036	5272
225.102	4669
225.168	5244
225.234	3905
225.300	4652
225.366	4049
225.432	3040
225.499	4024
225.565	5033
225.631	5718
225.697	5062
225.763	5940
225.829	6840
225.895	7842
225.961	12612
226.027	10428
226.093	8902
226.159	10459
226.225	15375
226.291	32389
226.357	47515
226.423	28396
226.489	17810
226.554	11935
226.620	10680
226.686	13865
226.752	22089
226.818	31383
226.884	62393
226.950	54262
227.016	24354
227.082	15146
227.148	11660
227.214	12839
227.279	11692
227.345	8642
227.411	8616
227.477	9840
227.543	19442
227.609	20823
227.674	12723
227.740	9033
227.806	8160
227.872	6119
227.938	7445
228.003	11678
228.069	6940
228.135	5093
228.201	5934
228.267	4617
228.332	7692
228.398	10095
228.464	7533
228.530	4233
228.595	5038
228.661	3983
228.727	10216
228.792	8944
228.858	5275
228.924	5444
228.990	8934
229.055	7311
229.121	9325
229.187	5583
229.252	6927
229.318	5196
229.384	7330
229.449	9612
229.515	3859
229.581	3202
229.646	5690
229.712	6699
229.777	15393
229.843	15937
229.909	12118
229.974	11213
230.040	10669
230.105	7624
230.171	9253
230.236	10974
230.302	17496
230.368	14960
230.433	7824
230.499	6906
230.564	8795
230.630	6345
230.695	6110
230.761	5957
230.826	4837
230.892	10679
230.957	7209
231.023	5116
231.088	5580
231.154	5586
231.219	6293
231.284	9145
231.350	10227
231.415	5136
231.481	5538
231.546	4616
231.612	4682
231.677	4295
231.742	3696
231.808	5783
231.873	3778
231.939	3414
232.004	11391
232.069	10745
232.135	6228
232.200	4426
232.265	4494
232.331	4029
232.396	3734
232.461	3733
232.527	4005
232.592	4191
232.657	5407
232.723	11001
232.788	8211
232.853	4893
232.918	4687
232.984	3403
233.049	4910
233.114	9237
233.179	9512
233.245	13033
233.310	16395
233.375	5454
233.440	5584
233.506	5379
233.571	4876
233.636	4569
233.701	5007
233.766	10603
233.832	14774
233.897	7357
233.962	7654
234.027	9561
234.092	8428
234.157	6660
234.222	7966
234.288	11030
234.353	30212
234.418	29092
234.483	16951
234.548	12650
234.613	9341
234.678	9287
234.743	9846
234.808	32040
234.873	21835
234.938	10106
235.004	8096
235.069	6965
235.134	6540
235.199	7187
235.264	5945
235.329	5356
235.394	7609
235.459	8963
235.524	8937
235.589	7240
235.654	5523
235.719	4798
235.784	6808
235.849	7334
235.913	17853
235.978	19898
236.043	22825
236.108	9856
236.173	9138
236.238	10649
236.303	7354
236.368	7700
236.433	11172
236.498	22184
236.563	14738
236.627	24043
236.692	80220
236.757	68246
236.822	30768
236.887	22896
236.952	17401
237.017	13457
237.081	15988
237.146	19085
237.211	35338
237.276	76893
237.341	127237
237.405	68038
237.470	29549
237.535	21533
237.600	13632
237.664	10004
237.729	8950
237.794	12356
237.859	22571
237.923	19388
237.988	12236
238.053	15947
238.118	16516
238.182	39454
238.247	35149
238.312	20344
238.376	14515
238.441	11943
238.506	11058
238.570	6182
238.635	7343
238.700	6051
238.764	6676
238.829	17752
238.893	23664
238.958	11688
239.023	12814
239.087	7747
239.152	8873
239.216	6342
239.281	7359
239.346	6186
239.410	6972
239.475	8252
239.539	36802
239.604	30044
239.668	10598
239.733	8270
239.797	12801
239.862	30984
239.926	38394
239.991	15505
240.055	8308
240.120	7509
240.184	7986
240.249	7585
240.313	7257
240.378	7224
240.442	24652
240.507	36513
240.571	13139
240.635	18898
240.700	24156
240.764	11001
240.829	7758
240.893	4247
240.957	6498
241.022	21114
241.086	37624
241.151	19812
241.215	8425
241.279	11398
241.344	22148
241.408	11892
241.472	8130
241.537	9399
241.601	9091
241.665	7499
241.730	7846
241.794	9258
241.858	7805
241.922	8254
241.987	9061
242.051	7276
242.115	7065
242.179	7770
242.244	7042
242.308	7883
242.372	8471
242.436	10970
242.501	8669
242.565	6394
242.629	6931
242.693	8210
242.757	6678
242.822	7185
242.886	8098
242.950	9081
243.014	9005
243.078	10939
243.142	11801
243.206	8913
243.271	10888
243.335	9270
243.399	15115
243.463	52635
243.527	125581
243.591	46459
243.655	20304
243.719	11456
243.783	13139
243.847	20602
243.911	26100
243.975	35413
244.040	26361
244.104	12577
244.168	9810
244.232	18272
244.296	25450
244.360	24911
244.424	15708
244.488	11287
244.552	10380
244.615	7288
244.679	8217
244.743	11779
244.807	13344
244.871	9005
244.935	8737
244.999	6852
245.063	9023
245.127	10065
245.191	17880
245.255	18386
245.319	15476
245.383	13952
245.446	10783
245.510	8351
245.574	9815
245.638	10897
245.702	10451
245.766	26397
245.829	16496
245.893	11765
245.957	9619
246.021	11706
246.085	11370
246.149	14751
246.212	33422
246.276	49656
246.340	24638
246.404	16118
246.467	16256
246.531	26904
246.595	16562
246.659	14571
246.722	14879
246.786	18692
246.850	19285
246.913	24855
246.977	12121
247.041	11316
247.104	14914
247.168	12786
247.232	31983
247.295	66080
247.359	34076
247.423	16212
247.486	30113
247.550	18990
247.614	15572
247.677	19802
247.741	13939
247.804	10842
247.868	13346
247.932	29470
247.995	61370
248.059	25515
248.122	13089
248.186	17316
248.249	28226
248.313	97082
248.376	104231
248.440	67485
248.503	27115
248.567	21429
248.630	31479
248.694	44114
248.757	51908
248.821	105847
248.884	65195
248.948	57844
249.011	80604
249.075	121113
249.138	105577
249.202	43854
249.265	28136
249.328	32115
249.392	25260
249.455	19381
249.519	15977
249.582	20484
249.645	35735
249.709	26657
249.772	18151
249.835	16513
249.899	19023
249.962	15638
250.025	14524
250.089	39045
250.152	55513
250.215	29236
250.279	21347
250.342	20344
250.405	19997
250.468	16808
250.532	24299
250.595	35776
250.658	113391
250.721	179780
250.785	76092
250.848	39547
250.911	23984
250.974	20638
251.038	29808
251.101	61458
251.164	35109
251.227	35444
251.290	30802
251.354	43231
251.417	153911
251.480	157468
251.543	114659
251.606	257484
251.669	213144
251.732	94397
251.795	88503
251.859	86441
251.922	176675
251.985	112477
252.048	45863
252.111	33523
252.174	30812
252.237	57662
252.300	122712
252.363	132814
252.426	222925
252.489	111364
252.552	59617
252.615	39796
252.678	39794
252.741	90586
252.804	117901
252.867	229892
252.930	157542
252.993	88681
253.056	51818
253.119	38694
253.182	30239
253.245	51881
253.308	40796
253.371	41520
253.434	38064
253.497	33888
253.559	61453
253.622	46051
253.685	59685
253.748	63340
253.811	30499
253.874	35552
253.937	35185
254.000	26133
254.062	43838
254.125	64801
254.188	61765
254.251	55036
254.314	26414
254.376	50148
254.439	55990
254.502	47014
254.565	46410
254.628	78151
254.690	52808
254.753	29411
254.816	24115
254.878	26234
254.941	46619
255.004	47615
255.067	24637
255.129	25027
255.192	14350
255.255	14209
255.317	17355
255.380	11942
255.443	10032
255.505	9700
255.568	11478
255.631	11320
255.693	12863
255.756	10243
255.819	11192
255.881	9274
255.944	9046
256.006	8833
256.069	11252
256.132	9489
256.194	13986
256.257	37764
256.319	28556
256.382	27212
256.444	15403
256.507	11788
256.569	10433
256.632	11546
256.694	18934
256.757	42708
256.819	126441
256.882	57905
256.944	24394
257.007	19110
257.069	23705
257.132	15181
257.194	12796
257.257	12881
257.319	13929
257.381	13385
257.444	32134
257.506	138757
257.569	166705
257.631	99854
257.693	52649
257.756	24608
257.818	22787
257.880	14128
257.943	13323
258.005	12323
258.067	11706
258.130	11215
258.192	15823
258.254	35451
258.317	21136
258.379	14305
258.441	37724
258.503	34021
258.566	42652
258.628	53488
258.690	16658
258.753	15543
258.815	31231
258.877	19118
258.939	12432
259.001	11178
259.064	10648
259.126	15181
259.188	21091
259.250	14845
259.312	19247
259.375	51986
259.437	33070
259.499	13888
259.561	12084
259.623	14003
259.685	12607
259.747	12372
259.809	37389
259.872	70313
259.934	104889
259.996	97910
260.058	29805
260.120	13967
260.182	11829
260.244	10076
260.306	9967
260.368	11149
260.430	10284
260.492	23371
260.554	50873
260.616	38757
260.678	60174
260.740	81005
260.802	24065
260.864	17603
260.926	15526
260.988	14045
261.050	14107
261.112	31900
261.174	80630
261.236	60860
261.298	22581
261.359	35537
261.421	50614
261.483	17182
261.545	14019
261.607	9473
261.669	10322
261.731	22658
261.793	58728
261.854	30126
261.916	17680
261.978	15375
262.040	17323
262.102	12290
262.164	23522
262.225	18827
262.287	11981
262.349	34134
262.411	28118
262.472	12920
262.534	24119
262.596	52101
262.658	19485
262.719	10949
262.781	16030
262.843	50251
262.904	23168
262.966	15871
263.028	18394
263.090	85317
263.151	212591
263.213	75812
263.275	42092
263.336	19491
263.398	14037
263.459	9916
263.521	11275
263.583	31624
263.644	23595
263.706	11408
263.767	9127
263.829	7399
263.891	7709
263.952	6719
264.014	7693
264.075	14148
264.137	36793
264.198	20210
264.260	9197
264.321	7887
264.383	24741
264.444	57849
264.506	19362
264.567	11816
264.629	20831
264.690	45892
264.752	20351
264.813	12928
264.875	10464
264.936	10301
264.998	9151
265.059	7825
265.120	8867
265.182	13668
265.243	63479
265.305	66000
265.366	18806
265.427	12087
265.489	10150
265.550	7073
265.611	13041
265.673	11894
265.734	10081
265.795	8682
265.857	8199
265.918	8237
265.979	17608
266.040	103736
266.102	90427
266.163	29279
266.224	25434
266.286	14390
266.347	10149
266.408	10617
266.469	12278
266.530	9393
266.592	8990
266.653	21653
266.714	37950
266.775	14082
266.836	9812
266.898	8773
266.959	16648
267.020	11690
267.081	9004
267.142	8687
267.203	9171
267.264	7376
267.326	11038
267.387	8621
267.448	7822
267.509	8467
267.570	8904
267.631	7627
267.692	6874
267.753	9311
267.814	7568
267.875	19352
267.936	43815
267.997	22521
268.058	18591
268.119	11864
268.180	11799
268.241	8813
268.302	8800
268.363	8358
268.424	9945
268.485	10951
268.546	7605
268.607	5938
268.668	6479
268.729	6508
268.790	9232
268.851	10257
268.912	28577
268.972	34533
269.033	18829
269.094	10125
269.155	8169
269.216	7070
269.277	10110
269.338	7993
269.398	8021
269.459	11153
269.520	15306
269.581	19718
269.642	24582
269.702	17813
269.763	12168
269.824	9049
269.885	14309
269.945	22927
270.006	11218
270.067	6821
270.128	8036
270.188	7942
270.249	9309
270.310	6543
270.370	7556
270.431	9016
270.492	6642
270.553	8141
270.613	22183
270.674	44598
270.734	20425
270.795	11231
270.856	17547
270.916	14609
270.977	9591
271.038	12323
271.098	13374
271.159	22165
271.219	21644
271.280	10227
271.340	8043
271.401	11664
271.462	31533
271.522	17464
271.583	12150
271.643	12473
271.704	11302
271.764	12583
271.825	29203
271.885	95213
271.946	128581
272.006	44122
272.066	55624
272.127	95480
272.187	33037
272.248	18114
272.308	18608
272.369	65288
272.429	37203
272.489	31538
272.550	33251
272.610	34119
272.671	26504
272.731	23602
272.791	41524
272.852	24007
272.912	20654
272.972	12580
273.033	11686
273.093	21707
273.153	21998
273.214	14331
273.274	15280
273.334	50009
273.394	102627
273.455	42855
273.515	41033
273.575	91712
273.635	38622
273.696	49039
273.756	93567
273.816	40148
273.876	23721
273.936	47958
273.997	85920
274.057	25471
274.117	20217
274.177	24737
274.237	118250
274.297	100802
274.358	73869
274.418	77849
274.478	61492
274.538	24797
274.598	20623
274.658	69801
274.718	91786
274.778	37027
274.838	19098
274.898	39977
274.958	123959
275.018	99928
275.078	63353
275.138	29034
275.198	16230
275.258	13089
275.318	16750
275.378	34122
275.438	35855
275.498	21701
275.558	52969
275.618	110447
275.678	69974
275.738	45881
275.798	35352
275.858	18828
275.918	11314
275.978	15599
276.038	14757
276.098	10382
276.157	25771
276.217	75585
276.277	35768
276.337	26646
276.397	14606
276.457	19015
276.517	13568
276.576	9964
276.636	10522
276.696	19790
276.756	46122
276.815	34965
276.875	17185
276.935	20460
276.995	18003
277.055	11622
277.114	11351
277.174	17758
277.234	59045
277.293	27589
277.353	15983
277.413	11606
277.472	13712
277.532	14350
277.592	15178
277.651	53851
277.711	98919
277.771	33703
277.830	119858
277.890	91330
277.950	63081
278.009	171442
278.069	64512
278.128	68255
278.188	100583
278.248	44874
278.307	114088
278.367	66185
278.426	23849
278.486	15257
278.545	12889
278.605	12034
278.664	11717
278.724	13463
278.783	35427
278.843	93625
278.902	30974
278.962	20381
279.021	21647
279.081	31011
279.140	30027
279.199	24957
279.259	23482
279.318	24554
279.378	30104
279.437	50162
279.496	177103
279.556	447554
279.615	368181
279.675	120832
279.734	66905
279.793	94133
279.853	138088
279.912	52955
279.971	31690
280.031	28702
280.090	51257
280.149	89042
280.208	74587
280.268	310424
280.327	318006
280.386	95113
280.445	68948
280.505	59042
280.564	28167
280.623	22359
280.682	34781
280.742	51556
280.801	19173
280.860	16492
280.919	14243
280.978	13673
281.037	13725
281.097	11444
281.156	12794
281.215	11794
281.274	14555
281.333	63454
281.392	49352
281.451	15596
281.510	11921
281.569	11515
281.628	10412
281.688	9890
281.747	12956
281.806	13564
281.865	10382
281.924	10593
281.983	10977
282.042	7123
282.101	8534
282.160	8409
282.219	8317
282.278	10166
282.337	39959
282.396	27445
282.454	13101
282.513	14897
282.572	59301
282.631	33854
282.690	13880
282.749	10517
282.808	14357
282.867	13197
282.926	14924
282.985	9347
283.043	8445
283.102	9908
283.161	11900
283.220	28105
283.279	64897
283.338	20603
283.396	14175
283.455	13350
283.514	14572
283.573	23638
283.631	18326
283.690	12056
283.749	11701
283.808	26878
283.866	31218
283.925	13175
283.984	12285
284.043	17774
284.101	19331
284.160	14357
284.219	18953
284.277	16244
284.336	25124
284.395	80906
284.453	67107
284.512	26240
284.570	36551
284.629	31507
284.688	29742
284.746	31661
284.805	37555
284.863	48293
284.922	61604
284.981	71502
285.039	98105
285.098	167198
285.156	358164
285.215	450472
285.273	471645
285.332	379822
285.390	216550
285.449	132008
285.507	89615
285.566	64623
285.624	50127
285.683	38713
285.741	31741
285.799	28288
285.858	26093
285.916	24538
285.975	20430
286.033	17372
286.091	15796
286.150	14105
286.208	14659
286.267	16925
286.325	17466
286.383	26122
286.442	22002
286.500	13597
286.558	11747
286.616	10264
286.675	16732
286.733	15339
286.791	14103
286.850	15375
286.908	20523
286.966	33332
287.024	15692
287.083	11179
287.141	9492
287.199	10955
287.257	18536
287.315	13187
287.374	14632
287.432	34577
287.490	22861
287.548	14707
287.606	12471
287.664	11425
287.723	16813
287.781	23059
287.839	13717
287.897	16138
287.955	18911
288.013	24912
288.071	53007
288.129	220017
288.187	540650
288.245	266975
288.303	94153
288.361	52632
288.419	37964
288.477	26123
288.535	18179
288.593	14387
288.651	13187
288.709	11303
288.767	11522
288.825	12081
288.883	9832
288.941	10090
288.999	10242
289.057	7854
289.115	9210
289.173	10663
289.231	10218
289.289	11571
289.346	10381
289.404	12502
289.462	21820
289.520	20984
289.578	11956
289.636	6952
289.694	6307
289.751	6950
289.809	7337
289.867	8411
289.925	11008
289.983	14332
290.040	7573
290.098	7046
290.156	10635
290.214	13104
290.271	8005
290.329	7086
290.387	6206
290.444	7075
290.502	5352
290.560	6489
290.617	7548
290.675	8648
290.733	7545
290.790	10051
290.848	7386
290.906	11392
290.963	9699
291.021	8666
291.078	8365
291.136	8940
291.194	30642
291.251	67071
291.309	20790
291.366	9800
291.424	9565
291.481	9853
291.539	11251
291.596	9663
291.654	6856
291.711	5700
291.769	9618
291.826	23815
291.884	14309
291.941	8436
291.999	8576
292.056	11293
292.114	12038
292.171	7217
292.228	8532
292.286	11576
292.343	24183
292.401	30237
292.458	19110
292.515	13460
292.573	15896
292.630	14580
292.687	14864
292.745	10891
292.802	14647
292.859	38634
292.917	72011
292.974	40147
293.031	15595
293.089	10757
293.146	9315
293.203	8286
293.260	7847
293.318	13978
293.375	18724
293.432	10177
293.489	8291
293.546	7594
293.604	11506
293.661	41259
293.718	100810
293.775	50567
293.832	26859
293.889	22498
293.947	26114
294.004	16355
294.061	16041
294.118	31306
294.175	66028
294.232	75218
294.289	32861
294.346	17524
294.403	14316
294.460	13133
294.517	12696
294.574	10997
294.631	9546
294.688	9874
294.745	28493
294.802	112238
294.859	117195
294.916	49834
294.973	32772
295.030	24265
295.087	20062
295.144	14268
295.201	11761
295.258	10060
295.315	12829
295.372	43394
295.429	81323
295.486	33483
295.542	19635
295.599	49566
295.656	81226
295.713	58378
295.770	77784
295.827	29341
295.883	16381
295.940	15002
295.997	28410
296.054	26612
296.111	14665
296.167	10181
296.224	8794
296.281	8384
296.338	8736
296.394	8234
296.451	10814
296.508	36330
296.564	67177
296.621	40743
296.678	87623
296.734	121604
296.791	43709
296.848	24819
296.904	24719
296.961	58225
297.018	91086
297.074	64155
297.131	25849
297.187	16608
297.244	21685
297.301	84321
297.357	142625
297.414	48995
297.470	22422
297.527	16501
297.583	12929
297.640	14456
297.696	11536
297.753	10066
297.809	8709
297.866	6869
297.922	7395
297.979	7923
298.035	10400
298.092	17168
298.148	54025
298.204	49020
298.261	21837
298.317	38648
298.374	103624
298.430	56374
298.486	30910
298.543	22550
298.599	20251
298.656	21340
298.712	37031
298.768	91598
298.824	61310
298.881	23410
298.937	14731
298.993	12811
299.050	18601
299.106	14695
299.162	13171
299.218	13890
299.275	10813
299.331	10703
299.387	22742
299.443	95084
299.500	97191
299.556	41359
299.612	22160
299.668	19527
299.724	28652
299.780	27852
299.837	15369
299.893	22612
299.949	87761
300.005	94735
300.061	81900
300.117	131229
300.173	60843
300.229	28889
300.285	37197
300.341	41728
300.397	20816
300.453	13981
300.510	12688
300.566	12972
300.622	16396
300.678	56805
300.734	96386
300.790	80081
300.845	90270
300.901	61176
300.957	95313
301.013	65530
301.069	26132
301.125	20982
301.181	22407
301.237	15180
301.293	11498
301.349	10416
301.405	10082
301.461	11993
301.516	16008
301.572	15847
301.628	28869
301.684	23648
301.740	38672
301.796	57966
301.851	38957
301.907	64063
301.963	54584
302.019	92095
302.074	247839
302.130	233330
302.186	103226
302.242	44902
302.297	30512
302.353	28077
302.409	57777
302.464	44490
302.520	36986
302.576	100861
302.631	106700
302.687	61777
302.743	27490
302.798	17413
302.854	13420
302.910	12644
302.965	17915
303.021	35467
303.076	31911
303.132	43527
303.187	51178
303.243	24950
303.299	14610
303.354	12476
303.410	11175
303.465	10497
303.521	9908
303.576	10219
303.632	11525
303.687	25704
303.743	81435
303.798	62704
303.853	25060
303.909	16275
303.964	13859
304.020	23793
304.075	35183
304.130	31198
304.186	60814
304.241	60781
304.297	47663
304.352	25914
304.358	24934
304.407	16997
304.449	16663
304.463	16562
304.518	17263
304.539	15965
304.573	13915
304.629	13011
304.630	13159
304.684	20520
304.720	48909
304.739	63151
304.794	86919
304.811	73146
304.850	40399
304.902	21585
304.905	20399
304.960	15279
304.992	15132
305.015	15062
305.071	13830
305.083	13138
305.126	10443
305.173	9161
305.181	9002
305.236	7038
305.264	8635
305.292	10260
305.347	14076
305.354	14242
305.402	15127
305.445	15411
305.457	15505
305.512	18652
305.535	18369
305.567	18084
305.622	18091
305.626	18799
305.678	34277
305.716	73315
305.733	87762
305.788	90920
305.807	78006
305.843	55763
305.897	77608
305.898	77847
305.953	72216
305.988	48553
306.008	35737
306.063	25446
306.078	22911
306.118	16793
306.168	12022
306.173	11606
306.228	9829
306.259	9123
306.283	8722
306.338	8330
306.349	8664
306.393	9870
306.440	10612
306.448	10781
306.503	10661
306.530	12212
306.558	16353
306.613	41281
306.620	44421
306.668	63902
306.711	84607
306.723	87344
306.778	62874
306.801	47841
306.833	30911
306.888	16757
306.892	16259
306.943	12347
306.982	10852
306.997	10407
307.052	9894
307.072	9770
307.107	10415
307.162	14663
307.163	14759
307.217	24549
307.253	30798
307.272	32381
307.327	33517
307.343	30330
307.381	23762
307.434	19778
307.436	20167
307.491	44400
307.524	68545
307.546	76955
307.600	71390
307.614	62669
307.655	35548
307.704	18607
307.710	17875
307.765	20421
307.795	27834
307.819	35095
307.874	58517
307.885	57559
307.929	41048
307.975	25991
307.984	25330
308.038	29577
308.065	35913
308.093	59742
308.148	137167
308.156	157779
308.202	263599
308.246	305039
308.257	297958
308.312	161382
308.336	118240
308.366	93528
308.421	63043
308.426	60276
308.475	36842
308.517	25423
308.530	23121
308.585	19757
308.607	18702
308.639	18738
308.694	22024
308.697	22596
308.748	44971
308.787	69692
308.803	70855
308.857	50732
308.877	41703
308.912	33411
308.967	29891
308.967	29925
309.021	40131
309.058	50494
309.076	61946
309.130	107825
309.148	126848
309.185	212975
309.238	375068
309.239	376163
309.293	415626
309.328	378454
309.348	326533
309.402	158751
309.418	118760
309.457	83807
309.508	55393
309.511	54590
309.566	54531
309.598	58554
309.620	71424
309.674	115034
309.688	125959
309.729	117518
309.778	91084
309.783	88627
309.837	59060
309.868	45102
309.892	50920
309.946	74143
309.959	83020
310.001	107708
310.049	123551
310.055	119472
310.109	67713
310.139	40095
310.163	31086
310.218	20269
310.229	18684
310.272	15424
310.319	12622
310.326	12184
310.381	10360
310.409	9464
310.435	9008
310.489	8230
310.499	8278
310.543	9506
310.589	10681
310.598	10531
310.652	10129
310.679	9492
310.706	8376
310.760	6208
310.769	5921
310.814	5675
310.859	5666
310.868	5628
310.923	5633
310.948	5718
310.977	7242
311.031	10625
311.038	11079
311.085	9980
311.128	8427
311.139	8255
311.193	7816
311.218	7562
311.247	6851
311.301	5539
311.308	5413
311.356	5822
311.398	6323
311.410	6173
311.464	5419
311.488	5090
311.518	5188
311.572	5464
311.578	5534
311.626	8465
311.668	11108
311.680	11073
311.734	10643
311.758	10544
311.788	10442
311.842	10240
311.847	10244
311.896	12332
311.937	14360
311.950	14155
312.004	13239
312.027	12818
312.058	10710
312.112	7098
312.117	6767
312.165	6205
312.207	5790
312.297	9286
312.386	6906
312.476	8692
312.566	18791
312.656	8738
312.745	4796
312.835	5681
312.925	7159
313.015	7432
313.104	7583
313.194	5921
313.284	6397
313.374	10046
313.463	7857
313.553	5896
313.643	5662
313.732	5074
313.822	3847
313.912	6525
314.001	8324
314.091	8717
314.180	10384
314.270	10590
314.360	12074
314.449	10136
314.539	5662
314.628	5528
314.718	7711
314.808	10116
314.897	5092
314.987	7188
315.076	9837
315.166	13618
315.255	11098
315.345	11115
315.434	11421
315.524	9729
315.613	13229
315.703	18615
315.792	32066
315.881	107245
315.971	33331
316.060	23662
316.150	34838
316.239	35836
316.328	12148
316.418	7308
316.507	7261
316.597	10514
316.686	9146
316.775	16828
316.865	36681
316.954	7333
317.043	5314
317.133	7144
317.222	5355
317.311	6058
317.400	5454
317.490	11005
317.579	11875
317.668	9952
317.757	19066
317.847	58894
317.936	184933
318.025	58642
318.114	36566
318.203	20425
318.293	23273
318.382	44354
318.471	32770
318.560	46452
318.649	71949
318.738	14705
318.828	10998
318.917	11757
319.006	16037
319.095	48537
319.184	96609
319.273	53850
319.362	27457
319.451	9248
319.540	9496
319.629	27342
319.718	37688
319.807	14225
319.896	41112
319.985	119884
320.074	38697
320.163	11964
320.252	22728
320.341	14768
320.430	12778
320.519	21437
320.608	10966
320.697	9069
320.786	9629
320.875	14118
320.964	17559
321.053	28617
321.142	41571
321.230	39539
321.319	34361
321.408	73111
321.497	27719
321.586	29263
321.675	37869
321.764	31327
321.852	20719
321.941	41284
322.030	24085
322.119	29980
322.207	78237
322.296	52155
322.385	23447
322.474	33571
322.562	94733
322.651	41973
322.740	35307
322.829	50252
322.917	51861
323.006	28998
323.095	22598
323.183	16050
323.272	24169
323.361	55336
323.449	156165
323.538	47158
323.626	114467
323.715	61244
323.804	25143
323.892	103019
323.981	49053
324.069	14845
324.158	56826
324.246	46882
324.335	16746
324.424	26992
324.512	9855
324.601	19870
324.689	95425
324.778	179157
324.866	45701
324.954	9801
325.043	9729
325.131	23969
325.220	40718
325.308	45894
325.397	33928
325.485	18879
325.574	7078
325.662	6817
325.750	8696
325.839	7116
325.927	5280
326.015	8972
326.104	17490
326.192	24093
326.280	6328
326.369	7294
326.457	11654
326.545	22380
326.634	8594
326.722	5648
326.810	6148
326.898	5806
326.987	7913
327.075	21712
327.163	22550
327.251	16473
327.340	90722
327.428	126159
327.516	11201
327.604	7727
327.692	7618
327.781	9926
327.869	17874
327.957	10818
328.045	9125
328.133	5225
328.221	8799
328.309	7138
328.397	5998
328.485	8262
328.574	12951
328.662	50844
328.750	26987
328.838	10668
328.926	5402
329.014	4814
329.102	9151
329.190	26030
329.278	15075
329.366	4513
329.454	4045
329.542	5001
329.630	3932
329.718	4955
329.806	7672
329.893	6726
329.981	5358
330.069	6639
330.157	30490
330.245	84285
330.333	38218
330.421	7925
330.509	13300
330.597	59376
330.684	34392
330.772	10983
330.860	15427
330.948	18117
331.036	7958
331.123	3120
331.211	4532
331.299	7188
331.387	16346
331.475	28724
331.562	8994
331.650	4014
331.738	6994
331.825	10990
331.913	4172
332.001	4165
332.089	7173
332.176	16975
332.264	53792
332.352	36453
332.439	9058
332.527	6472
332.614	6346
332.702	9559
332.790	5896
332.877	24063
332.965	50170
333.052	12975
333.140	15990
333.228	41652
333.315	9317
333.403	8474
333.490	29815
333.578	28214
333.665	49825
333.753	19394
333.840	6415
333.928	8651
334.015	30372
334.103	46073
334.190	135984
334.278	30356
334.365	16180
334.452	13200
334.540	7126
334.627	9933
334.715	14579
334.802	31173
334.889	196014
334.977	184359
335.064	23470
335.151	10462
335.239	9409
335.326	14158
335.413	65694
335.501	80935
335.588	10472
335.675	7917
335.762	10068
335.850	17564
335.937	13351
336.024	45880
336.111	201336
336.199	83020
336.286	16624
336.373	8252
336.460	5517
336.547	6153
336.635	9134
336.722	7921
336.809	6070
336.896	11172
336.983	36816
337.070	90174
337.157	128253
337.245	120566
337.332	81213
337.419	9586
337.506	4985
337.593	7333
337.680	28870
337.767	79000
337.854	20719
337.941	26344
338.028	39799
338.115	11509
338.202	11799
338.289	31388
338.376	122034
338.463	33149
338.550	47893
338.637	47926
338.724	20548
338.811	36448
338.898	7090
338.984	4764
339.071	6826
339.158	9958
339.245	27922
339.332	16239
339.419	25542
339.506	22716
339.593	3093
339.679	6117
339.766	4709
339.853	8234
339.940	19754
340.027	6604
340.113	6628
340.200	10701
340.287	7096
340.374	10456
340.460	16936
340.547	6516
340.634	13614
340.720	58255
340.807	30833
340.894	4660
340.980	6095
341.067	5912
341.154	7235
341.240	11575
341.327	26843
341.414	8258
341.500	9199
341.587	5925
341.674	5874
341.760	18713
341.847	21246
341.933	7009
342.020	1613
342.106	3561
342.193	7133
342.279	13842
342.366	9588
342.452	19220
342.539	9573
342.625	24471
342.712	61692
342.798	24940
342.885	9647
342.971	3925
343.058	3550
343.144	4056
343.230	4972
343.317	5343
343.403	4373
343.490	3492
343.576	3373
343.662	5598
343.749	5858
343.835	7877
343.921	14521
344.008	107521
344.094	239047
344.180	48393
344.267	18466
344.353	72997
344.439	73432
344.525	28599
344.612	9767
344.698	9849
344.784	6383
344.870	3783
344.957	5603
345.043	10689
345.129	7466
345.215	16465
345.301	9542
345.387	5260
345.474	2511
345.560	4593
345.646	6055
345.732	5184
345.818	5940
345.904	6339
345.990	7927
346.076	9092
346.162	15880
346.249	7146
346.335	4086
346.421	5949
346.507	29623
346.593	103147
346.679	22077
346.765	5988
346.851	6241
346.937	6456
347.023	4542
347.108	6900
347.194	5574
347.280	5550
347.366	7857
347.452	30235
347.538	122310
347.624	85221
347.710	68816
347.796	10518
347.882	5004
347.967	5350
348.053	7260
348.139	6265
348.225	4597
348.311	5097
348.397	4210
348.482	7111
348.568	7223
348.654	4123
348.740	8767
348.825	8299
348.911	12419
348.997	56031
349.083	110967
349.168	16226
349.254	5700
349.340	6945
349.425	4111
349.511	7504
349.597	9088
349.682	20492
349.768	69956
349.854	30624
349.939	5743
350.025	4769
350.110	4326
350.196	3721
350.282	3070
350.367	3228
350.453	11077
350.538	11827
350.624	7875
350.709	6864
350.795	3965
350.880	5040
350.966	6753
351.051	11629
351.137	7848
351.222	6400
351.308	21208
351.393	58804
351.479	14088
351.564	4215
351.649	5073
351.735	4196
351.820	3050
351.906	5025
351.991	8315
352.076	39114
352.162	56962
352.247	10478
352.332	6719
352.418	14443
352.503	19030
352.588	84281
352.673	67461
352.759	13765
352.844	6564
352.929	8154
353.014	11915
353.100	8273
353.185	16056
353.270	23434
353.355	21183
353.441	6095
353.526	7152
353.611	19020
353.696	21602
353.781	12530
353.866	5842
353.952	7036
354.037	18234
354.122	44581
354.207	39640
354.292	13523
354.377	4921
354.462	5764
354.547	8947
354.632	7515
354.717	11374
354.802	18789
354.887	7535
354.972	4735
355.057	3475
355.142	3437
355.227	5775
355.312	12381
355.397	28451
355.482	69879
355.567	32316
355.652	22324
355.737	26195
355.822	81044
355.907	65275
355.991	9245
356.076	4789
356.161	5155
356.246	4265
356.331	5602
356.416	18461
356.501	129566
356.585	133981
356.670	17266
356.755	9997
356.840	16739
356.924	88011
357.009	307404
357.094	112911
357.179	22638
357.263	17229
357.348	15270
357.433	14778
357.517	14103
357.602	12125
357.687	9912
357.771	18712
357.856	68788
357.941	39640
358.025	63594
358.110	270863
358.195	125457
358.279	17659
358.364	14369
358.448	54300
358.533	149001
358.617	107076
358.702	104640
358.787	38608
358.871	20761
358.956	17709
359.040	5825
359.125	4932
359.209	7553
359.294	30485
359.378	57496
359.462	20720
359.547	9924
359.631	7524
359.716	4841
359.800	5267
359.885	9256
359.969	6912
360.053	5725
360.138	5556
360.222	10262
360.306	19824
360.391	16186
360.475	34822
360.559	79864
360.644	58744
360.728	42349
360.812	70218
360.896	194137
360.981	76674
361.065	38188
361.149	10809
361.233	10092
361.318	8852
361.402	11809
361.486	9529
361.570	6919
361.654	9616
361.739	27840
361.823	124232
361.907	190656
361.991	31739
362.075	18128
362.159	41826
362.243	30048
362.327	29051
362.411	40558
362.495	19873
362.580	9195
362.664	6155
362.748	6667
362.832	8636
362.916	16678
363.000	62059
363.084	182828
363.168	232363
363.252	51570
363.336	17746
363.420	24425
363.503	85796
363.587	100041
363.671	18372
363.755	14030
363.839	19086
363.923	9520
364.007	21235
364.091	25863
364.175	37426
364.258	139814
364.342	108574
364.426	140482
364.510	77466
364.594	30204
364.677	38176
364.761	164515
364.845	118583
364.929	36174
365.013	29804
365.096	24313
365.180	30969
365.264	39684
365.347	134515
365.431	57597
365.515	12918
365.598	9006
365.682	7926
365.766	13292
365.849	15164
365.933	10043
366.017	12825
366.100	8533
366.184	4356
366.267	7078
366.351	5441
366.435	4694
366.518	4489
366.602	3903
366.685	6740
366.769	7670
366.852	12804
366.936	23374
367.019	14896
367.103	9228
367.186	17069
367.270	6982
367.353	4385
367.436	6273
367.520	4564
367.603	8074
367.687	13333
367.770	25213
367.853	16238
367.937	50255
368.020	82300
368.104	20203
368.187	17851
368.270	25802
368.353	23266
368.437	33678
368.520	78149
368.603	47335
368.687	59768
368.770	110284
368.853	26031
368.936	23662
369.020	21326
369.103	8760
369.186	5396
369.269	7232
369.352	16139
369.436	23755
369.519	13479
369.602	7687
369.685	8309
369.768	8846
369.851	7486
369.934	5599
370.018	7907
370.101	20126
370.184	15766
370.267	10983
370.350	20660
370.433	33395
370.516	90937
370.599	128653
370.682	42073
370.765	54702
370.848	71533
370.931	133437
371.014	49547
371.097	9688
371.180	6986
371.263	5115
371.346	3538
371.429	5708
371.511	6185
371.594	13805
371.677	19460
371.760	20758
371.843	20028
371.926	93786
372.009	212708
372.091	68836
372.174	51523
372.257	123749
372.340	49167
372.423	29069
372.505	32273
372.588	15737
372.671	41275
372.754	131608
372.836	68788
372.919	40725
373.002	73436
373.085	26048
373.167	19981
373.250	56182
373.332	121929
373.415	152465
373.498	304203
373.580	117413
373.663	163804
373.746	220802
373.828	47359
373.911	18808
373.993	21594
374.076	72557
374.159	71006
374.241	37194
374.324	107365
374.406	75752
374.489	91275
374.571	257609
374.654	110838
374.736	52140
374.819	159803
374.901	224404
374.983	229833
375.066	40008
375.148	16648
375.231	62570
375.313	116110
375.395	42866
375.478	10516
375.560	8245
375.643	12409
375.725	52060
375.807	201533
375.890	168266
375.972	73333
376.054	38676
376.136	61581
376.219	30578
376.301	61540
376.383	178060
376.465	70747
376.548	40695
376.630	54273
376.712	151028
376.794	73920
376.877	8873
376.959	5507
377.041	7803
377.123	13139
377.205	17326
377.287	4393
377.369	5281
377.452	4938
377.534	4348
377.616	5397
377.698	5735
377.780	4140
377.862	7367
377.944	6296
378.026	4519
378.108	4785
378.190	4491
378.272	4600
378.354	2925
378.436	3858
378.518	10513
378.600	31312
378.682	32844
378.764	73434
378.846	61395
378.928	15977
379.010	22665
379.091	12359
379.173	6392
379.255	5271
379.337	10237
379.419	38433
379.501	106575
379.583	45091
379.664	10684
379.746	27484
379.828	73277
379.910	101105
379.991	89843
380.073	15296
380.155	9800
380.237	7284
380.318	5589
380.400	7118
380.482	16320
380.564	25706
380.645	25785
380.727	24288
380.809	13235
380.890	9615
380.972	7965
381.053	6541
381.135	9892
381.217	26512
381.298	76252
381.380	39701
381.461	34191
381.543	147376
381.624	188070
381.706	34302
381.787	16727
381.869	19296
381.951	65695
382.032	231806
382.113	152787
382.195	31679
382.276	22460
382.358	52584
382.439	136263
382.521	151203
382.602	229723
382.684	111767
382.765	193237
382.846	238473
382.928	365589
383.009	213450
383.090	132819
383.172	481178
383.253	760747
383.334	263631
383.416	218721
383.497	119018
383.578	53739
383.659	109745
383.741	411951
383.822	1036422
383.903	567185
383.984	176425
384.066	260662
384.147	167198
384.228	37070
384.309	25302
384.390	19311
384.471	13947
384.553	15130
384.634	20265
384.715	22590
384.796	11972
384.877	17842
384.958	67070
385.039	86205
385.120	29155
385.201	13743
385.282	15836
385.363	16192
385.444	15653
385.525	32147
385.606	104234
385.687	92910
385.768	20817
385.849	26930
385.930	104270
386.011	179319
386.092	49567
386.173	12029
386.254	9042
386.335	11008
386.416	12875
386.496	44787
386.577	73379
386.658	27347
386.739	14477
386.820	13741
386.901	10558
386.981	10193
387.062	8794
387.143	20039
387.224	71957
387.304	70207
387.385	23435
387.466	16245
387.547	18699
387.627	14962
387.708	32235
387.789	128780
387.869	162480
387.950	45013
388.031	7962
388.111	7125
388.192	18235
388.273	28601
388.353	17646
388.434	12800
388.514	28603
388.595	116650
388.676	156306
388.756	75524
388.837	64960
388.917	44757
388.998	8993
389.078	9013
389.159	7393
389.239	7938
389.320	13043
389.400	12323
389.480	29061
389.561	77855
389.641	41125
389.722	13714
389.802	21439
389.883	34865
389.963	92657
390.043	61065
390.124	18478
390.204	28221
390.284	81975
390.365	56946
390.445	56961
390.525	146111
390.605	137695
390.686	44047
390.766	15946
390.846	8617
390.927	6517
391.007	7479
391.087	8907
391.167	10776
391.247	8314
391.328	15260
391.408	19093
391.488	13451
391.568	6209
391.648	10590
391.728	14908
391.808	16410
391.888	19172
391.969	43874
392.049	70287
392.129	31006
392.209	36569
392.289	89452
392.369	51264
392.449	34108
392.529	24388
392.609	22884
392.689	32161
392.769	88973
392.849	81205
392.929	58089
393.009	126174
393.089	112529
393.169	111732
393.248	348371
393.328	1078442
393.408	1179575
393.488	373774
393.568	104217
393.648	50551
393.728	31114
393.807	22160
393.887	18940
393.967	16476
394.047	17641
394.127	19233
394.206	29963
394.286	103035
394.366	411334
394.446	444018
394.525	93911
394.605	22340
394.685	21930
394.764	45264
394.844	78092
394.924	58662
395.003	19525
395.083	12804
395.163	11751
395.242	10558
395.322	11807
395.402	7481
395.481	13610
395.561	34856
395.640	91597
395.720	82023
395.799	98055
395.879	76146
395.958	40723
396.038	140669
396.117	534485
396.197	592698
396.276	154990
396.356	50727
396.435	40632
396.515	34234
396.594	45348
396.673	96575
396.753	351157
396.832	976401
396.912	780339
396.991	198340
397.070	53549
397.150	28879
397.229	21172
397.308	28948
397.388	46188
397.467	22794
397.546	10251
397.625	8400
397.705	13328
397.784	13019
397.863	8177
397.942	5850
398.022	7613
398.101	30405
398.180	78866
398.259	42629
398.338	12231
398.417	9658
398.497	7355
398.576	6800
398.655	5060
398.734	4700
398.813	7156
398.892	27749
398.971	87962
399.050	45972
399.129	6889
399.208	4559
399.287	4573
399.366	3247
399.445	3840
399.524	4177
399.603	3929
399.682	11863
399.761	34584
399.840	95719
399.919	75916
399.998	10827
400.077	3750
400.156	2945
400.235	6204
400.313	4026
400.392	8106
400.471	36848
400.550	62088
400.629	16926
400.708	7560
400.786	7039
400.865	17132
400.944	18332
401.023	10821
401.102	2509
401.180	3467
401.259	3857
401.338	4358
401.416	8052
401.495	6739
401.574	4743
401.652	4421
401.731	6960
401.810	6699
401.888	4358
401.967	2013
402.046	4179
402.124	7507
402.203	8821
402.281	6462
402.360	9195
402.438	23334
402.517	15312
402.596	6328
402.674	4909
402.753	3780
402.831	4202
402.910	7213
402.988	32043
403.066	100743
403.145	60098
403.223	32924
403.302	80306
403.380	63345
403.459	58344
403.537	23420
403.615	7940
403.694	2325
403.772	2573
403.850	2681
403.929	1881
404.007	3429
404.085	10755
404.164	14477
404.242	5265
404.320	7377
404.398	14370
404.477	43908
404.555	182281
404.633	168748
404.711	25776
404.789	7689
404.868	5092
404.946	3623
405.024	2106
405.102	2197
405.180	2367
405.258	1794
405.336	3222
405.415	3811
405.493	9698
405.571	10151
405.649	2925
405.727	3276
405.805	6011
405.883	7514
405.961	6461
406.039	6770
406.117	3494
406.195	10179
406.273	45569
406.351	159822
406.429	99821
406.507	13568
406.585	4441
406.663	5155
406.740	7304
406.818	6791
406.896	3269
406.974	5448
407.052	15360
407.130	91058
407.208	135989
407.285	27983
407.363	4131
407.441	4642
407.519	3651
407.596	5937
407.674	17000
407.752	49949
407.830	46869
407.907	16582
407.985	5344
408.063	3570
408.141	2185
408.218	6691
408.296	7230
408.373	6452
408.451	6599
408.529	6136
408.606	1915
408.684	1974
408.762	860
408.839	1961
408.917	1350
408.994	2077
409.072	1728
409.149	3081
409.227	6411
409.304	9886
409.382	7169
409.459	8618
409.537	12871
409.614	10794
409.692	6278
409.769	6253
409.846	12658
409.924	17729
410.001	10755
410.079	7385
410.156	5741
410.233	5774
410.311	3262
410.388	2903
410.465	5397
410.543	5784
410.620	3469
410.697	4177
410.775	5596
410.852	2781
410.929	7089
411.006	8332
411.083	5165
411.161	12361
411.238	12646
411.315	6217
411.392	3003
411.469	6876
411.547	6899
411.624	3087
411.701	3365
411.778	5465
411.855	12377
411.932	7525
412.009	2418
412.086	2794
412.163	4032
412.240	4542
412.317	5041
412.394	6084
412.471	2503
412.548	2402
412.625	2551
412.702	4786
412.779	9069
412.856	6828
412.933	2443
413.010	2670
413.087	6955
413.164	34942
413.241	51219
413.318	12938
413.395	6748
413.471	11396
413.548	5549
413.625	3308
413.702	3832
413.779	3917
413.855	436
413.932	1200
414.009	546
414.086	1946
414.162	2408
414.239	7093
414.316	34412
414.393	78507
414.469	29446
414.546	3553
414.623	1496
414.699	2039
414.776	3606
414.853	2105
414.929	2768
415.006	2811
415.082	2725
415.159	3453
415.236	2188
415.312	3458
415.389	8159
415.465	11424
415.542	6139
415.618	3380
415.695	7040
415.771	5616
415.848	3439
415.924	3567
416.000	2637
416.077	2351
416.153	258
416.230	531
416.306	1024
416.383	2191
416.459	1616
416.535	1461
416.612	1114
416.688	1117
416.764	2401
416.841	1697
416.917	2044
416.993	2731
417.069	3815
417.146	5072
417.222	6186
417.298	3703
417.374	2387
417.451	2951
417.527	3632
417.603	6127
417.679	4418
417.755	2834
417.831	644
417.908	1354
417.984	464
418.060	1447
418.136	9614
418.212	13823
418.288	4158
418.364	1763
418.440	2247
418.516	6223
418.592	6918
418.668	14630
418.744	23895
418.820	18252
418.896	3556
418.972	1496
419.048	2992
419.124	9979
419.200	7516
419.276	2402
419.352	408
419.428	1996
419.504	2692
419.579	4832
419.655	2567
419.731	4537
419.807	15415
419.883	29747
419.959	19630
420.034	5685
420.110	11789
420.186	47031
420.262	39130
420.337	6473
420.413	4751
420.489	2328
420.565	2647
420.640	2727
420.716	2849
420.792	1661
420.867	3065
420.943	2642
421.019	5976
421.094	5944
421.170	2585
421.245	2710
421.321	4070
421.397	3571
421.472	10382
421.548	27384
421.623	19490
421.699	7204
421.774	6267
421.850	6545
421.925	11332
422.001	10790
422.076	9237
422.152	11540
422.227	17533
422.302	21792
422.378	31950
422.453	61390
422.529	154469
422.604	396909
422.679	577980
422.755	406209
422.830	154908
422.905	58548
422.981	32575
423.056	20526
423.131	15207
423.207	11774
423.282	12026
423.357	19640
423.432	13510
423.508	12463
423.583	25829
423.658	20763
423.733	7163
423.808	8462
423.883	9036
423.959	8193
424.034	7417
424.109	7041
424.184	2754
424.259	2663
424.334	2165
424.409	2448
424.484	3002
424.559	3844
424.634	3221
424.709	6482
424.784	6596
424.859	4589
424.934	7909
425.009	33341
425.084	57251
425.159	21895
425.234	3626
425.309	2931
425.384	14951
425.459	29117
425.534	9002
425.609	2626
425.683	1142
425.758	2289
425.833	2552
425.908	5708
425.983	20627
426.058	56936
426.132	25930
426.207	4955
426.282	5978
426.357	6026
426.431	2359
426.506	2446
426.581	2092
426.655	2875
426.730	2021
426.805	2182
426.879	3380
426.954	3594
427.029	10483
427.103	57779
427.178	138934
427.253	65239
427.327	6910
427.402	10149
427.476	28463
427.551	15482
427.625	2889
427.700	3876
427.774	2039
427.849	3378
427.923	1551
427.998	1388
428.072	3307
428.147	9886
428.221	48549
428.296	135058
428.370	71502
428.444	9522
428.519	8184
428.593	17175
428.667	14418
428.742	17219
428.816	22847
428.890	84074
428.965	139074
429.039	46085
429.113	20283
429.188	8196
429.262	2931
429.336	8617
429.410	24626
429.485	17859
429.559	14320
429.633	11369
429.707	4886
429.781	17677
429.855	88698
429.930	138559
430.004	66415
430.078	83141
430.152	85939
430.226	167209
430.300	167609
430.374	27017
430.448	8771
430.522	30174
430.596	79756
430.670	60286
430.744	151714
430.818	222494
430.892	45955
430.966	6188
431.040	3611
431.114	1366
431.188	834
431.262	2653
431.336	2590
431.410	8135
431.484	22974
431.557	16965
431.631	2565
431.705	4319
431.779	28631
431.853	115010
431.927	81519
432.000	8880
432.074	2015
432.148	3925
432.222	2638
432.295	1609
432.369	1207
432.443	7704
432.516	52636
432.590	139690
432.664	53028
432.737	5319
432.811	585
432.885	110
432.958	1027
433.032	121
433.106	-18
433.179	515
433.253	247
433.326	469
433.400	-169
433.473	873
433.547	-323
433.620	1319
433.694	4414
433.767	5802
433.841	2405
433.914	658
433.988	651
434.061	924
434.134	1024
434.208	369
434.281	25
434.355	583
434.428	1870
434.501	1522
434.575	-17
434.648	1524
434.721	73
434.795	714
434.868	-777
434.941	285
435.014	-279
435.088	1268
435.161	4191
435.234	7198
435.307	8548
435.381	4139
435.454	2893
435.527	6544
435.600	6612
435.673	5427
435.746	1731
435.819	1832
435.892	1416
435.966	1033
436.039	910
436.112	1701
436.185	381
436.258	-132
436.331	-112
436.404	657
436.477	-176
436.550	-280
436.623	-384
436.696	631
436.769	681
436.842	2117
436.915	1221
436.987	3422
437.060	808
437.133	912
437.206	66
437.279	696
437.352	224
437.425	366
437.498	1890
437.570	6276
437.643	5715
437.716	1409
437.789	1107
437.861	6280
437.934	16980
438.007	8058
438.080	601
438.152	1772
438.225	8592
438.298	71835
438.370	195138
438.443	81699
438.516	17295
438.588	3599
438.661	992
438.734	1719
438.806	1229
438.879	2956
438.951	4573
439.024	8496
439.096	3059
439.169	696
439.241	594
439.314	415
439.386	2454
439.459	5993
439.531	10462
439.604	4027
439.676	466
439.749	80
439.821	-347
439.893	604
439.966	1037
440.038	2725
440.110	3499
440.183	999
440.255	614
440.327	4590
440.400	29421
440.472	117904
440.544	82389
440.617	10325
440.689	6516
440.761	9813
440.833	14925
440.905	9652
440.978	1313
441.050	781
441.122	834
441.194	421
441.266	1138
441.338	1184
441.411	5099
441.483	35218
441.555	54158
441.627	12266
441.699	4718
441.771	4824
441.843	1432
441.915	139
441.987	793
442.059	942
442.131	2764
442.203	4432
442.275	5467
442.347	5784
442.419	9493
442.491	58668
442.563	141097
442.635	59714
442.706	26131
442.778	19052
442.850	3530
442.922	1948
442.994	2933
443.066	5262
443.137	3705
443.209	4317
443.281	6601
443.353	16272
443.425	72551
443.496	253573
443.568	242772
443.640	85234
443.711	14098
443.783	5691
443.855	3466
443.926	2384
443.998	2072
444.070	3839
444.141	3478
444.213	5789
444.285	7914
444.356	7277
444.428	5979
444.499	2039
444.571	2
444.642	1586
444.714	2308
444.785	5942
444.857	6800
444.928	14639
445.000	9083
445.071	10504
445.143	13721
445.214	9685
445.285	15068
445.357	44953
445.428	165491
445.500	371040
445.571	230674
445.642	119701
445.714	40481
445.785	28521
445.856	10614
445.928	9179
445.999	7689
446.070	6043
446.141	5352
446.213	7963
446.284	3436
446.355	3450
446.426	2095
446.497	2599
446.569	4412
446.640	8648
446.711	7453
446.782	2318
446.853	4163
446.924	4878
446.995	2357
447.066	3022
447.138	4682
447.209	3352
447.280	-608
447.351	-43
447.422	314
447.493	2128
447.564	3601
447.635	5769
447.706	2450
447.777	218
447.847	-326
447.918	102
447.989	1799
448.060	3389
448.131	9587
448.202	10151
448.273	6419
448.344	2820
448.414	1912
448.485	1375
448.556	580
448.627	89
448.698	-133
448.768	-249
448.839	289
448.910	4015
448.981	4517
449.051	2098
449.122	129
449.193	269
449.263	1255
449.334	1167
449.405	1932
449.475	7934
449.546	5944
449.616	5933
449.687	4970
449.758	1566
449.828	479
449.899	691
449.969	74
450.040	1262
450.110	2079
450.181	3449
450.251	1119
450.322	1099
450.392	741
450.463	230
450.533	-161
450.604	661
450.674	227
450.744	934
450.815	-32
450.885	1204
450.955	834
451.026	1049
451.096	326
451.166	1931
451.237	6611
451.307	16614
451.377	7047
451.447	1113
451.518	-401
451.588	919
451.658	843
451.728	3291
451.799	16474
451.869	19066
451.939	3417
452.009	1831
452.079	-479
452.149	462
452.219	3510
452.289	18455
452.360	15040
452.430	2931
452.500	1329
452.570	4173
452.640	7487
452.710	20885
452.780	28149
452.850	19142
452.920	16575
452.990	6130
453.060	2072
453.129	4548
453.199	5751
453.269	23910
453.339	53199
453.409	82533
453.479	75797
453.549	110777
453.619	116068
453.688	47551
453.758	5298
453.828	2044
453.898	807
453.968	1927
454.037	715
454.087	745
454.107	723
454.168	225
454.177	110
454.247	471
454.249	512
454.316	376
454.330	757
454.386	1669
454.411	4736
454.456	8936
454.492	12326
454.525	15386
454.574	8101
454.595	5043
454.655	2651
454.665	2307
454.734	3092
454.736	3384
454.804	8449
454.817	11290
454.873	19833
454.898	20951
454.943	22549
454.979	15748
455.013	10385
455.060	6511
455.082	5241
455.141	7206
455.152	7247
455.221	18447
455.222	18892
455.291	29536
455.303	28568
455.360	24684
455.384	28307
455.430	31682
455.465	26587
455.499	22109
455.546	21383
455.569	19939
455.627	13366
455.638	12585
455.707	3292
455.708	3321
455.777	2015
455.789	2137
455.846	2644
455.869	2192
455.916	1322
455.950	2175
455.985	2789
456.031	2886
456.054	2892
456.112	2036
456.124	1925
456.193	2732
456.193	2696
456.262	3537
456.274	3871
456.332	4699
456.355	5068
456.401	4982
456.436	3919
456.470	3159
456.516	1987
456.540	1443
456.597	2215
456.609	2354
456.678	1065
456.678	1033
456.747	1884
456.759	1683
456.817	1018
456.840	1429
456.886	2026
456.920	2107
456.955	2390
457.001	3117
457.024	3681
457.082	5029
457.093	5182
457.162	7566
457.163	7626
457.232	7998
457.243	7558
457.301	5197
457.324	3934
457.370	2635
457.405	3267
457.439	3836
457.485	3559
457.508	3434
457.566	4181
457.577	4574
457.646	6852
457.647	6932
457.715	13681
457.727	15051
457.784	22717
457.808	27943
457.853	32458
457.889	35578
457.922	35040
457.969	25828
457.991	26900
458.050	34292
458.060	35438
458.129	56332
458.130	56949
458.198	47260
458.211	41248
458.267	22880
458.292	16179
458.336	12576
458.372	13588
458.405	19675
458.453	30173
458.474	36874
458.533	61036
458.543	62080
458.611	86901
458.614	87171
458.680	48311
458.694	36862
458.749	17023
458.775	12187
458.818	7266
458.855	6215
458.887	6040
458.936	5548
458.955	5395
459.016	5484
459.024	5482
459.093	6438
459.097	6476
459.162	6907
459.177	7011
459.230	7639
459.257	8361
459.299	8918
459.338	8981
459.368	9116
459.418	9806
459.437	9165
459.499	6306
459.505	6257
459.574	5579
459.579	5600
459.643	5826
459.659	5800
459.711	6198
459.740	6625
459.780	6855
459.820	6896
459.849	7091
459.900	8042
459.917	7864
459.981	7400
459.986	7426
460.054	7247
460.061	7222
460.123	8184
460.141	8694
460.191	10379
460.222	11244
460.260	11858
460.302	13331
460.328	12582
460.382	9659
460.397	9683
460.462	9720
460.465	10074
460.534	19108
460.543	20410
460.602	43770
460.623	52293
460.671	78669
460.703	102027
460.739	83035
460.783	51762
460.808	42956
460.864	12310
460.876	10161
460.944	7527
460.945	7488
461.013	7865
461.024	7802
461.081	7376
461.104	7629
461.150	7390
461.184	6960
461.218	6978
461.264	6716
461.286	6752
461.345	7345
461.355	7452
461.423	7878
461.425	7887
461.491	10243
461.505	10898
461.559	22550
461.585	27902
461.628	42564
461.665	56444
461.696	55860
461.745	57697
461.764	49185
461.825	14188
461.832	13892
461.901	9531
461.905	9545
461.969	8899
461.985	8701
462.037	8911
462.065	9045
462.105	12159
462.145	15104
462.173	20113
462.225	30204
462.241	32894
462.305	44752
462.310	43176
462.378	18478
462.385	15219
462.446	10574
462.465	9624
462.514	8992
462.545	9136
462.582	9213
462.625	9031
462.650	8814
462.705	8293
462.718	8905
462.785	12427
462.786	12536
462.854	18558
462.865	19574
462.922	21468
462.945	22336
462.990	15757
463.025	9941
463.058	9150
463.104	8204
463.126	8142
463.184	8252
463.194	8405
463.262	9038
463.264	9085
463.330	10056
463.344	10148
463.398	11464
463.424	12080
463.466	11541
463.504	11241
463.533	11757
463.583	12481
463.601	13234
463.663	15319
463.669	15915
463.737	23393
463.743	24048
463.805	36655
463.823	40337
463.873	59221
463.903	70744
463.940	67981
463.982	65808
464.008	51252
464.062	17379
464.076	16354
464.142	10926
464.144	10867
464.211	9615
464.221	9545
464.279	10804
464.301	11184
464.347	13221
464.381	14797
464.414	16672
464.461	19176
464.482	19266
464.540	19621
464.550	19008
464.617	14112
464.620	13929
464.685	15708
464.699	16023
464.753	17585
464.779	18555
464.820	19837
464.859	20717
464.888	21092
464.938	21857
464.956	21795
465.018	21186
465.023	20810
465.091	15672
465.098	15096
465.158	14880
465.177	14871
465.226	15377
465.257	15532
465.293	16655
465.336	17993
465.361	20150
465.416	25012
465.428	27538
465.495	41075
465.496	41310
465.563	67334
465.575	71803
465.631	76898
465.654	79083
465.698	47091
465.734	19695
465.765	18148
465.813	15605
465.833	15110
465.893	14409
465.900	14546
465.968	15496
465.972	15540
466.035	14677
466.052	14381
466.102	14963
466.131	15269
466.170	15585
466.210	15858
466.237	16347
466.290	17244
466.304	17543
466.369	18587
466.372	18697
466.439	21017
466.449	21290
466.506	26007
466.528	27783
466.573	42058
466.607	52611
466.641	74305
466.687	104339
466.708	109059
466.766	121670
466.775	111857
466.842	36189
466.845	32521
466.909	25498
466.925	23873
466.977	22733
467.004	22142
467.044	23413
467.083	24637
467.111	26044
467.163	28494
467.178	28874
467.242	30182
467.245	30146
467.312	28097
467.321	27767
467.379	29008
467.400	29369
467.446	31425
467.480	32798
467.559	26539
467.638	23872
467.717	25131
467.796	27779
467.875	30666
467.955	30898
468.034	58690
468.113	120687
468.192	154661
468.271	33038
468.350	29034
468.429	33376
468.508	33253
468.588	26736
468.667	26287
468.746	26492
468.825	25017
468.904	21249
468.983	29306
469.062	46081
469.141	50183
469.220	19770
469.299	20863
469.378	22731
469.456	25046
469.535	22483
469.614	22829
469.693	26544
469.772	37012
469.851	50794
469.930	28552
470.009	21993
470.088	22578
470.166	27940
470.245	37642
470.324	42165
470.403	30246
470.482	23488
470.560	22224
470.639	23933
470.718	26633
470.797	21925
470.875	30695
470.954	41885
471.033	40521
471.111	17699
471.190	17427
471.269	16385
471.347	17439
471.426	20523
471.505	23524
471.583	21830
471.662	19643
471.740	18616
471.819	18517
471.898	17939
471.976	17320
472.055	18422
472.133	24049
472.212	33567
472.290	31412
472.369	18948
472.447	18512
472.526	16304
472.604	18319
472.683	20247
472.761	21155
472.839	20131
472.918	18967
472.996	21193
473.075	24555
473.153	21121
473.231	19600
473.310	23586
473.388	21897
473.466	20247
473.545	24900
473.623	31339
473.701	27961
473.780	18534
473.858	19315
473.936	22702
474.014	19881
474.093	24508
474.171	38488
474.249	52329
474.327	26634
474.405	17424
474.484	16550
474.562	17055
474.640	18025
474.718	20053
474.796	19949
474.874	16735
474.952	15978
475.030	16638
475.108	18443
475.187	21658
475.265	25401
475.343	36729
475.421	37215
475.499	18595
475.577	20955
475.655	33538
475.733	67870
475.811	112384
475.889	99871
475.966	49365
476.044	20981
476.122	29769
476.200	35668
476.278	24780
476.356	19390
476.434	21926
476.512	27007
476.590	34593
476.667	28004
476.745	17398
476.823	19765
476.901	19127
476.979	19508
477.056	19067
477.134	20508
477.212	20517
477.290	18505
477.367	16952
477.445	16350
477.523	17050
477.601	16828
477.678	18390
477.756	23312
477.834	24709
477.911	16802
477.989	17360
478.066	18542
478.144	23003
478.222	28816
478.299	45322
478.377	34967
478.454	15782
478.532	16255
478.609	17232
478.687	18395
478.764	15977
478.842	18108
478.919	19910
478.997	18249
479.074	16655
479.152	21780
479.229	29090
479.307	15867
479.384	13357
479.461	14467
479.539	17482
479.616	21747
479.694	18079
479.771	20132
479.848	21718
479.926	33163
480.003	29271
480.080	16321
480.157	15075
480.235	14852
480.312	16132
480.389	22426
480.467	37003
480.544	41627
480.621	20766
480.698	20947
480.775	24078
480.853	23495
480.930	17506
481.007	19819
481.084	24052
481.161	27230
481.238	21354
481.315	15739
481.392	15943
481.470	17871
481.547	18514
481.624	16517
481.701	16600
481.778	18656
481.855	22623
481.932	38520
482.009	62150
482.086	33412
482.163	21392
482.240	35692
482.317	58011
482.393	36235
482.470	19258
482.547	18928
482.624	18100
482.701	20438
482.778	18118
482.855	15115
482.932	14964
483.009	16286
483.085	21168
483.162	26166
483.239	22788
483.316	17653
483.393	18554
483.469	18493
483.546	21419
483.623	21305
483.699	16549
483.776	17400
483.853	22509
483.930	42233
484.006	100024
484.083	150190
484.160	55047
484.236	71098
484.313	53662
484.389	42467
484.466	38441
484.543	38936
484.619	41675
484.696	44545
484.772	46214
484.849	47761
484.925	35885
485.002	36506
485.078	41057
485.155	40236
485.231	33213
485.308	34244
485.384	37499
485.461	54848
485.537	93649
485.614	94947
485.690	35037
485.766	33244
485.843	38509
485.919	53879
485.995	51161
486.072	31063
486.148	30210
486.224	30737
486.301	34537
486.377	41797
486.453	42773
486.530	38073
486.606	46667
486.682	54077
486.758	76623
486.835	84296
486.911	71490
486.987	122718
487.063	110424
487.139	131972
487.215	86006
487.292	41463
487.368	38490
487.444	44802
487.520	59761
487.596	61021
487.672	111590
487.748	271617
487.824	350310
487.900	100777
487.976	48759
488.052	50022
488.128	57473
488.204	44059
488.280	36007
488.356	54689
488.432	117759
488.508	154406
488.584	42514
488.660	30934
488.736	31957
488.812	35067
488.888	44283
488.964	68848
489.039	145217
489.115	196123
489.191	95131
489.267	34336
489.343	31151
489.418	26893
489.494	25636
489.570	24638
489.646	26495
489.722	27619
489.797	32893
489.873	62801
489.949	129680
490.024	81049
490.100	26739
490.176	27946
490.251	35846
490.327	45290
490.403	26508
490.478	24214
490.554	21670
490.629	23082
490.705	21979
490.781	25703
490.856	26286
490.932	29782
491.007	29069
491.083	28717
491.158	27999
491.234	47220
491.309	98729
491.385	81134
491.460	26468
491.536	29047
491.611	24340
491.686	29659
491.762	44747
491.837	94777
491.913	154874
491.988	215104
492.063	228303
492.139	66299
492.214	36447
492.289	19537
492.365	21754
492.440	27754
492.515	29309
492.590	26218
492.666	22327
492.741	36830
492.816	53100
492.891	23488
492.967	20189
493.042	18732
493.117	19587
493.192	24275
493.267	46381
493.342	116550
493.418	122021
493.493	24052
493.568	16778
493.643	20362
493.718	29359
493.793	45620
493.868	43658
493.943	25701
494.018	20220
494.093	20426
494.168	19603
494.243	16379
494.318	15448
494.393	16776
494.468	16157
494.543	17202
494.618	21440
494.693	17751
494.768	19268
494.842	18787
494.917	16888
494.992	17934
495.067	15919
495.142	16840
495.217	17819
495.292	17842
495.366	21652
495.441	28555
495.516	38543
495.591	69821
495.665	219425
495.740	428049
495.815	128099
495.890	29258
495.964	22787
496.039	27150
496.114	24389
496.188	29077
496.263	26499
496.338	23651
496.412	28573
496.487	32610
496.561	35136
496.636	33583
496.710	26873
496.785	33639
496.860	35800
496.934	26236
497.009	26635
497.083	27203
497.158	28818
497.232	36324
497.307	43263
497.381	35063
497.455	45313
497.530	55664
497.604	37569
497.679	43906
497.753	68406
497.827	81735
497.902	72224
497.976	101923
498.050	283157
498.125	852324
498.199	633944
498.273	102631
498.348	79816
498.422	63964
498.496	61042
498.570	53120
498.645	40897
498.719	41918
498.793	53421
498.867	86728
498.941	135191
499.016	401878
499.090	840474
499.164	191084
499.238	30369
499.312	29686
499.386	37699
499.460	33921
499.534	32425
499.609	43528
499.683	64667
499.757	70631
499.831	198618
499.905	625007
499.979	421339
500.053	74991
500.127	71922
500.201	49411
500.275	31412
500.349	31557
500.422	37828
500.496	66024
500.570	151486
500.644	373268
500.718	554521
500.792	81016
500.866	31270
500.940	43519
501.013	33424
501.087	37333
501.161	65936
501.235	97426
501.309	242653
501.382	578007
501.456	359723
501.530	104955
501.603	168223
501.677	47062
501.751	25276
501.825	38215
501.898	89832
501.972	223194
502.046	96376
502.119	42869
502.193	111352
502.266	233745
502.340	87564
502.413	120553
502.487	193805
502.561	97157
502.634	29123
502.708	26674
502.781	22694
502.855	20023
502.928	17637
503.002	17598
503.075	17864
503.149	18233
503.222	20215
503.295	23322
503.369	30790
503.442	59005
503.516	202105
503.589	409491
503.662	207746
503.736	84986
503.809	195727
503.882	143994
503.956	236696
504.029	177608
504.102	163891
504.175	189688
504.249	62093
504.322	39294
504.395	29976
504.468	21985
504.542	21464
504.615	15447
504.688	15584
504.761	15823
504.834	22260
504.907	29029
504.980	41338
505.053	22757
505.127	29608
505.200	33550
505.273	33008
505.346	18312
505.419	15971
505.492	14553
505.565	11329
505.638	12292
505.711	13560
505.784	13069
505.857	13068
505.930	13804
506.003	13519
506.076	17549
506.149	24777
506.221	29454
506.294	33770
506.367	110000
506.440	293914
506.513	104224
506.586	29996
506.659	16786
506.731	15862
506.804	23235
506.877	30558
506.950	20221
507.022	15548
507.095	23574
507.168	25216
507.241	15444
507.313	12854
507.386	17353
507.459	23571
507.531	14463
507.604	12341
507.677	12856
507.749	10930
507.822	20000
507.894	36270
507.967	34982
508.040	20211
508.112	18419
508.185	17265
508.257	18261
508.330	27425
508.402	18308
508.475	17537
508.547	19876
508.620	21518
508.692	34717
508.765	17534
508.837	13771
508.909	13919
508.982	15354
509.054	18098
509.127	15394
509.199	12593
509.271	12414
509.344	12240
509.416	13072
509.488	13099
509.560	14213
509.633	15554
509.705	20080
509.777	18530
509.849	25771
509.922	15931
509.994	12750
510.066	14069
510.138	16008
510.210	29375
510.283	24563
510.355	21571
510.427	20768
510.499	25729
510.571	25931
510.643	20442
510.715	33552
510.787	26054
510.859	20363
510.931	25645
511.003	31646
511.076	26696
511.148	16592
511.219	19201
511.291	35848
511.363	35212
511.435	15354
511.507	14072
511.579	15243
511.651	14879
511.723	15282
511.795	14508
511.867	16403
511.939	24668
512.010	54348
512.082	30721
512.154	16807
512.226	16447
512.298	27580
512.369	35576
512.441	28074
512.513	28488
512.585	20749
512.656	22702
512.728	24746
512.800	17586
512.871	17973
512.943	18145
513.015	15862
513.086	17287
513.158	20208
513.230	22388
513.301	34379
513.373	35272
513.444	19165
513.516	15675
513.588	17909
513.659	20487
513.731	27114
513.802	25114
513.874	57040
513.945	81158
514.016	24674
514.088	17385
514.159	20560
514.231	29229
514.302	33011
514.374	24334
514.445	28296
514.516	59602
514.588	35047
514.659	29543
514.730	52652
514.802	34191
514.873	25829
514.944	25781
515.016	24292
515.087	28313
515.158	42340
515.229	49211
515.301	30762
515.372	33226
515.443	21338
515.514	19163
515.585	16171
515.656	17722
515.728	17783
515.799	16012
515.870	19057
515.941	19263
516.012	19792
516.083	26244
516.154	29516
516.225	38536
516.296	34983
516.367	29571
516.438	34281
516.509	48266
516.580	87922
516.651	282419
516.722	773022
516.793	270322
516.864	58062
516.935	56221
517.006	68586
517.077	114756
517.148	296718
517.219	950229
517.289	1194493
517.360	356210
517.431	84592
517.502	33067
517.573	31793
517.643	31466
517.714	33764
517.785	34677
517.856	35226
517.926	40306
517.997	47874
518.068	62312
518.138	94600
518.209	192351
518.280	701913
518.350	1865240
518.421	589430
518.492	70702
518.562	50731
518.633	52697
518.703	59958
518.774	115298
518.845	254724
518.915	204887
518.986	66182
519.056	56307
519.127	94308
519.197	153155
519.268	323642
519.338	141099
519.408	43071
519.479	50725
519.549	36044
519.620	25743
519.690	20293
519.760	20656
519.831	21856
519.901	21590
519.971	18820
520.042	21510
520.112	26881
520.182	28324
520.253	30403
520.323	21978
520.393	30654
520.463	44296
520.534	35089
520.604	61014
520.674	31546
520.744	35472
520.814	74294
520.885	73596
520.955	131831
521.025	351998
521.095	89732
521.165	21195
521.235	21049
521.305	17571
521.375	18292
521.445	21716
521.515	29079
521.585	33533
521.655	28136
521.725	28729
521.795	28348
521.865	19498
521.935	34709
522.005	24074
522.075	17160
522.145	19323
522.215	25529
522.285	36124
522.355	55307
522.424	97919
522.494	69804
522.564	39999
522.634	89881
522.704	197379
522.774	58642
522.843	19964
522.913	20552
522.983	25854
523.053	20089
523.122	22786
523.192	40117
523.262	122535
523.331	87512
523.401	19965
523.471	15305
523.540	16899
523.610	12025
523.680	13837
523.749	15696
523.819	23075
523.888	19991
523.958	14139
524.027	16529
524.097	17775
524.166	16463
524.236	17960
524.305	18960
524.375	15016
524.444	15234
524.514	17523
524.583	17804
524.653	23127
524.722	25828
524.791	16083
524.861	15919
524.930	14151
524.999	18345
525.069	25746
525.138	22219
525.207	26361
525.277	17672
525.346	18465
525.415	17873
525.484	19954
525.554	24929
525.623	21863
525.692	21545
525.761	23536
525.830	24298
525.900	32072
525.969	54129
526.038	91394
526.107	208095
526.176	493894
526.245	331576
526.314	127794
526.383	281235
526.452	342524
526.522	597439
526.591	467166
526.660	122017
526.729	64933
526.797	93069
526.867	227391
526.935	769853
527.004	1221999
527.073	508507
527.142	46777
527.211	25598
527.280	27834
527.349	25474
527.418	16638
527.487	16254
527.555	13351
527.624	12648
527.693	12472
527.762	14383
527.831	12476
527.899	13516
527.968	14111
528.037	14582
528.106	20366
528.174	36306
528.243	29711
528.312	48396
528.380	48727
528.449	16567
528.518	12917
528.586	9781
528.655	12541
528.723	11686
528.792	12260
528.861	14022
528.929	11171
528.998	11571
529.066	10036
529.135	11115
529.203	9595
529.272	10823
529.340	11677
529.409	14095
529.477	12387
529.545	19877
529.614	20205
529.682	24632
529.751	24250
529.819	26219
529.887	16264
529.956	12137
530.024	13814
530.092	11761
530.161	17391
530.229	25866
530.297	13924
530.365	12032
530.434	11350
530.502	11752
530.570	11539
530.638	9879
530.707	12867
530.775	14258
530.843	10453
530.911	11429
530.979	11001
531.047	10995
531.115	12733
531.183	11856
531.252	12210
531.320	13691
531.388	11871
531.456	12056
531.524	10664
531.592	13544
531.660	14583
531.728	11739
531.796	12120
531.864	12218
531.932	12501
532.000	12635
532.067	13692
532.135	15260
532.203	18150
532.271	20512
532.339	38501
532.407	88903
532.475	42240
532.542	21613
532.610	28607
532.678	51144
532.746	194938
532.814	353587
532.881	69206
532.949	16973
533.017	15052
533.084	13274
533.152	13414
533.220	14498
533.287	14983
533.355	12954
533.423	13147
533.490	12236
533.558	13331
533.625	14622
533.693	14528
533.761	14317
533.828	15318
533.896	16346
533.963	34055
534.031	39531
534.098	52619
534.166	23197
534.233	14710
534.300	16571
534.368	15667
534.435	15220
534.503	16620
534.570	18807
534.637	19140
534.705	22719
534.772	32442
534.840	66165
534.907	248840
534.974	232558
535.041	30060
535.109	23006
535.176	14919
535.243	15175
535.310	16291
535.378	14567
535.445	13097
535.512	13932
535.579	13596
535.646	14147
535.714	15984
535.781	18255
535.848	17705
535.915	17103
535.982	15982
536.049	15007
536.116	16885
536.183	15442
536.250	16920
536.317	16868
536.384	21576
536.451	31455
536.518	29544
536.585	21563
536.652	27764
536.719	39102
536.786	29100
536.853	25315
536.920	40325
536.987	60488
537.053	66308
537.120	211957
537.187	130443
537.254	18582
537.321	17343
537.388	17260
537.454	15364
537.521	15115
537.588	15577
537.654	18281
537.721	20400
537.788	19030
537.855	16029
537.921	17696
537.988	16629
538.055	17406
538.121	16512
538.188	20455
538.254	33046
538.321	57206
538.388	30716
538.454	18693
538.521	17942
538.587	15301
538.654	15910
538.720	15605
538.787	16469
538.853	19370
538.920	21851
538.986	22599
539.053	18678
539.119	20220
539.185	19116
539.252	24448
539.318	33055
539.385	24811
539.451	22800
539.517	24150
539.583	31647
539.650	74171
539.716	137719
539.782	34227
539.849	17606
539.915	18700
539.981	19881
540.047	23698
540.114	19722
540.180	22124
540.246	22939
540.312	32529
540.378	60489
540.444	55827
540.510	74265
540.576	157692
540.643	40412
540.709	17687
540.775	18464
540.841	20572
540.907	28033
540.973	37404
541.039	33965
541.105	32938
541.171	20098
541.237	19319
541.303	19128
541.369	24450
541.435	32337
541.500	49759
541.566	29125
541.632	17530
541.698	16424
541.764	17840
541.830	16200
541.896	16897
541.961	17893
542.027	18920
542.093	18498
542.159	19735
542.224	23071
542.290	33101
542.356	51685
542.421	51765
542.487	23974
542.553	20094
542.618	22405
542.684	19381
542.750	21279
542.815	28487
542.881	52929
542.947	152850
543.012	81872
543.078	17684
543.143	16892
543.209	20824
543.274	20579
543.340	27792
543.405	62648
543.471	76315
543.536	20272
543.602	18685
543.667	17630
543.732	16736
543.798	16525
543.863	17759
543.928	16444
543.994	14708
544.059	17235
544.124	16960
544.190	16606
544.255	18519
544.320	18435
544.386	19942
544.451	28112
544.516	32610
544.581	39091
544.646	103807
544.712	120744
544.777	27107
544.842	23787
544.907	24733
544.972	21737
545.037	21492
545.102	23670
545.168	24157
545.233	24531
545.298	27126
545.363	32437
545.428	36452
545.493	64773
545.558	115087
545.623	42121
545.688	24331
545.753	23626
545.818	23601
545.883	24654
545.947	24524
546.012	27716
546.077	29320
546.142	27507
546.207	29577
546.272	35011
546.337	36048
546.401	30779
546.466	29158
546.531	27918
546.596	32391
546.661	31898
546.725	30845
546.790	30453
546.855	32286
546.919	33754
546.984	37221
547.049	42040
547.113	49299
547.178	47448
547.243	56229
547.307	61940
547.372	70919
547.436	72076
547.501	65105
547.565	69628
547.630	71468
547.695	69434
547.759	74474
547.823	67107
547.888	63412
547.952	64937
548.017	68643
548.081	76927
548.146	85202
548.210	76095
548.274	72679
548.339	69344
548.403	64517
548.468	60257
548.532	60428
548.596	63994
548.660	63854
548.725	73126
548.789	83416
548.853	78680
548.917	71440
548.982	81048
549.046	70483
549.110	56820
549.174	58683
549.238	66020
549.303	69697
549.367	71370
549.431	68691
549.495	63570
549.559	66342
549.623	75883
549.687	86913
549.751	97553
549.815	96813
549.879	94759
549.943	90371
550.007	96664
550.071	95968
550.135	94629
550.199	84559
550.263	80481
550.327	82233
550.391	91651
550.455	88794
550.519	90073
550.582	99370
550.646	120320
550.710	116660
550.774	105968
550.838	107278
550.901	109358
550.965	118005
551.029	123193
551.093	136200
551.156	162332
551.220	228611
551.284	231551
551.347	159439
551.411	201370
551.475	174396
551.538	114855
551.602	103136
551.666	98136
551.729	91555
551.793	90733
551.856	88068
551.920	88467
551.983	88792
552.047	86705
552.110	86252
552.174	89135
552.237	90161
552.301	81533
552.364	79488
552.428	78154
552.491	82213
552.554	82640
552.618	83183
552.681	89496
552.745	90904
552.808	115592
552.871	132310
552.934	97655
552.998	84659
553.061	83065
553.124	77141
553.187	78818
553.251	82729
553.314	83055
553.377	85092
553.440	98990
553.503	146536
553.567	152334
553.630	86995
553.693	83978
553.756	83426
553.819	78966
553.882	76307
553.945	76905
554.008	76172
554.071	77738
554.134	78389
554.197	73708
554.260	71413
554.323	76016
554.386	75784
554.449	78004
554.512	78429
554.575	74282
554.638	74609
554.701	73747
554.764	71537
554.827	69512
554.889	64964
554.952	61635
555.015	61678
555.078	63443
555.141	64519
555.203	62312
555.266	62886
555.329	63934
555.391	58869
555.454	63296
555.517	58979
555.580	56533
555.642	55082
555.705	53574
555.768	53561
555.830	52266
555.893	48976
555.955	49431
556.018	49230
556.080	49907
556.143	49384
556.206	50330
556.268	51852
556.330	51145
556.393	49437
556.455	49938
556.518	61595
556.580	55357
556.643	43386
556.705	43468
556.767	42332
556.830	44489
556.892	46532
556.955	59219
557.017	47067
557.079	41460
557.142	42353
557.204	48005
557.266	73555
557.328	54459
557.391	35555
557.453	35398
557.515	36234
557.577	43807
557.639	41582
557.701	36950
557.764	35364
557.826	37661
557.888	42105
557.950	44687
558.012	52567
558.074	73522
558.136	167402
558.198	323616
558.260	92355
558.322	43078
558.384	44805
558.446	49097
558.508	59369
558.570	78177
558.632	124902
558.694	181005
558.756	255261
558.818	729164
558.880	1362476
558.942	370123
559.003	337019
559.065	131007
559.127	59280
559.189	67100
559.251	90032
559.312	146600
559.374	357159
559.436	966584
559.498	345406
559.559	65708
559.621	65864
559.683	93815
559.744	169992
559.806	518319
559.868	587454
559.929	99133
559.991	78090
560.052	136285
560.114	336383
560.176	180775
560.237	209874
560.299	273791
560.360	54308
560.422	28982
560.483	28620
560.545	26226
560.606	26564
560.667	25113
560.729	24476
560.790	23271
560.852	23715
560.913	22930
560.974	23515
561.036	23356
561.097	24253
561.158	24274
561.220	24614
561.281	22994
561.342	27208
561.403	30234
561.465	38439
561.526	82418
561.587	86582
561.648	27617
561.709	23016
561.771	23185
561.832	22030
561.893	20893
561.954	22113
562.015	21430
562.076	21099
562.137	21592
562.198	21365
562.259	22949
562.320	22549
562.381	25350
562.442	34214
562.503	25606
562.564	21207
562.625	19894
562.686	21065
562.747	24409
562.808	22446
562.869	23041
562.930	25691
562.991	23269
563.051	22513
563.112	21294
563.173	21026
563.234	20072
563.294	20481
563.355	20751
563.416	21747
563.477	19746
563.537	21354
563.598	21927
563.659	21922
563.720	21390
563.780	22202
563.841	22540
563.901	21110
563.962	20567
564.023	20684
564.083	21847
564.144	21677
564.204	20839
564.265	22705
564.325	29342
564.386	50961
564.446	36294
564.507	20196
564.567	19416
564.628	20368
564.688	19680
564.749	19796
564.809	24484
564.869	26902
564.930	19965
564.990	19677
565.050	17387
565.111	19686
565.171	19065
565.231	18865
565.292	19318
565.352	18699
565.412	21138
565.472	21071
565.532	20884
565.593	20123
565.653	19432
565.713	22135
565.773	22020
565.833	26635
565.893	29794
565.953	21041
566.013	20281
566.074	22547
566.134	30543
566.194	45883
566.254	40542
566.314	27040
566.374	20538
566.434	21280
566.494	21463
566.554	21769
566.614	21089
566.673	22125
566.733	23680
566.793	25554
566.853	25030
566.913	24122
566.973	25092
567.033	27134
567.092	27440
567.152	25608
567.212	27170
567.272	26588
567.331	28223
567.391	26116
567.451	30991
567.511	40469
567.570	34374
567.630	25212
567.690	24036
567.749	23385
567.809	26412
567.868	29772
567.928	32044
567.988	36439
568.047	39700
568.107	48342
568.166	65400
568.226	103279
568.285	130329
568.345	98719
568.404	75025
568.464	63713
568.523	59497
568.582	63807
568.642	76806
568.701	99569
568.761	148260
568.820	226479
568.879	194545
568.939	134590
568.998	92086
569.057	70268
569.116	55187
569.176	44421
569.235	39430
569.294	36272
569.353	33153
569.413	30399
569.472	28434
569.531	26652
569.590	25494
569.649	24088
569.708	22807
569.767	24465
569.827	30809
569.886	24551
569.945	21826
570.004	21441
570.063	21448
570.122	23010
570.181	22697
570.240	26281
570.299	26088
570.358	27002
570.417	20230
570.475	18968
570.534	21173
570.593	21498
570.652	22009
570.711	23062
570.770	20563
570.829	22406
570.887	21110
570.946	22877
571.005	18842
571.064	20060
571.122	21104
571.181	23203
571.240	17988
571.299	17003
571.357	19900
571.416	20365
571.475	23047
571.533	22708
571.592	19681
571.650	20616
571.709	18074
571.768	18931
571.826	19004
571.885	17627
571.943	15924
572.002	17602
572.060	17324
572.119	15562
572.177	15273
572.236	15321
572.294	15391
572.352	16439
572.411	16096
572.469	16128
572.528	15621
572.586	17014
572.644	20448
572.703	25050
572.761	17385
572.819	16141
572.877	14305
572.936	14326
572.994	14463
573.052	14719
573.110	16789
573.169	15626
573.227	14210
573.285	14697
573.343	14516
573.401	14719
573.459	14630
573.517	14998
573.576	14370
573.634	16061
573.692	16512
573.750	14972
573.808	14783
573.866	16511
573.924	22237
573.982	20048
574.040	14890
574.098	14692
574.155	13790
574.213	14242
574.271	14961
574.329	15459
574.387	13016
574.445	13116
574.503	13144
574.560	12977
574.618	12165
574.676	13586
574.734	13002
574.792	13607
574.849	12906
574.907	12150
574.965	12083
575.022	12027
575.080	11529
575.138	13336
575.195	12916
575.253	13938
575.311	15168
575.368	12704
575.426	12489
575.483	12009
575.541	13222
575.598	11614
575.656	13413
575.713	12728
575.771	12214
575.828	12410
575.886	12212
575.943	13717
576.001	13964
576.058	13523
576.115	14795
576.173	18083
576.230	19725
576.287	20450
576.345	16432
576.402	14140
576.459	14856
576.517	14598
576.574	16551
576.631	15977
576.688	14444
576.746	14020
576.803	13967
576.860	13410
576.917	13253
576.974	12713
577.031	12505
577.089	14476
577.146	12995
577.203	13670
577.260	15399
577.317	15134
577.374	17615
577.431	15908
577.488	14351
577.545	13258
577.602	13424
577.659	12676
577.716	13743
577.773	13915
577.830	12660
577.886	13434
577.943	12049
578.000	13922
578.057	14739
578.114	13393
578.171	15354
578.227	15721
578.284	12710
578.341	13710
578.398	13635
578.454	14612
578.511	16646
578.568	18976
578.625	14966
578.681	12636
578.738	11950
578.794	12624
578.851	12253
578.908	13460
578.964	14212
579.021	12884
579.077	12285
579.134	13332
579.190	12255
579.247	11797
579.303	12968
579.360	12401
579.416	11587
579.473	12141
579.529	12082
579.586	13215
579.642	12883
579.698	13123
579.755	13087
579.811	13556
579.867	12439
579.924	12105
579.980	12859
580.036	13135
580.093	13192
580.149	14049
580.205	14371
580.261	14302
580.317	14642
580.374	15151
580.430	17640
580.486	16099
580.542	14101
580.598	13815
580.619	13840
580.654	13901
580.692	13942
580.710	13989
580.765	13572
580.767	13577
580.823	14313
580.838	14119
580.879	13654
580.911	13094
580.935	12714
580.984	12728
580.991	12746
581.047	13350
581.057	13245
581.103	12891
581.130	13478
581.159	14060
581.203	13677
581.215	13613
581.270	14016
581.276	13946
581.326	13356
581.349	13511
581.382	13787
581.422	14427
581.438	14706
581.494	14594
581.494	14571
581.550	13397
581.567	13861
581.606	14853
581.640	14535
581.661	14398
581.713	13924
581.717	13893
581.773	13810
581.786	13924
581.829	14379
581.859	14059
581.885	13783
581.932	13957
581.940	13998
581.996	13549
582.004	13508
582.052	13331
582.077	13226
582.107	13116
582.150	13071
582.163	13058
582.219	13673
582.223	13648
582.274	13599
582.296	13853
582.330	14137
582.368	13987
582.386	13998
582.441	13536
582.441	13540
582.497	14375
582.514	14053
582.552	13490
582.587	13845
582.608	14013
582.659	13063
582.663	13004
582.719	14248
582.732	14073
582.774	13358
582.805	13487
582.830	13723
582.877	13532
582.885	13456
582.941	13851
582.950	13690
582.996	13143
583.023	13998
583.052	14963
583.095	14087
583.107	13813
583.162	13934
583.168	14104
583.218	15591
583.240	14607
583.273	13277
583.313	13644
583.328	13773
583.384	14583
583.385	14547
583.439	13511
583.458	13533
583.494	13472
583.531	12920
583.549	12734
583.603	13305
583.605	13318
583.660	13423
583.676	13656
583.715	14278
583.748	13855
583.770	13606
583.820	14366
583.825	14411
583.881	14196
583.893	13946
583.936	13393
583.965	13287
583.991	13026
584.038	13043
584.046	13064
584.101	13990
584.110	13883
584.156	13273
584.183	13380
584.211	13461
584.255	13686
584.266	13791
584.321	13384
584.328	13454
584.376	13856
584.400	14155
584.431	14657
584.472	14332
584.486	14029
584.541	13851
584.545	13833
584.596	14122
584.617	14479
584.651	15190
584.689	15714
584.706	15869
584.761	16468
584.762	16468
584.816	15484
584.834	15588
584.871	15971
584.906	16469
584.926	16676
584.978	16034
584.980	16012
585.035	17110
585.051	17478
585.090	18521
585.123	19548
585.145	20190
585.195	20677
585.200	20754
585.254	23051
585.267	23609
585.309	25535
585.340	28405
585.364	30539
585.412	32950
585.419	33290
585.473	41531
585.484	43716
585.528	54347
585.556	65644
585.583	83425
585.628	124597
585.637	138551
585.692	296351
585.700	317764
585.747	398674
585.772	315899
585.801	174362
585.845	62621
585.856	48715
585.910	30762
585.917	29133
585.965	25479
585.989	24158
586.019	23184
586.061	22266
586.074	22008
586.128	22023
586.133	22111
586.183	23564
586.205	23699
586.237	23305
586.277	23073
586.292	23093
586.346	23031
586.349	23047
586.401	22994
586.421	23430
586.455	24523
586.493	25999
586.509	27277
586.564	33947
586.565	34297
586.618	50238
586.637	48708
586.672	39492
586.709	32051
586.727	29604
586.781	28871
586.781	28849
586.835	25503
586.853	24975
586.889	24328
586.925	23909
586.944	24037
586.996	24719
586.998	24715
587.052	25361
587.068	25653
587.106	26282
587.140	26349
587.161	26315
587.212	27041
587.215	27064
587.269	28388
587.284	28468
587.323	28723
587.356	29298
587.377	29616
587.427	30910
587.431	31011
587.485	32570
587.499	33034
587.539	33598
587.571	34192
587.593	35046
587.643	36913
587.648	37053
587.702	39620
587.715	40163
587.755	41415
587.786	42624
587.810	43345
587.858	45005
587.864	45320
587.917	49533
587.930	50642
587.971	54073
588.001	56654
588.025	58574
588.073	62341
588.079	62828
588.133	68379
588.145	69962
588.187	76342
588.217	81480
588.241	86293
588.288	96898
588.295	98286
588.348	112898
588.360	116384
588.402	130619
588.431	142301
588.456	152617
588.503	177041
588.510	180935
588.564	220606
588.575	230865
588.617	273643
588.646	311606
588.671	352367
588.718	445439
588.725	465356
588.778	652031
588.789	699181
588.832	985529
588.861	1199537
588.886	1414716
588.932	1706566
588.939	1705125
588.993	1599801
589.004	1609892
589.047	1482713
589.075	1275236
589.100	1048343
589.147	649291
589.154	618589
589.207	456290
589.218	430926
589.261	397402
589.290	390016
589.314	404293
589.361	450688
589.368	467244
589.421	640604
589.433	687410
589.475	999967
589.504	1221662
589.528	1366235
589.576	1528010
589.582	1494288
589.635	1216657
589.647	1128651
589.689	727672
589.718	473072
589.742	379033
589.790	236929
589.795	228606
589.849	172306
589.861	161607
589.902	140684
589.932	125727
589.955	114046
590.004	92034
590.009	90566
590.062	79142
590.075	76890
590.115	70555
590.146	65946
590.168	63522
590.218	58958
590.222	58523
590.275	54847
590.289	53910
590.328	51761
590.360	50146
590.381	48634
590.431	45525
590.435	45321
590.488	43137
590.503	42743
590.541	41677
590.574	40606
590.594	40018
590.645	39016
590.647	38913
590.700	37438
590.716	37001
590.753	35971
590.787	35209
590.806	35010
590.859	34907
590.859	34865
590.912	34412
590.930	34365
590.965	34017
591.001	33649
591.018	33368
591.071	32720
591.072	32741
591.124	31776
591.143	31529
591.177	31435
591.214	31273
591.230	31326
591.283	31841
591.285	31887
591.336	33159
591.356	33698
591.389	33134
591.427	32272
591.442	31519
591.495	28907
591.498	28742
591.547	28535
591.569	28591
591.600	28494
591.640	28287
591.653	28349
591.706	28711
591.711	28779
591.759	29226
591.782	29623
591.811	30517
591.853	31609
591.864	31333
591.917	29847
591.924	29679
591.969	28904
591.995	28511
592.022	28524
592.066	28587
592.075	28849
592.127	30604
592.137	30991
592.180	32679
592.208	33629
592.233	32237
592.279	29656
592.285	29627
592.338	29670
592.350	29696
592.390	28535
592.421	27715
592.443	27933
592.491	28454
592.495	28402
592.548	27934
592.562	27825
592.600	28745
592.633	29575
592.653	29008
592.704	27414
592.705	27599
592.775	29142
592.846	28579
592.916	29389
592.987	32022
593.058	29716
593.128	28310
593.199	28261
593.270	26993
593.341	28680
593.411	29007
593.482	30274
593.553	29386
593.623	29795
593.694	30557
593.764	31712
593.835	30461
593.906	30033
593.976	30038
594.047	32296
594.117	35151
594.188	35190
594.258	31450
594.329	32942
594.399	32231
594.470	33774
594.540	33000
594.611	33597
594.681	33179
594.751	35521
594.822	36291
594.892	37878
594.963	38388
595.033	38771
595.103	38388
595.174	40152
595.244	47723
595.314	52616
595.384	41320
595.455	41410
595.525	41236
595.595	43205
595.665	43682
595.736	43032
595.806	42724
595.876	43867
595.946	43307
596.016	44962
596.087	46788
596.157	46048
596.227	46021
596.297	48295
596.367	50738
596.437	54263
596.507	61031
596.577	64384
596.647	55882
596.717	57320
596.787	57568
596.857	57522
596.927	57968
596.997	57283
597.067	58204
597.137	59119
597.207	59410
597.277	60476
597.347	58001
597.417	55527
597.487	56893
597.557	57810
597.626	60097
597.696	61595
597.766	63393
597.836	65691
597.906	55142
597.975	53452
598.045	52748
598.115	54698
598.185	58091
598.254	65593
598.324	70140
598.394	72674
598.464	70466
598.533	68293
598.603	62932
598.672	62439
598.742	63661
598.812	63034
598.881	63606
598.951	63433
599.020	64011
599.090	66459
599.159	68054
599.229	64426
599.299	62809
599.368	64832
599.437	64911
599.507	59821
599.576	58077
599.646	57250
599.715	56017
599.785	56519
599.854	55802
599.924	55399
599.993	54485
600.062	54399
600.132	56298
600.201	59175
600.270	69080
600.340	71772
600.409	69581
600.478	68374
600.547	69661
600.617	65781
600.686	52427
600.755	47887
600.824	48468
600.894	44920
600.963	43981
601.032	43948
601.101	42415
601.170	41117
601.239	40124
601.308	42584
601.378	40618
601.447	38806
601.516	40472
601.585	41859
601.654	42949
601.723	42144
601.792	41799
601.861	43714
601.930	46510
601.999	48820
602.068	45509
602.137	48674
602.206	49077
602.275	48382
602.343	51261
602.412	51161
602.481	47356
602.550	48550
602.619	48227
602.688	50114
602.756	49096
602.825	49623
602.894	50973
602.963	52424
603.032	53248
603.100	52061
603.169	52171
603.238	53338
603.307	52918
603.375	53689
603.444	54310
603.513	55491
603.581	55719
603.650	56552
603.719	56265
603.787	58285
603.856	58617
603.924	61676
603.993	62484
604.061	64869
604.130	67772
604.198	69314
604.267	69112
604.335	70636
604.404	71377
604.472	72980
604.541	72265
604.609	73432
604.678	73623
604.746	73100
604.815	76083
604.883	77480
604.951	77262
605.020	77251
605.088	79800
605.156	82284
605.225	82916
605.293	82996
605.361	83461
605.429	83131
605.498	86389
605.566	89410
605.634	92738
605.702	95856
605.771	99419
605.839	98626
605.907	95735
605.975	93200
606.043	90061
606.111	91389
606.180	91331
606.248	89969
606.316	91769
606.384	89551
606.452	94628
606.520	98840
606.588	97480
606.656	95440
606.724	93875
606.792	88756
606.860	80075
606.928	72235
606.996	70203
607.064	67249
607.132	69953
607.200	74753
607.267	77347
607.335	77552
607.403	78055
607.471	77813
607.539	74553
607.607	74650
607.674	66943
607.742	67702
607.810	67656
607.878	67014
607.946	66903
608.013	69987
608.081	72897
608.149	74544
608.216	73889
608.284	78276
608.352	77153
608.419	75624
608.487	79961
608.555	75882
608.622	76176
608.690	80412
608.757	89156
608.825	90111
608.893	88904
608.960	88504
609.028	85791
609.095	87011
609.163	81436
609.230	72651
609.298	66542
609.365	69585
609.432	74821
609.500	81591
609.567	92509
609.635	106117
609.702	110414
609.769	107961
609.837	85799
609.904	74047
609.971	74815
610.039	86943
610.106	115916
610.173	219365
610.241	508142
610.308	313987
610.375	130510
610.442	84298
610.509	74878
610.577	74555
610.644	75082
610.711	77348
610.778	79581
610.845	81863
610.912	87502
610.980	90927
611.047	93014
611.114	90006
611.181	86889
611.248	85398
611.315	92330
611.382	93079
611.449	95946
611.516	98920
611.583	97175
611.650	97178
611.717	100271
611.784	102123
611.851	107153
611.918	118242
611.984	141863
612.051	202337
612.118	413170
612.185	1032490
612.252	635342
612.319	158517
612.386	129990
612.452	118904
612.519	111925
612.586	115528
612.653	113422
612.719	114954
612.786	110170
612.853	101700
612.919	98834
612.986	101404
613.053	96020
613.120	89156
613.186	84835
613.253	87330
613.319	87089
613.386	87339
613.453	89048
613.519	91778
613.586	93856
613.652	103821
613.719	98131
613.785	96369
613.852	91590
613.918	89956
613.985	91768
614.051	98674
614.118	107398
614.184	103641
614.250	88848
614.317	91282
614.383	89300
614.449	91634
614.516	89310
614.582	92198
614.648	89399
614.715	87968
614.781	86119
614.847	86156
614.914	86558
614.980	84693
615.046	83665
615.112	86597
615.179	87193
615.245	89159
615.311	90463
615.377	97709
615.443	100325
615.509	93956
615.575	96834
615.642	93731
615.708	99070
615.774	103538
615.840	112695
615.906	125556
615.972	159374
616.038	251798
616.104	516133
616.170	1238472
616.236	1043139
616.302	228335
616.368	165846
616.434	120040
616.500	112445
616.565	122861
616.631	152358
616.697	125020
616.763	128942
616.829	191478
616.895	343850
616.961	316671
617.026	132737
617.092	96744
617.158	92726
617.224	89722
617.289	84024
617.355	79964
617.421	79674
617.487	79947
617.552	75079
617.618	72732
617.684	73505
617.749	76274
617.815	71408
617.880	69079
617.946	68896
618.012	72205
618.077	73004
618.143	69763
618.208	70219
618.274	75528
618.339	76570
618.405	63191
618.470	62823
618.536	63684
618.601	64015
618.667	58391
618.732	56156
618.798	55042
618.863	54996
618.928	54299
618.994	56435
619.059	57744
619.124	67044
619.190	58617
619.255	53546
619.320	54106
619.386	55484
619.451	53231
619.516	50655
619.581	52679
619.647	54542
619.712	54638
619.777	51093
619.842	52524
619.907	54113
619.972	54234
620.038	54142
620.103	51928
620.168	50778
620.233	53189
620.298	51775
620.363	52709
620.428	54839
620.493	56542
620.558	56809
620.623	57002
620.688	56834
620.753	55266
620.818	57079
620.883	56301
620.948	56301
621.013	57045
621.078	56661
621.143	56827
621.207	59464
621.272	57620
621.337	56989
621.402	57643
621.467	60152
621.532	61435
621.596	58374
621.661	54815
621.726	53565
621.791	53993
621.855	55850
621.920	55597
621.985	56908
622.049	59441
622.114	57986
622.179	58145
622.243	57491
622.308	59375
622.373	62573
622.437	60378
622.502	57182
622.566	56990
622.631	55891
622.695	57739
622.760	57742
622.824	57743
622.889	58644
622.953	60740
623.018	73557
623.082	73469
623.147	61948
623.211	59943
623.276	59425
623.340	56384
623.404	55229
623.469	53693
623.533	55655
623.597	52849
623.662	53572
623.726	50739
623.790	46162
623.854	46431
623.919	47687
623.983	48213
624.047	49079
624.111	48767
624.176	49980
624.240	52846
624.304	55477
624.368	49858
624.432	49924
624.496	51871
624.560	56572
624.625	59288
624.689	54404
624.753	56222
624.817	53380
624.881	50792
624.945	48105
625.009	44866
625.073	47395
625.137	50198
625.201	55463
625.265	55073
625.329	48812
625.393	51143
625.456	49990
625.520	51788
625.584	53733
625.648	58573
625.712	67066
625.776	96194
625.839	104174
625.903	60312
625.967	44978
626.031	55232
626.095	74915
626.158	50490
626.222	37050
626.286	35816
626.349	34005
626.413	31738
626.477	33707
626.540	32437
626.604	31581
626.668	32436
626.731	30426
626.795	31372
626.858	32249
626.922	31226
626.986	30886
627.049	29997
627.113	31418
627.176	30509
627.240	30561
627.303	29806
627.366	29166
627.430	31322
627.493	29399
627.557	29758
627.620	31572
627.684	31441
627.747	31993
627.810	27838
627.874	26353
627.937	25204
628.000	27235
628.064	26697
628.127	23035
628.190	24711
628.253	22871
628.317	21542
628.380	21436
628.443	20666
628.506	21506
628.569	20471
628.632	18432
628.696	19482
628.759	19243
628.822	17741
628.885	19601
628.948	19058
629.011	18618
629.074	18644
629.137	17447
629.200	16244
629.263	19180
629.326	16325
629.389	15793
629.452	16606
629.515	16821
629.578	16730
629.641	17430
629.704	15791
629.767	16397
629.830	16253
629.892	15238
629.955	15091
630.018	18042
630.081	18918
630.144	21442
630.207	15751
630.269	18399
630.332	16149
630.395	15681
630.458	14391
630.520	14137
630.583	15762
630.646	14480
630.708	14064
630.771	14013
630.834	15802
630.896	14390
630.959	14597
631.021	13492
631.084	14612
631.146	16377
631.209	16903
631.272	14967
631.334	15116
631.397	14191
631.459	14756
631.522	16587
631.584	16301
631.646	17683
631.709	19277
631.771	22254
631.834	18148
631.896	15770
631.958	15277
632.021	15321
632.083	14091
632.145	15191
632.208	14886
632.270	15662
632.332	14230
632.395	12614
632.457	15086
632.519	13442
632.581	15175
632.643	13031
632.706	13869
632.768	12350
632.830	14715
632.892	14059
632.954	13126
633.016	14627
633.078	14110
633.141	13163
633.203	13263
633.265	14103
633.327	13453
633.389	13497
633.451	15503
633.513	16572
633.575	17187
633.637	16419
633.698	15371
633.760	14590
633.822	15552
633.884	15332
633.946	15687
634.008	15955
634.070	16137
634.132	17467
634.193	18462
634.255	20922
634.317	20354
634.379	20562
634.441	18189
634.502	15993
634.564	15740
634.626	14059
634.687	14314
634.749	13182
634.811	13780
634.873	12379
634.934	13040
634.996	13660
635.057	12297
635.119	13509
635.181	13691
635.242	14171
635.304	11607
635.365	15473
635.427	12391
635.488	13604
635.550	13243
635.611	14171
635.673	11543
635.734	14864
635.796	15223
635.857	16463
635.918	16916
635.980	19008
636.041	19689
636.102	21294
636.164	22035
636.225	21239
636.286	17334
636.348	16060
636.409	15092
636.470	13335
636.531	13799
636.593	13228
636.654	13768
636.715	11094
636.776	11886
636.838	11549
636.899	12224
636.960	10794
637.021	10343
637.082	10959
637.143	10890
637.204	9122
637.265	10086
637.326	11327
637.387	10600
637.448	9476
637.509	10525
637.570	10770
637.631	11488
637.692	9421
637.753	9393
637.814	9711
637.875	10097
637.936	10608
637.997	9469
638.058	10551
638.119	11422
638.179	8843
638.240	9090
638.301	10076
638.362	9576
638.423	8651
638.483	11174
638.544	8209
638.605	9249
638.666	7905
638.726	10254
638.787	9696
638.848	8702
638.908	9062
638.969	8636
639.030	8724
639.090	7857
639.151	8849
639.211	10092
639.272	12459
639.332	18068
639.393	11822
639.453	8970
639.514	9234
639.574	8319
639.635	7808
639.695	9225
639.756	7303
639.816	9418
639.877	11259
639.937	16804
639.997	21407
640.058	8905
640.118	7807
640.178	9025
640.239	7596
640.299	7568
640.359	7368
640.420	8373
640.480	9935
640.540	10964
640.600	10736
640.661	9563
640.721	9730
640.781	12465
640.841	7476
640.901	10235
640.961	8896
641.021	9949
641.082	10638
641.142	14518
641.202	10866
641.262	6361
641.322	7839
641.382	6856
641.442	9105
641.502	7686
641.562	7677
641.622	7543
641.682	8753
641.742	9101
641.802	8641
641.861	8912
641.921	8895
641.981	11028
642.041	8974
642.101	11187
642.161	7683
642.221	6511
642.280	6993
642.340	6497
642.400	6471
642.460	7542
642.519	7685
642.579	6699
642.639	8117
642.698	5768
642.758	9846
642.818	7725
642.877	7427
642.937	7714
642.997	9321
643.056	13166
643.116	7962
643.175	8955
643.235	8196
643.294	8299
643.354	9498
643.414	11358
643.473	14013
643.532	16449
643.592	24686
643.651	40544
643.711	72764
643.770	144801
643.830	348768
643.889	782406
643.948	185161
644.008	27865
644.067	16983
644.126	12788
644.186	10975
644.245	10516
644.304	8036
644.363	9511
644.423	7672
644.482	8624
644.541	8280
644.600	7781
644.659	11833
644.719	15004
644.778	22064
644.837	37733
644.896	78700
644.955	188815
645.014	63079
645.073	13707
645.132	9818
645.191	9414
645.250	8504
645.309	10869
645.368	9657
645.427	14039
645.486	19998
645.545	38011
645.604	11636
645.663	9184
645.722	7578
645.781	9176
645.840	11861
645.898	14657
645.957	23161
646.016	36000
646.075	67237
646.134	134178
646.192	358976
646.251	564333
646.310	81186
646.369	19441
646.427	15879
646.486	10991
646.545	9959
646.603	8883
646.662	7777
646.721	7971
646.779	6965
646.838	7054
646.896	10297
646.955	13746
647.014	21907
647.072	40992
647.131	115989
647.189	58591
647.248	8903
647.306	7243
647.365	6452
647.423	4799
647.481	7228
647.540	4396
647.598	5672
647.657	5683
647.715	5436
647.773	5053
647.832	5244
647.890	4526
647.948	3924
648.007	5298
648.065	3824
648.123	4023
648.181	6626
648.240	5497
648.298	3497
648.356	4753
648.414	4415
648.472	4548
648.531	5087
648.589	4686
648.647	4597
648.705	5240
648.763	5049
648.821	5352
648.879	4825
648.937	6919
648.995	8342
649.053	11285
649.111	17601
649.169	29160
649.227	51919
649.285	108498
649.343	328130
649.401	166017
649.459	32236
649.516	19507
649.574	10246
649.632	13913
649.690	16898
649.748	13071
649.806	15456
649.863	29313
649.921	79621
649.979	56339
650.037	8799
650.094	4287
650.152	4889
650.210	3920
650.268	4900
650.325	4344
650.383	4344
650.440	2874
650.498	3544
650.556	3257
650.613	3032
650.671	3584
650.728	3600
650.786	4429
650.843	5023
650.901	3541
650.958	3911
651.016	2857
651.073	2711
651.131	2825
651.188	1898
651.246	3035
651.303	2268
651.360	3478
651.418	2398
651.475	2891
651.532	1955
651.590	3575
651.647	2044
651.704	2940
651.762	2532
651.819	3037
651.876	2100
651.933	3214
651.990	3663
652.048	1599
652.105	2503
652.162	3257
652.219	2464
652.276	2950
652.333	2236
652.390	2048
652.448	2519
652.505	3026
652.562	2203
652.619	2214
652.676	3605
652.733	4507
652.790	2841
652.847	751
652.904	2819
652.961	1261
653.017	1559
653.074	2873
653.131	2610
653.188	528
653.245	1634
653.302	1943
653.359	2497
653.415	2112
653.472	1309
653.529	1975
653.586	1163
653.642	1460
653.699	2289
653.756	1568
653.813	1555
653.869	2249
653.926	2439
653.983	1596
654.039	3185
654.096	1846
654.152	3292
654.209	1654
654.266	2892
654.322	1600
654.379	3063
654.435	3571
654.492	2643
654.548	4279
654.605	7011
654.661	3694
654.717	2036
654.774	2832
654.830	2748
654.887	2683
654.943	2376
655.000	3039
655.056	2777
655.112	2890
655.168	1785
655.225	2123
655.281	2390
655.337	3689
655.394	4726
655.450	5423
655.506	3110
655.562	6468
655.618	6235
655.675	2095
655.731	1589
655.787	2066
655.843	2950
655.899	1667
655.955	2363
656.011	2529
656.067	1383
656.123	2959
656.179	3200
656.235	3446
656.291	956
656.347	3466
656.403	2214
656.459	2554
656.515	3226
656.571	2466
656.627	3461
656.683	1751
656.739	2119
656.795	2980
656.850	2668
656.906	4029
656.962	3385
657.018	1713
657.074	1991
657.129	3542
657.185	4351
657.241	9839
657.297	5362
657.352	2538
657.408	1863
657.464	3091
657.519	1705
657.575	1908
657.630	1788
657.686	2178
657.742	1352
657.797	1738
657.853	1545
657.908	2731
657.964	1491
658.019	1727
658.075	1789
658.130	2824
658.186	741
658.241	2173
658.297	628
658.352	1517
658.407	2458
658.463	1666
658.518	1828
658.573	2311
658.629	754
658.684	1609
658.739	2497
658.795	179
658.850	1601
658.905	727
658.960	1840
659.016	1358
659.071	1903
659.126	1345
659.181	1981
659.236	5406
659.291	5940
659.346	2313
659.401	2666
659.457	2612
659.512	1582
659.567	2724
659.622	1993
659.677	956
659.732	1907
659.787	1771
659.842	1688
659.897	2377
659.952	2758
660.007	1767
660.061	1402
660.116	1326
660.171	1165
660.226	1559
660.281	2240
660.336	1297
660.391	1839
660.445	615
660.500	2187
660.555	2372
660.610	1266
660.664	1628
660.719	1499
660.774	1766
660.828	1809
660.883	1738
660.938	2575
660.992	734
661.047	1432
661.101	942
661.156	2333
661.211	301
661.265	1749
661.320	1006
661.374	1500
661.429	829
661.483	2148
661.538	906
661.592	1570
661.647	2159
661.701	1218
661.755	1525
661.810	1873
661.864	1827
661.919	1339
661.973	2214
662.027	1647
662.081	1059
662.136	1273
662.190	1429
662.244	1726
662.299	1719
662.353	2051
662.407	2029
662.461	1375
662.515	1573
662.569	1213
662.624	1766
662.678	1164
662.732	1244
662.786	1775
662.840	1775
662.894	796
662.948	1997
663.002	834
663.056	1333
663.110	782
663.164	1377
663.218	1526
663.272	2378
663.326	2163
663.380	2092
663.434	2055
663.488	1090
663.542	1802
663.595	2213
663.649	1376
663.703	2224
663.757	1794
663.811	1019
663.864	1139
663.918	1683
663.972	1097
664.026	1999
664.079	794
664.133	1992
664.187	1501
664.240	793
664.294	1083
664.348	1711
664.401	931
664.455	1476
664.508	668
664.562	1374
664.615	1381
664.669	805
664.722	1784
664.776	1158
664.829	1420
664.883	1846
664.936	905
664.990	1495
665.043	1153
665.097	2091
665.150	2702
665.203	1538
665.257	1443
665.310	1753
665.363	1774
665.417	1959
665.470	2053
665.523	1542
665.576	2252
665.630	1785
665.683	1833
665.736	1989
665.789	1631
665.842	579
665.895	2182
665.949	1767
666.002	1889
666.055	2138
666.108	2503
666.161	1671
666.214	2347
666.267	2498
666.320	2465
666.373	2401
666.426	2186
666.479	2119
666.532	1982
666.585	2930
666.638	3326
666.691	2268
666.744	3475
666.796	2768
666.849	2233
666.902	2573
666.955	1586
667.008	966
667.060	1993
667.113	1628
667.166	1932
667.219	1660
667.271	1802
667.324	1748
667.377	1275
667.430	1923
667.482	2138
667.535	2002
667.587	2302
667.640	2850
667.693	3299
667.745	4970
667.798	6179
667.850	2632
667.903	2157
667.955	2462
668.008	1773
668.060	2572
668.113	2028
668.165	2089
668.218	2032
668.270	2022
668.322	1994
668.375	2291
668.427	1782
668.479	2232
668.532	2445
668.584	2463
668.636	2024
668.689	2909
668.741	1451
668.793	2946
668.845	1549
668.898	2152
668.950	2161
669.002	1435
669.054	2171
669.106	2127
669.158	2681
669.211	2773
669.263	2818
669.315	2548
669.367	2610
669.419	1990
669.471	3121
669.523	3151
669.575	3974
669.627	2750
669.679	1960
669.731	3001
669.783	3202
669.835	3314
669.886	2660
669.938	2626
669.990	2330
670.042	2303
670.094	2477
670.146	3906
670.197	4557
670.249	5856
670.301	6736
670.353	10572
670.404	14309
670.456	20197
670.508	30813
670.560	50558
670.611	82827
670.663	143097
670.715	334482
670.766	587709
670.818	208713
670.869	33023
670.921	15366
670.972	11394
671.024	7607
671.075	6050
671.127	6034
671.178	4577
671.230	4927
671.281	3924
671.333	2790
671.384	4067
671.436	4390
671.487	6265
671.538	7211
671.590	10637
671.641	16845
671.692	29639
671.744	58194
671.795	37564
671.846	10824
671.897	5810
671.949	3972
672.000	4315
672.051	3043
672.102	3075
672.153	2132
672.204	2382
672.256	2776
672.307	2518
672.358	2025
672.409	2028
672.460	2457
672.511	1768
672.562	1960
672.613	2157
672.664	1872
672.715	2605
672.766	2050
672.817	1174
672.868	1975
672.919	1989
672.970	967
673.021	1634
673.071	1012
673.122	2243
673.173	1807
673.224	2297
673.275	1719
673.326	1577
673.376	1691
673.427	1890
673.478	1379
673.528	2028
673.579	1215
673.630	2115
673.680	2062
673.731	1678
673.782	1830
673.832	2389
673.883	1717
673.934	2278
673.984	1604
674.035	1339
674.085	2143
674.136	2451
674.186	1587
674.237	1946
674.287	4111
674.338	2215
674.388	1430
674.438	1376
674.489	1704
674.539	2235
674.589	2242
674.640	2691
674.690	1447
674.740	2016
674.791	2426
674.841	2659
674.891	2773
674.942	2171
674.992	2573
675.042	1318
675.092	1445
675.142	1556
675.193	1735
675.243	1517
675.293	2086
675.343	1841
675.393	792
675.443	2340
675.493	1650
675.543	1035
675.593	1433
675.643	2007
675.693	2212
675.743	1605
675.793	1410
675.843	1218
675.893	1265
675.943	1802
675.993	1279
676.043	1683
676.093	1526
676.142	1779
676.192	1202
676.242	1683
676.292	1575
676.341	886
676.391	1084
676.441	1192
676.491	1717
676.540	222
676.590	1387
676.640	1695
676.689	599
676.739	1047
676.789	1073
676.838	944
676.888	769
676.937	1578
676.987	618
677.037	370
677.086	797
677.136	906
677.185	820
677.235	522
677.284	407
677.333	463
677.383	820
677.432	564
677.482	673
677.531	1523
677.580	253
677.630	574
677.679	609
677.728	1482
677.778	1329
677.827	1000
677.876	206
677.925	1285
677.975	1486
678.024	1413
678.073	926
678.122	1109
678.171	1367
678.220	1352
678.269	1412
678.319	1359
678.368	1229
678.417	1045
678.466	1048
678.515	1441
678.564	274
678.613	873
678.662	1249
678.711	1755
678.760	716
678.809	985
678.857	1021
678.906	1277
678.955	760
679.004	1612
679.053	542
679.102	687
679.151	873
679.199	703
679.248	1022
679.297	1286
679.346	553
679.394	1168
679.443	767
679.492	1139
679.540	289
679.589	1700
679.638	1341
679.686	1531
679.735	1126
679.784	1305
679.832	1895
679.881	386
679.929	818
679.978	345
680.026	285
680.075	1131
680.123	883
680.172	811
680.220	-205
680.268	613
680.317	1181
680.365	763
680.414	242
680.462	1466
680.510	1313
680.559	666
680.607	915
680.655	975
680.703	488
680.752	1070
680.800	168
680.848	-154
680.896	102
680.945	1268
680.993	429
681.041	312
681.089	451
681.137	-163
681.185	840
681.233	262
681.258	448
681.281	608
681.329	1301
681.377	-40
681.380	-14
681.425	185
681.473	1911
681.502	1321
681.521	881
681.569	1949
681.617	1455
681.624	1377
681.665	776
681.713	1087
681.745	1096
681.761	1065
681.809	473
681.857	1572
681.867	1467
681.904	1070
681.952	1219
681.989	921
682.000	813
682.048	894
682.096	1062
682.111	922
682.143	535
682.191	639
682.233	1566
682.239	1694
682.286	1115
682.334	460
682.354	956
682.382	1600
682.430	1905
682.476	1695
682.477	1677
682.525	1768
682.572	1567
682.598	1556
682.620	1521
682.667	1181
682.715	1513
682.720	1545
682.763	1738
682.810	1983
682.841	2066
682.857	2074
682.905	849
682.952	2882
682.963	2635
683.000	1693
683.047	1567
683.085	1978
683.095	2081
683.142	2122
683.190	1864
683.206	1937
683.237	2055
683.284	2172
683.328	1484
683.332	1412
683.379	2042
683.426	1339
683.449	1560
683.473	1799
683.521	1623
683.568	1802
683.571	1778
683.615	1235
683.662	2551
683.693	2529
683.709	2509
683.757	2220
683.804	2245
683.814	2225
683.851	2097
683.898	2576
683.936	1843
683.945	1659
683.992	2630
684.039	2593
684.057	2548
684.086	2452
684.133	3150
684.179	2738
684.180	2712
684.227	3344
684.274	2711
684.300	2574
684.321	2446
684.368	2114
684.415	2434
684.422	2402
684.462	2062
684.509	1688
684.543	2588
684.556	2942
684.603	2232
684.649	2630
684.665	2433
684.696	2022
684.743	2846
684.786	2557
684.790	2526
684.837	2904
684.883	2972
684.908	3011
684.930	3036
684.977	3286
685.023	3079
685.029	3029
685.070	2413
685.117	2986
685.150	2712
685.164	2670
685.210	4091
685.257	3581
685.272	3499
685.303	3238
685.350	2844
685.393	3583
685.396	3639
685.443	3751
685.490	4624
685.514	4266
685.536	3911
685.583	4076
685.629	3494
685.636	3599
685.675	3964
685.722	3457
685.757	3574
685.768	3662
685.815	3149
685.861	4182
685.878	4119
685.908	4039
685.954	3593
686.000	4210
686.000	4219
686.047	3760
686.093	4844
686.121	5360
686.139	5513
686.185	4572
686.232	3213
686.242	3322
686.278	3697
686.324	3685
686.363	3086
686.370	3009
686.416	3421
686.463	3055
686.484	3244
686.509	3511
686.555	3425
686.601	4084
686.606	4099
686.647	3892
686.693	3698
686.727	3157
686.739	3061
686.785	3757
686.831	3714
686.848	3816
686.877	3842
686.923	3722
686.969	3576
686.969	3576
687.015	3679
687.061	3500
687.090	3702
687.107	3756
687.153	4162
687.199	3786
687.211	3823
687.245	4128
687.291	3951
687.332	4777
687.336	4842
687.382	4455
687.428	3862
687.453	4114
687.474	4256
687.520	4857
687.565	4275
687.574	4138
687.611	3714
687.657	3621
687.695	4213
687.702	4368
687.748	4800
687.794	4899
687.816	5109
687.839	5006
687.885	4855
687.931	3765
687.937	3773
687.976	4190
688.022	4935
688.058	4927
688.067	4881
688.113	4563
688.158	4120
688.179	4024
688.204	4020
688.249	4192
688.295	4181
688.300	4242
688.340	4821
688.386	4653
688.421	4706
688.431	4702
688.477	4662
688.522	5281
688.542	5281
688.567	5182
688.613	5009
688.658	4972
688.663	4964
688.703	5052
688.749	4602
688.784	4850
688.794	4916
688.839	4442
688.884	4802
688.905	4762
688.930	4709
688.975	4719
689.020	5115
689.026	5048
689.065	4788
689.110	4321
689.146	4600
689.155	4633
689.201	4966
689.246	4841
689.267	4494
689.291	4149
689.336	4816
689.381	4554
689.388	4578
689.426	4845
689.471	5075
689.509	4849
689.516	4798
689.561	4700
689.606	4486
689.630	4460
689.651	4492
689.696	4756
689.741	5197
689.750	5185
689.785	5010
689.830	5016
689.871	4625
689.875	4606
689.920	4506
689.965	4804
689.992	4599
690.010	4437
690.054	4025
690.099	4303
690.112	4359
690.144	4640
690.189	4147
690.233	4391
690.233	4400
690.278	4822
690.323	4732
690.354	5025
690.367	5134
690.412	5054
690.457	5108
690.474	5181
690.501	5068
690.546	4838
690.590	4338
690.595	4286
690.635	4377
690.680	4641
690.716	4525
690.724	4470
690.769	4420
690.813	4895
690.836	4701
690.857	4751
690.902	5110
690.946	6011
690.957	6104
690.991	6328
691.035	6375
691.077	6794
691.080	6809
691.124	6591
691.168	6309
691.198	6278
691.213	6312
691.257	6474
691.301	6386
691.318	6352
691.346	6169
691.390	5940
691.434	5301
691.439	5292
691.478	5621
691.522	5424
691.559	5950
691.567	6084
691.611	5992
691.655	6022
691.680	6121
691.699	6079
691.743	5842
691.787	5642
691.800	5533
691.831	5315
691.875	5473
691.919	5458
691.921	5438
691.964	5780
692.008	6186
692.041	6410
692.052	6300
692.096	6090
692.139	5778
692.162	5569
692.183	5594
692.227	5498
692.271	5748
692.282	5746
692.315	5890
692.359	6136
692.402	6139
692.403	6152
692.447	6350
692.490	6515
692.523	6610
692.534	6596
692.578	6458
692.622	6590
692.643	6360
692.666	6152
692.709	6227
692.753	6188
692.763	6181
692.797	6249
692.840	6142
692.884	6029
692.884	6040
692.928	5591
692.971	5635
693.004	5161
693.015	5188
693.059	5960
693.102	6034
693.124	6208
693.146	6227
693.189	6396
693.233	6338
693.245	6341
693.276	6674
693.320	6886
693.363	7336
693.365	7331
693.407	7030
693.450	6791
693.485	6352
693.493	6380
693.537	6842
693.580	6957
693.605	7181
693.624	7298
693.667	7472
693.710	7593
693.725	7714
693.753	8744
693.797	10045
693.840	11457
693.845	11601
693.883	11145
693.926	10254
693.966	9325
693.970	9202
694.013	8147
694.056	7118
694.086	6233
694.099	6282
694.142	6539
694.185	6781
694.206	6796
694.229	6768
694.272	7084
694.315	6990
694.326	7015
694.358	7341
694.401	7787
694.444	7756
694.446	7764
694.487	8061
694.530	7694
694.566	7842
694.573	7829
694.616	7462
694.659	6825
694.686	6755
694.702	6778
694.745	6182
694.787	6136
694.806	5999
694.830	6157
694.873	6294
694.916	6461
694.926	6534
694.959	6588
695.002	6340
695.044	6252
695.046	6237
695.087	6573
695.130	6773
695.166	6917
695.172	6961
695.215	7000
695.258	7159
695.286	7193
695.301	7181
695.343	7203
695.386	7188
695.406	7049
695.428	6914
695.471	6953
695.514	6969
695.526	6933
695.556	7179
695.599	7614
695.641	7754
695.646	7775
695.684	7808
695.726	7788
695.766	7597
695.769	7598
695.811	7489
695.854	7225
695.886	7165
695.896	7164
695.938	6820
695.981	6612
696.005	6486
696.023	6760
696.065	7259
696.108	8005
696.125	8212
696.150	8179
696.192	8158
696.235	8028
696.245	7974
696.277	7802
696.319	7695
696.361	7494
696.365	7463
696.404	7646
696.446	7666
696.485	7745
696.488	7773
696.530	7838
696.572	7864
696.604	7916
696.614	7939
696.656	7952
696.698	7957
696.724	7926
696.740	7961
696.783	7882
696.825	8075
696.844	8030
696.867	8044
696.909	8216
696.951	8133
696.964	8144
696.992	8098
697.034	7805
697.076	7744
697.083	7681
697.118	7846
697.160	8213
697.202	8420
697.203	8402
697.244	8418
697.286	8447
697.323	8403
697.327	8443
697.369	8558
697.411	8735
697.442	8858
697.453	8927
697.494	9110
697.536	9188
697.562	9279
697.578	9307
697.620	9185
697.661	9167
697.682	9108
697.703	9353
697.744	9832
697.786	10352
697.801	10474
697.828	10514
697.869	10546
697.911	10633
697.921	10603
697.952	10222
697.994	9802
698.035	9269
698.040	9184
698.077	9075
698.118	8914
698.160	8745
698.160	8719
698.201	8715
698.243	8640
698.279	8593
698.284	8624
698.325	8687
698.367	8706
698.399	8698
698.408	8735
698.449	8793
698.491	8889
698.518	8877
698.532	8925
698.573	9033
698.614	9137
698.638	9172
698.656	9229
698.697	9286
698.738	9370
698.757	9373
698.779	9543
698.820	9820
698.862	10100
698.877	10168
698.903	10162
698.944	10123
698.985	10084
698.996	10045
699.026	9932
699.067	9739
699.116	9484
699.235	9040
699.354	9832
699.474	9267
699.593	10397
699.713	10163
699.832	10338
699.951	10337
700.070	10107
700.190	9236
700.309	9591
700.428	9130
700.547	9028
700.667	8482
700.786	8865
700.905	8704
701.024	9913
701.143	7726
701.262	7764
701.381	8132
701.500	8922
701.619	9502
701.738	8938
701.857	8358
701.976	7746
702.095	7522
702.214	8873
702.333	9222
702.452	8621
702.571	8519
702.690	8508
702.809	8453
702.928	8058
703.047	7574
703.165	8202
703.284	7990
703.403	7145
703.522	8561
703.640	9661
703.759	9828
703.878	12176
703.997	7684
704.115	7650
704.234	6957
704.353	6914
704.471	7743
704.590	5962
704.708	7409
704.827	6989
704.946	7245
705.064	6713
705.183	6907
705.301	8236
705.420	11113
705.538	9353
705.656	8583
705.775	8409
705.893	10625
706.012	12203
706.130	9122
706.249	8291
706.367	9094
706.485	8743
706.604	9062
706.722	8868
706.840	10962
706.958	11274
707.077	8626
707.195	8301
707.313	8842
707.431	7864
707.549	7018
707.668	8060
707.786	9531
707.904	7545
708.022	8285
708.140	7320
708.258	7338
708.376	7952
708.494	7889
708.612	9308
708.730	11124
708.848	10142
708.966	10372
709.084	9911
709.202	10140
709.320	9696
709.438	9642
709.556	8864
709.674	8531
709.791	9653
709.909	8361
710.027	8204
710.145	8432
710.263	8610
710.380	8636
710.498	8557
710.616	8730
710.733	8161
710.851	8492
710.969	9459
711.086	8444
711.204	8488
711.322	8671
711.439	8263
711.557	9055
711.674	7785
711.792	8435
711.909	8692
712.027	8162
712.144	7852
712.262	8870
712.379	8995
712.497	12364
712.614	12447
712.732	10388
712.849	9927
712.966	10849
713.084	13253
713.201	9603
713.318	10231
713.436	10232
713.553	10079
713.670	9952
713.787	11356
713.905	10905
714.022	9815
714.139	9844
714.256	13352
714.373	16301
714.490	29035
714.608	71474
714.725	324203
714.842	365669
714.959	25315
715.076	12645
715.193	10809
715.310	10916
715.427	8963
715.544	9137
715.661	9345
715.778	8845
715.895	9210
716.011	9512
716.128	8416
716.245	8618
716.362	11162
716.479	11373
716.596	9295
716.713	8863
716.829	8391
716.946	8145
717.063	7507
717.180	7977
717.296	7802
717.413	7369
717.530	7661
717.646	7957
717.763	7652
717.880	7374
717.996	7362
718.113	7453
718.229	6263
718.346	7515
718.462	7695
718.579	9094
718.695	16879
718.812	12699
718.928	10196
719.045	7972
719.161	6975
719.277	7074
719.394	6562
719.510	7105
719.626	6862
719.743	9381
719.859	11535
719.975	22641
720.092	85886
720.208	212746
720.324	27431
720.440	8574
720.557	9197
720.673	13302
720.789	16699
720.905	29494
721.021	11698
721.137	7180
721.253	7270
721.369	6473
721.486	7664
721.602	10512
721.718	7214
721.834	6401
721.950	6160
722.066	5925
722.181	5878
722.297	6574
722.413	6726
722.529	6074
722.645	5573
722.761	5344
722.877	4430
722.993	5853
723.108	7191
723.224	6576
723.340	5411
723.456	5156
723.571	6200
723.687	4370
723.803	5116
723.918	5138
724.034	5090
724.150	5383
724.265	6461
724.381	11206
724.497	14538
724.612	5262
724.728	4973
724.843	5403
724.959	6309
725.074	11391
725.190	13935
725.305	5739
725.421	5612
725.536	4587
725.651	4695
725.767	4655
725.882	4544
725.997	4876
726.113	4470
726.228	4566
726.343	4406
726.459	4493
726.574	4694
726.689	4116
726.804	3335
726.920	4299
727.035	4565
727.150	4678
727.265	4767
727.380	4102
727.495	4909
727.610	3553
727.725	4302
727.841	3899
727.956	5621
728.071	5991
728.186	4820
728.301	3686
728.416	3735
728.531	4870
728.645	3391
728.760	4213
728.875	5986
728.990	5794
729.105	4560
729.220	4587
729.335	4584
729.449	3714
729.564	3719
729.679	3612
729.794	3754
729.908	4094
730.023	3357
730.138	4201
730.253	3288
730.367	3267
730.482	3208
730.596	3516
730.711	4517
730.826	4166
730.940	4328
731.055	4077
731.169	3385
731.284	3057
731.398	4110
731.513	4220
731.627	4325
731.742	4970
731.856	5188
731.970	4757
732.085	5794
732.199	7329
732.313	11592
732.428	31578
732.542	107663
732.656	68876
732.771	10586
732.885	5911
732.999	5125
733.113	5691
733.227	6388
733.342	4913
733.456	5394
733.570	4805
733.684	4365
733.798	4992
733.912	5215
734.026	4530
734.140	4694
734.254	5373
734.368	7154
734.482	9273
734.596	4570
734.710	5080
734.824	4551
734.938	4141
735.052	4584
735.166	4849
735.280	5816
735.393	3605
735.507	4279
735.621	5266
735.735	8497
735.849	4703
735.962	4165
736.076	4382
736.190	4498
736.303	5943
736.417	8172
736.531	3270
736.644	4370
736.758	2987
736.872	3760
736.985	4558
737.099	3615
737.212	3361
737.326	3872
737.439	4282
737.553	4058
737.666	3423
737.780	2887
737.893	4366
738.007	3488
738.120	3343
738.233	3330
738.347	3445
738.460	4795
738.573	3980
738.687	4003
738.800	3675
738.913	5234
739.026	4185
739.140	3297
739.253	2928
739.366	3384
739.479	3285
739.592	3226
739.705	3478
739.818	4086
739.932	3790
740.045	3665
740.158	3960
740.271	3419
740.384	3799
740.497	3599
740.610	4051
740.723	3684
740.836	3954
740.949	5664
741.062	5411
741.174	4912
741.287	4207
741.400	4076
741.513	3521
741.626	4542
741.739	3517
741.851	3231
741.964	3117
742.077	3338
742.189	4021
742.302	4881
742.415	3483
742.527	3861
742.640	3143
742.753	2811
742.865	2091
742.978	2899
743.090	2461
743.203	2483
743.316	2410
743.428	2535
743.541	2798
743.653	2546
743.766	2746
743.878	2631
743.990	4106
744.103	4441
744.215	3336
744.327	2828
744.440	4040
744.552	7111
744.664	3267
744.777	2060
744.889	1800
745.001	3268
745.113	2373
745.226	2514
745.338	2677
745.450	2796
745.562	2151
745.674	1994
745.786	2360
745.898	2464
746.010	3034
746.122	2096
746.234	2716
746.347	2431
746.459	2179
746.570	2793
746.682	3062
746.794	3522
746.906	3264
747.018	2443
747.130	2284
747.242	2304
747.354	1544
747.466	2731
747.577	1918
747.689	1964
747.801	2918
747.913	2177
748.024	2562
748.136	2063
748.248	2233
748.359	2497
748.471	1925
748.583	2576
748.694	2029
748.806	2935
748.918	2662
749.029	2927
749.141	2634
749.252	3433
749.364	3028
749.475	7721
749.587	4337
749.698	2592
749.809	2256
749.921	1999
750.032	1745
750.144	1894
750.255	1280
750.366	1329
750.478	1841
750.589	2295
750.700	2937
750.811	2833
750.923	3439
751.034	8013
751.145	8869
751.256	2106
751.367	1659
751.479	2014
751.590	2058
751.701	1199
751.812	1830
751.923	2209
752.034	1491
752.145	2268
752.256	1814
752.367	1972
752.478	1512
752.589	2556
752.700	1144
752.811	1696
752.922	1276
753.032	2243
753.143	2469
753.254	1288
753.365	1623
753.476	1802
753.586	1857
753.697	1991
753.808	1845
753.919	1209
754.029	1693
754.140	2030
754.251	1593
754.361	1425
754.472	1947
754.582	1760
754.693	1874
754.804	2223
754.914	1439
755.025	1858
755.135	1763
755.246	2004
755.356	821
755.466	2309
755.577	1980
755.687	1606
755.798	1163
755.908	973
756.018	1908
756.129	1408
756.239	1814
756.349	1952
756.460	1029
756.570	2449
756.680	1727
756.790	1212
756.900	2476
757.011	1591
757.121	1352
757.231	2006
757.341	1448
757.451	1264
757.561	1097
757.671	1413
757.781	1414
757.891	1782
758.001	1841
758.111	1821
758.221	1703
758.331	3285
758.441	1467
758.551	3433
758.661	3800
758.771	2574
758.880	1932
758.990	2071
759.100	1422
759.210	1919
759.320	1974
759.429	1804
759.539	2397
759.649	1772
759.758	1886
759.868	3122
759.978	2564
760.087	2445
760.197	2911
760.307	2527
760.416	1983
760.526	1295
760.635	2190
760.745	2406
760.854	2697
760.964	2674
761.073	2334
761.182	2599
761.292	1888
761.401	2987
761.511	1867
761.620	2367
761.729	1482
761.839	2124
761.948	2431
762.057	2244
762.166	1949
762.276	1021
762.385	2221
762.494	713
762.603	1500
762.712	2305
762.822	1723
762.931	2048
763.040	1984
763.149	2359
763.258	2051
763.367	2328
763.476	2283
763.585	1826
763.694	2645
763.803	3137
763.912	2557
764.021	2093
764.130	2038
764.238	2117
764.347	1897
764.456	2684
764.565	2502
764.674	1402
764.783	2410
764.891	1674
765.000	2832
765.109	3448
765.217	3563
765.326	4256
765.435	4022
765.543	4300
765.652	5030
765.761	6762
765.869	9035
765.978	14141
766.086	27126
766.195	54508
766.303	148200
766.412	427098
766.520	351340
766.629	81644
766.737	27761
766.846	15480
766.954	10702
767.062	10047
767.171	7195
767.279	5266
767.387	3759
767.496	4366
767.604	4120
767.712	3422
767.820	3317
767.928	3151
768.037	3273
768.145	4328
768.253	3252
768.361	2695
768.469	2617
768.577	2513
768.685	3410
768.793	3182
768.901	2343
769.009	3160
769.117	3998
769.225	4406
769.333	6979
769.441	11592
769.549	21362
769.657	52462
769.765	177153
769.873	363467
769.981	113823
770.088	22553
770.196	10860
770.304	8587
770.412	6228
770.519	4687
770.627	4014
770.735	3926
770.842	3252
770.950	2829
771.058	2710
771.165	3031
771.273	2441
771.380	2418
771.488	3089
771.595	3107
771.703	3374
771.810	4016
771.918	2171
772.025	3317
772.133	3284
772.240	3297
772.348	4204
772.455	4068
772.562	2622
772.670	2686
772.777	3214
772.884	3043
772.991	3364
773.099	3092
773.206	2208
773.313	2329
773.420	2503
773.528	2365
773.635	2373
773.742	3506
773.849	2965
773.956	2792
774.063	2885
774.170	3453
774.277	2931
774.384	2277
774.491	2507
774.598	2748
774.705	2688
774.812	3822
774.919	3124
775.026	2120
775.133	2553
775.239	2655
775.346	3219
775.453	3014
775.560	2056
775.667	2791
775.773	1942
775.880	3669
775.987	2263
776.093	3041
776.200	2027
776.307	2427
776.413	2886
776.520	2476
776.627	3208
776.733	1920
776.840	1739
776.946	3679
777.053	3388
777.159	5799
777.266	4707
777.372	5442
777.478	4766
777.585	3875
777.691	2198
777.798	2251
777.904	2772
778.010	4432
778.117	3713
778.223	2619
778.329	3151
778.435	2293
778.542	2377
778.648	1974
778.754	1756
778.860	3253
778.966	2324
779.072	2248
779.178	1956
779.284	2033
779.391	1431
779.497	1802
779.603	3199
779.708	2098
779.815	3570
779.920	5808
780.026	8339
780.132	2963
780.238	1916
780.344	1936
780.450	3001
780.556	1993
780.661	1078
780.767	2274
780.873	1913
780.979	2927
781.085	2010
781.190	1648
781.296	1237
781.402	1548
781.507	1470
781.613	1809
781.719	556
781.824	2326
781.930	1859
782.035	1561
782.141	1549
782.246	1557
782.352	1688
782.457	1385
782.563	1575
782.668	1431
782.773	2097
782.879	779
782.984	1619
783.090	2305
783.195	4551
783.300	2929
783.405	1225
783.511	1883
783.616	1153
783.721	1886
783.826	1791
783.932	1930
784.037	2377
784.142	2110
784.247	859
784.352	1757
784.457	1426
784.562	1514
784.667	1740
784.772	942
784.877	473
784.982	1229
785.087	313
785.192	1894
785.297	1029
785.402	1836
785.507	1573
785.611	1642
785.716	729
785.821	1502
785.926	799
786.031	1451
786.135	1045
786.240	1967
786.345	-786
786.450	423
786.554	934
786.659	754
786.763	249
786.868	2095
786.973	1864
787.077	1412
787.182	1344
787.286	1607
787.391	1394
787.495	119
787.600	1007
787.704	975
787.809	2104
787.913	961
788.017	1646
788.122	1689
788.226	648
788.330	476
788.435	588
788.539	1214
788.643	902
788.747	1476
788.852	1028
788.956	868
789.060	1157
789.164	1763
789.268	1167
789.372	2189
789.476	138
789.580	301
789.684	1133
789.788	1045
789.892	1041
789.996	1273
790.100	596
790.204	1172
790.308	1030
790.412	497
790.516	560
790.620	464
790.724	1108
790.828	1198
790.931	321
791.035	1690
791.139	639
791.242	212
791.346	1830
791.450	1533
791.554	1268
791.657	-524
791.761	1898
791.864	2040
791.968	1341
792.072	1837
792.175	637
792.279	1254
792.382	808
792.486	689
792.589	500
792.693	665
792.796	-387
792.899	1776
793.003	938
793.106	302
793.209	332
793.313	2034
793.416	-638
793.519	2191
793.623	2407
793.726	3932
793.829	1819
793.932	1176
794.035	1210
794.138	1332
794.242	1474
794.345	1559
794.448	1816
794.551	2785
794.654	4082
794.757	4898
794.860	1809
794.963	1213
795.066	561
795.169	1210
795.272	246
795.375	1675
795.477	-143
795.580	646
795.683	-685
795.786	1233
795.889	-936
795.991	1296
796.094	941
796.197	-79
796.300	1463
796.402	753
796.505	419
796.608	351
796.710	351
796.813	643
796.915	860
797.018	1198
797.120	93
797.223	231
797.326	712
797.428	653
797.530	596
797.633	784
797.735	1968
797.838	758
797.940	2067
798.042	202
798.145	-159
798.247	897
798.349	-109
798.452	1077
798.554	998
798.656	692
798.758	1591
798.860	124
798.962	433
799.065	-274
799.167	-458
799.269	1197
799.371	1207
799.473	1623
799.575	101
799.677	1964
799.779	2372
799.881	1322
799.983	1222
800.085	930
800.187	342
800.289	-114
800.390	962
800.492	514
800.594	686
800.696	622
800.798	364
800.899	677
801.001	249
801.103	398
801.205	1028
801.306	587
801.408	33
801.509	190
801.611	868
801.713	437
801.814	165
801.916	369
802.017	388
802.119	-155
802.220	-155
802.322	-860
802.423	2449
802.525	-452
802.626	137
802.727	1614
802.829	667
802.930	-282
803.031	1135
803.133	411
803.234	168
803.335	558
803.436	142
803.538	526
803.639	-364
803.740	64
803.841	504
803.942	1086
804.043	1090
804.144	259
804.245	432
804.346	800
804.447	-495
804.548	1054
804.649	2111
804.750	331
804.851	2
804.952	-647
805.053	-34
805.154	-609
805.255	1068
805.355	802
805.456	-627
805.557	-447
805.658	-452
805.758	582
805.859	17
805.960	28
806.061	-763
806.161	-108
806.262	291
806.362	191
806.463	59
806.564	-22
806.664	579
806.765	462
806.865	288
806.966	-544
807.066	59
807.166	530
807.267	748
807.367	-33
807.468	640
807.568	-796
807.668	697
807.769	627
807.869	-137
807.969	159
808.069	155
808.170	430
808.270	-74
808.370	-165
808.470	848
808.570	254
808.670	-226
808.770	325
808.870	-127
808.970	85
809.070	-453
809.170	417
809.271	1400
809.370	1278
809.470	-253
809.570	256
809.670	-365
809.770	108
809.870	75
809.970	599
810.070	282
810.169	534
810.269	-711
810.369	1253
810.469	-178
810.568	-44
810.668	-939
810.768	-492
810.867	-686
810.967	-211
811.066	144
811.166	-341
811.265	569
811.365	292
811.464	-378
811.564	589
811.663	143
811.763	-824
811.862	606
811.962	717
812.061	0
812.160	-450
812.260	229
812.359	451
812.458	901
812.557	3301
812.657	3829
812.756	1589
812.855	-291
812.954	96
813.053	191
813.153	96
813.252	-861
813.351	337
813.450	69
813.549	-510
813.648	520
813.747	162
813.846	-238
813.945	474
814.044	-688
814.143	-584
814.242	755
814.341	-876
814.439	423
814.538	1091
814.637	246
814.736	738
814.835	803
814.933	454
815.032	767
815.131	1561
815.229	785
815.328	2081
815.427	534
815.525	1614
815.624	1218
815.722	469
815.821	804
815.919	963
816.018	987
816.116	1706
816.215	941
816.313	1290
816.412	1422
816.510	2008
816.609	2564
816.707	2660
816.805	1165
816.904	1615
817.002	1961
817.100	2580
817.198	2878
817.296	1742
817.395	2188
817.493	2890
817.591	1554
817.689	4101
817.787	4890
817.885	8533
817.983	14487
818.081	33583
818.179	81695
818.277	211968
818.375	171689
818.473	36909
818.571	13277
818.669	10137
818.767	8979
818.865	8270
818.963	10060
819.061	16475
819.158	29246
819.256	68423
819.354	161698
819.452	363101
819.549	213281
819.647	46604
819.745	16875
819.842	11855
819.940	7855
820.038	5503
820.135	4753
820.233	4447
820.330	2885
820.428	2537
820.525	3243
820.623	2510
820.720	1620
820.818	2308
820.915	2205
821.012	2113
821.110	586
821.207	2392
821.304	977
821.402	2085
821.499	2304
821.596	3097
821.693	2195
821.791	3070
821.888	1695
821.985	5110
822.082	3394
822.179	2786
822.276	2207
822.373	1280
822.470	627
822.567	1630
822.664	257
822.761	1157
822.858	458
822.955	1093
823.052	1240
823.149	191
823.246	1061
823.343	995
823.440	429
823.536	969
823.633	-331
823.730	528
823.827	511
823.923	474
824.020	1401
824.117	289
824.213	-185
824.310	435
824.407	1040
824.503	1118
824.600	652
824.696	439
824.793	1310
824.889	950
824.986	165
825.082	64
825.179	570
825.275	391
825.371	111
825.468	753
825.564	409
825.660	1342
825.757	509
825.853	137
825.949	-445
826.045	595
826.142	214
826.238	30
826.334	1122
826.430	510
826.526	556
826.622	337
826.718	794
826.814	309
826.910	1237
827.006	316
827.102	-179
827.198	642
827.294	-213
827.390	320
827.486	512
827.582	-443
827.678	-651
827.774	737
827.869	-1339
827.965	688
828.061	20
828.157	160
828.252	70
828.348	-731
828.444	834
828.539	-216
828.635	167
828.731	963
828.826	-801
828.922	931
829.017	-305
829.113	766
829.208	-803
829.304	159
829.399	676
829.495	-63
829.590	737
829.685	-126
829.781	378
829.876	375
829.971	181
830.066	-111
830.162	22
830.257	465
830.352	-343
830.447	1171
830.543	-335
830.638	2
830.733	593
830.828	-481
830.923	492
831.018	490
831.113	293
831.208	-343
831.303	-207
831.398	10
831.493	-689
831.588	602
831.683	-103
831.778	628
831.873	370
831.967	518
832.062	-496
832.157	-413
832.252	194
832.346	-24
832.441	1149
832.536	1503
832.631	4193
832.725	3021
832.820	-845
832.914	-622
833.009	-899
833.104	-89
833.198	767
833.293	283
833.387	38
833.482	-283
833.576	19
833.670	313
833.765	410
833.859	831
833.954	795
834.048	123
834.142	1051
834.237	-1073
834.331	-345
834.425	330
834.519	-1
834.613	1195
834.708	150
834.802	66
834.896	-393
834.990	179
835.084	525
835.178	-356
835.272	-374
835.366	196
835.460	528
835.554	242
835.648	-117
835.742	-311
835.836	518
835.930	-1510
836.024	375
836.117	379
836.211	-57
836.305	520
836.399	495
836.493	-771
836.586	1167
836.680	-218
836.774	-119
836.867	571
836.961	-1111
837.055	-949
837.148	-646
837.242	285
837.335	-390
837.429	-293
837.522	-813
837.616	-218
837.709	934
837.803	1219
837.896	9
837.989	95
838.083	447
838.176	1463
838.269	1114
838.363	925
838.456	-175
838.549	1046
838.642	572
838.735	3697
838.829	1673
838.922	118
839.015	-34
839.108	-78
839.201	-682
839.294	534
839.387	308
839.480	-153
839.573	25
839.666	820
839.759	-624
839.852	-1098
839.945	-436
840.038	149
840.131	-351
840.223	-502
840.316	-38
840.409	356
840.502	-1333
840.594	238
840.687	-382
840.780	80
840.873	-410
840.965	-136
841.058	622
841.150	1391
841.243	541
841.336	122
841.428	121
841.521	-461
841.613	-858
841.706	208
841.798	-838
841.890	-313
841.983	-803
842.075	-163
842.167	626
842.260	464
842.352	482
842.444	705
842.537	1608
842.629	2654
842.721	-615
842.813	495
842.905	-1089
842.997	-402
843.090	-129
843.182	1435
843.274	444
843.366	5420
843.458	9345
843.550	5522
843.642	821
843.734	505
843.826	38
843.918	-331
844.009	870
844.101	-603
844.193	-698
844.285	-349
844.377	-294
844.469	1129
844.560	725
844.652	748
844.744	163
844.835	-157
844.927	-214
845.019	809
845.110	83
845.202	190
845.293	-251
845.385	-1731
845.476	-815
845.568	-22
845.659	-46
845.751	22
845.842	-943
845.934	-6
846.025	-500
846.116	233
846.208	82
846.299	-953
846.390	-512
846.482	-307
846.573	345
846.664	702
846.755	855
846.846	1394
846.937	-915
847.029	772
847.120	-493
847.211	-558
847.302	339
847.393	-618
847.484	-438
847.575	-899
847.666	-806
847.757	-353
847.847	-1312
847.938	854
848.029	-237
848.120	-376
848.211	-991
848.302	-149
848.392	-178
848.483	7
848.574	-1145
848.664	-74
848.755	-397
848.846	747
848.936	10
849.027	7
849.118	-838
849.208	17
849.299	718
849.389	2399
849.480	4625
849.570	12126
849.661	23581
849.751	44861
849.841	15828
849.932	1448
850.022	141
850.112	292
850.203	-782
850.293	166
850.383	-445
850.474	-650
850.564	-467
850.654	-732
850.744	-105
850.834	-122
850.924	25
851.014	766
851.104	-602
851.194	-189
851.284	-266
851.374	159
851.464	191
851.554	-350
851.644	-441
851.734	1290
851.824	389
851.914	-1089
852.004	-113
852.094	-286
852.183	-627
852.273	-723
852.363	-756
852.452	-444
852.542	-318
852.632	-355
852.721	-362
852.811	-1071
852.901	334
852.990	-813
853.080	449
853.169	868
853.259	289
853.348	501
853.438	909
853.527	1848
853.617	3421
853.706	8503
853.795	15654
853.885	38290
853.974	73424
854.063	132555
854.152	224825
854.242	88582
854.331	11969
854.420	3887
854.509	2182
854.598	2437
854.687	1097
854.777	1533
854.866	872
854.955	1177
855.044	-547
855.133	66
855.222	395
855.311	-820
855.400	-432
855.488	-373
855.577	-31
855.666	-144
855.755	81
855.844	385
855.933	-306
856.021	-231
856.110	592
856.199	-528
856.288	-317
856.376	-1240
856.465	-825
856.554	-28
856.642	-687
856.731	95
856.819	-438
856.908	-486
856.996	69
857.085	-166
857.173	-869
857.262	-571
857.350	-21
857.438	98
857.527	-738
857.615	324
857.703	-361
857.792	-248
857.880	-109
857.968	-744
858.056	-818
858.145	-140
858.233	-5
858.321	-164
858.409	-380
858.497	-607
858.585	-632
858.673	-408
858.761	-797
858.849	-473
858.937	-863
859.025	54
859.113	914
859.201	-622
859.289	-44
859.377	-135
859.465	56
859.552	-453
859.640	-782
859.728	-646
859.816	-562
859.903	101
859.991	-911
860.079	861
860.166	-720
860.254	-294
860.342	-475
860.429	-1186
860.517	-509
860.604	-92
860.692	-61
860.779	-981
860.867	-358
860.954	-911
861.042	-312
861.129	-305
861.216	-1
861.304	-817
861.391	-449
861.478	-291
861.565	-572
861.653	-146
861.740	-254
861.827	-325
861.914	-278
862.001	-287
862.089	-978
862.176	-621
862.263	-423
862.350	474
862.437	-974
862.524	-475
862.611	336
862.698	-360
862.785	57
862.871	416
862.958	-156
863.045	-131
863.132	-379
863.219	-915
863.306	-891
863.392	-456
863.479	-768
863.566	-1017
863.652	-36
863.739	-883
863.826	-209
863.912	-1019
863.999	-236
864.086	157
864.172	-837
864.259	-430
864.345	14
864.432	-62
864.518	-747
864.604	-234
864.691	-103
864.777	494
864.863	1359
864.950	188
865.036	744
865.122	1265
865.209	1279
865.295	2361
865.381	1662
865.467	2420
865.553	3323
865.639	5411
865.726	8427
865.812	18455
865.898	38420
865.984	57488
866.070	105569
866.156	126930
866.242	32460
866.328	6337
866.414	2084
866.499	2316
866.585	1892
866.671	2057
866.757	1458
866.843	1527
866.928	1453
867.014	372
867.100	1394
867.186	1453
867.271	860
867.357	1553
867.442	2645
867.528	1315
867.614	1240
867.699	1512
867.785	1196
867.870	1329
867.956	1267
868.041	1680
868.127	1015
868.212	1032
868.297	1889
868.383	1522
868.468	1988
868.553	2867
868.639	3183
868.724	4663
868.809	5759
868.894	1864
868.979	656
869.065	1532
869.150	209
869.235	649
869.320	405
869.405	341
869.490	1006
869.575	171
869.660	318
869.745	679
869.830	500
869.915	556
870.000	91
870.085	-381
870.169	190
870.254	1723
870.339	285
870.424	-1182
870.509	900
870.593	787
870.678	1089
870.763	47
870.847	670
870.932	833
871.016	506
871.101	287
871.186	756
871.270	1036
871.355	160
871.439	152
871.523	628
871.608	479
871.692	430
871.777	704
871.861	315
871.945	483
872.030	-133
872.114	148
872.198	-159
872.282	178
872.367	132
872.451	194
872.535	674
872.619	359
872.703	566
872.787	248
872.871	-466
872.955	-525
873.039	16
873.123	146
873.207	916
873.291	460
873.375	-505
873.459	457
873.543	-269
873.627	136
873.711	303
873.794	-247
873.878	-308
873.962	-181
874.045	-655
874.129	63
874.137	67
874.213	109
874.245	69
874.296	5
874.352	-721
874.380	-1078
874.460	471
874.464	533
874.547	-406
874.568	-229
874.631	280
874.676	-35
874.714	-311
874.784	456
874.798	616
874.881	1244
874.892	1125
874.965	284
874.999	119
875.048	-125
875.107	-394
875.131	-505
875.215	-184
875.215	-184
875.298	37
875.323	51
875.381	156
875.430	262
875.465	328
875.538	196
875.548	155
875.631	179
875.646	4
875.714	-706
875.753	-315
875.798	136
875.861	179
875.881	197
875.964	30
875.968	42
876.047	215
876.076	380
876.130	689
876.183	860
876.213	953
876.291	1710
876.296	1758
876.379	-195
876.398	-93
876.462	305
876.506	-96
876.545	-469
876.613	-26
876.628	70
876.711	140
876.721	184
876.794	596
876.828	598
876.877	547
876.935	296
876.960	201
877.043	603
877.043	604
877.125	985
877.150	931
877.208	844
877.258	688
877.291	568
877.365	684
877.374	684
877.456	759
877.472	754
877.539	973
877.579	1303
877.622	1579
877.687	1280
877.704	1191
877.787	727
877.794	693
877.869	315
877.901	561
877.952	960
878.008	765
878.034	677
878.115	652
878.117	658
878.199	343
878.222	519
878.282	814
878.329	932
878.364	1111
878.437	1120
878.447	1073
878.529	363
878.544	426
878.611	1029
878.651	659
878.694	232
878.758	858
878.776	993
878.858	688
878.865	692
878.941	768
878.972	671
879.023	680
879.078	783
879.105	850
879.185	844
879.187	843
879.269	1419
879.292	1117
879.351	300
879.399	558
879.433	743
879.506	821
879.516	864
879.598	649
879.613	665
879.680	653
879.720	815
879.762	971
879.827	1029
879.844	1048
879.926	635
879.933	687
880.007	1315
880.040	1299
880.089	1250
880.147	1712
880.171	2022
880.253	3799
880.254	3803
880.335	4854
880.360	5244
880.417	7465
880.467	11181
880.499	13862
880.574	17911
880.580	17650
880.662	7020
880.680	5471
880.744	2260
880.787	1267
880.825	1270
880.893	1086
880.907	981
880.989	703
881.000	647
881.070	850
881.106	976
881.152	960
881.213	704
881.233	729
881.315	1350
881.319	1367
881.396	1424
881.426	1114
881.478	484
881.532	688
881.559	898
881.639	1383
881.641	1386
881.722	362
881.745	322
881.803	849
881.852	1022
881.885	919
881.958	1277
881.966	1333
882.047	1556
882.064	1496
882.129	1233
882.171	1300
882.210	1952
882.277	3195
882.291	3218
882.372	2448
882.383	2420
882.454	1932
882.489	1510
882.535	1304
882.596	1310
882.616	1261
882.697	616
882.702	589
882.778	1083
882.808	1216
882.859	641
882.914	205
882.940	385
883.020	1023
883.021	1030
883.102	924
883.127	1077
883.183	1645
883.233	1501
883.264	1230
883.339	1180
883.345	1145
883.426	471
883.445	369
883.507	901
883.551	1105
883.587	1227
883.657	1489
883.668	1520
883.749	2098
883.763	2027
883.830	1186
883.869	1057
883.910	1000
883.975	866
883.991	954
884.072	1265
884.081	1283
884.152	1404
884.187	1435
884.233	1385
884.292	1254
884.314	1086
884.394	609
884.398	577
884.475	853
884.504	952
884.555	619
884.610	370
884.636	522
884.716	780
884.716	792
884.797	1838
884.821	2104
884.877	1765
884.927	1414
884.958	1363
885.033	1402
885.038	1411
885.118	1389
885.139	1310
885.199	946
885.244	895
885.279	1081
885.350	1304
885.359	1375
885.439	1860
885.456	1906
885.520	1675
885.561	1873
885.600	1707
885.667	722
885.680	778
885.760	1625
885.773	1683
885.840	1340
885.878	1375
885.920	1663
885.984	1900
886.000	1836
886.080	1710
886.089	1651
886.160	1514
886.195	1449
886.240	1522
886.300	1739
886.320	1839
886.400	2109
886.406	2128
886.480	1905
886.511	1668
886.560	1675
886.616	1730
886.640	1738
886.720	2158
886.722	2147
886.800	1423
886.827	1307
886.879	1447
886.932	1425
886.959	1554
887.038	1946
887.039	1946
887.119	1162
887.143	998
887.198	1714
887.248	2203
887.278	2116
887.354	2003
887.358	2008
887.437	1741
887.459	1720
887.517	1788
887.564	1837
887.596	1913
887.669	1848
887.676	1830
887.755	1685
887.774	1623
887.835	1457
887.880	1386
887.914	1332
887.985	1068
887.994	1162
888.073	2119
888.090	2274
888.153	2527
888.195	2731
888.232	2569
888.300	2249
888.311	2119
888.391	1086
888.405	883
888.470	1435
888.510	1823
888.549	1602
888.615	1209
888.628	1307
888.708	1845
888.720	1915
888.787	2413
888.825	2714
888.866	2235
888.930	1415
888.945	1460
889.024	1731
889.035	1751
889.103	2082
889.140	2265
889.182	2277
889.245	2281
889.261	2220
889.340	1877
889.349	1831
889.419	1957
889.454	2004
889.498	1587
889.559	1022
889.577	1343
889.656	2725
889.664	2855
889.735	2508
889.768	2333
889.814	2377
889.873	2415
889.978	1750
890.083	1251
890.187	1614
890.292	1882
890.397	2849
890.501	1635
890.606	1701
890.710	2182
890.815	2066
890.919	1207
891.024	1961
891.128	2060
891.233	1761
891.337	2032
891.442	1901
891.546	1760
891.650	1426
891.755	1544
891.859	3338
891.963	2632
892.068	1900
892.172	1246
892.276	1315
892.380	1678
892.484	2325
892.589	2647
892.693	1636
892.797	1958
892.901	1001
893.005	1666
893.109	2335
893.213	2091
893.317	2013
893.421	1503
893.525	684
893.629	1286
893.733	1709
893.837	1522
893.941	2606
894.045	1904
894.148	1660
894.252	2149
894.356	2948
894.460	2761
894.564	1551
894.667	1475
894.771	1731
894.875	1303
894.978	1292
895.082	1136
895.186	1960
895.289	1871
895.393	1497
895.496	1539
895.600	1915
895.703	1429
895.807	1529
895.910	1020
896.014	1562
896.117	1521
896.221	1768
896.324	1674
896.427	1422
896.531	396
896.634	1556
896.737	1796
896.840	2816
896.944	1072
897.047	1718
897.150	1171
897.253	1319
897.356	1102
897.460	1021
897.563	1094
897.666	2025
897.769	1184
897.872	908
897.975	369
898.078	1584
898.181	584
898.284	627
898.387	1593
898.490	1362
898.593	1241
898.695	1531
898.798	1409
898.901	2286
899.004	1313
899.107	1248
899.209	455
899.312	1878
899.415	1588
899.518	1841
899.620	1113
899.723	1542
899.826	2716
899.928	3485
900.031	1484
900.133	1516
900.236	937
900.338	908
900.441	1495
900.543	630
900.646	826
900.748	1544
900.851	2047
900.953	892
901.055	848
901.158	2015
901.260	667
901.362	607
901.465	146
901.567	1095
901.669	1313
901.771	1344
901.873	1452
901.976	1108
902.078	1500
902.180	1464
902.282	583
902.384	2192
902.486	1979
902.588	1350
902.690	1976
902.792	1549
902.894	1097
902.996	1311
903.098	1084
903.200	1282
903.302	645
903.404	1670
903.505	730
903.607	1081
903.709	2270
903.811	1460
903.913	1843
904.014	1080
904.116	1106
904.218	653
904.319	1243
904.421	2356
904.523	1528
904.624	1582
904.726	718
904.827	467
904.929	927
905.030	1274
905.132	1710
905.233	1439
905.335	1808
905.436	829
905.537	973
905.639	1906
905.740	231
905.841	1390
905.943	1009
906.044	890
906.145	1645
906.247	842
906.348	1027
906.449	1280
906.550	786
906.651	598
906.752	962
906.854	791
906.955	1055
907.056	1301
907.157	1136
907.258	1138
907.359	1568
907.460	928
907.561	331
907.662	1201
907.762	1315
907.863	652
907.964	1699
908.065	1057
908.166	738
908.267	761
908.367	386
908.468	995
908.569	1934
908.670	2463
908.770	1243
908.871	2349
908.971	1329
909.072	1739
909.173	766
909.273	1193
909.374	2158
909.474	1641
909.575	1000
909.675	588
909.776	660
909.876	615
909.977	866
910.077	1463
910.177	1493
910.278	1516
910.378	1203
910.478	236
910.579	1316
910.679	979
910.779	1334
910.879	1151
910.980	1563
911.080	1113
911.180	999
911.280	514
911.380	240
911.480	964
911.580	640
911.680	1625
911.780	1188
911.880	1126
911.980	598
912.080	95
912.180	597
912.280	833
912.380	281
912.480	824
912.580	1309
912.679	951
912.779	1433
912.879	578
912.979	1005
913.078	885
913.178	1285
913.278	671
913.377	505
913.477	1037
913.577	316
913.676	989
913.776	1013
913.875	997
913.975	801
914.074	672
914.174	1014
914.273	299
914.373	1366
914.472	1387
914.572	1189
914.671	475
914.770	1421
914.870	650
914.969	-144
915.068	539
915.167	1587
915.267	468
915.366	1424
915.465	1558
915.564	741
915.663	770
915.763	1166
915.862	1758
915.961	1717
916.060	1399
916.159	575
916.258	1661
916.357	1818
916.456	1178
916.555	277
916.654	1261
916.752	2151
916.851	1373
916.950	805
917.049	1365
917.148	966
917.247	1316
917.345	848
917.444	118
917.543	724
917.642	857
917.740	1134
917.839	1838
917.937	465
918.036	727
918.135	344
918.233	679
918.332	904
918.430	1276
918.529	608
918.627	-33
918.726	1231
918.824	617
918.923	1028
919.021	1242
919.119	617
919.218	610
919.316	1100
919.414	2057
919.512	882
919.611	1310
919.709	593
919.807	1163
919.905	1477
920.003	1194
920.102	2047
920.200	1017
920.298	1663
920.396	534
920.494	768
920.592	874
920.690	1066
920.788	1353
920.886	1580
920.984	1889
921.082	1930
921.180	2009
921.277	2089
921.375	2062
921.473	2521
921.571	2344
921.669	1937
921.766	2512
921.864	2021
921.962	2707
922.060	1056
922.157	1883
922.255	2021
922.352	3006
922.450	2240
922.548	2439
922.645	1852
922.743	3251
922.840	4755
922.938	5649
923.035	5311
923.133	5013
923.230	4824
923.327	6945
923.425	6087
923.522	6310
923.619	4935
923.717	4761
923.814	4930
923.911	5153
924.008	5164
924.106	4628
924.203	4885
924.300	5046
924.397	4895
924.494	5124
924.591	4976
924.688	5626
924.786	5185
924.883	5533
924.979	4383
925.077	5101
925.173	5079
925.270	4162
925.367	4826
925.464	5064
925.561	5173
925.658	5524
925.755	4843
925.852	5700
925.948	5341
926.045	4720
926.142	4236
926.239	4590
926.335	4521
926.432	4538
926.529	4092
926.625	5077
926.722	4503
926.818	4873
926.915	5126
927.011	4619
927.108	3932
927.204	5004
927.301	4451
927.397	4437
927.494	5222
927.590	3475
927.687	3632
927.783	5258
927.879	4418
927.976	4093
928.072	3902
928.168	4921
928.264	3669
928.361	4015
928.457	4460
928.553	3698
928.649	4137
928.745	4732
928.841	4238
928.937	3733
929.033	4306
929.129	4560
929.225	4538
929.321	4664
929.417	3441
929.513	3309
929.609	3675
929.705	3774
929.801	3866
929.897	3138
929.993	3236
930.089	3249
930.184	3537
930.280	3865
930.376	4263
930.471	3465
930.567	3356
930.663	3265
930.758	3231
930.854	3750
930.950	3623
931.045	2960
931.141	4103
931.236	4896
931.332	3146
931.427	3158
931.523	4894
931.618	3591
931.714	3210
931.809	3141
931.905	4302
932.000	2655
932.095	3051
932.191	3733
932.286	4760
932.381	3325
932.476	3219
932.572	4124
932.667	3428
932.762	3402
932.857	2883
932.952	3346
933.047	3703
933.142	3193
933.237	3060
933.332	4095
933.427	4953
933.522	2667
933.617	2293
933.712	3491
933.807	3731
933.902	3861
933.997	4616
934.092	2251
934.187	2399
934.282	3341
934.376	4170
934.471	4000
934.566	2865
934.661	3102
934.755	2372
934.850	3725
934.945	3088
935.039	3184
935.134	2742
935.228	3574
935.323	4099
935.417	2742
935.512	2345
935.606	1827
935.701	3689
935.795	3842
935.890	3167
935.984	2738
936.079	2594
936.173	3158
936.267	3021
936.362	2105
936.456	2912
936.550	3617
936.644	3277
936.738	2388
936.833	2323
936.927	1994
937.021	3025
937.115	3530
937.209	2196
937.303	2798
937.397	2828
937.491	2268
937.585	2948
937.679	3270
937.773	2034
937.867	1377
937.961	2323
938.055	2899
938.149	3599
938.243	2085
938.337	1472
938.430	2591
938.524	3011
938.618	2690
938.712	1801
938.805	2728
938.899	3615
938.993	3591
939.086	1660
939.180	1369
939.274	2425
939.367	3229
939.461	2425
939.554	2410
939.648	1895
939.741	2482
939.835	3003
939.928	3399
940.022	4068
940.115	2837
940.208	2439
940.302	2950
940.395	3148
940.488	1672
940.582	2653
940.675	1242
940.768	2035
940.861	2649
940.954	3238
941.048	1718
941.141	1321
941.234	2778
941.327	3243
941.420	4147
941.513	3093
941.606	2179
941.699	2597
941.792	2797
941.885	2536
941.978	2942
942.071	2495
942.164	1202
942.257	1935
942.349	2868
942.442	2114
942.535	1757
942.628	1348
942.721	2878
942.813	1304
942.906	2638
942.999	1843
943.091	2095
943.184	2159
943.277	1358
943.369	2576
943.462	952
943.554	1336
943.647	2102
943.739	3001
943.832	2438
943.924	1276
944.017	2271
944.109	1659
944.201	1890
944.294	2032
944.386	1589
944.478	1699
944.571	1880
944.663	1579
944.755	2368
944.847	2208
944.940	1258
945.032	782
945.124	1649
945.216	2420
945.308	1597
945.400	2308
945.492	2119
945.584	2737
945.676	1590
945.768	1368
945.860	3128
945.952	2229
946.044	1032
946.136	1536
946.228	1102
946.320	1382
946.412	1918
946.503	1926
946.595	2846
946.687	907
946.779	1621
946.870	2153
946.962	983
947.054	1435
947.145	1655
947.237	1947
947.329	1839
947.420	1790
947.512	1361
947.603	1527
947.695	624
947.786	1108
947.878	1365
947.969	1802
948.061	2118
948.152	981
948.243	923
948.335	979
948.426	938
948.517	657
948.609	2424
948.700	1318
948.791	1837
948.882	1574
948.973	1032
949.065	1363
949.156	626
949.247	1087
949.338	2342
949.429	948
949.520	2368
949.611	777
949.702	1802
949.793	924
949.884	1412
949.975	827
950.066	582
950.157	841
950.247	785
950.338	1530
950.429	1485
950.520	1619
950.611	1285
950.701	1643
950.792	2238
950.883	1751
950.973	2052
951.064	1785
951.155	1680
951.245	2224
951.336	1913
951.427	1761
951.517	2341
951.608	1560
951.698	1062
951.788	1079
951.879	909
951.969	818
952.060	1826
952.150	1522
952.240	2036
952.331	585
952.421	2038
952.511	831
952.602	1173
952.692	43
952.782	1237
952.872	1123
952.962	2549
953.052	674
953.143	1101
953.233	1711
953.323	1984
953.413	464
953.503	1889
953.593	894
953.683	1411
953.773	575
953.863	595
953.953	1253
954.042	1793
954.132	1090
954.222	1484
954.312	1054
954.402	828
954.492	1750
954.581	3460
954.671	1834
954.761	406
954.850	1947
954.940	890
955.030	754
955.119	696
955.209	615
955.298	100
955.388	896
955.477	1904
955.567	921
955.656	1671
955.746	1263
955.835	575
955.925	669
956.014	1060
956.103	662
956.193	1019
956.282	1352
956.371	1450
956.461	559
956.550	396
956.639	2129
956.728	530
956.817	1392
956.906	594
956.995	1499
957.085	1133
957.174	758
957.263	946
957.352	999
957.441	415
957.530	1634
957.619	1415
957.708	654
957.796	432
957.885	1003
957.974	319
958.063	656
958.152	-40
958.241	1225
958.329	674
958.418	541
958.507	506
958.596	1606
958.684	801
958.773	1371
958.861	351
958.950	74
959.039	1579
959.127	1183
959.216	1165
959.304	701
959.393	841
959.481	473
959.570	686
959.658	450
959.746	556
959.835	1685
959.923	4111
960.011	2163
960.100	1623
960.188	1549
960.276	1004
960.365	580
960.453	643
960.541	53
960.629	256
960.717	198
960.805	661
960.893	1312
960.981	562
961.069	2281
961.158	1893
961.245	1299
961.333	938
961.421	321
961.509	1069
961.597	850
961.685	85
961.773	702
961.861	463
961.949	1586
962.036	-170
962.124	597
962.212	185
962.299	1000
962.387	890
962.475	292
962.562	780
962.650	1184
962.738	928
962.825	417
962.913	668
963.000	183
963.088	1089
963.175	1358
963.263	411
963.350	1325
963.438	1542
963.525	2035
963.612	3562
963.700	7308
963.787	18177
963.874	11046
963.962	1862
964.049	931
964.136	557
964.223	41
964.310	145
964.398	678
964.485	1056
964.572	819
964.659	2552
964.746	3166
964.833	754
964.920	792
965.007	1580
965.094	579
965.181	416
965.268	1641
965.355	200
965.441	467
965.528	391
965.615	1847
965.702	1178
965.789	811
965.875	534
965.962	815
966.049	861
966.136	1082
966.222	432
966.309	1198
966.395	541
966.482	1299
966.569	1164
966.655	501
966.742	47
966.828	611
966.915	-414
967.001	664
967.087	478
967.174	492
967.260	1551
967.347	2000
967.433	5622
967.519	12800
967.605	5107
967.692	701
967.778	-93
967.864	14
967.950	52
968.036	1143
968.123	1533
968.209	-566
968.295	-575
968.381	1246
968.467	628
968.553	-735
968.639	1542
968.725	848
968.811	2887
968.897	2634
968.983	511
969.069	-533
969.154	549
969.240	705
969.326	38
969.412	-398
969.497	253
969.583	-176
969.669	1051
969.755	12
969.840	977
969.926	1819
970.012	1007
970.097	3107
970.183	2344
970.268	1492
970.354	1698
970.439	2211
970.525	8094
970.610	3663
970.696	1398
970.781	519
970.866	-599
970.952	581
971.037	-129
971.122	655
971.208	1299
971.293	914
971.378	338
971.463	379
971.549	-771
971.634	298
971.719	547
971.804	811
971.889	1593
971.974	595
972.059	-335
972.144	436
972.229	405
972.314	-48
972.399	406
972.484	44
972.569	983
972.654	1046
972.739	3888
972.824	4120
972.908	1238
972.993	639
973.078	-650
973.163	384
973.247	841
973.332	-25
973.417	751
973.501	-407
973.586	734
973.671	-55
973.755	1321
973.840	1543
973.924	806
974.009	748
974.093	292
974.178	1706
974.262	2636
974.346	3640
974.431	979
974.515	447
974.600	1028
974.684	726
974.768	-44
974.852	996
974.937	-178
975.021	821
975.105	416
975.189	702
975.273	1287
975.358	-241
975.442	483
975.526	1311
975.610	376
975.694	-380
975.778	795
975.862	420
975.946	-1185
976.030	989
976.114	210
976.198	469
976.281	415
976.365	920
976.449	158
976.533	216
976.617	-283
976.700	735
976.784	700
976.868	-272
976.951	1610
977.035	1047
977.119	-180
977.202	-194
977.286	769
977.369	675
977.453	1703
977.536	950
977.620	190
977.703	1421
977.787	-231
977.870	621
977.953	1662
978.037	-95
978.120	1112
978.203	1807
978.287	3863
978.370	2288
978.453	807
978.536	58
978.620	1964
978.703	2696
978.786	1321
978.869	152
978.952	-352
979.035	1039
979.118	670
979.201	-478
979.284	-17
979.367	150
979.450	1021
979.533	-193
979.616	-133
979.699	344
979.782	655
979.865	95
979.948	-291
980.030	-976
980.113	328
980.196	-555
980.279	808
980.361	-670
980.444	84
980.526	1008
980.609	783
980.692	1265
980.774	1188
980.857	-897
980.939	1210
981.022	-373
981.104	102
981.187	-21
981.269	357
981.352	251
981.434	-853
981.516	96
981.599	1216
981.681	251
981.763	381
981.846	48
981.928	-535
982.010	139
982.092	-1234
982.174	853
982.256	-79
982.339	-39
982.421	-815
982.503	146
982.585	-564
982.667	-153
982.749	79
982.831	-590
982.913	-241
982.995	730
983.077	-396
983.158	1384
983.240	0
983.322	696
983.404	1103
983.486	209
983.568	1069
983.649	393
983.731	1276
983.813	-1545
983.894	526
983.976	301
984.058	-116
984.139	718
984.221	-268
984.302	860
984.384	-27
984.465	-309
984.547	705
984.628	-649
984.710	792
984.791	154
984.872	482
984.954	-348
985.035	806
985.116	39
985.198	-97
985.279	1292
985.360	-247
985.441	-841
985.522	295
985.604	77
985.685	-859
985.766	1536
985.847	1445
985.928	449
986.009	579
986.090	147
986.171	511
986.252	120
986.333	1043
986.414	93
986.495	809
986.576	-124
986.656	329
986.737	405
986.818	282
986.899	124
986.980	139
987.060	757
987.141	336
987.222	891
987.302	1189
987.383	1287
987.464	908
987.544	1138
987.625	652
987.705	1289
987.786	1231
987.866	463
987.947	652
988.027	538
988.108	44
988.188	263
988.268	799
988.349	14
988.429	-188
988.509	1057
988.589	558
988.670	-408
988.750	1672
988.830	482
988.910	436
988.990	167
989.070	826
989.151	-66
989.231	367
989.311	626
989.391	333
989.471	12
989.551	413
989.631	142
989.711	1079
989.791	776
989.870	123
989.950	1002
990.030	525
990.110	-31
990.190	-419
990.269	-457
990.349	-64
990.429	-189
990.509	587
990.588	-1139
990.668	1256
990.747	32
990.827	142
990.907	999
990.986	270
991.066	143
991.145	3
991.225	1274
991.304	649
991.383	-288
991.463	1
991.542	54
991.622	-259
991.701	4
991.780	335
991.859	-63
991.939	305
992.018	13
992.097	1111
992.176	201
992.256	-500
992.335	-86
992.414	495
992.493	-110
992.572	-177
992.651	1432
992.730	310
992.809	882
992.888	-556
992.967	437
993.046	260
993.125	-1492
993.203	635
993.282	158
993.361	63
993.440	-124
993.519	-1313
993.597	351
993.676	431
993.755	547
993.834	194
993.912	-719
993.991	1239
994.069	-26
994.148	-436
994.226	-479
994.305	369
994.384	328
994.462	544
994.540	-102
994.619	-900
994.697	-20
994.776	-512
994.854	409
994.932	-594
995.011	247
995.089	-599
995.167	-366
995.245	-5
995.324	-515
995.402	-459
995.480	-577
995.558	97
995.636	-699
995.714	-474
995.792	777
995.870	-21
995.948	-837
996.026	347
996.104	-1443
996.182	691
996.260	-692
996.338	-42
996.416	-1123
996.494	-70
996.572	196
996.649	-1574
996.727	-806
996.805	-476
996.883	-431
996.960	-696
997.038	119
997.116	21
997.193	-443
997.271	42
997.348	-1181
997.426	-721
997.504	-655
997.581	276
997.658	-618
997.736	-1082
997.813	-1179
997.891	178
997.968	-1186
998.046	-603
998.123	-691
998.200	250
998.277	-665
998.355	-689
998.432	-1777
998.509	584
998.586	-480
998.663	-418
998.741	-268
998.818	118
998.895	-1244
998.972	-93
999.049	-661
999.126	-996
999.203	-896
999.280	7
999.357	-910
999.434	-471
999.511	430
999.587	-20
999.664	-1205
999.741	-596
999.818	516
999.895	-414
999.971	-637
1000.048	-1598
1000.125	598
1000.202	-631
1000.278	-626
1000.355	-639
1000.431	-563
1000.508	-1000
1000.584	-369
1000.661	181
1000.738	-1444
1000.814	66
1000.890	14
1000.967	-1324
1001.043	329
1001.120	-1229
1001.196	-32
1001.272	-1162
1001.349	-539
1001.425	592
1001.501	-755
1001.577	-1255
1001.654	-558
1001.730	-1170
1001.806	-365
1001.882	-1084
1001.958	-543
1002.034	-545
1002.110	-973
1002.186	-1408
1002.262	-795
1002.338	-1120
1002.414	-881
1002.490	-245
1002.566	-686
1002.642	-4
1002.718	536
1002.794	-541
1002.870	-579
1002.945	-525
1003.021	-819
1003.097	-1280
1003.173	-314
1003.248	-940
1003.324	-363
1003.400	-939
1003.475	-945
1003.551	-338
1003.626	-952
1003.702	-1356
1003.777	-946
1003.853	-597
1003.928	-1141
1004.004	-1015
1004.079	-136
1004.155	-280
1004.230	-1443
1004.305	-187
1004.381	-1132
1004.456	-431
1004.531	-106
1004.607	-877
1004.682	-1553
1004.757	-377
1004.832	-706
1004.907	-589
1004.982	-98
1005.057	-799
1005.133	-792
1005.208	-153
1005.283	-1000
1005.358	-389
1005.433	-951
1005.508	299
1005.583	-998
1005.657	-405
1005.732	-444
1005.807	-1473
1005.882	-239
1005.957	-1029
1006.032	-741
1006.106	-1458
1006.181	-664
1006.256	-813
1006.331	-1585
1006.405	-1299
1006.480	-668
1006.554	-972
1006.629	-870
1006.704	-873
1006.778	-1504
1006.853	-347
1006.927	-1194
1007.002	-1077
1007.076	-785
1007.150	-551
1007.225	-680
1007.299	-284
1007.373	-1108
1007.448	-877
1007.522	-817
1007.596	-1075
1007.671	-1125
1007.745	-1037
1007.819	-1356
1007.893	-1078
1007.967	-648
1008.041	-1735
1008.115	-430
1008.190	-923
1008.264	-1134
1008.338	-1737
1008.412	-1181
1008.486	-1581
1008.560	-1172
1008.633	-645
1008.707	-1339
1008.781	-383
1008.855	-932
1008.929	-1191
1009.003	-1202
1009.076	-1151
1009.150	-1396
1009.224	-953
1009.298	-1209
1009.371	-1352
1009.445	76
1009.519	-609
1009.592	-1674
1009.666	-1155
1009.739	-1065
1009.813	-1607
1009.886	-524
1009.960	-1925
1010.033	-1371
1010.107	-1335
1010.180	-2214
1010.253	-1330
1010.327	-1287
1010.400	-1383
1010.473	-1688
1010.547	-308
1010.620	-1136
1010.693	-1195
1010.766	-620
1010.840	61
1010.913	-1163
1010.986	-1880
1011.059	-530
1011.132	-1582
1011.205	-947
1011.278	-583
1011.351	-1593
1011.424	-1157
1011.497	-1636
1011.570	-784
1011.643	-1445
1011.716	-1713
1011.789	-1516
1011.862	-1015
1011.934	-1221
1012.007	-1525
1012.080	-897
1012.153	-401
1012.225	-462
1012.298	-1865
1012.371	-1619
1012.443	-433
1012.516	-1925
1012.588	-1638
1012.661	-1140
1012.733	-2045
1012.806	-850
1012.879	-1535
1012.951	-1686
1013.023	-2016
1013.096	-1282
1013.168	-2235
1013.241	-371
1013.313	-1163
1013.385	-2717
1013.458	-1214
1013.530	-1105
1013.602	-1563
1013.674	-1299
1013.746	-2566
1013.819	-1390
1013.891	-1000
1013.963	-1111
1014.035	-733
1014.107	-643
1014.179	-961
1014.251	-1168
1014.323	-906
1014.395	-951
1014.467	-1205
1014.539	-1108
1014.611	-2192
1014.683	-1010
1014.754	-827
1014.826	-1608
1014.898	-1307
1014.970	-2103
1015.042	-767
1015.113	-1107
1015.185	-1008
1015.257	-1240
1015.328	-705
1015.400	-1306
1015.471	-1587
1015.543	-2122
1015.615	-1141
1015.686	-852
1015.757	-1000
1015.829	-1328
1015.901	-1553
1015.972	-1997
1016.043	-2011
1016.115	-1717
1016.186	-929
1016.257	-2446
1016.328	-1449
1016.400	-759
1016.471	-1725
1016.542	-1731
1016.613	-1197
1016.685	-939
1016.756	-857
1016.827	-2108
1016.898	-850
1016.969	-839
1017.040	-2347
1017.111	-986
1017.182	-1941
1017.253	-1694
1017.324	-618
1017.395	-1352
1017.466	-1001
1017.537	-1014
1017.608	-999
1017.678	-1593
1017.749	-1786
1017.820	-1634
1017.891	-1338
1017.961	-1895
1018.032	-1845
1018.103	-1301
1018.173	-1638
1018.244	-1705
1018.315	-1192
1018.385	-2042
1018.456	-1891
1018.526	-1753
1018.597	-1841
1018.667	-2625
1018.738	-1208
1018.808	-1014
1018.878	-1652
1018.949	-2028
1019.019	-1583
1019.089	-1283
1019.160	-1139
1019.230	-2317
1019.300	-1432
1019.371	-2540
1019.441	-1087
1019.511	-1152
1019.581	-2017
1019.651	-1494
1019.721	-1277
1019.791	-865
1019.861	-1747
1019.931	-1225
1020.001	-1784
1020.071	-2338
1020.141	-1473
1020.211	-2823
1020.281	-1635
1020.351	-2048
1020.421	-1881
1020.491	-829
1020.560	-1533
1020.630	-1982
1020.700	-1805
1020.770	-2271
1020.839	-889
1020.909	-1674
1020.979	-1158
1021.048	-1523
1021.118	-1515
1021.187	-1876
1021.257	-1733
1021.326	-1943
1021.396	-1671
1021.465	-1833
1021.535	-1277
1021.604	-2562
1021.674	-1216
1021.743	-1194
1021.812	-1693
1021.882	-1542
1021.951	-2216
1022.020	-1739
1022.089	-1303
1022.159	-1800
1022.228	-1928
1022.297	-1367
1022.366	-1649
1022.435	-1106
1022.504	-1697
1022.573	-2483
1022.642	-1071
1022.711	-1951
1022.781	-1998
1022.849	-1117
1022.918	-2873
1022.987	-2171
1023.056	-1784
1023.125	-1570
1023.194	-1781
1023.263	-1250
1023.331	-1381
1023.400	-1893
1023.469	-2752
1023.538	-1385
1023.606	-1975
1023.675	-1545
1023.744	-2003
1023.812	-1473
1023.881	-1931
1023.949	-2029
1024.018	-1476
1024.086	-1215
1024.155	-2111
1024.223	-1985
1024.292	-2039
1024.360	-2525
1024.429	-1406
1024.497	-2284
1024.565	-1581
1024.634	-2122
1024.702	-1308
1024.770	-427
1024.838	-2371
1024.907	-1297
1024.975	-1870
1025.043	-1281
1025.111	-2400
1025.179	-2116
1025.247	-2580
1025.315	-2721
1025.383	-2028
1025.451	-2351
1025.519	-2221
1025.587	-2031
1025.655	-1562
1025.723	-2306
1025.791	-2110
1025.859	-1105
1025.927	-865
1025.995	-1596
1026.062	-1950
1026.130	-2437
1026.198	-2400
1026.266	-2661
1026.333	-1101
1026.401	-1118
1026.469	-2421
1026.536	-2339
1026.604	-2135
1026.671	-1205
1026.739	-2089
1026.806	-2014
1026.874	-1658
1026.941	-1354
1027.009	-1340
1027.076	-1952
1027.144	-1977
1027.211	-2200
1027.278	-2373
1027.345	-1534
1027.413	-1685
1027.480	-1915
1027.547	-1761
1027.614	-1919
1027.682	-1318
1027.749	-1938
1027.816	-2198
1027.883	-1329
1027.950	-2256
1028.017	-2233
1028.084	-1761
1028.151	-1825
1028.218	-1750
1028.285	-2160
1028.352	-1903
1028.419	-2254
1028.486	-1774
1028.553	-1835
1028.619	-2101
1028.686	-1647
1028.753	-1321
1028.820	-2770
1028.886	-1833
1028.953	-1335
1029.020	-1937
1029.086	-1819
1029.153	-1735
1029.220	-2650
1029.286	-1755
1029.353	-1408
1029.419	-1430
1029.486	-2746
1029.552	-2092
1029.619	-2050
1029.685	-2063
1029.751	-1962
1029.818	-1526
1029.884	-2427
1029.951	-1788
1030.017	-1843
1030.083	-2823
1030.149	-2212
1030.216	-2460
1030.282	-2562
1030.348	-2248
1030.414	-2965
1030.480	-1817
1030.546	-1717
1030.612	-1936
1030.678	-1912
1030.744	-1398
1030.810	-2504
1030.876	-2000
1030.942	-2180
1031.008	-2294
1031.074	-1995
1031.140	-1745
1031.206	-1123
1031.272	-1934
1031.337	-1789
1031.403	-1492
1031.469	-1436
1031.534	-1972
1031.600	-1983
1031.666	-2697
1031.731	-2444
1031.797	-1786
1031.863	-1922
1031.928	-2581
1031.994	-2610
1032.059	-2137
1032.125	-1912
1032.190	-2137
1032.256	-2463
1032.321	-2804
1032.386	-2175
1032.452	-1726
1032.517	-2352
1032.582	-2509
1032.647	-2246
1032.713	-2217
1032.778	-2207
1032.843	-1831
1032.908	-2079
1032.974	-2583
1033.039	-1760
1033.104	-1325
1033.169	-2487
1033.234	-1345
1033.299	-1588
1033.364	-1335
1033.429	-1441
1033.494	-1711
1033.559	-2450
1033.624	-1399
1033.688	-1311
1033.753	-2046
1033.818	-1983
1033.883	-1529
1033.948	-1515
1034.013	-1180
1034.077	-601
1034.142	-1681
1034.207	-243
1034.271	-95
1034.336	1323
1034.400	368
1034.465	-246
1034.530	-412
1034.594	-1811
1034.658	-1581
1034.723	-2654
1034.787	-1962
1034.852	-2205
1034.916	-1941
1034.981	-2844
1035.045	-1588
1035.109	-2201
1035.173	-1784
1035.238	-2345
1035.302	-2112
1035.366	-2490
1035.430	-2015
1035.495	-2813
1035.559	-1174
1035.623	-2188
1035.687	-2036
1035.751	-2487
1035.815	-2169
1035.879	-2258
1035.943	-2421
1036.007	-3100
1036.071	-1851
1036.135	-1741
1036.198	-1623
1036.262	-2285
1036.326	-1757
1036.390	-1909
1036.454	-1769
1036.517	-1461
1036.581	-1376
1036.645	-1196
1036.709	-1049
1036.772	-1347
1036.836	-2444
1036.900	-2414
1036.963	-1960
1037.026	-1796
1037.090	-2271
1037.154	-2368
1037.217	-1461
1037.280	-3019
1037.344	-2490
1037.407	-2098
1037.471	-2333
1037.534	-1841
1037.597	-1671
1037.661	-1659
1037.724	-1754
1037.787	-2473
1037.850	-2394
1037.913	-2441
1037.977	-1981
1038.040	-2584
1038.103	-2350
1038.166	-1616
1038.229	-2170
1038.292	-2686
1038.355	-2881
1038.418	-2333
1038.481	-1503
1038.544	-1777
1038.607	-2091
1038.670	-2533
1038.732	-2822
1038.795	-3274
1038.858	-2410
1038.921	-1854
1038.984	-1063
1039.046	-1887
1039.109	-2091
1039.172	-2153
1039.234	-2409
1039.297	-2262
1039.360	-2744
1039.422	-1693
1039.485	-2233
1039.547	-3200
1039.610	-2568
1039.672	-2643
1039.734	-2701
1039.797	-1786
1039.859	-1973
1039.922	-2925
1039.984	-2284
1040.046	-2651
1040.109	-1731
1040.171	-2934
1040.233	-2419
1040.295	-1843
1040.358	-2139
1040.420	-2332
1040.482	-2833
1040.544	-2207
1040.606	-1776
1040.668	-2150
1040.730	-2531
1040.792	-2007
1040.854	-2413
1040.916	-3007
1040.978	-2481
1041.040	-1735
1041.102	-2027
1041.164	-1953
1041.225	-1970
1041.287	-1963
1041.349	-2246
1041.411	-1871
1041.472	-1766
1041.534	-2439
1041.596	-2206
1041.657	-1747
1041.719	-2301
1041.781	-2004
1041.842	-2756
1041.904	-2063
1041.965	-2504
1042.027	-2436
1042.088	-1612
1042.150	-2262
1042.211	-2101
1042.272	-1999
1042.334	-2268
1042.395	-1861
1042.456	-2098
1042.518	-1019
1042.579	-1903
1042.640	-2481
1042.701	-2391
1042.763	-2804
1042.824	-1879
1042.885	-1864
1042.946	-2155
1043.007	-2348
1043.068	-2080
1043.129	-2037
1043.190	-1963
1043.251	-1817
1043.312	-3164
1043.373	-1481
1043.434	-1897
1043.495	-2865
1043.556	-1917
1043.616	-2086
1043.677	-1676
1043.738	-2039
1043.799	-2379
1043.859	-1702
1043.920	-2758
1043.981	-2376
1044.041	-1810
1044.102	-2332
1044.162	-2104
1044.223	-2076
1044.284	-2111
1044.344	-2374
1044.405	-2142
1044.465	-2355
1044.525	-1787
1044.586	-1954
1044.646	-1241
1044.707	-1707
1044.767	-1180
1044.827	-2436
1044.887	-1964
1044.948	-1908
1045.008	-2349
1045.068	-1657
1045.128	-2493
1045.188	-1837
1045.249	-1173
1045.309	-1794
1045.369	-2180
1045.429	-1975
1045.489	-1504
1045.549	-1859
1045.609	-2145
1045.669	-1547
1045.729	-2120
1045.789	-1813
1045.848	-1663
1045.908	-1363
1045.968	-2238
1046.028	-1687
1046.088	-1202
1046.147	-1612
1046.207	-1879
1046.267	-1681
1046.326	-1267
1046.386	-1472
1046.446	-1209
1046.505	-1545
1046.565	-794
1046.624	-1422
1046.684	-1091
1046.743	-675
1046.803	200
1046.862	-336
1046.922	0
