'Start Wavelength	183.907
'End Wavelength	1046.922
'Gate Delay	5.000
'Gate Width (ms)	1.050
'Laser Output Level	0.000
'X Position	0.000
'Y Position	0.000
'Z Position	0.000
'Grid Point Number	1.000
'Shot Number	100.000
183.907	441.000
183.977	331.000
184.047	-102
184.116	725
184.186	255
184.256	182
184.325	-245
184.395	-129
184.465	784
184.534	144
184.604	-714
184.674	610
184.743	-282
184.813	425
184.883	464
184.952	567
185.022	337
185.092	161
185.161	112
185.231	-189
185.301	-185
185.370	448
185.440	-438
185.509	-29
185.579	-295
185.649	135
185.718	348
185.788	913
185.857	166
185.927	255
185.996	-22
186.066	200
186.136	201
186.205	15
186.275	310
186.344	618
186.414	168
186.483	-204
186.553	1288
186.622	572
186.692	319
186.761	795
186.831	662
186.900	401
186.970	-33
187.039	175
187.109	1043
187.178	678
187.248	91
187.317	809
187.387	311
187.456	270
187.526	575
187.595	579
187.664	288
187.734	830
187.803	436
187.873	448
187.942	293
188.012	385
188.081	638
188.150	335
188.220	-85
188.289	1302
188.358	252
188.428	789
188.497	-166
188.567	1020
188.636	-818
188.705	-6
188.775	314
188.844	-379
188.913	977
188.983	426
189.052	-16
189.121	-67
189.191	-334
189.260	444
189.329	111
189.399	367
189.468	371
189.537	-218
189.606	40
189.676	469
189.745	1056
189.814	409
189.883	305
189.953	153
190.022	438
190.091	457
190.161	1327
190.230	813
190.299	428
190.368	462
190.437	121
190.507	439
190.576	477
190.645	663
190.714	166
190.783	975
190.853	696
190.922	606
190.991	635
191.060	780
191.129	251
191.198	519
191.268	314
191.337	360
191.406	692
191.475	1328
191.544	-133
191.613	121
191.682	984
191.752	842
191.821	411
191.890	488
191.959	700
192.028	692
192.097	829
192.166	887
192.235	249
192.304	1563
192.373	-157
192.442	-51
192.511	-258
192.580	315
192.650	-211
192.719	741
192.788	350
192.857	630
192.926	-17
192.995	377
193.064	-103
193.133	714
193.202	1040
193.271	1438
193.340	-140
193.409	885
193.478	604
193.547	964
193.615	809
193.684	1684
193.753	1101
193.822	813
193.891	16
193.960	847
194.029	23
194.098	861
194.167	222
194.236	712
194.305	235
194.374	1032
194.443	52
194.512	826
194.580	595
194.649	1298
194.718	903
194.787	510
194.856	380
194.925	1248
194.994	468
195.062	893
195.131	930
195.200	725
195.269	1729
195.338	835
195.407	704
195.475	229
195.544	514
195.613	240
195.682	381
195.751	802
195.819	108
195.888	947
195.957	1366
196.026	1370
196.094	947
196.163	1293
196.232	769
196.301	1896
196.369	1286
196.438	1590
196.507	898
196.576	720
196.644	346
196.713	748
196.782	556
196.850	1154
196.919	-113
196.988	1743
197.056	-73
197.125	1053
197.194	1126
197.262	819
197.331	482
197.400	639
197.468	40
197.537	443
197.606	1578
197.674	1762
197.743	1113
197.812	456
197.880	949
197.949	1238
198.017	1064
198.086	1243
198.155	408
198.223	739
198.292	1502
198.360	1649
198.429	535
198.497	1068
198.566	1433
198.635	2047
198.703	261
198.772	1021
198.840	1795
198.909	1128
198.977	351
199.046	1200
199.114	1531
199.183	503
199.251	514
199.320	959
199.388	885
199.457	352
199.525	594
199.594	693
199.662	-28
199.731	808
199.799	-271
199.867	1182
199.936	672
200.004	1397
200.073	1108
200.141	635
200.210	-293
200.278	741
200.346	1064
200.415	1090
200.483	1578
200.552	850
200.620	645
200.688	1039
200.757	856
200.825	679
200.893	24
200.962	715
201.030	383
201.098	1397
201.167	1442
201.235	1179
201.303	1320
201.372	1171
201.440	30
201.508	1623
201.577	354
201.645	552
201.713	768
201.781	804
201.850	1581
201.918	542
201.986	1127
202.055	1715
202.123	1131
202.191	1132
202.259	786
202.327	1631
202.396	319
202.464	1250
202.532	1026
202.600	2902
202.669	1359
202.737	651
202.805	605
202.873	1320
202.941	1331
203.009	1084
203.078	831
203.146	1177
203.214	837
203.282	889
203.350	1433
203.418	585
203.487	1935
203.555	1033
203.623	1231
203.691	42
203.759	457
203.827	617
203.895	685
203.963	1245
204.031	415
204.099	956
204.168	407
204.236	1762
204.304	869
204.372	1054
204.440	1988
204.508	804
204.576	581
204.644	1099
204.712	793
204.780	547
204.848	832
204.916	985
204.984	970
205.052	1389
205.120	1066
205.188	1510
205.256	350
205.324	731
205.392	779
205.460	1285
205.528	704
205.596	1004
205.664	896
205.732	1734
205.799	1469
205.867	2752
205.935	494
206.003	1882
206.071	631
206.139	950
206.207	1377
206.275	1757
206.343	449
206.411	483
206.478	1265
206.546	994
206.614	1135
206.682	1145
206.750	1013
206.818	1234
206.885	1805
206.953	144
207.021	1213
207.089	1630
207.157	505
207.225	1721
207.292	569
207.360	1379
207.428	638
207.496	390
207.563	1191
207.631	1425
207.699	491
207.767	1599
207.834	1163
207.902	1305
207.970	1526
208.038	1458
208.105	632
208.173	1289
208.241	1473
208.309	1584
208.376	1218
208.444	2342
208.512	1131
208.579	1342
208.647	1267
208.715	2445
208.782	-95
208.850	1559
208.918	1621
208.985	1638
209.053	1122
209.120	1284
209.188	513
209.256	619
209.323	1218
209.391	1807
209.459	2823
209.526	1842
209.594	1299
209.661	1194
209.729	1367
209.796	1943
209.864	1345
209.932	498
209.999	2277
210.067	2381
210.134	1267
210.202	2193
210.269	1855
210.337	1925
210.404	1038
210.472	1228
210.539	887
210.607	1628
210.674	1143
210.742	2074
210.809	936
210.877	1591
210.944	1796
211.012	1763
211.079	2808
211.146	1324
211.214	1109
211.281	1875
211.349	2441
211.416	2320
211.484	1808
211.551	1837
211.618	1767
211.686	1173
211.753	1186
211.821	1693
211.888	1737
211.955	1528
212.023	1026
212.090	1519
212.157	1071
212.225	1844
212.292	2902
212.359	4071
212.427	7084
212.494	3980
212.561	1953
212.629	2029
212.696	1412
212.763	2144
212.831	1851
212.898	2036
212.965	1885
213.032	2175
213.100	2401
213.167	2024
213.234	2593
213.301	1799
213.369	1992
213.436	1671
213.503	2095
213.570	1427
213.638	2175
213.705	1323
213.772	889
213.839	1839
213.906	2070
213.973	2195
214.041	1350
214.108	2050
214.175	2268
214.242	2204
214.309	1606
214.376	2643
214.444	1857
214.511	2803
214.578	2061
214.645	2208
214.712	3008
214.779	2081
214.846	1302
214.913	2397
214.980	2212
215.048	2296
215.115	3246
215.182	3551
215.249	2600
215.316	1705
215.383	2563
215.450	2169
215.517	2203
215.584	2637
215.651	1113
215.718	1467
215.785	2128
215.852	1938
215.919	2111
215.986	1668
216.053	1692
216.120	1920
216.187	2033
216.254	2509
216.321	1924
216.388	2598
216.455	2167
216.522	2643
216.589	2683
216.656	3968
216.722	3668
216.789	2540
216.856	3260
216.923	2758
216.990	2198
217.057	3395
217.124	3262
217.191	2753
217.258	3717
217.324	3730
217.391	3912
217.458	3029
217.525	2218
217.592	2628
217.659	1391
217.725	2600
217.792	3006
217.859	3774
217.926	2030
217.993	2408
218.059	2025
218.126	2068
218.193	1577
218.260	2158
218.327	1868
218.393	2657
218.460	1962
218.527	1810
218.594	1524
218.660	3274
218.727	3966
218.794	1671
218.860	2045
218.927	1351
218.994	1458
219.061	1235
219.127	1832
219.194	2673
219.261	1740
219.327	2042
219.394	1700
219.461	1355
219.527	1683
219.594	2509
219.661	1343
219.727	1132
219.794	2008
219.860	1069
219.927	1726
219.994	3119
220.060	4093
220.127	3393
220.193	3028
220.260	2136
220.326	3271
220.393	5334
220.460	5325
220.526	4315
220.593	3059
220.659	4078
220.726	2509
220.792	6021
220.859	5181
220.925	7478
220.992	8619
221.058	8172
221.125	7296
221.191	5912
221.258	2081
221.324	2441
221.391	2046
221.457	2688
221.524	2144
221.590	2806
221.657	6389
221.723	5296
221.789	4442
221.856	4803
221.922	2351
221.989	2867
222.055	2795
222.121	1774
222.188	3328
222.254	3477
222.321	2143
222.387	1326
222.453	1880
222.520	1930
222.586	2146
222.652	2354
222.719	1663
222.785	2892
222.851	1428
222.918	1274
222.984	2381
223.050	2005
223.116	1187
223.183	2729
223.249	1076
223.315	1583
223.382	1809
223.448	1978
223.514	876
223.580	1314
223.647	1247
223.713	1115
223.779	1575
223.845	2159
223.911	1947
223.978	1094
224.044	1278
224.110	1793
224.176	1651
224.242	1391
224.309	1006
224.375	2166
224.441	2213
224.507	956
224.573	693
224.639	2417
224.705	1579
224.772	2075
224.838	1474
224.904	2763
224.970	867
225.036	1272
225.102	1489
225.168	2822
225.234	2167
225.300	1369
225.366	1584
225.432	1852
225.499	1717
225.565	1867
225.631	1869
225.697	2584
225.763	2765
225.829	2890
225.895	3132
225.961	3513
226.027	3089
226.093	3207
226.159	4189
226.225	5703
226.291	9437
226.357	14107
226.423	8992
226.489	5469
226.554	3994
226.620	3680
226.686	4851
226.752	6345
226.818	9534
226.884	16842
226.950	14532
227.016	7008
227.082	5049
227.148	4464
227.214	3572
227.279	3652
227.345	2712
227.411	4289
227.477	3703
227.543	6680
227.609	6808
227.674	5265
227.740	2546
227.806	3473
227.872	2189
227.938	2781
228.003	4545
228.069	2613
228.135	1650
228.201	2602
228.267	2310
228.332	2012
228.398	2333
228.464	2861
228.530	867
228.595	2211
228.661	1240
228.727	3178
228.792	3230
228.858	2468
228.924	1347
228.990	3761
229.055	2007
229.121	2795
229.187	1796
229.252	2146
229.318	1558
229.384	2750
229.449	3246
229.515	843
229.581	605
229.646	3674
229.712	2541
229.777	4045
229.843	4193
229.909	4674
229.974	4815
230.040	4425
230.105	3603
230.171	3698
230.236	4445
230.302	4989
230.368	4039
230.433	2586
230.499	3775
230.564	4381
230.630	1985
230.695	2576
230.761	2995
230.826	1119
230.892	4404
230.957	2048
231.023	3067
231.088	3579
231.154	2812
231.219	3545
231.284	2399
231.350	4278
231.415	1784
231.481	3209
231.546	2593
231.612	3100
231.677	1300
231.742	1909
231.808	2699
231.873	2014
231.939	914
232.004	4721
232.069	3939
232.135	2520
232.200	2594
232.265	3031
232.331	1854
232.396	2578
232.461	1928
232.527	1586
232.592	1378
232.657	2313
232.723	2546
232.788	2359
232.853	2819
232.918	2571
232.984	1193
233.049	2279
233.114	2063
233.179	3405
233.245	4131
233.310	3445
233.375	1243
233.440	2621
233.506	2229
233.571	1755
233.636	2853
233.701	2255
233.766	2728
233.832	3423
233.897	2259
233.962	1895
234.027	3768
234.092	3530
234.157	3102
234.222	2884
234.288	3630
234.353	7208
234.418	6522
234.483	5957
234.548	4928
234.613	4505
234.678	3970
234.743	3857
234.808	9054
234.873	5019
234.938	4804
235.004	4089
235.069	3220
235.134	3335
235.199	3629
235.264	3553
235.329	2168
235.394	4132
235.459	4631
235.524	3400
235.589	3469
235.654	3065
235.719	2046
235.784	3381
235.849	2146
235.913	4918
235.978	5012
236.043	5496
236.108	3585
236.173	2672
236.238	4363
236.303	3264
236.368	2457
236.433	4168
236.498	5107
236.563	5422
236.627	8044
236.692	22910
236.757	19263
236.822	9548
236.887	6986
236.952	6655
237.017	4521
237.081	6775
237.146	7016
237.211	13115
237.276	21801
237.341	33735
237.405	17757
237.470	8847
237.535	6553
237.600	5087
237.664	4349
237.729	4158
237.794	5083
237.859	9284
237.923	5853
237.988	3900
238.053	5092
238.118	5404
238.182	9795
238.247	8461
238.312	4490
238.376	5345
238.441	2511
238.506	4540
238.570	2889
238.635	3883
238.700	3180
238.764	2846
238.829	5772
238.893	6031
238.958	4812
239.023	4471
239.087	2866
239.152	4540
239.216	3156
239.281	3386
239.346	2309
239.410	3972
239.475	2900
239.539	9380
239.604	6391
239.668	4350
239.733	2524
239.797	5611
239.862	10608
239.926	10755
239.991	5472
240.055	3721
240.120	2734
240.184	3468
240.249	1805
240.313	3144
240.378	2866
240.442	5750
240.507	7665
240.571	3609
240.635	4897
240.700	6591
240.764	3289
240.829	3271
240.893	1366
240.957	2686
241.022	6397
241.086	9191
241.151	3940
241.215	2485
241.279	4820
241.344	5232
241.408	4509
241.472	4394
241.537	6417
241.601	4627
241.665	3754
241.730	4563
241.794	5278
241.858	4958
241.922	4333
241.987	4664
242.051	3807
242.115	3167
242.179	4268
242.244	3243
242.308	5075
242.372	4918
242.436	5054
242.501	4600
242.565	3836
242.629	4073
242.693	3967
242.757	2659
242.822	3160
242.886	3723
242.950	3649
243.014	3651
243.078	4410
243.142	4939
243.206	3067
243.271	4157
243.335	4436
243.399	5801
243.463	12629
243.527	29869
243.591	10858
243.655	6569
243.719	4070
243.783	5653
243.847	6179
243.911	6994
243.975	8616
244.040	6520
244.104	6321
244.168	4514
244.232	5295
244.296	7195
244.360	7212
244.424	4596
244.488	3465
244.552	3973
244.615	2552
244.679	3662
244.743	4783
244.807	4067
244.871	3144
244.935	3462
244.999	2319
245.063	3905
245.127	4971
245.191	5952
245.255	4666
245.319	5299
245.383	5059
245.446	5206
245.510	1851
245.574	4199
245.638	3939
245.702	2387
245.766	6812
245.829	5682
245.893	2604
245.957	3508
246.021	5884
246.085	4736
246.149	5098
246.212	11770
246.276	15848
246.340	8072
246.404	5768
246.467	6280
246.531	6793
246.595	6572
246.659	6761
246.722	4913
246.786	6413
246.850	6867
246.913	7622
246.977	3511
247.041	4623
247.104	5099
247.168	5729
247.232	10258
247.295	18955
247.359	11289
247.423	6280
247.486	8425
247.550	6346
247.614	6467
247.677	6988
247.741	5005
247.804	3894
247.868	5629
247.932	9335
247.995	18677
248.059	7849
248.122	4439
248.186	7223
248.249	11441
248.313	29071
248.376	30117
248.440	20222
248.503	9650
248.567	9402
248.630	10274
248.694	13454
248.757	18395
248.821	30566
248.884	22279
248.948	20501
249.011	26882
249.075	34847
249.138	31318
249.202	14967
249.265	9720
249.328	11206
249.392	9164
249.455	8388
249.519	6485
249.582	7968
249.645	12359
249.709	8776
249.772	6423
249.835	5829
249.899	6280
249.962	6697
250.025	6409
250.089	13916
250.152	18418
250.215	10286
250.279	7222
250.342	6948
250.405	8603
250.468	6376
250.532	8230
250.595	11391
250.658	30158
250.721	45946
250.785	19618
250.848	12526
250.911	7888
250.974	7870
251.038	10792
251.101	20019
251.164	10792
251.227	11522
251.290	10391
251.354	12864
251.417	41085
251.480	38696
251.543	29056
251.606	68877
251.669	53237
251.732	23500
251.795	25700
251.859	24636
251.922	47355
251.985	29090
252.048	14423
252.111	10490
252.174	11054
252.237	19724
252.300	35571
252.363	36312
252.426	60771
252.489	27239
252.552	15447
252.615	10042
252.678	12595
252.741	27406
252.804	31874
252.867	60341
252.930	40731
252.993	23300
253.056	16016
253.119	10592
253.182	8384
253.245	11685
253.308	10882
253.371	10834
253.434	9598
253.497	10169
253.559	18561
253.622	12975
253.685	16802
253.748	18072
253.811	8446
253.874	10524
253.937	9294
254.000	7129
254.062	14183
254.125	19659
254.188	19063
254.251	13838
254.314	7574
254.376	12902
254.439	15914
254.502	13231
254.565	14111
254.628	23213
254.690	15987
254.753	8002
254.816	7328
254.878	7391
254.941	14564
255.004	13403
255.067	8358
255.129	7409
255.192	4920
255.255	4134
255.317	6555
255.380	4297
255.443	3914
255.505	3099
255.568	2901
255.631	3259
255.693	5112
255.756	2845
255.819	3981
255.881	3491
255.944	4060
256.006	3085
256.069	3243
256.132	3097
256.194	6108
256.257	8346
256.319	6957
256.382	6093
256.444	6386
256.507	5525
256.569	4836
256.632	5498
256.694	6807
256.757	15615
256.819	40071
256.882	16870
256.944	8933
257.007	7671
257.069	8110
257.132	5394
257.194	5933
257.257	4865
257.319	4862
257.381	5460
257.444	11185
257.506	45809
257.569	50644
257.631	24895
257.693	14257
257.756	7549
257.818	6655
257.880	5406
257.943	6320
258.005	4408
258.067	5405
258.130	4655
258.192	6670
258.254	9797
258.317	6475
258.379	6078
258.441	11623
258.503	10341
258.566	10551
258.628	12155
258.690	4677
258.753	6619
258.815	10743
258.877	6801
258.939	5253
259.001	4860
259.064	5391
259.126	5261
259.188	5647
259.250	5253
259.312	6562
259.375	13309
259.437	9222
259.499	5385
259.561	5071
259.623	6144
259.685	5267
259.747	5452
259.809	10645
259.872	16722
259.934	25698
259.996	25524
260.058	10535
260.120	5178
260.182	4457
260.244	4086
260.306	4069
260.368	4037
260.430	4271
260.492	8634
260.554	15344
260.616	9404
260.678	16596
260.740	16340
260.802	6444
260.864	6287
260.926	4881
260.988	5954
261.050	5151
261.112	12557
261.174	23324
261.236	14735
261.298	7479
261.359	9259
261.421	11636
261.483	5202
261.545	6002
261.607	3107
261.669	4162
261.731	5822
261.793	12588
261.854	6809
261.916	6186
261.978	6095
262.040	6025
262.102	4124
262.164	4981
262.225	4749
262.287	4532
262.349	9650
262.411	7569
262.472	4874
262.534	5885
262.596	10448
262.658	5159
262.719	3027
262.781	4990
262.843	8597
262.904	5954
262.966	5013
263.028	5679
263.090	18718
263.151	44704
263.213	18619
263.275	13163
263.336	5181
263.398	5605
263.459	3008
263.521	4117
263.583	8874
263.644	7851
263.706	3473
263.767	2661
263.829	3272
263.891	2514
263.952	2401
264.014	2720
264.075	5466
264.137	14883
264.198	6822
264.260	2808
264.321	2695
264.383	8863
264.444	21048
264.506	7428
264.567	4574
264.629	9222
264.690	17289
264.752	7999
264.813	5147
264.875	3391
264.936	4519
264.998	2904
265.059	2982
265.120	3880
265.182	5061
265.243	23580
265.305	21624
265.366	7013
265.427	4178
265.489	3911
265.550	2198
265.611	5611
265.673	3874
265.734	4316
265.795	2584
265.857	2680
265.918	2167
265.979	7383
266.040	34349
266.102	28242
266.163	9959
266.224	8583
266.286	5192
266.347	3478
266.408	2853
266.469	3712
266.530	3637
266.592	2893
266.653	7536
266.714	11367
266.775	4642
266.836	4732
266.898	2563
266.959	6386
267.020	5037
267.081	5217
267.142	3431
267.203	3677
267.264	2801
267.326	5048
267.387	3609
267.448	2980
267.509	2882
267.570	3355
267.631	2704
267.692	2630
267.753	3034
267.814	2737
267.875	6699
267.936	12541
267.997	9754
268.058	8511
268.119	4125
268.180	4637
268.241	2988
268.302	3049
268.363	3063
268.424	4159
268.485	3893
268.546	3523
268.607	2122
268.668	3118
268.729	2034
268.790	3062
268.851	3294
268.912	8707
268.972	10036
269.033	6051
269.094	3349
269.155	3526
269.216	2773
269.277	3878
269.338	2419
269.398	3563
269.459	4634
269.520	6320
269.581	6535
269.642	8403
269.702	6298
269.763	5220
269.824	4044
269.885	6407
269.945	8117
270.006	3970
270.067	2111
270.128	3003
270.188	2574
270.249	3218
270.310	2720
270.370	3630
270.431	3212
270.492	2667
270.553	2838
270.613	7582
270.674	12465
270.734	5651
270.795	3342
270.856	6508
270.916	4254
270.977	3496
271.038	4754
271.098	4928
271.159	7003
271.219	7380
271.280	3297
271.340	3521
271.401	3836
271.462	7205
271.522	4810
271.583	4350
271.643	3033
271.704	3623
271.764	4588
271.825	10994
271.885	32210
271.946	39551
272.006	15644
272.066	20636
272.127	30500
272.187	12084
272.248	6823
272.308	7449
272.369	20796
272.429	11915
272.489	11199
272.550	10371
272.610	11063
272.671	8477
272.731	6878
272.791	9451
272.852	7391
272.912	7021
272.972	3856
273.033	3934
273.093	6064
273.153	7666
273.214	4249
273.274	5970
273.334	16930
273.394	29067
273.455	14063
273.515	13643
273.575	25579
273.635	11416
273.696	15818
273.756	27701
273.816	12972
273.876	7808
273.936	10768
273.997	17921
274.057	6249
274.117	6197
274.177	9396
274.237	36808
274.297	27525
274.358	17714
274.418	22847
274.478	19535
274.538	8223
274.598	5515
274.658	13956
274.718	17647
274.778	7347
274.838	5170
274.898	9066
274.958	21256
275.018	27543
275.078	18513
275.138	8578
275.198	4799
275.258	3859
275.318	5144
275.378	10061
275.438	11736
275.498	6837
275.558	11746
275.618	23814
275.678	18503
275.738	14459
275.798	11395
275.858	6355
275.918	3769
275.978	5263
276.038	5119
276.098	3088
276.157	8555
276.217	21189
276.277	10620
276.337	9083
276.397	4794
276.457	5572
276.517	4743
276.576	2784
276.636	3191
276.696	7052
276.756	13040
276.815	9181
276.875	5782
276.935	5542
276.995	5639
277.055	3677
277.114	4386
277.174	5484
277.234	16953
277.293	8144
277.353	5319
277.413	3781
277.472	4959
277.532	4378
277.592	5331
277.651	16542
277.711	25366
277.771	9686
277.830	33627
277.890	24244
277.950	19186
278.009	46061
278.069	18573
278.128	21654
278.188	28651
278.248	13976
278.307	30757
278.367	17399
278.426	7113
278.486	5537
278.545	4823
278.605	4680
278.664	4636
278.724	4014
278.783	12242
278.843	27161
278.902	9755
278.962	6913
279.021	7281
279.081	7481
279.140	8712
279.199	8160
279.259	8357
279.318	8466
279.378	10076
279.437	16078
279.496	49097
279.556	109155
279.615	80420
279.675	26544
279.734	16860
279.793	24506
279.853	37395
279.912	15359
279.971	9430
280.031	8209
280.090	15953
280.149	24553
280.208	19030
280.268	76251
280.327	70641
280.386	20168
280.445	17618
280.505	15475
280.564	9109
280.623	6242
280.682	11145
280.742	15685
280.801	5908
280.860	4687
280.919	5125
280.978	4137
281.037	4442
281.097	3516
281.156	5126
281.215	3125
281.274	4665
281.333	18526
281.392	13395
281.451	4775
281.510	3816
281.569	2944
281.628	2635
281.688	3128
281.747	5126
281.806	3984
281.865	3852
281.924	3526
281.983	3219
282.042	2976
282.101	3641
282.160	3270
282.219	3235
282.278	3761
282.337	11834
282.396	8145
282.454	4326
282.513	4893
282.572	19034
282.631	11518
282.690	4273
282.749	4184
282.808	5389
282.867	5245
282.926	5693
282.985	4134
283.043	3145
283.102	2513
283.161	4499
283.220	8574
283.279	17814
283.338	6506
283.396	4182
283.455	4053
283.514	5042
283.573	9032
283.631	6259
283.690	4576
283.749	5114
283.808	9829
283.866	10954
283.925	5252
283.984	5037
284.043	6642
284.101	7410
284.160	5166
284.219	7110
284.277	6855
284.336	9631
284.395	25404
284.453	19720
284.512	9895
284.570	13670
284.629	13219
284.688	12797
284.746	14735
284.805	17121
284.863	22394
284.922	27919
284.981	33370
285.039	47375
285.098	74952
285.156	120713
285.215	123846
285.273	129007
285.332	121676
285.390	85793
285.449	56985
285.507	41359
285.566	30123
285.624	23662
285.683	18720
285.741	15154
285.799	12962
285.858	11897
285.916	11359
285.975	8919
286.033	7495
286.091	8243
286.150	5945
286.208	6409
286.267	7443
286.325	7260
286.383	11357
286.442	8866
286.500	5089
286.558	4942
286.616	4183
286.675	6890
286.733	6266
286.791	5138
286.850	6044
286.908	6730
286.966	10747
287.024	5436
287.083	3566
287.141	3344
287.199	4713
287.257	6822
287.315	5012
287.374	6441
287.432	12082
287.490	8389
287.548	5340
287.606	4750
287.664	3698
287.723	6656
287.781	6851
287.839	5060
287.897	4649
287.955	5226
288.013	6220
288.071	14352
288.129	59082
288.187	142235
288.245	64845
288.303	23009
288.361	13196
288.419	9934
288.477	6735
288.535	5755
288.593	4294
288.651	4737
288.709	2922
288.767	3748
288.825	3373
288.883	3571
288.941	3217
288.999	3359
289.057	2429
289.115	3249
289.173	2855
289.231	4218
289.289	2126
289.346	2896
289.404	3476
289.462	7258
289.520	7157
289.578	3412
289.636	2387
289.694	3322
289.751	2576
289.809	2806
289.867	2888
289.925	4967
289.983	4663
290.040	3541
290.098	2850
290.156	5128
290.214	4571
290.271	2705
290.329	2618
290.387	2139
290.444	2788
290.502	2558
290.560	2261
290.617	2906
290.675	2336
290.733	2919
290.790	3835
290.848	2861
290.906	3073
290.963	2928
291.021	2182
291.078	3148
291.136	2496
291.194	11770
291.251	21671
291.309	7076
291.366	3161
291.424	3502
291.481	4140
291.539	3488
291.596	3786
291.654	3049
291.711	2485
291.769	3457
291.826	7176
291.884	4279
291.941	2350
291.999	3085
292.056	4315
292.114	4010
292.171	2772
292.228	3292
292.286	3907
292.343	8294
292.401	8226
292.458	5961
292.515	4467
292.573	5133
292.630	4133
292.687	4124
292.745	3864
292.802	5832
292.859	14334
292.917	22272
292.974	13117
293.031	4870
293.089	3341
293.146	2893
293.203	2783
293.260	2768
293.318	4006
293.375	7619
293.432	3661
293.489	3416
293.546	3717
293.604	5109
293.661	15214
293.718	33793
293.775	18767
293.832	10426
293.889	7438
293.947	7992
294.004	4551
294.061	5150
294.118	11466
294.175	22685
294.232	28211
294.289	11947
294.346	7695
294.403	6455
294.460	4495
294.517	3604
294.574	4059
294.631	4093
294.688	3785
294.745	11033
294.802	39114
294.859	42207
294.916	16730
294.973	9837
295.030	8594
295.087	6235
295.144	4505
295.201	3830
295.258	3667
295.315	4783
295.372	15206
295.429	25825
295.486	11859
295.542	8178
295.599	19096
295.656	30037
295.713	22904
295.770	25718
295.827	10606
295.883	6891
295.940	5955
295.997	10307
296.054	9075
296.111	4985
296.167	4583
296.224	4230
296.281	3523
296.338	3768
296.394	3234
296.451	4151
296.508	12150
296.564	21379
296.621	15442
296.678	33515
296.734	43430
296.791	17393
296.848	9329
296.904	10717
296.961	22036
297.018	30893
297.074	21959
297.131	9380
297.187	6335
297.244	9310
297.301	28396
297.357	44973
297.414	18122
297.470	9278
297.527	5590
297.583	5466
297.640	4758
297.696	4465
297.753	3760
297.809	3126
297.866	3259
297.922	2994
297.979	2843
298.035	3376
298.092	6056
298.148	17824
298.204	16221
298.261	8263
298.317	16340
298.374	38487
298.430	22196
298.486	10344
298.543	6904
298.599	7057
298.656	7988
298.712	13881
298.768	26807
298.824	17191
298.881	7652
298.937	6124
298.993	4478
299.050	6363
299.106	6496
299.162	4829
299.218	5137
299.275	4574
299.331	5162
299.387	10072
299.443	33413
299.500	34526
299.556	15300
299.612	9265
299.668	7945
299.724	9553
299.780	9319
299.837	5234
299.893	8428
299.949	28066
300.005	29572
300.061	28870
300.117	45607
300.173	22380
300.229	10861
300.285	14572
300.341	14728
300.397	9088
300.453	5344
300.510	5077
300.566	5203
300.622	6138
300.678	18725
300.734	31577
300.790	28804
300.845	31369
300.901	21991
300.957	30642
301.013	20518
301.069	8662
301.125	6887
301.181	7722
301.237	5930
301.293	4313
301.349	4351
301.405	3351
301.461	4877
301.516	5822
301.572	6272
301.628	10050
301.684	8482
301.740	12974
301.796	19239
301.851	13177
301.907	21718
301.963	20501
302.019	34744
302.074	82407
302.130	81348
302.186	40677
302.242	18179
302.297	10638
302.353	11483
302.409	19621
302.464	16328
302.520	13751
302.576	33103
302.631	36770
302.687	22102
302.743	10174
302.798	7065
302.854	5508
302.910	5876
302.965	7085
303.021	12437
303.076	12352
303.132	16026
303.187	17689
303.243	9861
303.299	5800
303.354	5169
303.410	4948
303.465	4362
303.521	4443
303.576	4636
303.632	5709
303.687	11354
303.743	30395
303.798	23858
303.853	12375
303.909	7159
303.964	5814
304.020	9803
304.075	13333
304.130	13024
304.186	23209
304.241	23209
304.297	18371
304.352	9937
304.358	9708
304.407	7858
304.449	7180
304.463	6949
304.518	7059
304.539	6496
304.573	5634
304.629	5328
304.630	5409
304.684	9369
304.720	19971
304.739	25192
304.794	33792
304.811	28934
304.850	17164
304.902	9288
304.905	8808
304.960	6311
304.992	5855
305.015	5519
305.071	6929
305.083	6763
305.126	6111
305.173	4396
305.181	4138
305.236	3903
305.264	4369
305.292	4832
305.347	5862
305.354	5998
305.402	6855
305.445	6342
305.457	6202
305.512	7691
305.535	8071
305.567	8522
305.622	7979
305.626	8188
305.678	14603
305.716	27748
305.733	31942
305.788	32210
305.807	28833
305.843	24084
305.897	32633
305.898	32705
305.953	29576
305.988	20500
306.008	15892
306.063	11040
306.078	9869
306.118	7364
306.168	5481
306.173	5337
306.228	4658
306.259	4306
306.283	4032
306.338	3955
306.349	4052
306.393	4528
306.440	5354
306.448	5520
306.503	5791
306.530	6050
306.558	8442
306.613	19194
306.620	20510
306.668	27194
306.711	34273
306.723	34498
306.778	24366
306.801	19003
306.833	13762
306.888	6816
306.892	6553
306.943	5456
306.982	5107
306.997	4991
307.052	5057
307.072	5071
307.107	6053
307.162	8307
307.163	8329
307.217	11971
307.253	15230
307.272	15757
307.327	15259
307.343	14252
307.381	12152
307.434	10283
307.436	10684
307.491	24166
307.524	34107
307.546	34545
307.600	29631
307.614	26208
307.655	16979
307.704	9464
307.710	9420
307.765	11634
307.795	14635
307.819	17956
307.874	27186
307.885	27644
307.929	20977
307.975	14300
307.984	14832
308.038	20085
308.065	24591
308.093	43153
308.148	91734
308.156	101418
308.202	145962
308.246	168866
308.257	161407
308.312	88576
308.336	60835
308.366	48760
308.421	31939
308.426	30340
308.475	19439
308.517	13479
308.530	12852
308.585	11926
308.607	11818
308.639	12446
308.694	14002
308.697	14182
308.748	26983
308.787	38679
308.803	37407
308.857	26520
308.877	22141
308.912	20624
308.967	20069
308.967	20053
309.021	28385
309.058	35288
309.076	44608
309.130	77178
309.148	89201
309.185	145494
309.238	238389
309.239	239071
309.293	242592
309.328	225241
309.348	194529
309.402	97266
309.418	71781
309.457	53475
309.508	34672
309.511	34502
309.566	36226
309.598	38934
309.620	48418
309.674	75805
309.688	82606
309.729	75305
309.778	59480
309.783	58051
309.837	40057
309.868	30782
309.892	35801
309.946	51057
309.959	55435
310.001	66460
310.049	74936
310.055	72052
310.109	40795
310.139	23765
310.163	19529
310.218	12414
310.229	11192
310.272	9684
310.319	8394
310.326	8286
310.381	7749
310.409	7689
310.435	7536
310.489	6625
310.499	6562
310.543	7661
310.589	8677
310.598	8652
310.652	8420
310.679	8282
310.706	7530
310.760	5726
310.769	5454
310.814	4836
310.859	4353
310.868	4510
310.923	5304
310.948	5735
310.977	6204
311.031	6975
311.038	7081
311.085	6952
311.128	6688
311.139	6624
311.193	6355
311.218	6171
311.247	6170
311.301	6045
311.308	6044
311.356	5913
311.398	5716
311.410	5744
311.464	5784
311.488	5797
311.518	5574
311.572	5131
311.578	5095
311.626	8392
311.668	11207
311.680	11077
311.734	10245
311.758	9858
311.788	9875
311.842	9955
311.847	9936
311.896	12574
311.937	14929
311.950	14614
312.004	13002
312.027	12262
312.058	10185
312.112	6455
312.117	6078
312.165	6668
312.207	7168
312.297	10746
312.386	8498
312.476	7947
312.566	16864
312.656	7134
312.745	5736
312.835	6295
312.925	9544
313.015	7554
313.104	7955
313.194	5435
313.284	6492
313.374	8352
313.463	8035
313.553	5603
313.643	6213
313.732	4998
313.822	5657
313.912	6525
314.001	7672
314.091	7696
314.180	12358
314.270	10005
314.360	12134
314.449	9082
314.539	6573
314.628	5795
314.718	7762
314.808	10366
314.897	6323
314.987	6005
315.076	8419
315.166	11260
315.255	11317
315.345	9818
315.434	10899
315.524	9162
315.613	11050
315.703	13388
315.792	19925
315.881	45625
315.971	18027
316.060	19968
316.150	30442
316.239	29106
316.328	10975
316.418	5383
316.507	7583
316.597	9544
316.686	9537
316.775	14632
316.865	31839
316.954	6576
317.043	5348
317.133	5350
317.222	5675
317.311	5638
317.400	5310
317.490	9368
317.579	9723
317.668	6666
317.757	12772
317.847	30072
317.936	80328
318.025	34294
318.114	19750
318.203	13606
318.293	19958
318.382	34150
318.471	28160
318.560	38180
318.649	65417
318.738	12748
318.828	10256
318.917	10330
319.006	15091
319.095	42192
319.184	86708
319.273	45397
319.362	23535
319.451	8340
319.540	10302
319.629	23185
319.718	31189
319.807	13012
319.896	37331
319.985	102003
320.074	33379
320.163	11661
320.252	20623
320.341	16877
320.430	14295
320.519	18115
320.608	10294
320.697	8849
320.786	9481
320.875	12230
320.964	15454
321.053	24227
321.142	36243
321.230	33727
321.319	30380
321.408	62301
321.497	25702
321.586	24533
321.675	32616
321.764	27797
321.852	19961
321.941	36799
322.030	21458
322.119	28945
322.207	65457
322.296	46061
322.385	22629
322.474	29879
322.562	79732
322.651	35299
322.740	29759
322.829	41017
322.917	43930
323.006	23721
323.095	19414
323.183	15590
323.272	23268
323.361	43573
323.449	110344
323.538	36510
323.626	85958
323.715	43982
323.804	21703
323.892	80458
323.981	39036
324.069	12821
324.158	46093
324.246	36094
324.335	16225
324.424	22893
324.512	9294
324.601	13497
324.689	44313
324.778	71400
324.866	34912
324.954	8727
325.043	8846
325.131	20101
325.220	35292
325.308	38378
325.397	29623
325.485	15781
325.574	5726
325.662	6829
325.750	8086
325.839	5929
325.927	6103
326.015	8203
326.104	16758
326.192	19899
326.280	6827
326.369	6283
326.457	11843
326.545	19577
326.634	8363
326.722	4945
326.810	6524
326.898	5205
326.987	8717
327.075	18932
327.163	19686
327.251	11413
327.340	35303
327.428	40922
327.516	7721
327.604	6887
327.692	7880
327.781	8984
327.869	17195
327.957	9490
328.045	9158
328.133	5267
328.221	9027
328.309	6754
328.397	5569
328.485	7089
328.574	12973
328.662	42233
328.750	23420
328.838	9743
328.926	6081
329.014	4593
329.102	9380
329.190	26401
329.278	14948
329.366	4123
329.454	5431
329.542	4935
329.630	4947
329.718	5888
329.806	7931
329.893	7787
329.981	8189
330.069	11061
330.157	51440
330.245	112585
330.333	50315
330.421	9525
330.509	14506
330.597	51147
330.684	29932
330.772	11699
330.860	17629
330.948	21864
331.036	9690
331.123	3655
331.211	5396
331.299	7184
331.387	21453
331.475	30954
331.562	10481
331.650	5408
331.738	7831
331.825	11095
331.913	5676
332.001	4749
332.089	8174
332.176	17497
332.264	45693
332.352	31316
332.439	10248
332.527	6373
332.614	6894
332.702	9060
332.790	6721
332.877	20877
332.965	43024
333.052	11819
333.140	15991
333.228	35197
333.315	9517
333.403	7747
333.490	26544
333.578	25172
333.665	43560
333.753	17603
333.840	7389
333.928	8965
334.015	25820
334.103	40024
334.190	109455
334.278	26055
334.365	14252
334.452	9707
334.540	6573
334.627	9011
334.715	14041
334.802	25922
334.889	145277
334.977	122415
335.064	17557
335.151	8796
335.239	9283
335.326	12559
335.413	57488
335.501	65074
335.588	10382
335.675	7478
335.762	12016
335.850	17950
335.937	12992
336.024	37302
336.111	147781
336.199	57898
336.286	13443
336.373	6961
336.460	5543
336.547	5792
336.635	9291
336.722	7868
336.809	6553
336.896	11567
336.983	37256
337.070	83568
337.157	103187
337.245	90301
337.332	57843
337.419	8300
337.506	6418
337.593	6959
337.680	32085
337.767	79573
337.854	23479
337.941	27181
338.028	35342
338.115	10865
338.202	13476
338.289	26205
338.376	90954
338.463	26504
338.550	51689
338.637	45658
338.724	20070
338.811	28663
338.898	6713
338.984	5356
339.071	8821
339.158	9394
339.245	26152
339.332	15008
339.419	22486
339.506	19671
339.593	4892
339.679	5058
339.766	5899
339.853	8489
339.940	17444
340.027	5921
340.113	7022
340.200	9582
340.287	6948
340.374	9315
340.460	16655
340.547	6737
340.634	14187
340.720	48359
340.807	23968
340.894	4705
340.980	6641
341.067	5352
341.154	7429
341.240	11860
341.327	24683
341.414	8458
341.500	10389
341.587	6121
341.674	6103
341.760	16548
341.847	19025
341.933	5811
342.020	3366
342.106	3261
342.193	7196
342.279	11684
342.366	10274
342.452	15590
342.539	9039
342.625	22993
342.712	50616
342.798	20063
342.885	8603
342.971	2401
343.058	3867
343.144	4346
343.230	5512
343.317	5102
343.403	4770
343.490	2969
343.576	3790
343.662	4840
343.749	5897
343.835	7027
343.921	14807
344.008	88143
344.094	168150
344.180	33551
344.267	15872
344.353	53195
344.439	53928
344.525	22862
344.612	10385
344.698	8107
344.784	5353
344.870	4692
344.957	6289
345.043	10148
345.129	8228
345.215	16838
345.301	9451
345.387	5710
345.474	4055
345.560	3893
345.646	6233
345.732	5532
345.818	7830
345.904	6287
345.990	7248
346.076	7639
346.162	15846
346.249	7652
346.335	4296
346.421	5079
346.507	23707
346.593	67616
346.679	15746
346.765	6426
346.851	6845
346.937	5208
347.023	5763
347.108	6576
347.194	5562
347.280	5761
347.366	8404
347.452	24563
347.538	84626
347.624	63248
347.710	50366
347.796	8931
347.882	5879
347.967	5458
348.053	8396
348.139	5789
348.225	4574
348.311	4606
348.397	4964
348.482	6493
348.568	8194
348.654	4104
348.740	7220
348.825	6811
348.911	11098
348.997	42122
349.083	74285
349.168	12143
349.254	6561
349.340	6648
349.425	3968
349.511	7357
349.597	10078
349.682	18460
349.768	53260
349.854	21709
349.939	6146
350.025	4151
350.110	4837
350.196	4367
350.282	3712
350.367	3806
350.453	10781
350.538	10845
350.624	8844
350.709	8068
350.795	5067
350.880	4703
350.966	7567
351.051	10430
351.137	8942
351.222	6906
351.308	21374
351.393	47161
351.479	13275
351.564	5325
351.649	6514
351.735	4096
351.820	3743
351.906	5106
351.991	9167
352.076	33888
352.162	43708
352.247	8712
352.332	6751
352.418	15466
352.503	21793
352.588	73926
352.673	54315
352.759	12778
352.844	7062
352.929	8174
353.014	10366
353.100	6986
353.185	14663
353.270	19300
353.355	19496
353.441	6040
353.526	8372
353.611	17578
353.696	18601
353.781	11171
353.866	6106
353.952	7044
354.037	18395
354.122	37582
354.207	33910
354.292	12385
354.377	6412
354.462	5394
354.547	8872
354.632	7370
354.717	12797
354.802	14892
354.887	6663
354.972	4551
355.057	4252
355.142	3785
355.227	6649
355.312	11458
355.397	26497
355.482	58573
355.567	28276
355.652	20478
355.737	23503
355.822	63000
355.907	47441
355.991	8915
356.076	5277
356.161	5187
356.246	4987
356.331	5607
356.416	16820
356.501	92071
356.585	89596
356.670	13973
356.755	12060
356.840	16175
356.924	76127
357.009	223215
357.094	81995
357.179	20441
357.263	14039
357.348	14473
357.433	14989
357.517	12198
357.602	10873
357.687	8011
357.771	15800
357.856	40031
357.941	25206
358.025	56817
358.110	211275
358.195	94457
358.279	15674
358.364	13373
358.448	49522
358.533	120578
358.617	86022
358.702	82056
358.787	30513
358.871	18486
358.956	15801
359.040	5263
359.125	5307
359.209	6279
359.294	21411
359.378	31318
359.462	15617
359.547	9455
359.631	7799
359.716	4543
359.800	7078
359.885	10142
359.969	7441
360.053	5750
360.138	7150
360.222	9413
360.306	18544
360.391	14229
360.475	27206
360.559	53771
360.644	47408
360.728	33179
360.812	56226
360.896	133249
360.981	61242
361.065	33195
361.149	10249
361.233	10088
361.318	8711
361.402	8641
361.486	9092
361.570	5957
361.654	10458
361.739	25198
361.823	94165
361.907	130715
361.991	24349
362.075	17031
362.159	35899
362.243	26750
362.327	25184
362.411	30614
362.495	17222
362.580	9382
362.664	7032
362.748	7056
362.832	9422
362.916	15956
363.000	54181
363.084	131939
363.168	158679
363.252	38935
363.336	15819
363.420	23623
363.503	75714
363.587	81089
363.671	16457
363.755	12546
363.839	18714
363.923	9547
364.007	20741
364.091	23140
364.175	34584
364.258	117588
364.342	91485
364.426	99623
364.510	53685
364.594	25491
364.677	34399
364.761	117263
364.845	82364
364.929	31796
365.013	26740
365.096	21961
365.180	26497
365.264	34619
365.347	111664
365.431	48435
365.515	15307
365.598	7675
365.682	8600
365.766	15647
365.849	19312
365.933	10105
366.017	14240
366.100	10740
366.184	6040
366.267	6668
366.351	5434
366.435	5097
366.518	4989
366.602	4211
366.685	6068
366.769	7354
366.852	14616
366.936	23424
367.019	13652
367.103	12092
367.186	20976
367.270	7127
367.353	4351
367.436	5752
367.520	5118
367.603	9013
367.687	12546
367.770	21246
367.853	14766
367.937	38943
368.020	59594
368.104	15517
368.187	17897
368.270	24516
368.353	21602
368.437	28588
368.520	64294
368.603	40268
368.687	49796
368.770	80151
368.853	21725
368.936	22113
369.020	22617
369.103	8378
369.186	6148
369.269	6909
369.352	15510
369.436	20847
369.519	13867
369.602	6343
369.685	9446
369.768	7746
369.851	7835
369.934	5632
370.018	9311
370.101	18737
370.184	16612
370.267	11562
370.350	19375
370.433	29907
370.516	66519
370.599	77876
370.682	29790
370.765	51978
370.848	60687
370.931	97692
371.014	39618
371.097	10437
371.180	9071
371.263	5480
371.346	4881
371.429	5794
371.511	7048
371.594	13918
371.677	21467
371.760	23687
371.843	23246
371.926	88727
372.009	174363
372.091	60310
372.174	45317
372.257	88084
372.340	37218
372.423	32612
372.505	37480
372.588	17938
372.671	38148
372.754	97401
372.836	49695
372.919	39935
373.002	73406
373.085	24115
373.167	21637
373.250	48692
373.332	93253
373.415	126642
373.498	229262
373.580	91738
373.663	120719
373.746	151083
373.828	37169
373.911	18041
373.993	21999
374.076	70382
374.159	65005
374.241	33686
374.324	86513
374.406	58129
374.489	78285
374.571	187678
374.654	77226
374.736	42800
374.819	122652
374.901	169501
374.983	162411
375.066	29903
375.148	16071
375.231	56980
375.313	102845
375.395	39612
375.478	11270
375.560	8402
375.643	12194
375.725	43145
375.807	145675
375.890	118596
375.972	58887
376.054	33706
376.136	50414
376.219	25335
376.301	48386
376.383	122624
376.465	50028
376.548	35110
376.630	45207
376.712	107070
376.794	49636
376.877	7148
376.959	6079
377.041	8360
377.123	17669
377.205	18840
377.287	5583
377.369	5264
377.452	6231
377.534	6210
377.616	6178
377.698	5391
377.780	4909
377.862	6512
377.944	6909
378.026	3811
378.108	5703
378.190	4687
378.272	4456
378.354	3773
378.436	4792
378.518	11235
378.600	36615
378.682	32626
378.764	62844
378.846	47569
378.928	17318
379.010	21374
379.091	12566
379.173	5930
379.255	6188
379.337	9640
379.419	33967
379.501	81339
379.583	33988
379.664	10809
379.746	26501
379.828	64523
379.910	83320
379.991	67037
380.073	13524
380.155	8977
380.237	6708
380.318	5738
380.400	6935
380.482	15691
380.564	22950
380.645	22585
380.727	22181
380.809	13023
380.890	9496
380.972	6853
381.053	7781
381.135	10399
381.217	25926
381.298	63852
381.380	33971
381.461	31045
381.543	111951
381.624	129862
381.706	26766
381.787	14965
381.869	18758
381.951	56732
382.032	176056
382.113	111337
382.195	28093
382.276	22104
382.358	45649
382.439	102503
382.521	115891
382.602	164058
382.684	89096
382.765	157737
382.846	207709
382.928	314418
383.009	182636
383.090	139580
383.172	425257
383.253	582186
383.334	213538
383.416	168426
383.497	92932
383.578	58911
383.659	120637
383.741	380433
383.822	777108
383.903	420088
383.984	153572
384.066	199597
384.147	124763
384.228	31589
384.309	24390
384.390	18598
384.471	14556
384.553	16209
384.634	20594
384.715	20951
384.796	12626
384.877	18706
384.958	58556
385.039	68301
385.120	26737
385.201	13704
385.282	17145
385.363	17920
385.444	17624
385.525	29268
385.606	78538
385.687	64478
385.768	20536
385.849	28088
385.930	93602
386.011	140928
386.092	40956
386.173	11202
386.254	9950
386.335	11094
386.416	14341
386.496	41724
386.577	62318
386.658	25391
386.739	15530
386.820	14122
386.901	12426
386.981	10609
387.062	9107
387.143	19032
387.224	62595
387.304	56846
387.385	21229
387.466	14489
387.547	18949
387.627	12729
387.708	30053
387.789	103305
387.869	117561
387.950	30985
388.031	7921
388.111	7395
388.192	23798
388.273	32337
388.353	19697
388.434	11455
388.514	25945
388.595	92281
388.676	117050
388.756	61396
388.837	58728
388.917	34781
388.998	8621
389.078	7684
389.159	7828
389.239	6593
389.320	14050
389.400	11711
389.480	27561
389.561	59915
389.641	30605
389.722	13041
389.802	21221
389.883	31293
389.963	69852
390.043	45767
390.124	18211
390.204	26692
390.284	69833
390.365	47085
390.445	54226
390.525	115984
390.605	101126
390.686	36302
390.766	13628
390.846	8291
390.927	6222
391.007	5665
391.087	9473
391.167	9182
391.247	8065
391.328	13458
391.408	20659
391.488	14375
391.568	6169
391.648	10437
391.728	15574
391.808	13519
391.888	17505
391.969	36757
392.049	56563
392.129	26081
392.209	32867
392.289	67440
392.369	39590
392.449	34211
392.529	22241
392.609	18412
392.689	26791
392.769	67408
392.849	58447
392.929	48131
393.009	99253
393.089	75450
393.169	71528
393.248	221157
393.328	648120
393.408	673979
393.488	206394
393.568	61303
393.648	31351
393.728	19484
393.807	15405
393.887	13345
393.967	12979
394.047	14798
394.127	18186
394.206	30455
394.286	104882
394.366	358527
394.446	368381
394.525	88858
394.605	25184
394.685	23499
394.764	51316
394.844	79422
394.924	56328
395.003	16671
395.083	12363
395.163	10494
395.242	10372
395.322	10992
395.402	8567
395.481	13377
395.561	37399
395.640	89551
395.720	74490
395.799	90016
395.879	71902
395.958	45591
396.038	151179
396.117	467002
396.197	496091
396.276	157671
396.356	56422
396.435	41223
396.515	30725
396.594	35577
396.673	68090
396.753	228212
396.832	593014
396.912	457067
396.991	123244
397.070	33430
397.150	20170
397.229	15012
397.308	22316
397.388	33651
397.467	17132
397.546	8768
397.625	6860
397.705	11280
397.784	11842
397.863	6423
397.942	5631
398.022	7931
398.101	30513
398.180	77913
398.259	42843
398.338	11790
398.417	8262
398.497	6154
398.576	7690
398.655	4754
398.734	4939
398.813	7489
398.892	29382
398.971	81311
399.050	40475
399.129	5492
399.208	4859
399.287	4543
399.366	3798
399.445	3855
399.524	5277
399.603	4792
399.682	11778
399.761	32418
399.840	88341
399.919	65353
399.998	10489
400.077	4424
400.156	3210
400.235	6808
400.313	6173
400.392	8755
400.471	36410
400.550	53668
400.629	15451
400.708	7045
400.786	8367
400.865	20973
400.944	23707
401.023	10711
401.102	3689
401.180	3443
401.259	4247
401.338	5947
401.416	8106
401.495	6996
401.574	6182
401.652	4940
401.731	8158
401.810	6804
401.888	4138
401.967	2592
402.046	5290
402.124	7188
402.203	9653
402.281	6436
402.360	10613
402.438	26650
402.517	18584
402.596	6699
402.674	7089
402.753	4475
402.831	4027
402.910	7219
402.988	29833
403.066	78785
403.145	45078
403.223	31232
403.302	67902
403.380	52697
403.459	50387
403.537	18975
403.615	7625
403.694	2429
403.772	3753
403.850	3153
403.929	2630
404.007	4149
404.085	11126
404.164	10940
404.242	4391
404.320	5963
404.398	13156
404.477	37610
404.555	136101
404.633	114251
404.711	18279
404.789	5959
404.868	6180
404.946	3018
405.024	2604
405.102	2240
405.180	2720
405.258	1680
405.336	4143
405.415	3587
405.493	10577
405.571	9735
405.649	3210
405.727	3717
405.805	6524
405.883	6821
405.961	8563
406.039	7530
406.117	4813
406.195	8842
406.273	41561
406.351	121828
406.429	72114
406.507	13489
406.585	5904
406.663	6080
406.740	7472
406.818	6053
406.896	3749
406.974	5057
407.052	15560
407.130	75778
407.208	100596
407.285	21361
407.363	4240
407.441	4493
407.519	3712
407.596	4604
407.674	13529
407.752	29529
407.830	34645
407.907	16550
407.985	6706
408.063	3514
408.141	3345
408.218	8309
408.296	8133
408.373	6465
408.451	6828
408.529	5534
408.606	3354
408.684	2596
408.762	2596
408.839	1490
408.917	2190
408.994	2552
409.072	2771
409.149	2820
409.227	6718
409.304	6781
409.382	6861
409.459	6338
409.537	10692
409.614	9212
409.692	6242
409.769	6514
409.846	11536
409.924	13872
410.001	9488
410.079	5831
410.156	5956
410.233	4676
410.311	3844
410.388	3235
410.465	5523
410.543	5119
410.620	4285
410.697	4813
410.775	5862
410.852	2949
410.929	7163
411.006	7339
411.083	6274
411.161	11545
411.238	12428
411.315	6544
411.392	4225
411.469	6697
411.547	7153
411.624	2531
411.701	3781
411.778	5462
411.855	11693
411.932	5421
412.009	3738
412.086	3490
412.163	5294
412.240	5148
412.317	6985
412.394	6197
412.471	3458
412.548	2749
412.625	3403
412.702	5612
412.779	9812
412.856	6293
412.933	2322
413.010	2493
413.087	8179
413.164	35132
413.241	44990
413.318	12283
413.395	7553
413.471	10210
413.548	5709
413.625	3715
413.702	4927
413.779	3594
413.855	1664
413.932	1407
414.009	2294
414.086	1748
414.162	3705
414.239	8123
414.316	34345
414.393	68463
414.469	23558
414.546	2891
414.623	3665
414.699	2868
414.776	4263
414.853	3085
414.929	3216
415.006	3849
415.082	4862
415.159	3183
415.236	3649
415.312	3675
415.389	9590
415.465	10018
415.542	5838
415.618	3601
415.695	7505
415.771	4933
415.848	5161
415.924	3330
416.000	3826
416.077	2831
416.153	1310
416.230	997
416.306	2475
416.383	2333
416.459	2811
416.535	1367
416.612	2395
416.688	1909
416.764	2646
416.841	2592
416.917	3307
416.993	3258
417.069	4842
417.146	6224
417.222	8330
417.298	4956
417.374	3102
417.451	4360
417.527	6379
417.603	4912
417.679	4216
417.755	3473
417.831	2655
417.908	1796
417.984	1797
418.060	2142
418.136	9711
418.212	11469
418.288	4323
418.364	2829
418.440	3830
418.516	6952
418.592	9329
418.668	16523
418.744	23131
418.820	15946
418.896	4901
418.972	2331
419.048	4655
419.124	10225
419.200	7942
419.276	2173
419.352	1983
419.428	2163
419.504	3560
419.579	5063
419.655	3451
419.731	5204
419.807	15754
419.883	25495
419.959	16876
420.034	6043
420.110	14190
420.186	44236
420.262	32805
420.337	6662
420.413	5788
420.489	2656
420.565	3553
420.640	2591
420.716	4116
420.792	2003
420.867	3818
420.943	2767
421.019	7837
421.094	5226
421.170	3740
421.245	2397
421.321	4523
421.397	4123
421.472	8184
421.548	16613
421.623	15109
421.699	6962
421.774	7366
421.850	6805
421.925	11467
422.001	11919
422.076	9449
422.152	11964
422.227	18824
422.302	21668
422.378	32317
422.453	64243
422.529	151932
422.604	338244
422.679	461765
422.755	332039
422.830	133002
422.905	54249
422.981	31466
423.056	20032
423.131	15942
423.207	11667
423.282	13427
423.357	18147
423.432	13374
423.508	13977
423.583	25678
423.658	17940
423.733	8341
423.808	8560
423.883	9468
423.959	8454
424.034	7720
424.109	5514
424.184	3669
424.259	3014
424.334	3139
424.409	2892
424.484	2995
424.559	3501
424.634	3740
424.709	6081
424.784	7812
424.859	4360
424.934	9804
425.009	34502
425.084	52630
425.159	18033
425.234	5114
425.309	3065
425.384	12875
425.459	17113
425.534	6329
425.609	4536
425.683	3475
425.758	2781
425.833	4408
425.908	5465
425.983	21764
426.058	52660
426.132	22588
426.207	5423
426.282	8735
426.357	6675
426.431	3398
426.506	3141
426.581	3854
426.655	3139
426.730	3289
426.805	2146
426.879	3801
426.954	3466
427.029	12133
427.103	51746
427.178	109449
427.253	45720
427.327	7091
427.402	10181
427.476	23035
427.551	10177
427.625	5678
427.700	4085
427.774	2924
427.849	4210
427.923	2480
427.998	2836
428.072	4208
428.147	11327
428.221	45768
428.296	103328
428.370	49529
428.444	7625
428.519	12543
428.593	20736
428.667	18986
428.742	21038
428.816	25876
428.890	74846
428.965	104450
429.039	34837
429.113	24356
429.188	8297
429.262	3738
429.336	10097
429.410	26950
429.485	16773
429.559	16976
429.633	13483
429.707	5075
429.781	18552
429.855	84757
429.930	113447
430.004	64111
430.078	90148
430.152	86960
430.226	132454
430.300	119778
430.374	18472
430.448	9545
430.522	31807
430.596	82543
430.670	57444
430.744	121815
430.818	156130
430.892	31312
430.966	6078
431.040	4124
431.114	2030
431.188	2078
431.262	2984
431.336	2717
431.410	10893
431.484	26759
431.557	16653
431.631	3524
431.705	4864
431.779	25660
431.853	89290
431.927	56159
432.000	6943
432.074	3138
432.148	3588
432.222	4148
432.295	2434
432.369	2983
432.443	8402
432.516	48605
432.590	104740
432.664	37821
432.737	4575
432.811	1561
432.885	463
432.958	1792
433.032	986
433.106	1202
433.179	1387
433.253	1764
433.326	872
433.400	1612
433.473	843
433.547	970
433.620	2094
433.694	5593
433.767	5334
433.841	2858
433.914	1483
433.988	1802
434.061	1807
434.134	1656
434.208	1542
434.281	1284
434.355	401
434.428	2098
434.501	1657
434.575	2162
434.648	1740
434.721	1336
434.795	138
434.868	849
434.941	-125
435.014	1034
435.088	898
435.161	4383
435.234	5947
435.307	7859
435.381	3813
435.454	3665
435.527	4795
435.600	4989
435.673	3912
435.746	2850
435.819	2603
435.892	1568
435.966	1264
436.039	1667
436.112	1638
436.185	2090
436.258	1281
436.331	84
436.404	439
436.477	828
436.550	228
436.623	1817
436.696	558
436.769	2183
436.842	1878
436.915	2744
436.987	3529
437.060	1953
437.133	-81
437.206	889
437.279	1268
437.352	938
437.425	1267
437.498	3401
437.570	7853
437.643	6391
437.716	1703
437.789	1713
437.861	6091
437.934	15097
438.007	5898
438.080	1534
438.152	2925
438.225	8929
438.298	59385
438.370	136344
438.443	53172
438.516	13009
438.588	2685
438.661	1638
438.734	1570
438.806	2525
438.879	3354
438.951	5258
439.024	6817
439.096	2466
439.169	1936
439.241	1559
439.314	849
439.386	3395
439.459	6117
439.531	8643
439.604	3320
439.676	2144
439.749	677
439.821	676
439.893	578
439.966	1286
440.038	2552
440.110	3621
440.183	2288
440.255	1721
440.327	4876
440.400	27395
440.472	93997
440.544	54075
440.617	6765
440.689	6379
440.761	8045
440.833	12043
440.905	7046
440.978	1636
441.050	1005
441.122	1441
441.194	54
441.266	1594
441.338	2037
441.411	7169
441.483	33841
441.555	43400
441.627	8693
441.699	5860
441.771	5553
441.843	2316
441.915	1714
441.987	1370
442.059	1317
442.131	3482
442.203	5687
442.275	7323
442.347	6219
442.419	10065
442.491	49582
442.563	100596
442.635	39271
442.706	27732
442.778	17557
442.850	4236
442.922	2255
442.994	3972
443.066	5730
443.137	5572
443.209	3545
443.281	6856
443.353	15044
443.425	65424
443.496	190665
443.568	164506
443.640	51958
443.711	10069
443.783	3810
443.855	3697
443.926	2642
443.998	3503
444.070	4784
444.141	3822
444.213	5709
444.285	7453
444.356	6272
444.428	6018
444.499	1888
444.571	1704
444.642	1745
444.714	3716
444.785	5914
444.857	8051
444.928	16733
445.000	9516
445.071	11564
445.143	12633
445.214	8133
445.285	15395
445.357	45331
445.428	137652
445.500	261884
445.571	156770
445.642	75946
445.714	31667
445.785	27945
445.856	9184
445.928	7639
445.999	6526
446.070	5494
446.141	6659
446.213	7316
446.284	3965
446.355	4071
446.426	2415
446.497	2820
446.569	5739
446.640	8568
446.711	5897
446.782	2356
446.853	4198
446.924	4177
446.995	3566
447.066	2750
447.138	6756
447.209	3881
447.280	1232
447.351	1194
447.422	1759
447.493	2367
447.564	4050
447.635	4815
447.706	2379
447.777	471
447.847	1690
447.918	1151
447.989	4186
448.060	4536
448.131	11835
448.202	10050
448.273	6552
448.344	2884
448.414	2421
448.485	861
448.556	1517
448.627	809
448.698	1932
448.768	852
448.839	1477
448.910	5663
448.981	6087
449.051	2486
449.122	1747
449.193	1231
449.263	2317
449.334	1016
449.405	3800
449.475	8053
449.546	5700
449.616	7007
449.687	5859
449.758	2397
449.828	1841
449.899	1496
449.969	1186
450.040	446
450.110	3714
450.181	3489
450.251	2166
450.322	1644
450.392	2167
450.463	1436
450.533	1744
450.604	1484
450.674	1281
450.744	1335
450.815	1284
450.885	1640
450.955	1410
451.026	887
451.096	1779
451.166	1736
451.237	8485
451.307	17378
451.377	5839
451.447	576
451.518	1790
451.588	894
451.658	1991
451.728	4586
451.799	19681
451.869	18399
451.939	3833
452.009	1369
452.079	1691
452.149	1674
452.219	6222
452.289	22112
452.360	14337
452.430	2496
452.500	2212
452.570	4048
452.640	7302
452.710	18177
452.780	24329
452.850	16214
452.920	13052
452.990	3126
453.060	3161
453.129	4574
453.199	5238
453.269	26109
453.339	45449
453.409	64841
453.479	74492
453.549	104287
453.619	107717
453.688	34528
453.758	5262
453.828	2168
453.898	2642
453.968	2285
454.037	1505
454.087	1514
454.107	1494
454.168	1207
454.177	1139
454.247	1035
454.249	1112
454.316	2172
454.330	2500
454.386	3324
454.411	6670
454.456	11658
454.492	12966
454.525	14170
454.574	7310
454.595	4408
454.655	2321
454.665	2017
454.734	4224
454.736	4430
454.804	7711
454.817	10759
454.873	21216
454.898	21191
454.943	20731
454.979	13695
455.013	7933
455.060	5417
455.082	4626
455.141	6872
455.152	6942
455.221	16484
455.222	16770
455.291	24257
455.303	21157
455.360	8950
455.384	8783
455.430	8895
455.465	9753
455.499	9726
455.546	16951
455.569	19293
455.627	11110
455.638	9914
455.707	3296
455.708	3317
455.777	2210
455.789	2370
455.846	3061
455.869	2725
455.916	2026
455.950	2531
455.985	2898
456.031	2704
456.054	2629
456.112	2831
456.124	2874
456.193	2184
456.193	2152
456.262	3505
456.274	3679
456.332	4030
456.355	4555
456.401	4875
456.436	3582
456.470	2524
456.516	2294
456.540	2223
456.597	2214
456.609	2208
456.678	2614
456.678	2596
456.747	1744
456.759	1733
456.817	1863
456.840	1947
456.886	1999
456.920	2247
456.955	2611
457.001	3085
457.024	3403
457.082	4400
457.093	4582
457.162	6445
457.163	6493
457.232	6700
457.243	6077
457.301	3595
457.324	3108
457.370	2648
457.405	2741
457.439	2929
457.485	3272
457.508	3555
457.566	4483
457.577	4648
457.646	5560
457.647	5606
457.715	9642
457.727	10497
457.784	15225
457.808	18431
457.853	21569
457.889	23872
457.922	23422
457.969	16925
457.991	17220
458.050	22786
458.060	23768
458.129	37064
458.130	37460
458.198	31428
458.211	27353
458.267	13625
458.292	9823
458.336	8732
458.372	9744
458.405	13746
458.453	20363
458.474	24733
458.533	40157
458.543	40858
458.611	57699
458.614	57766
458.680	29361
458.694	22220
458.749	10291
458.775	7737
458.818	5501
458.855	5131
458.887	5249
458.936	4645
458.955	4286
459.016	4788
459.024	4916
459.093	5322
459.097	5340
459.162	5531
459.177	5619
459.230	6298
459.257	7187
459.299	7671
459.338	7325
459.368	7207
459.418	8223
459.437	8028
459.499	5523
459.505	5430
459.574	5458
459.579	5464
459.643	5134
459.659	5100
459.711	5525
459.740	5687
459.780	5772
459.820	6332
459.849	6757
459.900	7342
459.917	7401
459.981	8041
459.986	8058
460.054	7183
460.061	7218
460.123	8440
460.141	8771
460.191	10090
460.222	11106
460.260	11960
460.302	12966
460.328	12184
460.382	9778
460.397	9736
460.462	9336
460.465	9500
460.534	14356
460.543	14913
460.602	27063
460.623	32368
460.671	48082
460.703	62041
460.739	53123
460.783	34360
460.808	27996
460.864	8047
460.876	6488
460.944	6774
460.945	6766
461.013	6622
461.024	6615
461.081	7060
461.104	7440
461.150	6924
461.184	6229
461.218	6330
461.264	6436
461.286	6476
461.345	6682
461.355	6751
461.423	7483
461.425	7498
461.491	9574
461.505	10063
461.559	18541
461.585	22576
461.628	33473
461.665	43837
461.696	44257
461.745	47617
461.764	41202
461.825	11953
461.832	11482
461.901	8490
461.905	8501
461.969	7565
461.985	7184
462.037	7416
462.065	7529
462.105	9654
462.145	12222
462.173	16358
462.225	23921
462.241	25943
462.305	36053
462.310	34906
462.378	15173
462.385	12627
462.446	8720
462.465	8138
462.514	8102
462.545	8343
462.582	8289
462.625	7731
462.650	7558
462.705	7749
462.718	8196
462.785	10035
462.786	10108
462.854	14667
462.865	15431
462.922	17414
462.945	18318
462.990	13724
463.025	9221
463.058	8276
463.104	7374
463.126	7401
463.184	7748
463.194	7832
463.262	8349
463.264	8370
463.330	8822
463.344	8909
463.398	10222
463.424	10665
463.466	10066
463.504	10086
463.533	10467
463.583	10162
463.601	10448
463.663	12044
463.669	12578
463.737	18266
463.743	18835
463.805	29015
463.823	31829
463.873	45152
463.903	53780
463.940	52987
463.982	52167
464.008	41088
464.062	15284
464.076	14370
464.142	9467
464.144	9434
464.211	9567
464.221	9577
464.279	10011
464.301	10220
464.347	11918
464.381	13101
464.414	14174
464.461	15982
464.482	16156
464.540	16267
464.550	15805
464.617	12158
464.620	12017
464.685	14206
464.699	14705
464.753	15909
464.779	16472
464.820	17093
464.859	17681
464.888	17751
464.938	17591
464.956	17604
465.018	17966
465.023	17772
465.091	14384
465.098	14015
465.158	13754
465.177	13702
465.226	13761
465.257	13822
465.293	15033
465.336	16312
465.361	17998
465.416	21830
465.428	23832
465.495	34454
465.496	34631
465.563	53419
465.575	56675
465.631	61749
465.654	64030
465.698	39030
465.734	17066
465.765	15296
465.813	13112
465.833	13250
465.893	13981
465.900	13948
465.968	13535
465.972	13478
466.035	14311
466.052	14547
466.102	14597
466.131	14507
466.170	14884
466.210	15261
466.237	15582
466.290	16147
466.304	16342
466.369	17090
466.372	17168
466.439	18485
466.449	18642
466.506	22813
466.528	24347
466.573	35912
466.607	44533
466.641	60283
466.687	81991
466.708	86357
466.766	98329
466.775	90731
466.842	31715
466.845	28858
466.909	23285
466.925	22003
466.977	21716
467.004	21561
467.044	21989
467.083	22332
467.111	23662
467.163	26045
467.178	26363
467.242	27425
467.245	27397
467.312	25698
467.321	25423
467.379	25424
467.400	25349
467.446	28233
467.480	30222
467.559	24316
467.638	21737
467.717	23382
467.796	24895
467.875	27072
467.955	26867
468.034	47401
468.113	94006
468.192	122132
468.271	28449
468.350	23968
468.429	25714
468.508	25393
468.588	22092
468.667	22676
468.746	23665
468.825	22050
468.904	19364
468.983	26041
469.062	37438
469.141	41084
469.220	17661
469.299	19023
469.378	20870
469.456	23064
469.535	20601
469.614	20819
469.693	24415
469.772	30736
469.851	42244
469.930	25533
470.009	21102
470.088	21388
470.166	27098
470.245	39116
470.324	45176
470.403	31364
470.482	23052
470.560	20914
470.639	21580
470.718	25206
470.797	20344
470.875	26402
470.954	35906
471.033	33757
471.111	15908
471.190	16003
471.269	15002
471.347	15309
471.426	17231
471.505	20335
471.583	19903
471.662	19068
471.740	16508
471.819	16730
471.898	16451
471.976	16480
472.055	17088
472.133	20682
472.212	26956
472.290	26418
472.369	16692
472.447	16268
472.526	15268
472.604	16056
472.683	17704
472.761	18611
472.839	17764
472.918	16975
472.996	17805
473.075	21011
473.153	20250
473.231	17719
473.310	20952
473.388	19733
473.466	17721
473.545	23213
473.623	27489
473.701	26024
473.780	18112
473.858	17281
473.936	20548
474.014	16206
474.093	21882
474.171	31180
474.249	42670
474.327	22866
474.405	15016
474.484	15697
474.562	15728
474.640	17897
474.718	18740
474.796	17541
474.874	17577
474.952	15930
475.030	16307
475.108	17663
475.187	20404
475.265	22687
475.343	31496
475.421	32235
475.499	16423
475.577	18184
475.655	28426
475.733	55582
475.811	91647
475.889	79940
475.966	41976
476.044	19268
476.122	24200
476.200	31469
476.278	22390
476.356	16485
476.434	19111
476.512	23885
476.590	29724
476.667	23676
476.745	15882
476.823	17782
476.901	16600
476.979	17910
477.056	17261
477.134	18429
477.212	18706
477.290	16968
477.367	14927
477.445	15445
477.523	13885
477.601	16540
477.678	16418
477.756	20651
477.834	21336
477.911	14801
477.989	15234
478.066	16943
478.144	19380
478.222	24943
478.299	38071
478.377	31029
478.454	15069
478.532	14408
478.609	16622
478.687	17300
478.764	14039
478.842	17301
478.919	17016
478.997	16913
479.074	15262
479.152	20437
479.229	24597
479.307	15581
479.384	12197
479.461	14162
479.539	15598
479.616	18761
479.694	16211
479.771	17883
479.848	18827
479.926	27427
480.003	25850
480.080	14831
480.157	14988
480.235	15003
480.312	14229
480.389	18745
480.467	31099
480.544	35647
480.621	17754
480.698	17584
480.775	20229
480.853	19963
480.930	16560
481.007	17677
481.084	20262
481.161	21649
481.238	18987
481.315	14186
481.392	15113
481.470	16853
481.547	16570
481.624	15448
481.701	15313
481.778	15960
481.855	20271
481.932	32411
482.009	51298
482.086	30061
482.163	19230
482.240	30986
482.317	48821
482.393	32323
482.470	16930
482.547	17677
482.624	16524
482.701	17684
482.778	16077
482.855	14035
482.932	13448
483.009	14196
483.085	17790
483.162	20656
483.239	18036
483.316	15323
483.393	15236
483.469	15126
483.546	18613
483.623	19296
483.699	15408
483.776	16458
483.853	20589
483.930	35254
484.006	82546
484.083	124277
484.160	49174
484.236	64814
484.313	47647
484.389	38448
484.466	35418
484.543	34407
484.619	35552
484.696	39767
484.772	40367
484.849	42766
484.925	32302
485.002	32559
485.078	36254
485.155	35498
485.231	31324
485.308	31364
485.384	33836
485.461	46891
485.537	78563
485.614	82718
485.690	31660
485.766	30352
485.843	34962
485.919	48760
485.995	47580
486.072	28480
486.148	28248
486.224	27846
486.301	31354
486.377	37243
486.453	36502
486.530	33760
486.606	41677
486.682	48108
486.758	64710
486.835	72678
486.911	61443
486.987	101030
487.063	101258
487.139	123633
487.215	79509
487.292	37046
487.368	33327
487.444	38971
487.520	47650
487.596	49050
487.672	85338
487.748	187002
487.824	244358
487.900	82984
487.976	43062
488.052	42379
488.128	48390
488.204	38294
488.280	33808
488.356	47742
488.432	97504
488.508	130929
488.584	39603
488.660	30342
488.736	30414
488.812	32614
488.888	42127
488.964	62878
489.039	132258
489.115	181488
489.191	92024
489.267	31629
489.343	28599
489.418	25922
489.494	23874
489.570	23104
489.646	26486
489.722	25525
489.797	29786
489.873	54292
489.949	106135
490.024	73230
490.100	24858
490.176	26091
490.251	35601
490.327	43766
490.403	25625
490.478	23617
490.554	21369
490.629	22292
490.705	21680
490.781	25039
490.856	24338
490.932	27057
491.007	27395
491.083	26830
491.158	25985
491.234	42303
491.309	83880
491.385	71553
491.460	26176
491.536	26850
491.611	23376
491.686	27088
491.762	42308
491.837	87374
491.913	142917
491.988	194410
492.063	214908
492.139	60906
492.214	34739
492.289	21079
492.365	21113
492.440	24950
492.515	25104
492.590	25537
492.666	21348
492.741	32538
492.816	44516
492.891	22694
492.967	18704
493.042	16810
493.117	16755
493.192	17392
493.267	21695
493.342	29554
493.418	28536
493.493	17810
493.568	17367
493.643	19092
493.718	26900
493.793	41143
493.868	42721
493.943	25777
494.018	20941
494.093	19033
494.168	19499
494.243	16176
494.318	15376
494.393	15920
494.468	16353
494.543	17076
494.618	21562
494.693	18302
494.768	18701
494.842	18648
494.917	16609
494.992	18511
495.067	15746
495.142	16069
495.217	16999
495.292	17402
495.366	22484
495.441	27542
495.516	35991
495.591	63401
495.665	201166
495.740	393164
495.815	130116
495.890	28827
495.964	22797
496.039	26413
496.114	23779
496.188	26904
496.263	27068
496.338	23643
496.412	29027
496.487	32672
496.561	33133
496.636	33634
496.710	27296
496.785	32326
496.860	35132
496.934	27990
497.009	28391
497.083	29969
497.158	32201
497.232	38129
497.307	42762
497.381	36641
497.455	44673
497.530	54541
497.604	38255
497.679	42801
497.753	66206
497.827	79097
497.902	70681
497.976	91940
498.050	224253
498.125	639912
498.199	510570
498.273	103239
498.348	83428
498.422	70673
498.496	66742
498.570	58186
498.645	45551
498.719	44489
498.793	52497
498.867	78104
498.941	113493
499.016	309752
499.090	642486
499.164	167653
499.238	32548
499.312	31814
499.386	37345
499.460	33914
499.534	32556
499.609	40174
499.683	56708
499.757	59545
499.831	156278
499.905	476684
499.979	346238
500.053	67135
500.127	66657
500.201	47802
500.275	29382
500.349	28861
500.422	35553
500.496	59363
500.570	131290
500.644	302061
500.718	446666
500.792	75654
500.866	30536
500.940	39326
501.013	31362
501.087	33574
501.161	59600
501.235	85711
501.309	197156
501.382	460649
501.456	313674
501.530	88788
501.603	140799
501.677	45237
501.751	23687
501.825	34126
501.898	75285
501.972	185220
502.046	89413
502.119	36859
502.193	93363
502.266	195508
502.340	81267
502.413	97618
502.487	164857
502.561	85060
502.634	28434
502.708	25716
502.781	22002
502.855	19301
502.928	16658
503.002	17125
503.075	17363
503.149	19148
503.222	18558
503.295	21287
503.369	27191
503.442	48887
503.516	161818
503.589	339219
503.662	185955
503.736	72396
503.809	160817
503.882	125815
503.956	192774
504.029	153921
504.102	121045
504.175	133797
504.249	51810
504.322	34921
504.395	28120
504.468	20697
504.542	20586
504.615	15847
504.688	14954
504.761	15794
504.834	22401
504.907	27724
504.980	40677
505.053	22891
505.127	28733
505.200	31800
505.273	29814
505.346	17874
505.419	16136
505.492	14788
505.565	12838
505.638	13986
505.711	13802
505.784	13009
505.857	12413
505.930	15316
506.003	12917
506.076	16773
506.149	22549
506.221	26871
506.294	31017
506.367	89296
506.440	241058
506.513	98992
506.586	28255
506.659	17536
506.731	17431
506.804	22431
506.877	28243
506.950	18889
507.022	15484
507.095	21852
507.168	24410
507.241	15580
507.313	13846
507.386	16985
507.459	22919
507.531	15024
507.604	12706
507.677	13250
507.749	10779
507.822	20724
507.894	34674
507.967	35969
508.040	20415
508.112	18789
508.185	17971
508.257	20128
508.330	28037
508.402	18008
508.475	17577
508.547	18932
508.620	21231
508.692	32407
508.765	16759
508.837	13830
508.909	14274
508.982	16041
509.054	17151
509.127	15410
509.199	13863
509.271	12455
509.344	13235
509.416	13570
509.488	14020
509.560	15346
509.633	16051
509.705	18607
509.777	19164
509.849	26625
509.922	15716
509.994	13627
510.066	14007
510.138	16091
510.210	27895
510.283	24894
510.355	21263
510.427	20213
510.499	20135
510.571	20556
510.643	19909
510.715	33838
510.787	26922
510.859	21180
510.931	23911
511.003	32775
511.076	26801
511.148	16965
511.219	18629
511.291	32361
511.363	33402
511.435	15874
511.507	14663
511.579	14877
511.651	15066
511.723	14265
511.795	14392
511.867	17037
511.939	23772
512.010	48650
512.082	31979
512.154	17775
512.226	17820
512.298	26339
512.369	35816
512.441	28665
512.513	27605
512.585	22347
512.656	22897
512.728	25578
512.800	19516
512.871	18712
512.943	17869
513.015	16689
513.086	18274
513.158	19849
513.230	22262
513.301	33496
513.373	32503
513.444	20221
513.516	16763
513.588	18164
513.659	21024
513.731	26043
513.802	25354
513.874	54844
513.945	80847
514.016	26899
514.088	18102
514.159	21917
514.231	29068
514.302	34419
514.374	24371
514.445	27009
514.516	53311
514.588	35105
514.659	27694
514.730	48308
514.802	34255
514.873	27628
514.944	30088
515.016	26387
515.087	29991
515.158	40073
515.229	49047
515.301	32404
515.372	38746
515.443	27858
515.514	20824
515.585	18171
515.656	17946
515.728	17744
515.799	17469
515.870	20585
515.941	21176
516.012	20777
516.083	27054
516.154	30606
516.225	37709
516.296	34669
516.367	31460
516.438	37316
516.509	52698
516.580	97372
516.651	317787
516.722	850215
516.793	303770
516.864	64761
516.935	60099
517.006	72775
517.077	122442
517.148	318315
517.219	1006334
517.289	1217986
517.360	345996
517.431	93625
517.502	37444
517.573	34934
517.643	33485
517.714	35756
517.785	36954
517.856	37305
517.926	43450
517.997	50581
518.068	66317
518.138	100606
518.209	208841
518.280	729941
518.350	1727796
518.421	615640
518.492	90116
518.562	54309
518.633	51493
518.703	53080
518.774	91025
518.845	179136
518.915	146855
518.986	60373
519.056	52942
519.127	86366
519.197	135392
519.268	275630
519.338	133686
519.408	42314
519.479	51582
519.549	35471
519.620	25542
519.690	20224
519.760	21216
519.831	22396
519.901	22344
519.971	19703
520.042	21535
520.112	26337
520.182	29691
520.253	31408
520.323	22544
520.393	30475
520.463	40743
520.534	33576
520.604	57414
520.674	30995
520.744	33807
520.814	68568
520.885	66522
520.955	108622
521.025	294376
521.095	86621
521.165	22296
521.235	20370
521.305	18259
521.375	17998
521.445	21578
521.515	28405
521.585	33753
521.655	30861
521.725	26768
521.795	24627
521.865	18449
521.935	31728
522.005	24961
522.075	17062
522.145	19459
522.215	24266
522.285	33517
522.355	49430
522.424	86259
522.494	66419
522.564	39350
522.634	84767
522.704	195098
522.774	64344
522.843	21478
522.913	20744
522.983	26722
523.053	21104
523.122	22893
523.192	39113
523.262	115577
523.331	91106
523.401	21008
523.471	15842
523.540	18084
523.610	14689
523.680	14533
523.749	15835
523.819	22599
523.888	20559
523.958	15559
524.027	17140
524.097	18440
524.166	16916
524.236	19275
524.305	18062
524.375	15753
524.444	14852
524.514	18458
524.583	18914
524.653	23243
524.722	23733
524.791	16887
524.861	16421
524.930	14179
524.999	19333
525.069	24928
525.138	22535
525.207	25487
525.277	17559
525.346	18344
525.415	17516
525.484	19240
525.554	23163
525.623	21421
525.692	19407
525.761	21145
525.830	21384
525.900	26315
525.969	42769
526.038	69790
526.107	146027
526.176	346469
526.245	246009
526.314	100261
526.383	202474
526.452	246574
526.522	422064
526.591	351071
526.660	113188
526.729	58510
526.797	75137
526.867	184373
526.935	614893
527.004	900737
527.073	387957
527.142	43733
527.211	25843
527.280	27146
527.349	25599
527.418	15542
527.487	17112
527.555	14990
527.624	12914
527.693	13336
527.762	15337
527.831	13678
527.899	14709
527.968	14197
528.037	14417
528.106	21647
528.174	36526
528.243	30204
528.312	46132
528.380	49187
528.449	17351
528.518	14180
528.586	10476
528.655	12994
528.723	12042
528.792	12919
528.861	14106
528.929	11771
528.998	14586
529.066	11871
529.135	11698
529.203	11244
529.272	11465
529.340	13744
529.409	15315
529.477	13744
529.545	20093
529.614	20222
529.682	23597
529.751	26495
529.819	26709
529.887	19093
529.956	14783
530.024	15390
530.092	13773
530.161	19411
530.229	28548
530.297	15445
530.365	14688
530.434	12401
530.502	13251
530.570	13177
530.638	12237
530.707	15434
530.775	16968
530.843	12952
530.911	13399
530.979	13797
531.047	13259
531.115	14009
531.183	13597
531.252	13766
531.320	13983
531.388	13234
531.456	14482
531.524	12051
531.592	15798
531.660	16856
531.728	14946
531.796	13718
531.864	14353
531.932	14953
532.000	14948
532.067	16135
532.135	17420
532.203	19487
532.271	20781
532.339	39037
532.407	88161
532.475	44941
532.542	23961
532.610	29416
532.678	51264
532.746	179461
532.814	334866
532.881	76965
532.949	19716
533.017	16892
533.084	15604
533.152	15018
533.220	17121
533.287	18368
533.355	15025
533.423	16461
533.490	14248
533.558	15356
533.625	15277
533.693	17657
533.761	16094
533.828	17687
533.896	18650
533.963	34358
534.031	40172
534.098	55037
534.166	24643
534.233	15310
534.300	17584
534.368	17025
534.435	17285
534.503	16992
534.570	19963
534.637	19300
534.705	21609
534.772	28128
534.840	51647
534.907	179688
534.974	170534
535.041	28691
535.109	22858
535.176	15289
535.243	15720
535.310	16864
535.378	14915
535.445	15118
535.512	15289
535.579	16009
535.646	13543
535.714	15434
535.781	18613
535.848	17044
535.915	18001
535.982	16306
536.049	16550
536.116	17911
536.183	16269
536.250	16749
536.317	17829
536.384	22519
536.451	30560
536.518	28758
536.585	21944
536.652	28989
536.719	38757
536.786	27786
536.853	25140
536.920	39550
536.987	56785
537.053	65054
537.120	206723
537.187	137713
537.254	20182
537.321	17467
537.388	18013
537.454	15417
537.521	15412
537.588	14708
537.654	18939
537.721	19253
537.788	20082
537.855	16466
537.921	17961
537.988	17919
538.055	18915
538.121	17587
538.188	20871
538.254	33162
538.321	55925
538.388	30539
538.454	18957
538.521	17532
538.587	17551
538.654	16574
538.720	16320
538.787	16954
538.853	19322
538.920	23117
538.986	22501
539.053	18735
539.119	20700
539.185	19541
539.252	24926
539.318	34781
539.385	26020
539.451	22921
539.517	25563
539.583	31378
539.650	72314
539.716	144049
539.782	37408
539.849	18396
539.915	19759
539.981	20263
540.047	23174
540.114	21259
540.180	23704
540.246	22633
540.312	33300
540.378	57467
540.444	54723
540.510	73873
540.576	160707
540.643	45524
540.709	18679
540.775	19711
540.841	18873
540.907	27853
540.973	39354
541.039	33524
541.105	32521
541.171	20812
541.237	19052
541.303	20218
541.369	25712
541.435	33115
541.500	47464
541.566	27948
541.632	17937
541.698	16945
541.764	18025
541.830	16525
541.896	16734
541.961	19013
542.027	19214
542.093	19113
542.159	21012
542.224	23654
542.290	33175
542.356	51394
542.421	49879
542.487	25679
542.553	21338
542.618	21906
542.684	20240
542.750	21145
542.815	29090
542.881	52487
542.947	152594
543.012	90256
543.078	19828
543.143	17257
543.209	20817
543.274	22516
543.340	27787
543.405	63994
543.471	84811
543.536	22579
543.602	19317
543.667	18414
543.732	19526
543.798	16954
543.863	19811
543.928	17114
543.994	17070
544.059	17295
544.124	17443
544.190	17551
544.255	18774
544.320	18829
544.386	21343
544.451	29026
544.516	33033
544.581	38637
544.646	103923
544.712	127864
544.777	28360
544.842	23547
544.907	25971
544.972	22056
545.037	22221
545.102	24083
545.168	24013
545.233	25465
545.298	27477
545.363	31600
545.428	37748
545.493	63914
545.558	120431
545.623	44851
545.688	24805
545.753	22628
545.818	23110
545.883	25330
545.947	24250
546.012	27056
546.077	27159
546.142	27579
546.207	27815
546.272	34746
546.337	33833
546.401	28844
546.466	28054
546.531	26446
546.596	30291
546.661	29966
546.725	29022
546.790	26791
546.855	28889
546.919	28609
546.984	31991
547.049	35205
547.113	40227
547.178	37863
547.243	43487
547.307	48391
547.372	55392
547.436	56670
547.501	50709
547.565	52605
547.630	57141
547.695	55909
547.759	58898
547.823	51153
547.888	48194
547.952	47653
548.017	52311
548.081	59158
548.146	66688
548.210	58300
548.274	53999
548.339	51729
548.403	47134
548.468	46132
548.532	46624
548.596	47772
548.660	49156
548.725	54260
548.789	61911
548.853	59085
548.917	54408
548.982	63937
549.046	57939
549.110	44782
549.174	45587
549.238	49366
549.303	51577
549.367	53231
549.431	49874
549.495	48750
549.559	49953
549.623	56317
549.687	65297
549.751	76701
549.815	72196
549.879	68589
549.943	65517
550.007	69570
550.071	70052
550.135	72996
550.199	63173
550.263	60761
550.327	62378
550.391	70942
550.455	65570
550.519	67562
550.582	73852
550.646	90311
550.710	88587
550.774	76394
550.838	77746
550.901	80213
550.965	86248
551.029	90951
551.093	99691
551.156	120034
551.220	171999
551.284	172818
551.347	117090
551.411	160366
551.475	143843
551.538	85029
551.602	75309
551.666	73381
551.729	68314
551.793	67063
551.856	66079
551.920	64494
551.983	65238
552.047	64727
552.110	65645
552.174	65916
552.237	66775
552.301	62514
552.364	60768
552.428	60393
552.491	62692
552.554	63936
552.618	65350
552.681	69675
552.745	73574
552.808	102843
552.871	119809
552.934	84623
552.998	68171
553.061	64758
553.124	61357
553.187	59962
553.251	63646
553.314	62416
553.377	61131
553.440	66494
553.503	73345
553.567	75674
553.630	65252
553.693	64073
553.756	64392
553.819	61712
553.882	60368
553.945	60916
554.008	60961
554.071	61617
554.134	61402
554.197	56975
554.260	57356
554.323	61989
554.386	62212
554.449	61321
554.512	61868
554.575	58971
554.638	60244
554.701	58203
554.764	57575
554.827	55432
554.889	52363
554.952	50391
555.015	50378
555.078	52898
555.141	52446
555.203	51088
555.266	51821
555.329	52388
555.391	50473
555.454	52271
555.517	50000
555.580	48062
555.642	45923
555.705	44321
555.768	46311
555.830	44361
555.893	42073
555.955	41701
556.018	42925
556.080	41367
556.143	42840
556.206	42020
556.268	44242
556.330	44122
556.393	43662
556.455	43557
556.518	54561
556.580	49722
556.643	37977
556.705	36780
556.767	37321
556.830	38470
556.892	42624
556.955	54693
557.017	42128
557.079	37243
557.142	37343
557.204	42786
557.266	67988
557.328	51970
557.391	33624
557.453	31414
557.515	34353
557.577	39471
557.639	39629
557.701	32312
557.764	31534
557.826	32799
557.888	35983
557.950	37360
558.012	44630
558.074	58825
558.136	123783
558.198	239099
558.260	77286
558.322	38618
558.384	40366
558.446	44893
558.508	51552
558.570	66340
558.632	105261
558.694	148715
558.756	189914
558.818	515756
558.880	969109
558.942	282847
559.003	248423
559.065	104777
559.127	50465
559.189	53962
559.251	70791
559.312	108252
559.374	258283
559.436	684530
559.498	262713
559.559	56035
559.621	55091
559.683	73515
559.744	128639
559.806	373721
559.868	431486
559.929	83604
559.991	64216
560.052	103953
560.114	247124
560.176	140495
560.237	155690
560.299	206327
560.360	49059
560.422	29378
560.483	28106
560.545	27789
560.606	26780
560.667	26771
560.729	24947
560.790	24433
560.852	25007
560.913	24940
560.974	25575
561.036	24556
561.097	24664
561.158	25334
561.220	25995
561.281	25397
561.342	27543
561.403	31655
561.465	39606
561.526	82275
561.587	89385
561.648	30333
561.709	25844
561.771	24822
561.832	24079
561.893	24094
561.954	23114
562.015	23163
562.076	24244
562.137	24013
562.198	23826
562.259	23269
562.320	25774
562.381	27393
562.442	36276
562.503	29309
562.564	23971
562.625	23805
562.686	24001
562.747	26738
562.808	24413
562.869	24862
562.930	29032
562.991	27071
563.051	25343
563.112	23469
563.173	24246
563.234	23734
563.294	23556
563.355	22960
563.416	24476
563.477	24133
563.537	24281
563.598	24723
563.659	25245
563.720	24451
563.780	25501
563.841	24599
563.901	24200
563.962	22431
564.023	23010
564.083	23595
564.144	24792
564.204	24085
564.265	25724
564.325	29894
564.386	50903
564.446	39935
564.507	23345
564.567	21487
564.628	23479
564.688	22674
564.749	24076
564.809	27735
564.869	29455
564.930	23443
564.990	22866
565.050	21886
565.111	22566
565.171	22914
565.231	23323
565.292	23376
565.352	21733
565.412	24019
565.472	24621
565.532	24883
565.593	23925
565.653	22914
565.713	23998
565.773	25085
565.833	30491
565.893	34942
565.953	25330
566.013	24139
566.074	26789
566.134	33362
566.194	47287
566.254	46219
566.314	31993
566.374	25599
566.434	26843
566.494	27408
566.554	26473
566.614	28468
566.673	28441
566.733	29620
566.793	31127
566.853	32388
566.913	32754
566.973	32415
567.033	34219
567.092	34180
567.152	31799
567.212	32650
567.272	35003
567.331	35306
567.391	36491
567.451	38568
567.511	46482
567.570	44724
567.630	34589
567.690	32132
567.749	32846
567.809	35059
567.868	39598
567.928	43087
567.988	50237
568.047	55999
568.107	68567
568.166	92435
568.226	139550
568.285	179742
568.345	153317
568.404	122836
568.464	105614
568.523	98331
568.582	100087
568.642	115875
568.701	144033
568.761	208435
568.820	305834
568.879	284665
568.939	217357
568.998	160864
569.057	123528
569.116	97484
569.176	78650
569.235	67541
569.294	58548
569.353	52081
569.413	47738
569.472	44198
569.531	40007
569.590	36915
569.649	34764
569.708	32702
569.767	33982
569.827	34892
569.886	32169
569.945	28331
570.004	28504
570.063	27548
570.122	29329
570.181	29056
570.240	30834
570.299	29618
570.358	30265
570.417	24671
570.475	23722
570.534	25985
570.593	25434
570.652	26189
570.711	25447
570.770	24456
570.829	26052
570.887	24357
570.946	27024
571.005	22911
571.064	23689
571.122	26952
571.181	26081
571.240	22621
571.299	20954
571.357	23303
571.416	23762
571.475	26530
571.533	25850
571.592	23471
571.650	23621
571.709	20825
571.768	20912
571.826	21250
571.885	20185
571.943	19541
572.002	20532
572.060	20938
572.119	19225
572.177	17952
572.236	18166
572.294	18153
572.352	18338
572.411	18906
572.469	18590
572.528	17686
572.586	19330
572.644	21428
572.703	25723
572.761	20398
572.819	18691
572.877	17729
572.936	17393
572.994	17193
573.052	18499
573.110	18999
573.169	18578
573.227	17043
573.285	17124
573.343	17909
573.401	17170
573.459	17038
573.517	17494
573.576	17958
573.634	17062
573.692	18690
573.750	17995
573.808	17264
573.866	20012
573.924	23416
573.982	21573
574.040	17634
574.098	17571
574.155	17158
574.213	16527
574.271	16250
574.329	18298
574.387	16562
574.445	16011
574.503	16248
574.560	15459
574.618	15541
574.676	15073
574.734	15774
574.792	15649
574.849	15132
574.907	14988
574.965	15386
575.022	15423
575.080	15256
575.138	16196
575.195	16281
575.253	17049
575.311	17942
575.368	14883
575.426	14829
575.483	16319
575.541	15175
575.598	15830
575.656	15735
575.713	15329
575.771	15958
575.828	15943
575.886	15548
575.943	16075
576.001	17163
576.058	16584
576.115	17417
576.173	20794
576.230	22197
576.287	22957
576.345	18906
576.402	17548
576.459	17396
576.517	17457
576.574	18988
576.631	19620
576.688	17854
576.746	16753
576.803	17602
576.860	15875
576.917	16710
576.974	15972
577.031	17102
577.089	16110
577.146	16647
577.203	17447
577.260	17228
577.317	18786
577.374	21058
577.431	18317
577.488	16743
577.545	15820
577.602	15976
577.659	15833
577.716	14935
577.773	15093
577.830	15940
577.886	15528
577.943	14829
578.000	16281
578.057	16690
578.114	15699
578.171	15181
578.227	15902
578.284	15733
578.341	16924
578.398	16753
578.454	16709
578.511	19648
578.568	20433
578.625	18627
578.681	16453
578.738	14493
578.794	16450
578.851	16835
578.908	16318
578.964	16889
579.021	17017
579.077	15867
579.134	16535
579.190	15774
579.247	15821
579.303	15498
579.360	15678
579.416	15492
579.473	14744
579.529	15912
579.586	15703
579.642	15201
579.698	16460
579.755	16870
579.811	16244
579.867	15756
579.924	15069
579.980	15222
580.036	16645
580.093	14976
580.149	16511
580.205	15733
580.261	15954
580.317	17867
580.374	18364
580.430	20063
580.486	19156
580.542	17021
580.598	17486
580.619	17546
580.654	17673
580.692	17259
580.710	17090
580.765	16948
580.767	16964
580.823	17206
580.838	17275
580.879	17526
580.911	17182
580.935	16967
580.984	15946
580.991	15832
581.047	16541
581.057	16512
581.103	16450
581.130	16469
581.159	16531
581.203	16726
581.215	16801
581.270	18083
581.276	17943
581.326	16811
581.349	16776
581.382	16723
581.422	16993
581.438	17151
581.494	19003
581.494	18974
581.550	17856
581.567	17926
581.606	18010
581.640	16982
581.661	16433
581.713	17202
581.717	17274
581.773	16878
581.786	17007
581.829	17476
581.859	17631
581.885	17829
581.932	17875
581.940	17894
581.996	18512
582.004	18350
582.052	17478
582.077	17472
582.107	17495
582.150	18390
582.163	18661
582.219	17350
582.223	17409
582.274	18394
582.296	18373
582.330	18269
582.368	18006
582.386	17967
582.441	17221
582.441	17227
582.497	17540
582.514	17161
582.552	16558
582.587	17295
582.608	17631
582.659	17145
582.663	17124
582.719	17072
582.732	17206
582.774	17618
582.805	17708
582.830	17883
582.877	17643
582.885	17578
582.941	17692
582.950	17847
582.996	18784
583.023	18934
583.052	19047
583.095	18132
583.107	17892
583.162	18583
583.168	18537
583.218	17918
583.240	17825
583.273	17862
583.313	17751
583.328	17708
583.384	18225
583.385	18226
583.439	17968
583.458	17554
583.494	16895
583.531	17044
583.549	17150
583.603	17703
583.605	17718
583.660	17792
583.676	17928
583.715	18356
583.748	19030
583.770	19411
583.820	19168
583.825	19136
583.881	18273
583.893	18259
583.936	18165
583.965	18000
583.991	17926
584.038	18718
584.046	18830
584.101	18466
584.110	18389
584.156	18037
584.183	17871
584.211	17610
584.255	18344
584.266	18558
584.321	18037
584.328	18058
584.376	18213
584.400	18570
584.431	18885
584.472	18704
584.486	18701
584.541	18592
584.545	18644
584.596	19126
584.617	19144
584.651	19371
584.689	20153
584.706	20434
584.761	20741
584.762	20752
584.816	20429
584.834	20673
584.871	21322
584.906	21113
584.926	20911
584.978	20946
584.980	20954
585.035	22048
585.051	22441
585.090	22937
585.123	23290
585.145	23684
585.195	23718
585.200	23708
585.254	25549
585.267	25914
585.309	26918
585.340	27687
585.364	28441
585.412	31407
585.419	31803
585.473	36689
585.484	38218
585.528	45231
585.556	52787
585.583	63134
585.628	87709
585.637	95184
585.692	184931
585.700	197823
585.747	250080
585.772	198453
585.801	118495
585.845	53938
585.856	44104
585.910	32953
585.917	32086
585.965	29493
585.989	28731
586.019	28172
586.061	27904
586.074	27797
586.128	28579
586.133	28630
586.183	29354
586.205	29615
586.237	29543
586.277	29850
586.292	29923
586.346	29730
586.349	29776
586.401	30190
586.421	30860
586.455	32113
586.493	33450
586.509	34688
586.564	41121
586.565	41477
586.618	56711
586.637	55812
586.672	47268
586.709	39426
586.727	36793
586.781	36013
586.781	35964
586.835	34766
586.853	34647
586.889	34811
586.925	34724
586.944	34565
586.996	35489
586.998	35469
587.052	37244
587.068	37439
587.106	37638
587.140	38366
587.161	38734
587.212	39941
587.215	39958
587.269	41649
587.284	42207
587.323	42821
587.356	43723
587.377	44414
587.427	46449
587.431	46525
587.485	48356
587.499	48942
587.539	50316
587.571	51707
587.593	52375
587.643	55532
587.648	55830
587.702	58604
587.715	59892
587.755	63006
587.786	65218
587.810	66622
587.858	70265
587.864	70639
587.917	76861
587.930	78363
587.971	82405
588.001	86270
588.025	89818
588.073	97245
588.079	97943
588.133	107650
588.145	110212
588.187	119167
588.217	126942
588.241	133530
588.288	147788
588.295	149659
588.348	171585
588.360	177331
588.402	198089
588.431	214348
588.456	228685
588.503	261643
588.510	266476
588.564	318836
588.575	332034
588.617	385669
588.646	429518
588.671	475077
588.718	572527
588.725	591014
588.778	754485
588.789	789365
588.832	971933
588.861	1075904
588.886	1161420
588.932	1236316
588.939	1224064
588.993	1167070
589.004	1181270
589.047	1167029
589.075	1110999
589.100	1016502
589.147	789425
589.154	767905
589.207	616759
589.218	591411
589.261	545591
589.290	529174
589.314	536461
589.361	571560
589.368	584234
589.421	722120
589.433	755146
589.475	950367
589.504	1055115
589.528	1102239
589.576	1151167
589.582	1128137
589.635	1021575
589.647	983354
589.689	768489
589.718	596319
589.742	513361
589.790	363788
589.795	352503
589.849	272123
589.861	257185
589.902	222063
589.932	198123
589.955	180372
590.004	148236
590.009	145371
590.062	125390
590.075	121171
590.115	109764
590.146	102747
590.168	98520
590.218	90772
590.222	89779
590.275	81669
590.289	80139
590.328	75134
590.360	71328
590.381	68861
590.431	64747
590.435	64258
590.488	60150
590.503	59389
590.541	56997
590.574	54972
590.594	53675
590.645	51681
590.647	51399
590.700	48733
590.716	48153
590.753	46383
590.787	45065
590.806	44005
590.859	41838
590.859	41671
590.912	41055
590.930	40964
590.965	39901
591.001	39395
591.018	39012
591.071	38018
591.072	38134
591.124	36472
591.143	35934
591.177	35265
591.214	35219
591.230	35254
591.283	35519
591.285	35642
591.336	35418
591.356	35459
591.389	34186
591.427	32934
591.442	32567
591.495	31629
591.498	31663
591.547	30738
591.569	30496
591.600	30106
591.640	29855
591.653	29639
591.706	29091
591.711	29135
591.759	29596
591.782	30083
591.811	30629
591.853	31445
591.864	30947
591.917	28793
591.924	28600
591.969	27754
591.995	27360
592.022	27418
592.066	27803
592.075	28024
592.127	30004
592.137	30475
592.180	31522
592.208	32177
592.233	30269
592.279	26888
592.285	26654
592.338	25518
592.350	25352
592.390	24867
592.421	24654
592.443	24726
592.491	25168
592.495	25022
592.548	24203
592.562	24065
592.600	23843
592.633	23818
592.653	23608
592.704	23163
592.705	23298
592.775	23575
592.846	23387
592.916	23767
592.987	24364
593.058	23512
593.128	23599
593.199	22750
593.270	22295
593.341	22134
593.411	23351
593.482	23148
593.553	22623
593.623	22861
593.694	22970
593.764	24120
593.835	22132
593.906	23121
593.976	22488
594.047	22560
594.117	25718
594.188	27110
594.258	23879
594.329	22321
594.399	22164
594.470	23176
594.540	22011
594.611	22941
594.681	23128
594.751	23518
594.822	25045
594.892	25295
594.963	24883
595.033	25131
595.103	25083
595.174	27042
595.244	33540
595.314	39135
595.384	26381
595.455	25519
595.525	26338
595.595	26120
595.665	26903
595.736	26868
595.806	26793
595.876	26193
595.946	26714
596.016	26619
596.087	27186
596.157	27569
596.227	26132
596.297	28293
596.367	29560
596.437	32351
596.507	36879
596.577	42222
596.647	32104
596.717	31827
596.787	31289
596.857	31250
596.927	32811
596.997	31177
597.067	31223
597.137	32953
597.207	32262
597.277	32218
597.347	30913
597.417	31024
597.487	31098
597.557	31816
597.626	32495
597.696	33359
597.766	36585
597.836	41411
597.906	31805
597.975	28727
598.045	29310
598.115	29930
598.185	31541
598.254	34680
598.324	36251
598.394	37004
598.464	36378
598.533	35296
598.603	33367
598.672	32260
598.742	32875
598.812	33073
598.881	33482
598.951	33306
599.020	33814
599.090	34527
599.159	35671
599.229	33951
599.299	33215
599.368	34232
599.437	32774
599.507	31956
599.576	31665
599.646	31599
599.715	29972
599.785	30542
599.854	30367
599.924	32285
599.993	29208
600.062	30051
600.132	31339
600.201	31290
600.270	35829
600.340	36982
600.409	34500
600.478	34623
600.547	35341
600.617	34141
600.686	28519
600.755	28461
600.824	26962
600.894	26395
600.963	25903
601.032	25583
601.101	25085
601.170	24121
601.239	24518
601.308	25665
601.378	24740
601.447	24295
601.516	23492
601.585	25626
601.654	25834
601.723	25410
601.792	25062
601.861	26665
601.930	28154
601.999	28818
602.068	27977
602.137	29697
602.206	28698
602.275	28222
602.343	30045
602.412	29812
602.481	27156
602.550	27315
602.619	27820
602.688	29702
602.756	28499
602.825	28826
602.894	28003
602.963	29191
603.032	29873
603.100	29092
603.169	29817
603.238	30104
603.307	28524
603.375	30037
603.444	29948
603.513	30610
603.581	29886
603.650	30887
603.719	29938
603.787	30675
603.856	30384
603.924	31316
603.993	32160
604.061	32956
604.130	32924
604.198	35306
604.267	35378
604.335	34970
604.404	35501
604.472	35958
604.541	36315
604.609	36573
604.678	37392
604.746	36293
604.815	38250
604.883	38308
604.951	37466
605.020	38910
605.088	39227
605.156	39487
605.225	38886
605.293	39701
605.361	40339
605.429	40572
605.498	40659
605.566	42828
605.634	43664
605.702	43658
605.771	46276
605.839	45482
605.907	44189
605.975	43490
606.043	42437
606.111	42670
606.180	42694
606.248	42100
606.316	42007
606.384	41744
606.452	44625
606.520	44820
606.588	43999
606.656	41973
606.724	40956
606.792	39342
606.860	35350
606.928	33084
606.996	31846
607.064	31137
607.132	32692
607.200	34859
607.267	34946
607.335	34788
607.403	35679
607.471	34770
607.539	34659
607.607	35275
607.674	32054
607.742	32897
607.810	32041
607.878	30790
607.946	30765
608.013	33027
608.081	33487
608.149	34376
608.216	33820
608.284	36167
608.352	35017
608.419	35208
608.487	39556
608.555	36275
608.622	35722
608.690	36849
608.757	39761
608.825	41926
608.893	40274
608.960	39308
609.028	40171
609.095	42866
609.163	37906
609.230	33616
609.298	31640
609.365	32792
609.432	34494
609.500	38050
609.567	42495
609.635	46785
609.702	47343
609.769	46672
609.837	40641
609.904	36736
609.971	37641
610.039	44604
610.106	59568
610.173	111457
610.241	257448
610.308	199510
610.375	101111
610.442	45185
610.509	36993
610.577	36398
610.644	36146
610.711	36265
610.778	36492
610.845	37768
610.912	39630
610.980	41490
611.047	40147
611.114	41819
611.181	38955
611.248	38627
611.315	42112
611.382	41495
611.449	42547
611.516	44585
611.583	42734
611.650	43806
611.717	44326
611.784	46400
611.851	49448
611.918	56337
611.984	66939
612.051	98121
612.118	198447
612.185	488400
612.252	292950
612.319	73026
612.386	56815
612.452	51886
612.519	51383
612.586	53751
612.653	50745
612.719	50814
612.786	47623
612.853	44714
612.919	44290
612.986	44857
613.053	41105
613.120	39711
613.186	37931
613.253	40092
613.319	39676
613.386	39045
613.453	39713
613.519	42281
613.586	42044
613.652	48911
613.719	45803
613.785	43593
613.852	40895
613.918	39362
613.985	40553
614.051	41034
614.118	43275
614.184	42047
614.250	39218
614.317	40483
614.383	39548
614.449	40258
614.516	40195
614.582	40953
614.648	39258
614.715	38933
614.781	38303
614.847	40234
614.914	39321
614.980	39415
615.046	38159
615.112	40026
615.179	39370
615.245	42135
615.311	44340
615.377	53185
615.443	54000
615.509	44603
615.575	43765
615.642	42298
615.708	45408
615.774	49342
615.840	54459
615.906	63328
615.972	86294
616.038	142077
616.104	267064
616.170	603006
616.236	494562
616.302	108764
616.368	76486
616.434	56740
616.500	53087
616.565	57913
616.631	70669
616.697	58084
616.763	60672
616.829	88823
616.895	153551
616.961	141945
617.026	62684
617.092	44788
617.158	43079
617.224	41189
617.289	40095
617.355	38364
617.421	36288
617.487	37780
617.552	35222
617.618	35950
617.684	34797
617.749	37872
617.815	34338
617.880	34386
617.946	34125
618.012	34795
618.077	35283
618.143	34405
618.208	33885
618.274	35534
618.339	36653
618.405	31111
618.470	32159
618.536	30819
618.601	33444
618.667	29743
618.732	28989
618.798	29423
618.863	27999
618.928	28465
618.994	30422
619.059	31316
619.124	35977
619.190	31620
619.255	29170
619.320	29021
619.386	28871
619.451	28215
619.516	28019
619.581	29134
619.647	28670
619.712	28809
619.777	27780
619.842	28520
619.907	27887
619.972	28788
620.038	28933
620.103	27608
620.168	26964
620.233	28111
620.298	27762
620.363	28300
620.428	29643
620.493	29113
620.558	29228
620.623	29692
620.688	29080
620.753	29710
620.818	29855
620.883	29967
620.948	29918
621.013	30795
621.078	28673
621.143	28564
621.207	32318
621.272	31276
621.337	31456
621.402	31740
621.467	35079
621.532	35341
621.596	32418
621.661	30694
621.726	28662
621.791	29104
621.855	31020
621.920	30763
621.985	31962
622.049	35313
622.114	32917
622.179	32006
622.243	32193
622.308	32181
622.373	34734
622.437	32584
622.502	30518
622.566	30778
622.631	31055
622.695	32217
622.760	31922
622.824	30640
622.889	32881
622.953	33011
623.018	39824
623.082	39703
623.147	32049
623.211	32338
623.276	32852
623.340	29259
623.404	30290
623.469	29945
623.533	28974
623.597	29934
623.662	28684
623.726	28176
623.790	26786
623.854	26633
623.919	27125
623.983	27278
624.047	27395
624.111	27083
624.176	27784
624.240	27463
624.304	30058
624.368	28103
624.432	28052
624.496	28800
624.560	29454
624.625	30126
624.689	28949
624.753	29638
624.817	27968
624.881	26993
624.945	26257
625.009	25142
625.073	26101
625.137	26728
625.201	30274
625.265	30201
625.329	27007
625.393	27926
625.456	26830
625.520	28428
625.584	29580
625.648	33494
625.712	42759
625.776	74413
625.839	81893
625.903	40378
625.967	25661
626.031	39066
626.095	52355
626.158	29116
626.222	20130
626.286	21410
626.349	19623
626.413	18666
626.477	20620
626.540	19229
626.604	17880
626.668	18772
626.731	18153
626.795	19244
626.858	18795
626.922	18091
626.986	17824
627.049	16596
627.113	19055
627.176	17359
627.240	17163
627.303	17273
627.366	16396
627.430	18437
627.493	17061
627.557	16975
627.620	18036
627.684	18103
627.747	17869
627.810	15568
627.874	15942
627.937	14516
628.000	16690
628.064	16176
628.127	13602
628.190	15398
628.253	13731
628.317	13452
628.380	13112
628.443	13039
628.506	13256
628.569	12735
628.632	11369
628.696	12786
628.759	12097
628.822	12164
628.885	10998
628.948	12287
629.011	11587
629.074	11552
629.137	10082
629.200	11334
629.263	12237
629.326	10255
629.389	10434
629.452	11600
629.515	10488
629.578	10464
629.641	12581
629.704	10684
629.767	11304
629.830	12250
629.892	9814
629.955	9747
630.018	11992
630.081	11410
630.144	13264
630.207	10719
630.269	12036
630.332	12014
630.395	11207
630.458	9910
630.520	8983
630.583	10447
630.646	9079
630.708	9631
630.771	9260
630.834	10493
630.896	9293
630.959	9238
631.021	9707
631.084	9846
631.146	10746
631.209	11991
631.272	10090
631.334	10397
631.397	8938
631.459	8758
631.522	11111
631.584	11219
631.646	10628
631.709	11090
631.771	13036
631.834	11856
631.896	10247
631.958	9130
632.021	9789
632.083	8546
632.145	9733
632.208	9610
632.270	9238
632.332	8738
632.395	8066
632.457	10031
632.519	8180
632.581	9934
632.643	8338
632.706	9603
632.768	7611
632.830	10094
632.892	8964
632.954	8927
633.016	9176
633.078	8191
633.141	8683
633.203	8356
633.265	9161
633.327	9056
633.389	7771
633.451	9881
633.513	10895
633.575	11053
633.637	10586
633.698	9087
633.760	9444
633.822	9353
633.884	8686
633.946	9676
634.008	8991
634.070	9573
634.132	9105
634.193	10850
634.255	11287
634.317	11402
634.379	11600
634.441	10425
634.502	9378
634.564	9980
634.626	9008
634.687	8869
634.749	8583
634.811	9062
634.873	7287
634.934	8744
634.996	8499
635.057	7522
635.119	7753
635.181	7927
635.242	8863
635.304	6672
635.365	9954
635.427	7737
635.488	8163
635.550	7843
635.611	9044
635.673	6761
635.734	9794
635.796	8836
635.857	10578
635.918	8850
635.980	10991
636.041	10427
636.102	12043
636.164	11776
636.225	12176
636.286	9649
636.348	9831
636.409	8905
636.470	7355
636.531	8628
636.593	8709
636.654	8623
636.715	6651
636.776	7566
636.838	5559
636.899	8179
636.960	6949
637.021	6800
637.082	7007
637.143	7660
637.204	5899
637.265	6810
637.326	6929
637.387	7343
637.448	6103
637.509	6959
637.570	6325
637.631	7358
637.692	5763
637.753	5503
637.814	6622
637.875	6103
637.936	7576
637.997	6032
638.058	5545
638.119	7557
638.179	6666
638.240	5958
638.301	5997
638.362	5997
638.423	5604
638.483	6975
638.544	4379
638.605	5917
638.666	5087
638.726	7080
638.787	6871
638.848	5780
638.908	5310
638.969	6621
639.030	5242
639.090	4830
639.151	5588
639.211	6674
639.272	8537
639.332	10934
639.393	7912
639.453	6289
639.514	5928
639.574	5587
639.635	5198
639.695	6153
639.756	4592
639.816	6594
639.877	6708
639.937	10905
639.997	12620
640.058	5291
640.118	4750
640.178	6801
640.239	5092
640.299	5494
640.359	5388
640.420	5372
640.480	5997
640.540	6394
640.600	5843
640.661	6838
640.721	4752
640.781	8898
640.841	5386
640.901	6125
640.961	5455
641.021	6245
641.082	6249
641.142	8366
641.202	6949
641.262	4043
641.322	5606
641.382	4651
641.442	5337
641.502	5287
641.562	5775
641.622	4606
641.682	5323
641.742	6376
641.802	5325
641.861	6446
641.921	5279
641.981	6863
642.041	7060
642.101	6937
642.161	4388
642.221	4821
642.280	3891
642.340	4345
642.400	3912
642.460	6317
642.519	4456
642.579	5330
642.639	5510
642.698	2904
642.758	6664
642.818	6285
642.877	4284
642.937	5745
642.997	6060
643.056	8057
643.116	4817
643.175	6513
643.235	5293
643.294	6022
643.354	6510
643.414	7464
643.473	8197
643.532	10601
643.592	14354
643.651	22345
643.711	39411
643.770	73622
643.830	172389
643.889	380702
643.948	95377
644.008	16188
644.067	9774
644.126	6777
644.186	6164
644.245	6129
644.304	4163
644.363	7801
644.423	3788
644.482	5341
644.541	4972
644.600	4169
644.659	7563
644.719	8317
644.778	11915
644.837	18823
644.896	38082
644.955	86156
645.014	31658
645.073	6736
645.132	5812
645.191	6167
645.250	4691
645.309	6335
645.368	5900
645.427	8236
645.486	9530
645.545	17279
645.604	6616
645.663	4875
645.722	4319
645.781	7300
645.840	6519
645.898	9589
645.957	13892
646.016	20085
646.075	35568
646.134	67856
646.192	174639
646.251	269675
646.310	40831
646.369	11126
646.427	8498
646.486	6419
646.545	6025
646.603	5183
646.662	5579
646.721	4165
646.779	4441
646.838	4053
646.896	6922
646.955	8043
647.014	11336
647.072	19976
647.131	52924
647.189	28066
647.248	5038
647.306	5236
647.365	4765
647.423	1834
647.481	4664
647.540	2813
647.598	3197
647.657	3679
647.715	4201
647.773	3666
647.832	4183
647.890	2251
647.948	3026
648.007	4726
648.065	2432
648.123	2408
648.181	4607
648.240	3788
648.298	2775
648.356	3298
648.414	3647
648.472	3758
648.531	3218
648.589	2952
648.647	3021
648.705	3464
648.763	2974
648.821	3610
648.879	3731
648.937	4413
648.995	5494
649.053	6661
649.111	10782
649.169	16546
649.227	26896
649.285	54285
649.343	152727
649.401	81230
649.459	17839
649.516	11660
649.574	4759
649.632	6067
649.690	6227
649.748	7573
649.806	6810
649.863	14515
649.921	37349
649.979	26386
650.037	5160
650.094	2673
650.152	3207
650.210	2325
650.268	3234
650.325	2772
650.383	3193
650.440	1962
650.498	3007
650.556	2663
650.613	2513
650.671	3200
650.728	2660
650.786	3575
650.843	2965
650.901	1312
650.958	2395
651.016	3042
651.073	2185
651.131	2036
651.188	2042
651.246	2276
651.303	1757
651.360	2558
651.418	1833
651.475	3069
651.532	1389
651.590	2853
651.647	1750
651.704	2120
651.762	1787
651.819	2476
651.876	1669
651.933	2245
651.990	2879
652.048	1372
652.105	1617
652.162	2430
652.219	1676
652.276	2239
652.333	2893
652.390	1199
652.448	1802
652.505	2493
652.562	2125
652.619	1212
652.676	1933
652.733	3172
652.790	1069
652.847	1538
652.904	2717
652.961	489
653.017	1372
653.074	3292
653.131	1433
653.188	936
653.245	1507
653.302	1949
653.359	1192
653.415	1963
653.472	784
653.529	2498
653.586	1405
653.642	1717
653.699	1757
653.756	1438
653.813	578
653.869	2842
653.926	1026
653.983	1207
654.039	1563
654.096	625
654.152	2557
654.209	854
654.266	2600
654.322	1059
654.379	2490
654.435	3632
654.492	2555
654.548	4396
654.605	5436
654.661	3316
654.717	1693
654.774	2454
654.830	2644
654.887	2847
654.943	2175
655.000	2397
655.056	2345
655.112	2313
655.168	764
655.225	2221
655.281	2447
655.337	3761
655.394	6182
655.450	4053
655.506	3731
655.562	5762
655.618	5740
655.675	1550
655.731	1654
655.787	1862
655.843	2958
655.899	1517
655.955	1651
656.011	2076
656.067	508
656.123	2616
656.179	2793
656.235	2623
656.291	476
656.347	3020
656.403	1857
656.459	2054
656.515	2768
656.571	2425
656.627	2225
656.683	2110
656.739	2258
656.795	2002
656.850	2137
656.906	3275
656.962	2884
657.018	1920
657.074	2168
657.129	2167
657.185	3413
657.241	5176
657.297	3373
657.352	2565
657.408	947
657.464	3217
657.519	1222
657.575	1129
657.630	1472
657.686	2096
657.742	856
657.797	2272
657.853	1327
657.908	2596
657.964	945
658.019	2293
658.075	1009
658.130	2389
658.186	124
658.241	2347
658.297	163
658.352	1213
658.407	1875
658.463	1064
658.518	1646
658.573	1462
658.629	505
658.684	1776
658.739	2115
658.795	1296
658.850	1689
658.905	1108
658.960	1917
659.016	1124
659.071	863
659.126	2196
659.181	1253
659.236	4152
659.291	3911
659.346	2174
659.401	2065
659.457	1978
659.512	1022
659.567	2361
659.622	1478
659.677	1461
659.732	597
659.787	1809
659.842	2357
659.897	2474
659.952	2107
660.007	1849
660.061	1965
660.116	781
660.171	1327
660.226	1165
660.281	2087
660.336	1259
660.391	1603
660.445	1175
660.500	2019
660.555	1485
660.610	1153
660.664	1325
660.719	1278
660.774	1410
660.828	2102
660.883	1815
660.938	2164
660.992	923
661.047	1528
661.101	1335
661.156	1388
661.211	1464
661.265	1207
661.320	1528
661.374	552
661.429	1054
661.483	1964
661.538	1478
661.592	802
661.647	2088
661.701	1672
661.755	2004
661.810	1752
661.864	1402
661.919	965
661.973	1805
662.027	1043
662.081	1675
662.136	644
662.190	2761
662.244	1369
662.299	1573
662.353	2131
662.407	948
662.461	1912
662.515	1790
662.569	510
662.624	2247
662.678	1506
662.732	1698
662.786	874
662.840	2532
662.894	1822
662.948	1830
663.002	1650
663.056	2040
663.110	1167
663.164	1259
663.218	1897
663.272	1824
663.326	1947
663.380	1618
663.434	1368
663.488	1911
663.542	1512
663.595	1671
663.649	1231
663.703	1979
663.757	1662
663.811	1181
663.864	644
663.918	1836
663.972	1525
664.026	1844
664.079	776
664.133	2288
664.187	1618
664.240	2702
664.294	1371
664.348	2183
664.401	1419
664.455	2021
664.508	1274
664.562	1889
664.615	2374
664.669	1806
664.722	1934
664.776	1159
664.829	1966
664.883	1471
664.936	1249
664.990	1778
665.043	1695
665.097	1752
665.150	2642
665.203	1726
665.257	1890
665.310	1779
665.363	1266
665.417	2740
665.470	1497
665.523	1953
665.576	1871
665.630	1876
665.683	717
665.736	2024
665.789	1531
665.842	1844
665.895	1311
665.949	2031
666.002	1020
666.055	2583
666.108	2204
666.161	2406
666.214	1826
666.267	2105
666.320	1972
666.373	2327
666.426	1680
666.479	1799
666.532	2478
666.585	2498
666.638	3300
666.691	2359
666.744	3047
666.796	2867
666.849	1872
666.902	2475
666.955	1867
667.008	1209
667.060	2501
667.113	1246
667.166	1222
667.219	2116
667.271	1407
667.324	1888
667.377	1823
667.430	2335
667.482	1252
667.535	1525
667.587	2079
667.640	3193
667.693	2127
667.745	4172
667.798	4265
667.850	2117
667.903	1887
667.955	1773
668.008	2785
668.060	2548
668.113	2670
668.165	3161
668.218	2506
668.270	2015
668.322	2419
668.375	2293
668.427	2373
668.479	2362
668.532	2159
668.584	3422
668.636	1608
668.689	2446
668.741	1890
668.793	2391
668.845	2008
668.898	2545
668.950	1744
669.002	2352
669.054	1969
669.106	2252
669.158	2588
669.211	2855
669.263	2483
669.315	2986
669.367	2496
669.419	2545
669.471	3198
669.523	2819
669.575	3182
669.627	3657
669.679	1914
669.731	2919
669.783	2716
669.835	3237
669.886	2118
669.938	3539
669.990	2958
670.042	3277
670.094	4031
670.146	4266
670.197	4974
670.249	6350
670.301	7666
670.353	10676
670.404	15029
670.456	22218
670.508	32551
670.560	49098
670.611	76300
670.663	128499
670.715	279425
670.766	446769
670.818	199213
670.869	46009
670.921	19271
670.972	13163
671.024	9347
671.075	7557
671.127	5663
671.178	4599
671.230	5320
671.281	3938
671.333	4005
671.384	3705
671.436	4024
671.487	5082
671.538	5803
671.590	7938
671.641	9971
671.692	16573
671.744	30820
671.795	23054
671.846	7745
671.897	4645
671.949	2810
672.000	3620
672.051	2696
672.102	3926
672.153	1710
672.204	2320
672.256	2294
672.307	2740
672.358	2651
672.409	2121
672.460	2386
672.511	2159
672.562	2284
672.613	1985
672.664	1448
672.715	2296
672.766	1907
672.817	2446
672.868	2744
672.919	2497
672.970	1902
673.021	2343
673.071	1508
673.122	2507
673.173	2345
673.224	2588
673.275	2856
673.326	2308
673.376	2502
673.427	2214
673.478	1429
673.528	2995
673.579	2158
673.630	1812
673.680	2487
673.731	1775
673.782	1931
673.832	1688
673.883	2038
673.934	2354
673.984	1354
674.035	1234
674.085	1666
674.136	3147
674.186	2265
674.237	2909
674.287	3664
674.338	3038
674.388	1223
674.438	3135
674.489	1998
674.539	2820
674.589	1791
674.640	2063
674.690	2192
674.740	1651
674.791	2938
674.841	2523
674.891	1675
674.942	1891
674.992	1811
675.042	2411
675.092	1548
675.142	1506
675.193	1474
675.243	1577
675.293	1341
675.343	2133
675.393	1443
675.443	2169
675.493	1440
675.543	1855
675.593	1836
675.643	2175
675.693	2358
675.743	2001
675.793	1050
675.843	1576
675.893	1225
675.943	1529
675.993	1416
676.043	1791
676.093	1482
676.142	1372
676.192	1557
676.242	2395
676.292	1631
676.341	1889
676.391	1233
676.441	1559
676.491	1258
676.540	1670
676.590	1535
676.640	1236
676.689	1361
676.739	761
676.789	545
676.838	1615
676.888	2039
676.937	1398
676.987	1550
677.037	1843
677.086	686
677.136	1336
677.185	1037
677.235	1548
677.284	1644
677.333	1673
677.383	741
677.432	1242
677.482	1102
677.531	1422
677.580	1321
677.630	1551
677.679	1052
677.728	1750
677.778	2031
677.827	1336
677.876	1239
677.925	-414
677.975	1110
678.024	1351
678.073	565
678.122	2058
678.171	1190
678.220	1688
678.269	2652
678.319	1938
678.368	1516
678.417	1440
678.466	2195
678.515	1568
678.564	997
678.613	1929
678.662	1185
678.711	795
678.760	1340
678.809	1213
678.857	1290
678.906	1670
678.955	1269
679.004	2329
679.053	1868
679.102	1220
679.151	1185
679.199	928
679.248	1049
679.297	1513
679.346	1052
679.394	1246
679.443	1368
679.492	1520
679.540	213
679.589	1264
679.638	1655
679.686	1120
679.735	1823
679.784	1072
679.832	1155
679.881	1454
679.929	695
679.978	754
680.026	1156
680.075	1589
680.123	800
680.172	453
680.220	1314
680.268	930
680.317	997
680.365	950
680.414	852
680.462	1321
680.510	881
680.559	1352
680.607	531
680.655	1564
680.703	615
680.752	1021
680.800	1563
680.848	651
680.896	495
680.945	995
680.993	459
681.041	1095
681.089	1564
681.137	964
681.185	458
681.233	989
681.258	1210
681.281	1412
681.329	1402
681.377	690
681.380	738
681.425	1458
681.473	1329
681.502	1423
681.521	1471
681.569	855
681.617	1174
681.624	1211
681.665	1375
681.713	1052
681.745	1437
681.761	1613
681.809	1015
681.857	1693
681.867	1713
681.904	1730
681.952	1502
681.989	1322
682.000	1267
682.048	356
682.096	903
682.111	1015
682.143	1183
682.191	1216
682.233	1400
682.239	1429
682.286	1023
682.334	946
682.354	1254
682.382	1627
682.430	626
682.476	1358
682.477	1367
682.525	1193
682.572	798
682.598	982
682.620	1125
682.667	1164
682.715	1625
682.720	1581
682.763	1136
682.810	1302
682.841	1167
682.857	1074
682.905	1017
682.952	1883
682.963	1890
683.000	1882
683.047	1743
683.085	2281
683.095	2414
683.142	2115
683.190	873
683.206	1137
683.237	1643
683.284	2002
683.328	1641
683.332	1595
683.379	1561
683.426	1144
683.449	1245
683.473	1405
683.521	1119
683.568	1501
683.571	1514
683.615	1529
683.662	1226
683.693	1034
683.709	940
683.757	584
683.804	1546
683.814	1509
683.851	1336
683.898	1780
683.936	1504
683.945	1448
683.992	2111
684.039	1619
684.057	1828
684.086	2045
684.133	2068
684.179	2016
684.180	2009
684.227	1186
684.274	1705
684.300	1765
684.321	1797
684.368	1414
684.415	2015
684.422	1972
684.462	1789
684.509	1503
684.543	1933
684.556	2043
684.603	1835
684.649	1676
684.665	1614
684.696	1605
684.743	1630
684.786	1733
684.790	1729
684.837	2277
684.883	1139
684.908	1579
684.930	1998
684.977	2611
685.023	2471
685.029	2439
685.070	2012
685.117	2011
685.150	1650
685.164	1564
685.210	2396
685.257	2173
685.272	2269
685.303	2372
685.350	2204
685.393	2412
685.396	2433
685.443	1635
685.490	2407
685.514	2445
685.536	2407
685.583	2414
685.629	1632
685.636	1608
685.675	1601
685.722	1684
685.757	2210
685.768	2305
685.815	2062
685.861	2562
685.878	2279
685.908	1964
685.954	2511
686.000	2369
686.000	2365
686.047	2688
686.093	3599
686.121	3597
686.139	3549
686.185	2491
686.232	2824
686.242	2759
686.278	2418
686.324	3026
686.363	2108
686.370	1958
686.416	2330
686.463	1840
686.484	2062
686.509	2313
686.555	2241
686.601	2001
686.606	2078
686.647	2810
686.693	2078
686.727	2578
686.739	2741
686.785	2462
686.831	2507
686.848	2311
686.877	2042
686.923	2034
686.969	2427
686.969	2428
687.015	2448
687.061	2621
687.090	2561
687.107	2492
687.153	2030
687.199	1900
687.211	1809
687.245	1768
687.291	2521
687.332	2678
687.336	2693
687.382	2994
687.428	3254
687.453	3255
687.474	3013
687.520	2368
687.565	1551
687.574	1496
687.611	1810
687.657	2593
687.695	2911
687.702	2942
687.748	3180
687.794	3432
687.816	3210
687.839	2810
687.885	2537
687.931	2375
687.937	2311
687.976	2238
688.022	2640
688.058	2602
688.067	2593
688.113	2533
688.158	2811
688.179	2802
688.204	2734
688.249	2229
688.295	2650
688.300	2680
688.340	3139
688.386	2960
688.421	2928
688.431	2852
688.477	2749
688.522	3073
688.542	2908
688.567	2855
688.613	3091
688.658	3102
688.663	3141
688.703	3201
688.749	2877
688.784	3297
688.794	3445
688.839	2839
688.884	3013
688.905	2791
688.930	2525
688.975	3341
689.020	2387
689.026	2428
689.065	2850
689.110	3132
689.146	3131
689.155	3072
689.201	2540
689.246	2538
689.267	2481
689.291	2627
689.336	3206
689.381	3011
689.388	3029
689.426	3000
689.471	3057
689.509	3003
689.516	3010
689.561	2768
689.606	3212
689.630	2978
689.651	2710
689.696	2897
689.741	2891
689.750	2836
689.785	2785
689.830	2877
689.871	3025
689.875	3020
689.920	2749
689.965	2702
689.992	2772
690.010	2944
690.054	2758
690.099	2715
690.112	2839
690.144	3006
690.189	2503
690.233	2796
690.233	2803
690.278	2732
690.323	3055
690.354	2921
690.367	2899
690.412	3127
690.457	2698
690.474	3003
690.501	3355
690.546	3173
690.590	3003
690.595	2963
690.635	2699
690.680	3133
690.716	2913
690.724	2875
690.769	3082
690.813	3344
690.836	3031
690.857	2773
690.902	3017
690.946	3234
690.957	3193
690.991	3148
691.035	3971
691.077	3311
691.080	3274
691.124	3157
691.168	3821
691.198	3579
691.213	3524
691.257	3545
691.301	3951
691.318	3918
691.346	3599
691.390	3132
691.434	2656
691.439	2637
691.478	2992
691.522	3117
691.559	3460
691.567	3490
691.611	3245
691.655	3381
691.680	3243
691.699	3287
691.743	3765
691.787	3716
691.800	3769
691.831	3743
691.875	3504
691.919	3739
691.921	3725
691.964	3735
692.008	4251
692.041	4504
692.052	4551
692.096	4308
692.139	4165
692.162	4121
692.183	3970
692.227	4128
692.271	3859
692.282	3702
692.315	3490
692.359	4119
692.402	3801
692.403	3807
692.447	4117
692.490	4072
692.523	4011
692.534	4013
692.578	4087
692.622	4079
692.643	4004
692.666	3943
692.709	4013
692.753	4186
692.763	4133
692.797	3894
692.840	3952
692.884	3539
692.884	3548
692.928	4085
692.971	4214
693.004	4064
693.015	3965
693.059	4092
693.102	3758
693.124	3676
693.146	3745
693.189	3909
693.233	4143
693.245	4147
693.276	3949
693.320	4005
693.363	3526
693.365	3520
693.407	4076
693.450	4349
693.485	4345
693.493	4276
693.537	4326
693.580	4216
693.605	3960
693.624	3933
693.667	4292
693.710	4107
693.725	4231
693.753	4241
693.797	4080
693.840	4205
693.845	4146
693.883	4039
693.926	4125
693.966	3898
693.970	3865
694.013	3942
694.056	3666
694.086	3638
694.099	3796
694.142	3869
694.185	4355
694.206	4494
694.229	4535
694.272	4769
694.315	4513
694.326	4535
694.358	4649
694.401	4835
694.444	4792
694.446	4785
694.487	4809
694.530	4775
694.566	4626
694.573	4597
694.616	4371
694.659	4333
694.686	4213
694.702	4132
694.745	3783
694.787	3662
694.806	3510
694.830	3549
694.873	3643
694.916	3675
694.926	3757
694.959	3743
695.002	3277
695.044	3029
695.046	3013
695.087	3616
695.130	3841
695.166	4242
695.172	4226
695.215	4091
695.258	3790
695.286	3786
695.301	3958
695.343	3938
695.386	4470
695.406	4538
695.428	4395
695.471	4063
695.514	3972
695.526	3896
695.556	4112
695.599	4522
695.641	4760
695.646	4775
695.684	4552
695.726	4320
695.766	4031
695.769	4041
695.811	4129
695.854	4132
695.886	4134
695.896	4113
695.938	4086
695.981	3850
696.005	3742
696.023	3841
696.065	4154
696.108	4280
696.125	4370
696.150	4465
696.192	4651
696.235	4759
696.245	4752
696.277	4584
696.319	4502
696.361	4283
696.365	4255
696.404	4183
696.446	4180
696.485	4098
696.488	4141
696.530	4398
696.572	4783
696.604	5101
696.614	5050
696.656	4707
696.698	4352
696.724	4183
696.740	4293
696.783	4326
696.825	4597
696.844	4649
696.867	4581
696.909	4511
696.951	4270
696.964	4243
696.992	4445
697.034	4627
697.076	4800
697.083	4810
697.118	4807
697.160	4822
697.202	4869
697.203	4855
697.244	4852
697.286	4874
697.323	4853
697.327	4831
697.369	4401
697.411	4121
697.442	3882
697.453	4062
697.494	4701
697.536	5274
697.562	5767
697.578	5697
697.620	5241
697.661	4888
697.682	4654
697.703	4722
697.744	4891
697.786	5097
697.801	5130
697.828	5202
697.869	5317
697.911	5391
697.921	5414
697.952	5280
697.994	5033
698.035	4774
698.040	4732
698.077	4629
698.118	4428
698.160	4247
698.160	4231
698.201	4505
698.243	4749
698.279	4940
698.284	4963
698.325	5066
698.367	5115
698.399	5154
698.408	5169
698.449	5143
698.491	5159
698.518	5126
698.532	5140
698.573	5173
698.614	5161
698.638	5154
698.656	5276
698.697	5520
698.738	5758
698.757	5855
698.779	5756
698.820	5539
698.862	5306
698.877	5212
698.903	5407
698.944	5677
698.985	5956
698.996	6015
699.026	5882
699.067	5680
699.116	5424
699.235	6023
699.354	5233
699.474	5138
699.593	5488
699.713	6288
699.832	4501
699.951	6236
700.070	5257
700.190	4647
700.309	5522
700.428	5254
700.547	4731
700.667	6262
700.786	4525
700.905	5452
701.024	4277
701.143	5566
701.262	4520
701.381	4596
701.500	5310
701.619	5162
701.738	4710
701.857	5003
701.976	4157
702.095	3949
702.214	4140
702.333	5372
702.452	4458
702.571	4991
702.690	4196
702.809	4429
702.928	3455
703.047	4900
703.165	4107
703.284	4583
703.403	4486
703.522	5598
703.640	5078
703.759	5958
703.878	7497
703.997	5108
704.115	4293
704.234	5033
704.353	3197
704.471	4422
704.590	3612
704.708	3886
704.827	4222
704.946	4550
705.064	4508
705.183	4222
705.301	4893
705.420	7268
705.538	5719
705.656	5153
705.775	4449
705.893	5943
706.012	5099
706.130	5288
706.249	5542
706.367	6057
706.485	6576
706.604	5313
706.722	4664
706.840	6941
706.958	6570
707.077	5734
707.195	5180
707.313	5446
707.431	4859
707.549	4799
707.668	4473
707.786	6867
707.904	4890
708.022	5781
708.140	4940
708.258	4815
708.376	5414
708.494	5265
708.612	4999
708.730	7720
708.848	6918
708.966	7145
709.084	5923
709.202	6806
709.320	6204
709.438	6194
709.556	5984
709.674	7427
709.791	5898
709.909	5591
710.027	6052
710.145	6072
710.263	6122
710.380	6727
710.498	5198
710.616	7073
710.733	5762
710.851	6380
710.969	5790
711.086	5566
711.204	5305
711.322	6337
711.439	5508
711.557	6599
711.674	5328
711.792	5523
711.909	5608
712.027	5844
712.144	4875
712.262	5918
712.379	6121
712.497	9842
712.614	7998
712.732	7471
712.849	6862
712.966	7586
713.084	8217
713.201	7598
713.318	7160
713.436	7515
713.553	6920
713.670	7759
713.787	8004
713.905	8694
714.022	6749
714.139	7433
714.256	7588
714.373	9088
714.490	13178
714.608	31935
714.725	131697
714.842	117551
714.959	11078
715.076	8020
715.193	6411
715.310	7089
715.427	6117
715.544	6115
715.661	5757
715.778	6275
715.895	5957
716.011	7021
716.128	5939
716.245	6610
716.362	6878
716.479	6797
716.596	6041
716.713	6278
716.829	5973
716.946	6170
717.063	5418
717.180	5550
717.296	4488
717.413	5094
717.530	5320
717.646	5558
717.763	5155
717.880	5234
717.996	4328
718.113	4801
718.229	5233
718.346	4605
718.462	5243
718.579	6951
718.695	7943
718.812	7060
718.928	6788
719.045	5699
719.161	4748
719.277	5499
719.394	5061
719.510	5714
719.626	5305
719.743	6814
719.859	7337
719.975	11825
720.092	36917
720.208	72493
720.324	10320
720.440	6711
720.557	6403
720.673	8293
720.789	11004
720.905	23694
721.021	7805
721.137	5161
721.253	5069
721.369	5342
721.486	5574
721.602	8311
721.718	5119
721.834	4400
721.950	3429
722.066	4429
722.181	4045
722.297	5160
722.413	5046
722.529	4513
722.645	4980
722.761	4835
722.877	3424
722.993	3583
723.108	4337
723.224	4804
723.340	3418
723.456	4860
723.571	4543
723.687	4398
723.803	4084
723.918	3878
724.034	3378
724.150	5191
724.265	4180
724.381	9643
724.497	10921
724.612	3965
724.728	2776
724.843	4052
724.959	4288
725.074	9161
725.190	10115
725.305	3478
725.421	3994
725.536	3282
725.651	3813
725.767	4183
725.882	3350
725.997	3420
726.113	3222
726.228	3469
726.343	3089
726.459	3872
726.574	3573
726.689	3928
726.804	3261
726.920	3454
727.035	3113
727.150	3060
727.265	3254
727.380	3388
727.495	2600
727.610	2976
727.725	2744
727.841	3121
727.956	2584
728.071	3550
728.186	3024
728.301	3510
728.416	2643
728.531	3116
728.645	2460
728.760	3158
728.875	2754
728.990	2929
729.105	2749
729.220	2756
729.335	2508
729.449	3072
729.564	2392
729.679	2570
729.794	2505
729.908	4002
730.023	2685
730.138	2579
730.253	3207
730.367	2544
730.482	2099
730.596	3123
730.711	3452
730.826	3917
730.940	2820
731.055	2919
731.169	2713
731.284	2888
731.398	2469
731.513	3942
731.627	2344
731.742	4503
731.856	3416
731.970	3058
732.085	3387
732.199	4111
732.313	5858
732.428	13357
732.542	41478
732.656	21967
732.771	3966
732.885	2900
732.999	3321
733.113	3529
733.227	3179
733.342	3305
733.456	2566
733.570	2858
733.684	2601
733.798	3007
733.912	2569
734.026	2844
734.140	2539
734.254	3655
734.368	5509
734.482	6915
734.596	2189
734.710	3246
734.824	2637
734.938	3401
735.052	2076
735.166	4038
735.280	3082
735.393	3223
735.507	2527
735.621	4244
735.735	5674
735.849	3283
735.962	2702
736.076	3210
736.190	3293
736.303	3704
736.417	5008
736.531	2524
736.644	2185
736.758	2687
736.872	2098
736.985	1923
737.099	2889
737.212	2782
737.326	2417
737.439	2139
737.553	1739
737.666	2148
737.780	1434
737.893	1962
738.007	1936
738.120	2267
738.233	2204
738.347	2421
738.460	2059
738.573	2161
738.687	2381
738.800	2369
738.913	3219
739.026	2350
739.140	1852
739.253	1834
739.366	2203
739.479	2231
739.592	2949
739.705	1661
739.818	2611
739.932	2189
740.045	1702
740.158	2032
740.271	1620
740.384	1504
740.497	2103
740.610	2466
740.723	1965
740.836	1746
740.949	2055
741.062	3094
741.174	1931
741.287	1601
741.400	1597
741.513	1788
741.626	2140
741.739	1876
741.851	1888
741.964	1114
742.077	1764
742.189	1637
742.302	1533
742.415	2025
742.527	1630
742.640	1750
742.753	1190
742.865	1209
742.978	1736
743.090	2233
743.203	1522
743.316	1572
743.428	1050
743.541	1682
743.653	1104
743.766	1911
743.878	2034
743.990	2276
744.103	2086
744.215	2368
744.327	1777
744.440	2427
744.552	2727
744.664	1774
744.777	1690
744.889	1298
745.001	2508
745.113	1464
745.226	1232
745.338	1938
745.450	1579
745.562	1704
745.674	872
745.786	1759
745.898	882
746.010	2483
746.122	1159
746.234	1382
746.347	1657
746.459	1299
746.570	830
746.682	2165
746.794	2258
746.906	2008
747.018	648
747.130	1448
747.242	2154
747.354	1738
747.466	1557
747.577	1727
747.689	1221
747.801	1983
747.913	262
748.024	1483
748.136	883
748.248	1305
748.359	873
748.471	1174
748.583	775
748.694	1391
748.806	1241
748.918	1587
749.029	1685
749.141	1323
749.252	1262
749.364	1411
749.475	3962
749.587	2231
749.698	1005
749.809	3027
749.921	1166
750.032	1274
750.144	448
750.255	1241
750.366	388
750.478	1671
750.589	1527
750.700	1384
750.811	1107
750.923	2022
751.034	2649
751.145	3731
751.256	1100
751.367	713
751.479	1219
751.590	1327
751.701	1114
751.812	1627
751.923	1522
752.034	1812
752.145	1099
752.256	1326
752.367	1344
752.478	1116
752.589	1564
752.700	1726
752.811	653
752.922	2152
753.032	287
753.143	2479
753.254	677
753.365	1612
753.476	1136
753.586	1609
753.697	85
753.808	377
753.919	357
754.029	1192
754.140	692
754.251	737
754.361	1098
754.472	1391
754.582	335
754.693	1215
754.804	787
754.914	1176
755.025	1079
755.135	1653
755.246	1678
755.356	969
755.466	1088
755.577	1235
755.687	1056
755.798	592
755.908	1110
756.018	1071
756.129	628
756.239	986
756.349	479
756.460	1006
756.570	1044
756.680	571
756.790	1735
756.900	1322
757.011	697
757.121	1264
757.231	1187
757.341	1064
757.451	695
757.561	1725
757.671	69
757.781	-533
757.891	1734
758.001	1516
758.111	1256
758.221	1375
758.331	1192
758.441	1744
758.551	1207
758.661	1203
758.771	2143
758.880	605
758.990	1063
759.100	1897
759.210	404
759.320	1113
759.429	571
759.539	1362
759.649	440
759.758	1774
759.868	1526
759.978	1363
760.087	1014
760.197	1721
760.307	1076
760.416	1458
760.526	166
760.635	1138
760.745	765
760.854	1289
760.964	1005
761.073	1128
761.182	1236
761.292	1209
761.401	1327
761.511	855
761.620	1108
761.729	771
761.839	721
761.948	2313
762.057	526
762.166	1064
762.276	-291
762.385	1646
762.494	825
762.603	964
762.712	662
762.822	993
762.931	322
763.040	617
763.149	364
763.258	1264
763.367	1058
763.476	1514
763.585	398
763.694	1959
763.803	534
763.912	1294
764.021	748
764.130	753
764.238	1453
764.347	822
764.456	340
764.565	1776
764.674	775
764.783	1029
764.891	142
765.000	2282
765.109	1143
765.217	1767
765.326	951
765.435	2112
765.543	1326
765.652	1753
765.761	1466
765.869	3205
765.978	3847
766.086	7894
766.195	15529
766.303	47539
766.412	157428
766.520	108106
766.629	14814
766.737	5783
766.846	3242
766.954	2160
767.062	2110
767.171	2168
767.279	2107
767.387	960
767.496	1071
767.604	1064
767.712	1160
767.820	1128
767.928	1176
768.037	103
768.145	1717
768.253	1714
768.361	691
768.469	995
768.577	757
768.685	2057
768.793	909
768.901	832
769.009	1404
769.117	1618
769.225	977
769.333	2373
769.441	3820
769.549	6565
769.657	16360
769.765	60185
769.873	126622
769.981	27102
770.088	4693
770.196	2586
770.304	2405
770.412	2702
770.519	776
770.627	1697
770.735	813
770.842	2561
770.950	1492
771.058	1991
771.165	969
771.273	1916
771.380	1488
771.488	2296
771.595	1278
771.703	1526
771.810	665
771.918	1473
772.025	1514
772.133	932
772.240	1534
772.348	2271
772.455	889
772.562	1721
772.670	1156
772.777	2094
772.884	1677
772.991	1395
773.099	1352
773.206	1906
773.313	1576
773.420	2015
773.528	733
773.635	1745
773.742	1668
773.849	1684
773.956	1115
774.063	1183
774.170	898
774.277	1892
774.384	1063
774.491	1480
774.598	972
774.705	1062
774.812	1868
774.919	1556
775.026	1404
775.133	1288
775.239	1299
775.346	800
775.453	903
775.560	1302
775.667	398
775.773	726
775.880	1892
775.987	1412
776.093	1672
776.200	1514
776.307	795
776.413	1606
776.520	1253
776.627	1278
776.733	1157
776.840	383
776.946	1957
777.053	2492
777.159	1745
777.266	1487
777.372	2879
777.478	1919
777.585	1590
777.691	1781
777.798	1232
777.904	1718
778.010	1247
778.117	2620
778.223	641
778.329	1517
778.435	317
778.542	1961
778.648	654
778.754	1569
778.860	770
778.966	1184
779.072	690
779.178	1445
779.284	656
779.391	526
779.497	59
779.603	3025
779.708	-94
779.815	1989
779.920	2032
780.026	2939
780.132	1156
780.238	957
780.344	1111
780.450	2403
780.556	172
780.661	687
780.767	1208
780.873	1547
780.979	792
781.085	319
781.190	1054
781.296	931
781.402	290
781.507	938
781.613	1197
781.719	707
781.824	445
781.930	2042
782.035	951
782.141	1013
782.246	318
782.352	1116
782.457	470
782.563	1370
782.668	-97
782.773	1018
782.879	140
782.984	1175
783.090	1832
783.195	1830
783.300	1686
783.405	1692
783.511	732
783.616	1172
783.721	858
783.826	1405
783.932	921
784.037	1510
784.142	258
784.247	938
784.352	1059
784.457	297
784.562	351
784.667	664
784.772	1026
784.877	725
784.982	950
785.087	729
785.192	1705
785.297	1011
785.402	473
785.507	1079
785.611	238
785.716	1079
785.821	299
785.926	663
786.031	907
786.135	1172
786.240	564
786.345	435
786.450	-254
786.554	1348
786.659	300
786.763	-480
786.868	500
786.973	1552
787.077	474
787.182	33
787.286	727
787.391	548
787.495	211
787.600	998
787.704	217
787.809	777
787.913	654
788.017	719
788.122	103
788.226	966
788.330	115
788.435	880
788.539	1250
788.643	587
788.747	185
788.852	615
788.956	-212
789.060	579
789.164	487
789.268	585
789.372	-157
789.476	56
789.580	-146
789.684	-105
789.788	689
789.892	256
789.996	204
790.100	335
790.204	-367
790.308	821
790.412	-145
790.516	565
790.620	233
790.724	392
790.828	303
790.931	-175
791.035	1988
791.139	180
791.242	-892
791.346	1677
791.450	89
791.554	176
791.657	-1363
791.761	1330
791.864	162
791.968	421
792.072	474
792.175	1075
792.279	-414
792.382	545
792.486	370
792.589	640
792.693	47
792.796	-251
792.899	887
793.003	638
793.106	-1351
793.209	-445
793.313	959
793.416	-554
793.519	650
793.623	1330
793.726	1350
793.829	-89
793.932	-43
794.035	44
794.138	931
794.242	389
794.345	665
794.448	838
794.551	698
794.654	2196
794.757	1816
794.860	1805
794.963	1117
795.066	-14
795.169	824
795.272	-564
795.375	239
795.477	457
795.580	772
795.683	-502
795.786	-40
795.889	-280
795.991	593
796.094	886
796.197	-684
796.300	1353
796.402	-215
796.505	-365
796.608	-608
796.710	604
796.813	-244
796.915	194
797.018	223
797.120	272
797.223	-1038
797.326	1405
797.428	22
797.530	292
797.633	290
797.735	1588
797.838	-13
797.940	1622
798.042	-676
798.145	-233
798.247	824
798.349	65
798.452	775
798.554	-459
798.656	-374
798.758	1062
798.860	-502
798.962	-542
799.065	-42
799.167	-417
799.269	974
799.371	795
799.473	107
799.575	485
799.677	91
799.779	1733
799.881	-530
799.983	557
800.085	258
800.187	-73
800.289	-103
800.390	-311
800.492	35
800.594	1242
800.696	-309
800.798	160
800.899	-186
801.001	398
801.103	-706
801.205	-75
801.306	487
801.408	-130
801.509	-391
801.611	260
801.713	357
801.814	-190
801.916	-61
802.017	1089
802.119	-1012
802.220	-563
802.322	-1210
802.423	2174
802.525	-581
802.626	696
802.727	183
802.829	1066
802.930	-2165
803.031	1734
803.133	-259
803.234	28
803.335	-293
803.436	-1240
803.538	-560
803.639	-1149
803.740	267
803.841	10
803.942	-502
804.043	472
804.144	-112
804.245	1279
804.346	-363
804.447	-195
804.548	450
804.649	1379
804.750	-991
804.851	-1035
804.952	-1146
805.053	642
805.154	-1502
805.255	776
805.355	-604
805.456	262
805.557	-938
805.658	-270
805.758	-51
805.859	715
805.960	0
806.061	-447
806.161	-2
806.262	-16
806.362	-427
806.463	294
806.564	-928
806.664	186
806.765	-198
806.865	-255
806.966	211
807.066	-702
807.166	-508
807.267	296
807.367	-192
807.468	97
807.568	-1757
807.668	637
807.769	-141
807.869	-501
807.969	-102
808.069	-80
808.170	-405
808.270	-605
808.370	-240
808.470	781
808.570	-907
808.670	33
808.770	1
808.870	-206
808.970	457
809.070	-260
809.170	-910
809.271	-65
809.370	-686
809.470	818
809.570	-675
809.670	-78
809.770	130
809.870	852
809.970	-375
810.070	423
810.169	-642
810.269	-1142
810.369	1059
810.469	260
810.568	-791
810.668	-645
810.768	-463
810.867	-410
810.967	-975
811.066	110
811.166	-901
811.265	878
811.365	-819
811.464	5
811.564	-825
811.663	779
811.763	-1373
811.862	107
811.962	-161
812.061	86
812.160	-1016
812.260	-72
812.359	377
812.458	1104
812.557	2963
812.657	3017
812.756	626
812.855	-129
812.954	-572
813.053	836
813.153	-63
813.252	-904
813.351	-954
813.450	92
813.549	-386
813.648	301
813.747	-1000
813.846	-473
813.945	-543
814.044	-439
814.143	-685
814.242	-58
814.341	-926
814.439	644
814.538	-46
814.637	-169
814.736	-260
814.835	691
814.933	-3
815.032	413
815.131	-210
815.229	-241
815.328	247
815.427	113
815.525	-31
815.624	992
815.722	-765
815.821	308
815.919	-307
816.018	-530
816.116	255
816.215	-480
816.313	-45
816.412	108
816.510	-304
816.609	2078
816.707	799
816.805	1248
816.904	-379
817.002	572
817.100	695
817.198	710
817.296	532
817.395	723
817.493	1711
817.591	1396
817.689	2545
817.787	3986
817.885	6185
817.983	12580
818.081	28822
818.179	69598
818.277	157926
818.375	104078
818.473	22304
818.571	8930
818.669	6883
818.767	6158
818.865	6226
818.963	8225
819.061	12604
819.158	23744
819.256	56720
819.354	127534
819.452	244545
819.549	123863
819.647	29666
819.745	12263
819.842	7559
819.940	5150
820.038	3598
820.135	3590
820.233	2561
820.330	1692
820.428	1127
820.525	1971
820.623	679
820.720	515
820.818	1090
820.915	969
821.012	185
821.110	-411
821.207	1185
821.304	-437
821.402	-320
821.499	1133
821.596	952
821.693	574
821.791	399
821.888	1473
821.985	1319
822.082	-163
822.179	888
822.276	410
822.373	152
822.470	-471
822.567	-638
822.664	-523
822.761	-20
822.858	-567
822.955	-396
823.052	801
823.149	-877
823.246	324
823.343	-459
823.440	959
823.536	-42
823.633	187
823.730	522
823.827	185
823.923	-495
824.020	1402
824.117	-236
824.213	-379
824.310	84
824.407	-298
824.503	-224
824.600	-6
824.696	-753
824.793	544
824.889	-774
824.986	416
825.082	-626
825.179	750
825.275	-411
825.371	-937
825.468	143
825.564	-785
825.660	451
825.757	527
825.853	1104
825.949	-268
826.045	-927
826.142	85
826.238	-66
826.334	883
826.430	-1455
826.526	639
826.622	-996
826.718	577
826.814	-966
826.910	637
827.006	-567
827.102	226
827.198	219
827.294	-919
827.390	-176
827.486	22
827.582	-1254
827.678	-1075
827.774	1
827.869	-1409
827.965	464
828.061	-346
828.157	-241
828.252	-390
828.348	-763
828.444	729
828.539	-2207
828.635	98
828.731	442
828.826	-1339
828.922	74
829.017	40
829.113	-791
829.208	-233
829.304	-1353
829.399	819
829.495	-43
829.590	-170
829.685	-610
829.781	566
829.876	-502
829.971	214
830.066	-152
830.162	136
830.257	-1435
830.352	153
830.447	1042
830.543	-89
830.638	-1342
830.733	208
830.828	-688
830.923	549
831.018	289
831.113	731
831.208	-649
831.303	-204
831.398	-672
831.493	-277
831.588	-175
831.683	-330
831.778	-114
831.873	-190
831.967	23
832.062	-1141
832.157	-1815
832.252	419
832.346	-900
832.441	782
832.536	-67
832.631	1855
832.725	530
832.820	-133
832.914	-628
833.009	-536
833.104	-1070
833.198	-342
833.293	-479
833.387	114
833.482	-1020
833.576	-51
833.670	-166
833.765	-709
833.859	-1042
833.954	-146
834.048	-408
834.142	-294
834.237	-742
834.331	-347
834.425	-562
834.519	-1046
834.613	257
834.708	-534
834.802	-493
834.896	-197
834.990	6
835.084	499
835.178	-148
835.272	-233
835.366	-1078
835.460	937
835.554	-703
835.648	181
835.742	-37
835.836	190
835.930	-1732
836.024	-335
836.117	-162
836.211	-449
836.305	487
836.399	1114
836.493	-1411
836.586	-249
836.680	-1195
836.774	145
836.867	-374
836.961	-425
837.055	-1583
837.148	-129
837.242	-1252
837.335	-456
837.429	114
837.522	494
837.616	-409
837.709	1064
837.803	-1355
837.896	432
837.989	-1420
838.083	261
838.176	-209
838.269	334
838.363	601
838.456	-327
838.549	-45
838.642	191
838.735	276
838.829	767
838.922	-1354
839.015	-271
839.108	-1157
839.201	-464
839.294	84
839.387	78
839.480	-944
839.573	207
839.666	-702
839.759	-871
839.852	-1516
839.945	-38
840.038	-615
840.131	-683
840.223	-172
840.316	597
840.409	-1623
840.502	-779
840.594	-454
840.687	-1651
840.780	-466
840.873	-659
840.965	-286
841.058	584
841.150	271
841.243	-833
841.336	-554
841.428	138
841.521	-1689
841.613	-250
841.706	-195
841.798	-602
841.890	-518
841.983	-1597
842.075	-287
842.167	-198
842.260	-1557
842.352	193
842.444	-211
842.537	1148
842.629	1896
842.721	-693
842.813	-634
842.905	-1688
842.997	-1218
843.090	-345
843.182	-49
843.274	842
843.366	3955
843.458	7920
843.550	4201
843.642	-767
843.734	-966
843.826	-188
843.918	-503
844.009	-401
844.101	-1720
844.193	-91
844.285	-947
844.377	-315
844.469	304
844.560	-112
844.652	-1060
844.744	-881
844.835	-855
844.927	-169
845.019	318
845.110	-532
845.202	-982
845.293	-823
845.385	-1177
845.476	-860
845.568	-198
845.659	-893
845.751	-7
845.842	-846
845.934	-1173
846.025	-714
846.116	-793
846.208	-873
846.299	-985
846.390	-184
846.482	-530
846.573	584
846.664	370
846.755	-74
846.846	-52
846.937	-1254
847.029	-1246
847.120	-1442
847.211	-1584
847.302	162
847.393	-1708
847.484	-401
847.575	-1686
847.666	-411
847.757	-1258
847.847	347
847.938	-197
848.029	-248
848.120	-750
848.211	-799
848.302	-974
848.392	-878
848.483	-676
848.574	-580
848.664	-1267
848.755	-1097
848.846	-1509
848.936	-445
849.027	-1253
849.118	-553
849.208	-1341
849.299	179
849.389	129
849.480	1364
849.570	3631
849.661	7104
849.751	12960
849.841	3532
849.932	-777
850.022	-987
850.112	-86
850.203	-71
850.293	-1505
850.383	-789
850.474	-1464
850.564	-1265
850.654	-1394
850.744	-978
850.834	-1564
850.924	-281
851.014	-547
851.104	-499
851.194	-989
851.284	-293
851.374	-549
851.464	214
851.554	-635
851.644	-380
851.734	-603
851.824	-54
851.914	-1078
852.004	-160
852.094	-613
852.183	-559
852.273	-707
852.363	-1052
852.452	-1138
852.542	-265
852.632	-1188
852.721	-1057
852.811	-1032
852.901	-380
852.990	-1004
853.080	-274
853.169	-327
853.259	-245
853.348	-949
853.438	-148
853.527	-247
853.617	530
853.706	3164
853.795	5148
853.885	15203
853.974	28214
854.063	51272
854.152	78268
854.242	24740
854.331	3006
854.420	418
854.509	1527
854.598	379
854.687	266
854.777	-480
854.866	-299
854.955	296
855.044	-823
855.133	-1038
855.222	-164
855.311	-1218
855.400	-100
855.488	-925
855.577	-1280
855.666	-323
855.755	-404
855.844	-1422
855.933	-1141
856.021	-1155
856.110	-288
856.199	-1753
856.288	-879
856.376	-1441
856.465	-1220
856.554	-462
856.642	-69
856.731	-908
856.819	-981
856.908	-1757
856.996	-354
857.085	-1220
857.173	-987
857.262	-1352
857.350	-919
857.438	-866
857.527	-357
857.615	-1826
857.703	-440
857.792	-1243
857.880	-625
857.968	-492
858.056	-363
858.145	-425
858.233	-1133
858.321	-1146
858.409	-832
858.497	-916
858.585	-463
858.673	-889
858.761	-616
858.849	-1181
858.937	-509
859.025	-810
859.113	-51
859.201	-1435
859.289	-524
859.377	-1774
859.465	-422
859.552	-554
859.640	-1149
859.728	-1631
859.816	-346
859.903	-1123
859.991	-947
860.079	-1107
860.166	-1588
860.254	-400
860.342	-286
860.429	-914
860.517	-1530
860.604	-360
860.692	-405
860.779	-1165
860.867	-1699
860.954	-483
861.042	-497
861.129	-613
861.216	-601
861.304	-1044
861.391	-788
861.478	-801
861.565	104
861.653	-970
861.740	-1069
861.827	-943
861.914	-61
862.001	-2096
862.089	-512
862.176	-1376
862.263	-580
862.350	-1865
862.437	-1075
862.524	-1335
862.611	-1930
862.698	-226
862.785	-950
862.871	-1363
862.958	-1163
863.045	-1141
863.132	-513
863.219	-1082
863.306	-1244
863.392	-1135
863.479	-881
863.566	-747
863.652	-753
863.739	-1164
863.826	-1062
863.912	-1786
863.999	-764
864.086	-1466
864.172	-753
864.259	-1104
864.345	-1250
864.432	-778
864.518	-520
864.604	-1490
864.691	-492
864.777	-168
864.863	82
864.950	-1058
865.036	-333
865.122	2
865.209	230
865.295	-635
865.381	36
865.467	172
865.553	1161
865.639	202
865.726	2880
865.812	6962
865.898	13939
865.984	18717
866.070	40200
866.156	39805
866.242	8025
866.328	1290
866.414	321
866.499	-121
866.585	319
866.671	-627
866.757	-13
866.843	-865
866.928	-208
867.014	-241
867.100	519
867.186	-333
867.271	237
867.357	601
867.442	231
867.528	-605
867.614	-285
867.699	-658
867.785	72
867.870	-296
867.956	199
868.041	125
868.127	79
868.212	-275
868.297	-321
868.383	71
868.468	138
868.553	-333
868.639	1137
868.724	1715
868.809	1306
868.894	-543
868.979	19
869.065	-626
869.150	-119
869.235	-603
869.320	-409
869.405	-1051
869.490	-609
869.575	-1362
869.660	-680
869.745	-332
869.830	-560
869.915	-926
870.000	-588
870.085	-315
870.169	-285
870.254	-171
870.339	-892
870.424	-1395
870.509	-195
870.593	-18
870.678	-148
870.763	-999
870.847	-209
870.932	-1787
871.016	-1
871.101	-947
871.186	-636
871.270	-477
871.355	-585
871.439	-808
871.523	-682
871.608	-570
871.692	-497
871.777	-703
871.861	15
871.945	-1624
872.030	36
872.114	-896
872.198	-752
872.282	-959
872.367	-61
872.451	-561
872.535	-688
872.619	-373
872.703	-184
872.787	-1432
872.871	-933
872.955	-1557
873.039	-1572
873.123	-1321
873.207	-63
873.291	-625
873.375	-564
873.459	-492
873.543	-684
873.627	-1072
873.711	-808
873.794	-1226
873.878	-822
873.962	-978
874.045	-527
874.129	-1728
874.137	-1658
874.213	-961
874.245	-770
874.296	-458
874.352	-689
874.380	-807
874.460	-553
874.464	-544
874.547	-1232
874.568	-1082
874.631	-650
874.676	-680
874.714	-704
874.784	-716
874.798	-715
874.881	300
874.892	75
874.965	-1494
874.999	-726
875.048	294
875.107	-413
875.131	-678
875.215	116
875.215	116
875.298	-775
875.323	-636
875.381	-314
875.430	-178
875.465	-105
875.538	-330
875.548	-353
875.631	-203
875.646	-273
875.714	-679
875.753	-845
875.798	-970
875.861	-450
875.881	-309
875.964	-120
875.968	-139
876.047	-418
876.076	-376
876.130	-316
876.183	97
876.213	340
876.291	370
876.296	371
876.379	-71
876.398	-40
876.462	-82
876.506	104
876.545	375
876.613	105
876.628	23
876.711	241
876.721	250
876.794	455
876.828	94
876.877	-473
876.935	-523
876.960	-506
877.043	298
877.043	297
877.125	255
877.150	464
877.208	958
877.258	867
877.291	804
877.365	226
877.374	165
877.456	-183
877.472	-51
877.539	517
877.579	757
877.622	950
877.687	621
877.704	564
877.787	-303
877.794	-186
877.869	1142
877.901	943
877.952	347
878.008	406
878.034	555
878.115	631
878.117	639
878.199	598
878.222	741
878.282	923
878.329	720
878.364	631
878.437	700
878.447	672
878.529	491
878.544	469
878.611	557
878.651	583
878.694	641
878.758	364
878.776	325
878.858	1285
878.865	1221
878.941	105
878.972	196
879.023	627
879.078	649
879.105	707
879.185	1685
879.187	1706
879.269	1165
879.292	1299
879.351	1318
879.399	930
879.433	830
879.506	1208
879.516	1282
879.598	990
879.613	1070
879.680	1174
879.720	1010
879.762	920
879.827	1055
879.844	1128
879.926	964
879.933	1005
880.007	1439
880.040	1377
880.089	1413
880.147	2249
880.171	2613
880.253	3293
880.254	3290
880.335	4817
880.360	5121
880.417	7754
880.467	11251
880.499	13633
880.574	17302
880.580	16720
880.662	6898
880.680	4954
880.744	2642
880.787	1645
880.825	1503
880.893	776
880.907	746
880.989	1354
881.000	1341
881.070	1128
881.106	1217
881.152	1276
881.213	1307
881.233	1300
881.315	1193
881.319	1150
881.396	1127
881.426	1263
881.478	1247
881.532	1328
881.559	1531
881.639	2100
881.641	2101
881.722	1596
881.745	1484
881.803	1909
881.852	1839
881.885	1443
881.958	1512
881.966	1640
882.047	2578
882.064	2587
882.129	2232
882.171	2405
882.210	3425
882.277	4980
882.291	4799
882.372	3251
882.383	3042
882.454	2307
882.489	1987
882.535	1968
882.596	1960
882.616	1910
882.697	1651
882.702	1642
882.778	1911
882.808	1809
882.859	1520
882.914	1647
882.940	1863
883.020	1729
883.021	1736
883.102	1779
883.127	1765
883.183	2178
883.233	2668
883.264	2585
883.339	1814
883.345	1796
883.426	1569
883.445	1539
883.507	1617
883.551	1734
883.587	2103
883.657	2608
883.668	2657
883.749	3218
883.763	3192
883.830	2268
883.869	2040
883.910	2045
883.975	1697
883.991	1742
884.072	1878
884.081	1884
884.152	2226
884.187	2602
884.233	2911
884.292	2754
884.314	2647
884.394	2636
884.398	2598
884.475	1920
884.504	1887
884.555	2209
884.610	2006
884.636	1873
884.716	2138
884.716	2154
884.797	2577
884.821	2707
884.877	2643
884.927	2246
884.958	2219
885.033	2884
885.038	2888
885.118	2099
885.139	1951
885.199	2389
885.244	2710
885.279	2772
885.350	2827
885.359	2856
885.439	3017
885.456	2988
885.520	2330
885.561	1919
885.600	2207
885.667	3116
885.680	3165
885.760	2626
885.773	2636
885.840	3012
885.878	2976
885.920	2909
885.984	2808
886.000	2830
886.080	2970
886.089	2990
886.160	3022
886.195	2832
886.240	2738
886.300	2994
886.320	3229
886.400	3482
886.406	3524
886.480	3428
886.511	3178
886.560	3470
886.616	3858
886.640	3741
886.720	3215
886.722	3191
886.800	3455
886.827	3514
886.879	3563
886.932	3392
886.959	3437
887.038	3784
887.039	3802
887.119	3726
887.143	3700
887.198	3947
887.248	4126
887.278	4018
887.354	3499
887.358	3516
887.437	3669
887.459	3647
887.517	3754
887.564	4016
887.596	4011
887.669	3621
887.676	3567
887.755	2868
887.774	2659
887.835	3212
887.880	3767
887.914	3853
887.985	3608
887.994	3624
888.073	3761
888.090	3780
888.153	3612
888.195	3480
888.232	3541
888.300	3536
888.311	3614
888.391	4134
888.405	4214
888.470	3697
888.510	3295
888.549	3856
888.615	4858
888.628	4731
888.708	3771
888.720	3599
888.787	4292
888.825	4675
888.866	4092
888.930	3175
888.945	3291
889.024	3791
889.035	3841
889.103	3780
889.140	3729
889.182	3860
889.245	3993
889.261	4088
889.340	4489
889.349	4515
889.419	4238
889.454	4075
889.498	3991
889.559	3831
889.577	3951
889.656	4423
889.664	4453
889.735	4136
889.768	3967
889.814	4428
889.873	5001
889.978	4110
890.083	3814
890.187	3916
890.292	4546
890.397	3999
890.501	3752
890.606	2707
890.710	5073
890.815	4652
890.919	3813
891.024	3730
891.128	3406
891.233	4089
891.337	5030
891.442	3899
891.546	3802
891.650	3858
891.755	4175
891.859	5145
891.963	5238
892.068	4790
892.172	4162
892.276	3832
892.380	3365
892.484	4371
892.589	3610
892.693	3975
892.797	3126
892.901	4589
893.005	3402
893.109	4412
893.213	4342
893.317	3987
893.421	4192
893.525	2994
893.629	3098
893.733	3981
893.837	3987
893.941	4394
894.045	3894
894.148	3815
894.252	2862
894.356	3945
894.460	4917
894.564	3780
894.667	4071
894.771	3221
894.875	4024
894.978	3470
895.082	3569
895.186	3909
895.289	3875
895.393	3808
895.496	4125
895.600	3455
895.703	3646
895.807	3060
895.910	4113
896.014	3591
896.117	3371
896.221	4872
896.324	3763
896.427	3554
896.531	4028
896.634	3539
896.737	3776
896.840	4574
896.944	4032
897.047	3792
897.150	3456
897.253	3065
897.356	4082
897.460	3629
897.563	3703
897.666	4201
897.769	3342
897.872	3972
897.975	3560
898.078	3715
898.181	4062
898.284	3899
898.387	5109
898.490	4239
898.593	3320
898.695	3371
898.798	3394
898.901	3976
899.004	3436
899.107	3584
899.209	3135
899.312	3940
899.415	3020
899.518	2729
899.620	3714
899.723	4225
899.826	5648
899.928	6765
900.031	3873
900.133	4041
900.236	3119
900.338	1921
900.441	2958
900.543	2635
900.646	3692
900.748	3275
900.851	3113
900.953	3744
901.055	3741
901.158	3388
901.260	3089
901.362	2714
901.465	3403
901.567	3908
901.669	4036
901.771	3390
901.873	3286
901.976	3199
902.078	3767
902.180	2643
902.282	3602
902.384	3391
902.486	4524
902.588	4254
902.690	3255
902.792	3040
902.894	3465
902.996	3413
903.098	3506
903.200	2678
903.302	3054
903.404	3677
903.505	3845
903.607	3439
903.709	3833
903.811	3613
903.913	2822
904.014	2545
904.116	3154
904.218	3475
904.319	4069
904.421	4793
904.523	3341
904.624	2732
904.726	3387
904.827	2802
904.929	3194
905.030	2566
905.132	3727
905.233	3066
905.335	2868
905.436	2725
905.537	3075
905.639	3613
905.740	3065
905.841	5049
905.943	3086
906.044	3082
906.145	3543
906.247	2932
906.348	3641
906.449	3371
906.550	3548
906.651	3971
906.752	4250
906.854	3511
906.955	3064
907.056	3521
907.157	3418
907.258	3583
907.359	3165
907.460	3114
907.561	2984
907.662	2626
907.762	3473
907.863	3335
907.964	2996
908.065	3612
908.166	3377
908.267	3341
908.367	3040
908.468	2738
908.569	4029
908.670	3828
908.770	4716
908.871	4630
908.971	4973
909.072	3813
909.173	2757
909.273	2927
909.374	3739
909.474	3121
909.575	3160
909.675	3840
909.776	3545
909.876	3789
909.977	3127
910.077	3805
910.177	3794
910.278	3577
910.378	3498
910.478	2889
910.579	3986
910.679	3531
910.779	3624
910.879	3336
910.980	3816
911.080	2899
911.180	3021
911.280	3239
911.380	3749
911.480	3142
911.580	4592
911.680	3356
911.780	4421
911.880	3921
911.980	3316
912.080	3525
912.180	3093
912.280	3220
912.380	2875
912.480	3636
912.580	4159
912.679	2947
912.779	3359
912.879	4247
912.979	3215
913.078	3072
913.178	3091
913.278	2405
913.377	2841
913.477	3579
913.577	4010
913.676	2663
913.776	4045
913.875	3939
913.975	3263
914.074	3765
914.174	2960
914.273	2108
914.373	3630
914.472	2424
914.572	3082
914.671	3645
914.770	2935
914.870	2552
914.969	3049
915.068	2956
915.167	3558
915.267	3077
915.366	3198
915.465	3184
915.564	3469
915.663	2142
915.763	3011
915.862	3986
915.961	3338
916.060	2351
916.159	3480
916.258	2560
916.357	3263
916.456	3907
916.555	3225
916.654	2754
916.752	3304
916.851	3099
916.950	3543
917.049	2784
917.148	3692
917.247	3437
917.345	3158
917.444	2794
917.543	3318
917.642	2872
917.740	3630
917.839	3376
917.937	4057
918.036	3161
918.135	2856
918.233	3226
918.332	2266
918.430	3452
918.529	3422
918.627	2311
918.726	3943
918.824	2327
918.923	2533
919.021	2812
919.119	3115
919.218	1962
919.316	3293
919.414	2584
919.512	3828
919.611	2556
919.709	2735
919.807	3674
919.905	3980
920.003	3814
920.102	4249
920.200	2799
920.298	3736
920.396	2849
920.494	3059
920.592	3118
920.690	3640
920.788	2851
920.886	3887
920.984	3959
921.082	3724
921.180	4067
921.277	4212
921.375	4643
921.473	4679
921.571	4929
921.669	4808
921.766	3831
921.864	4689
921.962	3732
922.060	4348
922.157	4137
922.255	4575
922.352	4099
922.450	5054
922.548	4384
922.645	4920
922.743	5600
922.840	7253
922.938	8098
923.035	7163
923.133	6695
923.230	8633
923.327	7778
923.425	8027
923.522	8037
923.619	6800
923.717	6805
923.814	6803
923.911	6722
924.008	7638
924.106	7124
924.203	6861
924.300	6160
924.397	7221
924.494	7157
924.591	6441
924.688	5791
924.786	7135
924.883	7092
924.979	6973
925.077	6382
925.173	6663
925.270	7266
925.367	6597
925.464	7507
925.561	7716
925.658	7540
925.755	7662
925.852	7758
925.948	7058
926.045	6770
926.142	6343
926.239	7361
926.335	6429
926.432	6404
926.529	6879
926.625	7434
926.722	6761
926.818	6454
926.915	6692
927.011	5561
927.108	6002
927.204	6465
927.301	6103
927.397	6357
927.494	6581
927.590	5266
927.687	5688
927.783	6517
927.879	6845
927.976	6508
928.072	6418
928.168	6136
928.264	5727
928.361	5847
928.457	6877
928.553	6049
928.649	6476
928.745	6289
928.841	5595
928.937	5893
929.033	6362
929.129	6096
929.225	5980
929.321	5687
929.417	6242
929.513	6525
929.609	5866
929.705	5251
929.801	5971
929.897	5132
929.993	5169
930.089	5476
930.184	5973
930.280	6187
930.376	6935
930.471	4813
930.567	5591
930.663	4982
930.758	5013
930.854	4644
930.950	5388
931.045	4597
931.141	5715
931.236	6491
931.332	6023
931.427	5207
931.523	6212
931.618	5463
931.714	4243
931.809	5641
931.905	5510
932.000	4426
932.095	5186
932.191	5805
932.286	6761
932.381	4944
932.476	4191
932.572	5488
932.667	4238
932.762	4929
932.857	5206
932.952	6033
933.047	5142
933.142	3368
933.237	5207
933.332	5191
933.427	6184
933.522	5344
933.617	4403
933.712	4284
933.807	5666
933.902	4839
933.997	4785
934.092	5149
934.187	6005
934.282	4893
934.376	5315
934.471	4484
934.566	4380
934.661	4065
934.755	5362
934.850	4668
934.945	5082
935.039	4001
935.134	4677
935.228	5232
935.323	5706
935.417	4359
935.512	3640
935.606	3769
935.701	5288
935.795	4354
935.890	4828
935.984	4168
936.079	4247
936.173	4741
936.267	4222
936.362	4318
936.456	5030
936.550	4355
936.644	5021
936.738	3838
936.833	4710
936.927	3306
937.021	3655
937.115	4751
937.209	3741
937.303	4552
937.397	4373
937.491	4756
937.585	4682
937.679	4027
937.773	4747
937.867	3318
937.961	3419
938.055	4922
938.149	4435
938.243	4519
938.337	3952
938.430	3327
938.524	4487
938.618	3687
938.712	4073
938.805	3904
938.899	4121
938.993	5075
939.086	3159
939.180	3241
939.274	3725
939.367	3975
939.461	4196
939.554	2783
939.648	4094
939.741	3418
939.835	3987
939.928	5544
940.022	5092
940.115	3553
940.208	4499
940.302	5430
940.395	4448
940.488	3192
940.582	3940
940.675	2425
940.768	3730
940.861	4891
940.954	4624
941.048	2844
941.141	3423
941.234	3604
941.327	4886
941.420	5134
941.513	4977
941.606	3656
941.699	4149
941.792	4330
941.885	3996
941.978	3890
942.071	4208
942.164	2996
942.257	3357
942.349	3416
942.442	3595
942.535	2205
942.628	3528
942.721	3599
942.813	3626
942.906	3791
942.999	4061
943.091	2992
943.184	3760
943.277	3020
943.369	3338
943.462	3327
943.554	3291
943.647	3602
943.739	3741
943.832	3737
943.924	2212
944.017	3563
944.109	2532
944.201	2594
944.294	4797
944.386	3200
944.478	2653
944.571	2852
944.663	3114
944.755	3402
944.847	4089
944.940	3123
945.032	2204
945.124	2458
945.216	3801
945.308	2697
945.400	3430
945.492	2749
945.584	3873
945.676	3688
945.768	3098
945.860	3634
945.952	3566
946.044	3550
946.136	2857
946.228	2972
946.320	3136
946.412	3208
946.503	4039
946.595	3311
946.687	2290
946.779	2799
946.870	3447
946.962	2959
947.054	3040
947.145	3367
947.237	3064
947.329	2721
947.420	3152
947.512	2852
947.603	2676
947.695	2546
947.786	1995
947.878	2437
947.969	3212
948.061	3220
948.152	2437
948.243	2042
948.335	1976
948.426	2377
948.517	2327
948.609	2413
948.700	3214
948.791	2060
948.882	2730
948.973	2769
949.065	1989
949.156	2744
949.247	1811
949.338	2799
949.429	2113
949.520	1962
949.611	1903
949.702	3368
949.793	2767
949.884	1667
949.975	1974
950.066	1759
950.157	2892
950.247	1992
950.338	2356
950.429	2560
950.520	1559
950.611	1857
950.701	3171
950.792	3413
950.883	3153
950.973	2775
951.064	3369
951.155	1976
951.245	3300
951.336	3022
951.427	2913
951.517	3443
951.608	2300
951.698	2451
951.788	2089
951.879	2336
951.969	2476
952.060	1872
952.150	2629
952.240	2768
952.331	1221
952.421	2866
952.511	1609
952.602	2129
952.692	2293
952.782	1880
952.872	1726
952.962	2430
953.052	1974
953.143	1215
953.233	2401
953.323	1517
953.413	3019
953.503	1733
953.593	2324
953.683	1152
953.773	1686
953.863	1596
953.953	1597
954.042	2883
954.132	1777
954.222	2504
954.312	2547
954.402	2147
954.492	2855
954.581	4484
954.671	3085
954.761	1947
954.850	2785
954.940	1549
955.030	1620
955.119	2189
955.209	1607
955.298	1379
955.388	1970
955.477	2614
955.567	1331
955.656	2257
955.746	2699
955.835	1410
955.925	1607
956.014	2285
956.103	3369
956.193	2425
956.282	1464
956.371	2298
956.461	1809
956.550	933
956.639	2330
956.728	1226
956.817	2817
956.906	1724
956.995	1979
957.085	1168
957.174	1662
957.263	1535
957.352	1519
957.441	1689
957.530	2732
957.619	2453
957.708	2049
957.796	1543
957.885	1506
957.974	1636
958.063	2457
958.152	972
958.241	1717
958.329	1117
958.418	1256
958.507	1213
958.596	2454
958.684	651
958.773	2078
958.861	1590
958.950	2111
959.039	2433
959.127	1420
959.216	1994
959.304	1117
959.393	2423
959.481	2123
959.570	1648
959.658	1548
959.746	2251
959.835	3423
959.923	3905
960.011	2576
960.100	1684
960.188	1187
960.276	644
960.365	1358
960.453	1906
960.541	1719
960.629	941
960.717	845
960.805	1392
960.893	1440
960.981	545
961.069	2404
961.158	1657
961.245	2642
961.333	1327
961.421	771
961.509	1177
961.597	1839
961.685	1998
961.773	2177
961.861	1831
961.949	1763
962.036	977
962.124	1948
962.212	1562
962.299	1240
962.387	537
962.475	1657
962.562	1227
962.650	1953
962.738	1383
962.825	465
962.913	1832
963.000	952
963.088	1363
963.175	2063
963.263	1163
963.350	1768
963.438	2325
963.525	2608
963.612	5207
963.700	9740
963.787	18772
963.874	8913
963.962	1140
964.049	1201
964.136	1769
964.223	1035
964.310	1369
964.398	1263
964.485	1205
964.572	2944
964.659	4058
964.746	3344
964.833	1161
964.920	1391
965.007	618
965.094	2425
965.181	1149
965.268	1785
965.355	578
965.441	1049
965.528	575
965.615	1873
965.702	194
965.789	1082
965.875	928
965.962	1485
966.049	1010
966.136	2211
966.222	1046
966.309	1680
966.395	1196
966.482	1815
966.569	1139
966.655	909
966.742	593
966.828	659
966.915	612
967.001	1466
967.087	816
967.174	2173
967.260	2737
967.347	3548
967.433	8086
967.519	12703
967.605	4477
967.692	1171
967.778	857
967.864	1505
967.950	1210
968.036	711
968.123	805
968.209	892
968.295	-131
968.381	1789
968.467	993
968.553	385
968.639	1740
968.725	898
968.811	3313
968.897	3433
968.983	1337
969.069	879
969.154	1915
969.240	2014
969.326	-93
969.412	1308
969.497	1217
969.583	119
969.669	1612
969.755	1214
969.840	1255
969.926	2588
970.012	2004
970.097	3240
970.183	2176
970.268	1886
970.354	2627
970.439	4848
970.525	7581
970.610	2693
970.696	1768
970.781	685
970.866	-215
970.952	570
971.037	528
971.122	1233
971.208	560
971.293	1051
971.378	367
971.463	1300
971.549	1446
971.634	995
971.719	920
971.804	2644
971.889	3104
971.974	373
972.059	470
972.144	656
972.229	1041
972.314	1236
972.399	1009
972.484	1382
972.569	1794
972.654	1542
972.739	4422
972.824	4122
972.908	1343
972.993	664
973.078	-156
973.163	325
973.247	1178
973.332	-238
973.417	1349
973.501	1066
973.586	716
973.671	1114
973.755	1539
973.840	1501
973.924	1296
974.009	1816
974.093	832
974.178	3360
974.262	3279
974.346	3703
974.431	1328
974.515	1143
974.600	738
974.684	776
974.768	539
974.852	1928
974.937	-248
975.021	1576
975.105	328
975.189	708
975.273	912
975.358	202
975.442	-98
975.526	1333
975.610	-127
975.694	-657
975.778	1582
975.862	869
975.946	-981
976.030	1904
976.114	217
976.198	1031
976.281	30
976.365	1360
976.449	-195
976.533	1246
976.617	-142
976.700	932
976.784	1178
976.868	1359
976.951	1844
977.035	1228
977.119	1096
977.202	666
977.286	200
977.369	1269
977.453	2719
977.536	29
977.620	985
977.703	1996
977.787	12
977.870	916
977.953	1280
978.037	886
978.120	3120
978.203	3449
978.287	3880
978.370	2284
978.453	988
978.536	1485
978.620	1478
978.703	2953
978.786	1058
978.869	470
978.952	443
979.035	1394
979.118	566
979.201	-27
979.284	1199
979.367	-279
979.450	524
979.533	-331
979.616	319
979.699	751
979.782	200
979.865	606
979.948	584
980.030	241
980.113	-66
980.196	-258
980.279	501
980.361	-199
980.444	338
980.526	1001
980.609	1017
980.692	1444
980.774	762
980.857	-460
980.939	1280
981.022	938
981.104	459
981.187	-505
981.269	1225
981.352	840
981.434	-250
981.516	-637
981.599	1297
981.681	745
981.763	-71
981.846	705
981.928	-138
982.010	166
982.092	226
982.174	979
982.256	522
982.339	28
982.421	610
982.503	930
982.585	-397
982.667	421
982.749	1300
982.831	-16
982.913	-547
982.995	1181
983.077	-325
983.158	2237
983.240	593
983.322	980
983.404	1205
983.486	247
983.568	1282
983.649	226
983.731	737
983.813	953
983.894	1247
983.976	189
984.058	144
984.139	1698
984.221	-951
984.302	688
984.384	-331
984.465	727
984.547	1012
984.628	-149
984.710	680
984.791	723
984.872	-81
984.954	178
985.035	480
985.116	247
985.198	-790
985.279	1776
985.360	-2
985.441	953
985.522	264
985.604	33
985.685	-797
985.766	1020
985.847	1005
985.928	757
986.009	66
986.090	612
986.171	1675
986.252	-164
986.333	14
986.414	90
986.495	243
986.576	923
986.656	216
986.737	1040
986.818	1279
986.899	-102
986.980	18
987.060	1766
987.141	5
987.222	715
987.302	1458
987.383	1021
987.464	-34
987.544	920
987.625	440
987.705	1838
987.786	1184
987.866	361
987.947	816
988.027	890
988.108	52
988.188	333
988.268	797
988.349	929
988.429	844
988.509	373
988.589	530
988.670	-214
988.750	2226
988.830	923
988.910	-253
988.990	695
989.070	742
989.151	228
989.231	95
989.311	902
989.391	-595
989.471	708
989.551	-176
989.631	-61
989.711	70
989.791	-624
989.870	-323
989.950	1061
990.030	-393
990.110	1383
990.190	515
990.269	624
990.349	71
990.429	266
990.509	9
990.588	-315
990.668	453
990.747	363
990.827	-67
990.907	367
990.986	-302
991.066	386
991.145	-1169
991.225	1059
991.304	442
991.383	930
991.463	-150
991.542	544
991.622	-306
991.701	-253
991.780	-287
991.859	-228
991.939	228
992.018	-621
992.097	-110
992.176	481
992.256	-245
992.335	-686
992.414	475
992.493	-26
992.572	262
992.651	1444
992.730	53
992.809	-251
992.888	-1350
992.967	57
993.046	394
993.125	-701
993.203	-603
993.282	-138
993.361	-434
993.440	47
993.519	-239
993.597	-172
993.676	-97
993.755	808
993.834	-142
993.912	-777
993.991	-510
994.069	-998
994.148	-280
994.226	-387
994.305	-242
994.384	-231
994.462	765
994.540	-1059
994.619	-794
994.697	-326
994.776	-1087
994.854	-99
994.932	-1010
995.011	-620
995.089	-1357
995.167	-592
995.245	-299
995.324	-548
995.402	80
995.480	-835
995.558	272
995.636	-1312
995.714	-212
995.792	374
995.870	-1199
995.948	-207
996.026	20
996.104	-1507
996.182	-596
996.260	-629
996.338	-299
996.416	-567
996.494	-1270
996.572	425
996.649	-624
996.727	-603
996.805	58
996.883	-598
996.960	-841
997.038	-323
997.116	-844
997.193	-1346
997.271	-46
997.348	-724
997.426	-1059
997.504	-632
997.581	757
997.658	-193
997.736	-1642
997.813	-1348
997.891	-665
997.968	-971
998.046	-544
998.123	-561
998.200	-1729
998.277	-1042
998.355	85
998.432	-2111
998.509	-683
998.586	-380
998.663	-742
998.741	-831
998.818	-1002
998.895	-499
998.972	-11
999.049	-450
999.126	-1801
999.203	-400
999.280	-973
999.357	-86
999.434	-684
999.511	-635
999.587	64
999.664	-807
999.741	-596
999.818	-32
999.895	-1228
999.971	-1184
1000.048	-734
1000.125	918
1000.202	-1167
1000.278	-197
1000.355	-941
1000.431	-978
1000.508	-1456
1000.584	-167
1000.661	-602
1000.738	-690
1000.814	-690
1000.890	-379
1000.967	-1237
1001.043	-101
1001.120	-1554
1001.196	-288
1001.272	-1498
1001.349	-849
1001.425	-293
1001.501	-1390
1001.577	-1229
1001.654	-1050
1001.730	-1414
1001.806	-744
1001.882	-1347
1001.958	-705
1002.034	-1243
1002.110	-1345
1002.186	-1577
1002.262	-1206
1002.338	-1350
1002.414	-838
1002.490	-197
1002.566	-983
1002.642	-1057
1002.718	-583
1002.794	-1041
1002.870	-1093
1002.945	-1257
1003.021	-1433
1003.097	-821
1003.173	-1380
1003.248	-1692
1003.324	-621
1003.400	-1520
1003.475	-1851
1003.551	-815
1003.626	-1327
1003.702	-2325
1003.777	-966
1003.853	-1780
1003.928	-1929
1004.004	-1261
1004.079	-637
1004.155	-1373
1004.230	-1827
1004.305	-359
1004.381	-1228
1004.456	-1468
1004.531	-1026
1004.607	-590
1004.682	-1218
1004.757	-1632
1004.832	-1359
1004.907	-1193
1004.982	-1400
1005.057	-1228
1005.133	-1329
1005.208	-1362
1005.283	-1795
1005.358	-444
1005.433	-1847
1005.508	-1071
1005.583	-1486
1005.657	-1085
1005.732	-871
1005.807	-1900
1005.882	-1332
1005.957	-1196
1006.032	-685
1006.106	-851
1006.181	-1131
1006.256	-402
1006.331	-2292
1006.405	-1818
1006.480	-613
1006.554	-523
1006.629	-1056
1006.704	-1861
1006.778	-2144
1006.853	-1214
1006.927	-1477
1007.002	-2053
1007.076	-1051
1007.150	-946
1007.225	-1140
1007.299	-1502
1007.373	-1916
1007.448	-938
1007.522	-1023
1007.596	-907
1007.671	-1311
1007.745	-1019
1007.819	-1833
1007.893	-1593
1007.967	-915
1008.041	-1931
1008.115	-749
1008.190	-2247
1008.264	-760
1008.338	-2816
1008.412	-1407
1008.486	-1068
1008.560	-742
1008.633	-2277
1008.707	-1761
1008.781	-1317
1008.855	-1385
1008.929	-1869
1009.003	-1282
1009.076	-2478
1009.150	-1481
1009.224	-1247
1009.298	-1091
1009.371	-1472
1009.445	-494
1009.519	-1644
1009.592	-1466
1009.666	-1564
1009.739	-958
1009.813	-1788
1009.886	-1019
1009.960	-2313
1010.033	-758
1010.107	-1520
1010.180	-2106
1010.253	-1234
1010.327	-1905
1010.400	-2245
1010.473	-1586
1010.547	-828
1010.620	-1349
1010.693	-1457
1010.766	-1982
1010.840	-1089
1010.913	-1313
1010.986	-2315
1011.059	-1491
1011.132	-1925
1011.205	-636
1011.278	-2064
1011.351	-2148
1011.424	-1784
1011.497	-1441
1011.570	-1297
1011.643	-1800
1011.716	-3145
1011.789	-2071
1011.862	-1484
1011.934	-1041
1012.007	-1869
1012.080	-1214
1012.153	-939
1012.225	-1080
1012.298	-2781
1012.371	-1866
1012.443	-1774
1012.516	-2514
1012.588	-1597
1012.661	-1884
1012.733	-2022
1012.806	-1059
1012.879	-2061
1012.951	-2237
1013.023	-1826
1013.096	-973
1013.168	-2227
1013.241	-980
1013.313	-1534
1013.385	-2876
1013.458	-1236
1013.530	-980
1013.602	-2348
1013.674	-888
1013.746	-2196
1013.819	-1233
1013.891	-1463
1013.963	-2919
1014.035	-754
1014.107	-1495
1014.179	-1305
1014.251	-2190
1014.323	-1532
1014.395	-1298
1014.467	-791
1014.539	-1339
1014.611	-2091
1014.683	-1502
1014.754	-1752
1014.826	-2404
1014.898	-1359
1014.970	-1877
1015.042	-1702
1015.113	-638
1015.185	-1720
1015.257	-1992
1015.328	-1880
1015.400	-2439
1015.471	-1805
1015.543	-2967
1015.615	-1399
1015.686	-1562
1015.757	-1472
1015.829	-2256
1015.901	-1467
1015.972	-1539
1016.043	-2343
1016.115	-2333
1016.186	-1957
1016.257	-2133
1016.328	-2225
1016.400	-1271
1016.471	-2479
1016.542	-1691
1016.613	-1860
1016.685	-1137
1016.756	-1355
1016.827	-1784
1016.898	-1826
1016.969	-1239
1017.040	-1947
1017.111	-2421
1017.182	-1606
1017.253	-1657
1017.324	-2045
1017.395	-1575
1017.466	-1179
1017.537	-1799
1017.608	-1223
1017.678	-1664
1017.749	-2004
1017.820	-1918
1017.891	-2148
1017.961	-2052
1018.032	-1936
1018.103	-970
1018.173	-1819
1018.244	-2600
1018.315	-1732
1018.385	-1748
1018.456	-2155
1018.526	-2386
1018.597	-2265
1018.667	-2549
1018.738	-1781
1018.808	-1512
1018.878	-2338
1018.949	-2057
1019.019	-2218
1019.089	-2250
1019.160	-2168
1019.230	-1371
1019.300	-1913
1019.371	-2613
1019.441	-1444
1019.511	-2788
1019.581	-2228
1019.651	-1770
1019.721	-1701
1019.791	-2294
1019.861	-2042
1019.931	-1443
1020.001	-2101
1020.071	-1298
1020.141	-2385
1020.211	-1658
1020.281	-2143
1020.351	-2435
1020.421	-1873
1020.491	-2200
1020.560	-1988
1020.630	-2224
1020.700	-2427
1020.770	-2181
1020.839	-2377
1020.909	-2363
1020.979	-2267
1021.048	-1447
1021.118	-2367
1021.187	-1726
1021.257	-2343
1021.326	-1558
1021.396	-2572
1021.465	-1758
1021.535	-2529
1021.604	-1958
1021.674	-2002
1021.743	-1205
1021.812	-2367
1021.882	-1872
1021.951	-1311
1022.020	-2067
1022.089	-1351
1022.159	-1367
1022.228	-1487
1022.297	-1803
1022.366	-2187
1022.435	-1066
1022.504	-2162
1022.573	-2508
1022.642	-1576
1022.711	-2473
1022.781	-2176
1022.849	-1707
1022.918	-3120
1022.987	-1079
1023.056	-2323
1023.125	-1168
1023.194	-2238
1023.263	-1692
1023.331	-2005
1023.400	-1920
1023.469	-2524
1023.538	-432
1023.606	-2223
1023.675	-1442
1023.744	-1960
1023.812	-2270
1023.881	-2606
1023.949	-1765
1024.018	-2005
1024.086	-3017
1024.155	-2206
1024.223	-1889
1024.292	-1734
1024.360	-2105
1024.429	-2369
1024.497	-2473
1024.565	-2732
1024.634	-1964
1024.702	-1267
1024.770	-2061
1024.838	-2709
1024.907	-1628
1024.975	-2534
1025.043	-1483
1025.111	-2175
1025.179	-828
1025.247	-2858
1025.315	-1859
1025.383	-2438
1025.451	-2121
1025.519	-2501
1025.587	-2619
1025.655	-2413
1025.723	-2034
1025.791	-2129
1025.859	-1489
1025.927	-1450
1025.995	-2217
1026.062	-2057
1026.130	-2137
1026.198	-2170
1026.266	-2001
1026.333	-1445
1026.401	-1565
1026.469	-2435
1026.536	-1892
1026.604	-2167
1026.671	-2276
1026.739	-2129
1026.806	-1604
1026.874	-2408
1026.941	-2679
1027.009	-2648
1027.076	-2127
1027.144	-1730
1027.211	-2921
1027.278	-2734
1027.345	-2432
1027.413	-1800
1027.480	-2554
1027.547	-2744
1027.614	-2447
1027.682	-2521
1027.749	-2058
1027.816	-2232
1027.883	-1439
1027.950	-1770
1028.017	-2541
1028.084	-2210
1028.151	-2593
1028.218	-1925
1028.285	-1647
1028.352	-1934
1028.419	-2332
1028.486	-3060
1028.553	-2247
1028.619	-1725
1028.686	-1655
1028.753	-2929
1028.820	-2270
1028.886	-1833
1028.953	-1934
1029.020	-2870
1029.086	-2657
1029.153	-2909
1029.220	-2744
1029.286	-1893
1029.353	-1038
1029.419	-3022
1029.486	-2105
1029.552	-1549
1029.619	-2551
1029.685	-3212
1029.751	-2073
1029.818	-1355
1029.884	-1937
1029.951	-2457
1030.017	-2715
1030.083	-2645
1030.149	-2767
1030.216	-2332
1030.282	-2311
1030.348	-1886
1030.414	-2545
1030.480	-2502
1030.546	-2354
1030.612	-3403
1030.678	-2254
1030.744	-2250
1030.810	-2343
1030.876	-2706
1030.942	-3060
1031.008	-3109
1031.074	-2443
1031.140	-3181
1031.206	-1860
1031.272	-3166
1031.337	-1789
1031.403	-1986
1031.469	-1752
1031.534	-2424
1031.600	-2422
1031.666	-2219
1031.731	-2736
1031.797	-2033
1031.863	-2177
1031.928	-2077
1031.994	-2554
1032.059	-2732
1032.125	-1816
1032.190	-2610
1032.256	-1932
1032.321	-3020
1032.386	-2490
1032.452	-2754
1032.517	-2957
1032.582	-3155
1032.647	-2103
1032.713	-2685
1032.778	-1816
1032.843	-2148
1032.908	-2764
1032.974	-2513
1033.039	-2168
1033.104	-2325
1033.169	-2278
1033.234	-3079
1033.299	-1634
1033.364	-2697
1033.429	-1919
1033.494	-1579
1033.559	-2393
1033.624	-2008
1033.688	-2468
1033.753	-2484
1033.818	-1678
1033.883	-2222
1033.948	-2125
1034.013	-2239
1034.077	-539
1034.142	-1198
1034.207	-953
1034.271	-859
1034.336	-209
1034.400	-393
1034.465	-358
1034.530	-2023
1034.594	-1711
1034.658	-1395
1034.723	-3005
1034.787	-2199
1034.852	-2546
1034.916	-2381
1034.981	-2190
1035.045	-2309
1035.109	-2027
1035.173	-2727
1035.238	-2002
1035.302	-2574
1035.366	-2319
1035.430	-2813
1035.495	-2891
1035.559	-2085
1035.623	-2098
1035.687	-2848
1035.751	-2305
1035.815	-3068
1035.879	-2269
1035.943	-2392
1036.007	-3092
1036.071	-2749
1036.135	-3266
1036.198	-2524
1036.262	-2611
1036.326	-2238
1036.390	-2155
1036.454	-2431
1036.517	-1982
1036.581	-1561
1036.645	-1399
1036.709	-1407
1036.772	-2076
1036.836	-2113
1036.900	-2161
1036.963	-2042
1037.026	-2477
1037.090	-2805
1037.154	-2808
1037.217	-2454
1037.280	-2229
1037.344	-2533
1037.407	-2604
1037.471	-1634
1037.534	-2752
1037.597	-2496
1037.661	-2856
1037.724	-2744
1037.787	-1995
1037.850	-1874
1037.913	-2232
1037.977	-2070
1038.040	-2708
1038.103	-2857
1038.166	-2383
1038.229	-1942
1038.292	-2852
1038.355	-1668
1038.418	-2404
1038.481	-1916
1038.544	-2132
1038.607	-2155
1038.670	-2220
1038.732	-2845
1038.795	-2878
1038.858	-1975
1038.921	-2531
1038.984	-2148
1039.046	-2816
1039.109	-3676
1039.172	-2561
1039.234	-3108
1039.297	-1798
1039.360	-2321
1039.422	-2418
1039.485	-2531
1039.547	-2235
1039.610	-1962
1039.672	-3217
1039.734	-2807
1039.797	-2518
1039.859	-2278
1039.922	-2170
1039.984	-2573
1040.046	-2318
1040.109	-2597
1040.171	-2441
1040.233	-2521
1040.295	-2222
1040.358	-3096
1040.420	-2623
1040.482	-2777
1040.544	-1827
1040.606	-2444
1040.668	-2662
1040.730	-2700
1040.792	-2826
1040.854	-2603
1040.916	-1886
1040.978	-2786
1041.040	-2086
1041.102	-2844
1041.164	-2844
1041.225	-2181
1041.287	-2031
1041.349	-3301
1041.411	-2302
1041.472	-2669
1041.534	-2628
1041.596	-3269
1041.657	-3103
1041.719	-2527
1041.781	-2736
1041.842	-2957
1041.904	-2329
1041.965	-3087
1042.027	-2803
1042.088	-2519
1042.150	-2672
1042.211	-2621
1042.272	-2110
1042.334	-2690
1042.395	-2455
1042.456	-2706
1042.518	-2426
1042.579	-1867
1042.640	-2987
1042.701	-3413
1042.763	-2995
1042.824	-3642
1042.885	-2343
1042.946	-2763
1043.007	-1644
1043.068	-2045
1043.129	-2455
1043.190	-3290
1043.251	-1434
1043.312	-2705
1043.373	-2666
1043.434	-3308
1043.495	-1935
1043.556	-2970
1043.616	-1745
1043.677	-2248
1043.738	-2160
1043.799	-2746
1043.859	-2106
1043.920	-2736
1043.981	-2939
1044.041	-2937
1044.102	-1756
1044.162	-2093
1044.223	-2338
1044.284	-2738
1044.344	-2470
1044.405	-2212
1044.465	-3062
1044.525	-3284
1044.586	-2231
1044.646	-2908
1044.707	-2668
1044.767	-2312
1044.827	-2388
1044.887	-1922
1044.948	-855
1045.008	-2695
1045.068	-1902
1045.128	-2803
1045.188	-2124
1045.249	-2352
1045.309	-2357
1045.369	-2521
1045.429	-2322
1045.489	-2686
1045.549	-2279
1045.609	-1970
1045.669	-2095
1045.729	-2552
1045.789	-2270
1045.848	-2896
1045.908	-2155
1045.968	-1156
1046.028	-2202
1046.088	-1871
1046.147	-2180
1046.207	-2476
1046.267	-1749
1046.326	-2233
1046.386	-1978
1046.446	-1656
1046.505	-1443
1046.565	-1102
1046.624	-1410
1046.684	-1353
1046.743	-990
1046.803	-1531
1046.862	-840
1046.922	0
