'Start Wavelength	183.907
'End Wavelength	1046.922
'Gate Delay	5.000
'Gate Width (ms)	1.050
'Laser Output Level	0.000
'X Position	0.000
'Y Position	0.000
'Z Position	0.000
'Grid Point Number	1.000
'Shot Number	100.000
183.907	550.000
183.977	-575.000
184.047	414
184.116	294
184.186	929
184.256	-267
184.325	486
184.395	-646
184.465	1050
184.534	306
184.604	-16
184.674	-854
184.743	659
184.813	186
184.883	615
184.952	257
185.022	764
185.092	-21
185.161	381
185.231	429
185.301	-526
185.370	294
185.440	302
185.509	-474
185.579	-76
185.649	-125
185.718	30
185.788	104
185.857	662
185.927	162
185.996	-343
186.066	-593
186.136	-128
186.205	-199
186.275	243
186.344	345
186.414	659
186.483	243
186.553	666
186.622	-79
186.692	-162
186.761	138
186.831	677
186.900	-658
186.970	335
187.039	487
187.109	404
187.178	126
187.248	892
187.317	71
187.387	521
187.456	-73
187.526	-145
187.595	88
187.664	-152
187.734	-367
187.803	-116
187.873	-414
187.942	-250
188.012	-161
188.081	-323
188.150	-129
188.220	327
188.289	9
188.358	-560
188.428	301
188.497	-377
188.567	591
188.636	-318
188.705	376
188.775	-257
188.844	-892
188.913	667
188.983	-260
189.052	356
189.121	402
189.191	-569
189.260	-93
189.329	350
189.399	-49
189.468	479
189.537	-484
189.606	439
189.676	896
189.745	442
189.814	539
189.883	-1129
189.953	273
190.022	268
190.091	14
190.161	-63
190.230	-42
190.299	88
190.368	-309
190.437	567
190.507	-468
190.576	162
190.645	308
190.714	215
190.783	-228
190.853	516
190.922	-473
190.991	192
191.060	-567
191.129	-676
191.198	-150
191.268	-64
191.337	-79
191.406	507
191.475	258
191.544	-405
191.613	484
191.682	-136
191.752	105
191.821	-294
191.890	359
191.959	293
192.028	-311
192.097	-567
192.166	-188
192.235	65
192.304	329
192.373	-138
192.442	-455
192.511	112
192.580	514
192.650	-661
192.719	183
192.788	777
192.857	-304
192.926	-415
192.995	133
193.064	372
193.133	518
193.202	268
193.271	161
193.340	554
193.409	-216
193.478	872
193.547	100
193.615	524
193.684	290
193.753	586
193.822	435
193.891	-200
193.960	775
194.029	475
194.098	103
194.167	-238
194.236	510
194.305	307
194.374	-264
194.443	-202
194.512	-305
194.580	486
194.649	674
194.718	195
194.787	-248
194.856	-644
194.925	573
194.994	-39
195.062	-45
195.131	-558
195.200	95
195.269	6
195.338	168
195.407	-2
195.475	4
195.544	420
195.613	-132
195.682	493
195.751	-464
195.819	296
195.888	25
195.957	768
196.026	189
196.094	-58
196.163	183
196.232	294
196.301	221
196.369	222
196.438	-601
196.507	683
196.576	390
196.644	91
196.713	-77
196.782	15
196.850	-441
196.919	51
196.988	261
197.056	-598
197.125	443
197.194	155
197.262	-235
197.331	322
197.400	223
197.468	-230
197.537	-282
197.606	353
197.674	-116
197.743	903
197.812	-50
197.880	1145
197.949	-144
198.017	498
198.086	483
198.155	352
198.223	119
198.292	487
198.360	283
198.429	506
198.497	-119
198.566	363
198.635	641
198.703	82
198.772	76
198.840	611
198.909	33
198.977	617
199.046	255
199.114	312
199.183	-91
199.251	-1
199.320	72
199.388	627
199.457	-68
199.525	882
199.594	-459
199.662	186
199.731	184
199.799	740
199.867	330
199.936	-349
200.004	613
200.073	192
200.141	-470
200.210	601
200.278	450
200.346	452
200.415	18
200.483	553
200.552	-81
200.620	43
200.688	-363
200.757	390
200.825	29
200.893	286
200.962	-44
201.030	-84
201.098	-299
201.167	164
201.235	113
201.303	383
201.372	161
201.440	717
201.508	-168
201.577	748
201.645	-348
201.713	348
201.781	-507
201.850	680
201.918	-532
201.986	635
202.055	-526
202.123	-285
202.191	201
202.259	-91
202.327	295
202.396	273
202.464	165
202.532	69
202.600	888
202.669	412
202.737	-110
202.805	66
202.873	666
202.941	550
203.009	-500
203.078	-79
203.146	-56
203.214	-130
203.282	-642
203.350	560
203.418	-883
203.487	544
203.555	-501
203.623	5
203.691	-201
203.759	235
203.827	-397
203.895	366
203.963	-515
204.031	-334
204.099	-190
204.168	585
204.236	470
204.304	120
204.372	785
204.440	656
204.508	-417
204.576	-449
204.644	213
204.712	-612
204.780	-206
204.848	98
204.916	-156
204.984	2
205.052	-118
205.120	170
205.188	42
205.256	-6
205.324	105
205.392	105
205.460	119
205.528	93
205.596	293
205.664	-384
205.732	-27
205.799	496
205.867	1213
205.935	-176
206.003	426
206.071	-48
206.139	526
206.207	233
206.275	-276
206.343	723
206.411	-509
206.478	484
206.546	431
206.614	-216
206.682	71
206.750	74
206.818	-14
206.885	119
206.953	-1178
207.021	780
207.089	-139
207.157	-95
207.225	235
207.292	-723
207.360	-348
207.428	-81
207.496	-449
207.563	-159
207.631	109
207.699	91
207.767	441
207.834	159
207.902	-631
207.970	278
208.038	-703
208.105	-451
208.173	354
208.241	287
208.309	79
208.376	-116
208.444	437
208.512	368
208.579	-257
208.647	1265
208.715	280
208.782	290
208.850	-34
208.918	210
208.985	-101
209.053	79
209.120	551
209.188	62
209.256	-373
209.323	-634
209.391	-285
209.459	1257
209.526	-417
209.594	-558
209.661	355
209.729	106
209.796	1
209.864	370
209.932	-801
209.999	1391
210.067	310
210.134	-688
210.202	181
210.269	535
210.337	62
210.404	44
210.472	314
210.539	375
210.607	-542
210.674	-307
210.742	399
210.809	-193
210.877	-442
210.944	386
211.012	-800
211.079	1431
211.146	213
211.214	1009
211.281	300
211.349	309
211.416	-286
211.484	972
211.551	-637
211.618	493
211.686	-45
211.753	-583
211.821	-73
211.888	519
211.955	970
212.023	417
212.090	581
212.157	-187
212.225	-447
212.292	-57
212.359	1064
212.427	3153
212.494	1396
212.561	441
212.629	-140
212.696	97
212.763	50
212.831	-50
212.898	692
212.965	-644
213.032	161
213.100	145
213.167	-412
213.234	676
213.301	709
213.369	-12
213.436	-242
213.503	90
213.570	515
213.638	271
213.705	-271
213.772	-34
213.839	-666
213.906	926
213.973	-150
214.041	217
214.108	234
214.175	-73
214.242	480
214.309	-124
214.376	20
214.444	-676
214.511	742
214.578	121
214.645	625
214.712	225
214.779	-443
214.846	-238
214.913	581
214.980	327
215.048	1018
215.115	1245
215.182	436
215.249	-145
215.316	194
215.383	173
215.450	-71
215.517	179
215.584	85
215.651	-175
215.718	-174
215.785	1176
215.852	-22
215.919	646
215.986	429
216.053	745
216.120	320
216.187	719
216.254	-361
216.321	691
216.388	355
216.455	440
216.522	221
216.589	814
216.656	844
216.722	1037
216.789	972
216.856	511
216.923	567
216.990	799
217.057	729
217.124	44
217.191	636
217.258	785
217.324	738
217.391	1960
217.458	1342
217.525	153
217.592	255
217.659	148
217.725	523
217.792	707
217.859	431
217.926	109
217.993	1049
218.059	1249
218.126	81
218.193	448
218.260	233
218.327	291
218.393	-241
218.460	-249
218.527	655
218.594	167
218.660	-520
218.727	1272
218.794	-103
218.860	118
218.927	-76
218.994	743
219.061	82
219.127	288
219.194	-59
219.261	620
219.327	-18
219.394	714
219.461	-651
219.527	340
219.594	351
219.661	591
219.727	-789
219.794	586
219.860	-624
219.927	-92
219.994	-19
220.060	918
220.127	412
220.193	315
220.260	-83
220.326	1746
220.393	829
220.460	2120
220.526	1479
220.593	328
220.659	1085
220.726	456
220.792	1081
220.859	1425
220.925	2132
220.992	3880
221.058	3586
221.125	2788
221.191	1178
221.258	507
221.324	606
221.391	787
221.457	-8
221.524	42
221.590	1101
221.657	2584
221.723	280
221.789	958
221.856	1857
221.922	-143
221.989	978
222.055	545
222.121	-452
222.188	2019
222.254	234
222.321	644
222.387	-469
222.453	853
222.520	-200
222.586	-230
222.652	873
222.719	-231
222.785	851
222.851	-531
222.918	-294
222.984	450
223.050	593
223.116	-1528
223.183	243
223.249	99
223.315	374
223.382	331
223.448	125
223.514	370
223.580	-64
223.647	-347
223.713	-476
223.779	166
223.845	-163
223.911	-115
223.978	-599
224.044	427
224.110	-409
224.176	-229
224.242	154
224.309	-1116
224.375	-100
224.441	-305
224.507	409
224.573	-908
224.639	374
224.705	8
224.772	-61
224.838	-586
224.904	367
224.970	418
225.036	-374
225.102	-428
225.168	-157
225.234	142
225.300	-435
225.366	-221
225.432	-128
225.499	-24
225.565	205
225.631	-76
225.697	-218
225.763	47
225.829	434
225.895	921
225.961	-284
226.027	982
226.093	-784
226.159	1129
226.225	994
226.291	2764
226.357	5018
226.423	2619
226.489	1185
226.554	899
226.620	1328
226.686	234
226.752	1226
226.818	2234
226.884	5867
226.950	6003
227.016	1995
227.082	1098
227.148	935
227.214	938
227.279	565
227.345	209
227.411	106
227.477	-128
227.543	898
227.609	817
227.674	1065
227.740	-340
227.806	-266
227.872	533
227.938	-268
228.003	1055
228.069	710
228.135	95
228.201	106
228.267	-556
228.332	-550
228.398	-809
228.464	346
228.530	147
228.595	119
228.661	-275
228.727	-478
228.792	788
228.858	-323
228.924	-1127
228.990	1962
229.055	-737
229.121	984
229.187	224
229.252	-190
229.318	-170
229.384	239
229.449	751
229.515	-988
229.581	-399
229.646	926
229.712	-410
229.777	316
229.843	331
229.909	905
229.974	867
230.040	361
230.105	497
230.171	-312
230.236	989
230.302	817
230.368	237
230.433	257
230.499	722
230.564	570
230.630	-792
230.695	464
230.761	60
230.826	-1354
230.892	1213
230.957	407
231.023	-350
231.088	248
231.154	-576
231.219	916
231.284	397
231.350	-238
231.415	59
231.481	713
231.546	-132
231.612	294
231.677	-852
231.742	-1243
231.808	1355
231.873	-367
231.939	-1139
232.004	1158
232.069	1159
232.135	-317
232.200	-638
232.265	775
232.331	-341
232.396	-364
232.461	-58
232.527	-8
232.592	-243
232.657	69
232.723	227
232.788	-451
232.853	565
232.918	379
232.984	-498
233.049	46
233.114	201
233.179	556
233.245	595
233.310	616
233.375	-822
233.440	554
233.506	-318
233.571	-425
233.636	-176
233.701	705
233.766	494
233.832	895
233.897	187
233.962	-1362
234.027	1027
234.092	596
234.157	11
234.222	-345
234.288	490
234.353	1869
234.418	2029
234.483	1506
234.548	1334
234.613	371
234.678	281
234.743	-172
234.808	2288
234.873	582
234.938	1568
235.004	128
235.069	-62
235.134	-1026
235.199	111
235.264	-356
235.329	-1058
235.394	723
235.459	888
235.524	-510
235.589	709
235.654	349
235.719	-78
235.784	305
235.849	274
235.913	873
235.978	1167
236.043	915
236.108	637
236.173	-1229
236.238	1207
236.303	-408
236.368	-236
236.433	1057
236.498	478
236.563	1473
236.627	1181
236.692	8147
236.757	6532
236.822	2163
236.887	886
236.952	2073
237.017	20
237.081	706
237.146	972
237.211	2953
237.276	8635
237.341	13698
237.405	5618
237.470	1726
237.535	1658
237.600	243
237.664	240
237.729	-624
237.794	567
237.859	1973
237.923	1548
237.988	94
238.053	1604
238.118	-314
238.182	2753
238.247	3687
238.312	447
238.376	758
238.441	-1237
238.506	929
238.570	-1237
238.635	702
238.700	-137
238.764	-1127
238.829	907
238.893	184
238.958	1504
239.023	600
239.087	-100
239.152	745
239.216	-224
239.281	404
239.346	826
239.410	150
239.475	-137
239.539	3099
239.604	939
239.668	-52
239.733	-179
239.797	1104
239.862	2244
239.926	2339
239.991	1437
240.055	-466
240.120	56
240.184	-319
240.249	-821
240.313	-10
240.378	-381
240.442	538
240.507	2438
240.571	378
240.635	1362
240.700	1851
240.764	299
240.829	-541
240.893	-889
240.957	-204
241.022	1817
241.086	2694
241.151	32
241.215	-408
241.279	1556
241.344	501
241.408	559
241.472	-435
241.537	1183
241.601	307
241.665	-955
241.730	-415
241.794	1274
241.858	-504
241.922	462
241.987	466
242.051	-138
242.115	-284
242.179	805
242.244	-480
242.308	358
242.372	342
242.436	-482
242.501	-208
242.565	88
242.629	-758
242.693	798
242.757	-1044
242.822	381
242.886	56
242.950	872
243.014	-563
243.078	218
243.142	153
243.206	737
243.271	394
243.335	-551
243.399	701
243.463	2864
243.527	10607
243.591	2461
243.655	109
243.719	-284
243.783	772
243.847	1186
243.911	2187
243.975	1364
244.040	-129
244.104	2516
244.168	-33
244.232	463
244.296	785
244.360	1106
244.424	-321
244.488	878
244.552	590
244.615	-1082
244.679	515
244.743	-142
244.807	-723
244.871	640
244.935	-47
244.999	-1366
245.063	-686
245.127	953
245.191	1294
245.255	321
245.319	1334
245.383	-516
245.446	1180
245.510	-625
245.574	186
245.638	1036
245.702	-1190
245.766	1305
245.829	1777
245.893	-757
245.957	-469
246.021	1181
246.085	-394
246.149	432
246.212	2226
246.276	2817
246.340	172
246.404	831
246.467	1057
246.531	-150
246.595	1219
246.659	957
246.722	-414
246.786	878
246.850	1290
246.913	957
246.977	-109
247.041	886
247.104	-470
247.168	597
247.232	1690
247.295	4849
247.359	2215
247.423	486
247.486	1792
247.550	1441
247.614	-266
247.677	1013
247.741	1175
247.804	39
247.868	755
247.932	642
247.995	5511
248.059	396
248.122	-1055
248.186	753
248.249	1054
248.313	7675
248.376	8042
248.440	4022
248.503	530
248.567	1684
248.630	857
248.694	2449
248.757	5237
248.821	8322
248.884	4346
248.948	3102
249.011	6121
249.075	9157
249.138	7809
249.202	2357
249.265	715
249.328	2953
249.392	467
249.455	1687
249.519	820
249.582	580
249.645	2273
249.709	1646
249.772	74
249.835	694
249.899	904
249.962	824
250.025	-442
250.089	2873
250.152	3998
250.215	1615
250.279	312
250.342	1791
250.405	1180
250.468	445
250.532	446
250.595	2690
250.658	8541
250.721	17472
250.785	5533
250.848	3336
250.911	1036
250.974	2359
251.038	1783
251.101	4772
251.164	1605
251.227	2207
251.290	1825
251.354	2920
251.417	14113
251.480	14251
251.543	7893
251.606	28801
251.669	19396
251.732	6131
251.795	6476
251.859	6673
251.922	15876
251.985	9556
252.048	4099
252.111	2620
252.174	1500
252.237	4071
252.300	9481
252.363	9468
252.426	22846
252.489	8120
252.552	3885
252.615	886
252.678	3404
252.741	6631
252.804	8863
252.867	21562
252.930	12520
252.993	5470
253.056	3292
253.119	2428
253.182	908
253.245	3075
253.308	2074
253.371	1862
253.434	1703
253.497	1492
253.559	4569
253.622	2572
253.685	3072
253.748	2954
253.811	806
253.874	2385
253.937	1032
254.000	1500
254.062	2725
254.125	3434
254.188	4556
254.251	3016
254.314	660
254.376	2529
254.439	2855
254.502	1980
254.565	1515
254.628	5945
254.690	2585
254.753	680
254.816	593
254.878	708
254.941	3106
255.004	3703
255.067	961
255.129	793
255.192	1313
255.255	-79
255.317	1113
255.380	816
255.443	-605
255.505	212
255.568	-203
255.631	-447
255.693	255
255.756	711
255.819	988
255.881	-850
255.944	-221
256.006	154
256.069	424
256.132	-375
256.194	129
256.257	1691
256.319	1209
256.382	856
256.444	670
256.507	1065
256.569	-315
256.632	370
256.694	765
256.757	4015
256.819	14079
256.882	3663
256.944	1860
257.007	1570
257.069	-356
257.132	-38
257.194	814
257.257	-257
257.319	709
257.381	-34
257.444	2787
257.506	14854
257.569	15890
257.631	7985
257.693	3923
257.756	935
257.818	156
257.880	580
257.943	670
258.005	-308
258.067	571
258.130	550
258.192	310
258.254	1572
258.317	308
258.379	611
258.441	2302
258.503	2740
258.566	2687
258.628	4429
258.690	234
258.753	1520
258.815	1791
258.877	499
258.939	-101
259.001	66
259.064	504
259.126	927
259.188	372
259.250	-15
259.312	548
259.375	2536
259.437	1094
259.499	350
259.561	-13
259.623	205
259.685	293
259.747	465
259.809	2791
259.872	4998
259.934	9179
259.996	9173
260.058	1587
260.120	-163
260.182	-29
260.244	199
260.306	104
260.368	59
260.430	244
260.492	350
260.554	2525
260.616	1925
260.678	4426
260.740	5230
260.802	890
260.864	514
260.926	-1672
260.988	899
261.050	-302
261.112	778
261.174	5853
261.236	4463
261.298	545
261.359	1970
261.421	3392
261.483	-618
261.545	903
261.607	-10
261.669	104
261.731	828
261.793	3766
261.854	532
261.916	1081
261.978	241
262.040	449
262.102	1169
262.164	22
262.225	1036
262.287	-175
262.349	1517
262.411	1117
262.472	292
262.534	-31
262.596	2557
262.658	1332
262.719	-799
262.781	1046
262.843	2263
262.904	1476
262.966	948
263.028	-379
263.090	6183
263.151	17031
263.213	5124
263.275	1792
263.336	659
263.398	828
263.459	-218
263.521	-506
263.583	2165
263.644	995
263.706	-151
263.767	-548
263.829	237
263.891	95
263.952	-632
264.014	-605
264.075	58
264.137	1874
264.198	439
264.260	-586
264.321	-80
264.383	229
264.444	3651
264.506	528
264.567	735
264.629	1414
264.690	1308
264.752	705
264.813	-118
264.875	-810
264.936	75
264.998	-204
265.059	57
265.120	-482
265.182	836
265.243	6221
265.305	6776
265.366	823
265.427	83
265.489	287
265.550	-944
265.611	-657
265.673	-226
265.734	57
265.795	767
265.857	-509
265.918	-538
265.979	1380
266.040	11816
266.102	8525
266.163	1904
266.224	745
266.286	52
266.347	-591
266.408	-121
266.469	988
266.530	-978
266.592	-475
266.653	1068
266.714	792
266.775	812
266.836	630
266.898	-453
266.959	-459
267.020	-389
267.081	534
267.142	-118
267.203	-562
267.264	-689
267.326	796
267.387	-115
267.448	-498
267.509	-362
267.570	408
267.631	-477
267.692	-684
267.753	566
267.814	-859
267.875	1313
267.936	2673
267.997	748
268.058	387
268.119	-83
268.180	-869
268.241	-563
268.302	-338
268.363	29
268.424	-188
268.485	-199
268.546	-834
268.607	-637
268.668	-537
268.729	-681
268.790	-128
268.851	444
268.912	248
268.972	2059
269.033	617
269.094	-78
269.155	221
269.216	-723
269.277	-782
269.338	-251
269.398	-181
269.459	-410
269.520	432
269.581	948
269.642	330
269.702	-192
269.763	-228
269.824	-445
269.885	-310
269.945	295
270.006	17
270.067	-275
270.128	-178
270.188	-819
270.249	-118
270.310	-419
270.370	-68
270.431	18
270.492	-1411
270.553	-302
270.613	779
270.674	2908
270.734	893
270.795	-98
270.856	-338
270.916	-95
270.977	-203
271.038	528
271.098	-157
271.159	291
271.219	1053
271.280	-665
271.340	-243
271.401	-215
271.462	120
271.522	498
271.583	-404
271.643	-387
271.704	-282
271.764	270
271.825	1481
271.885	7662
271.946	9680
272.006	2567
272.066	3824
272.127	8185
272.187	1991
272.248	906
272.308	-62
272.369	5098
272.429	1999
272.489	776
272.550	748
272.610	1998
272.671	743
272.731	840
272.791	1114
272.852	173
272.912	116
272.972	-437
273.033	-33
273.093	-38
273.153	663
273.214	314
273.274	267
273.334	2972
273.394	7599
273.455	2387
273.515	2225
273.575	6128
273.635	2844
273.696	3673
273.756	7320
273.816	2640
273.876	1219
273.936	2609
273.997	4258
274.057	228
274.117	-35
274.177	1594
274.237	8171
274.297	7525
274.358	4095
274.418	5806
274.478	3899
274.538	1165
274.598	-168
274.658	3729
274.718	5812
274.778	1470
274.838	50
274.898	1005
274.958	7780
275.018	7634
275.078	3605
275.138	972
275.198	1
275.258	-157
275.318	-247
275.378	1837
275.438	2095
275.498	218
275.558	2372
275.618	7006
275.678	4862
275.738	2171
275.798	427
275.858	718
275.918	-547
275.978	-440
276.038	490
276.098	-922
276.157	428
276.217	5693
276.277	1939
276.337	992
276.397	-173
276.457	-144
276.517	-98
276.576	-558
276.636	-70
276.696	288
276.756	2095
276.815	1449
276.875	306
276.935	953
276.995	239
277.055	179
277.114	-192
277.174	134
277.234	3743
277.293	1171
277.353	-165
277.413	961
277.472	717
277.532	1
277.592	1228
277.651	3920
277.711	10233
277.771	2365
277.830	11435
277.890	8499
277.950	4947
278.009	20422
278.069	6378
278.128	6681
278.188	9423
278.248	2828
278.307	10065
278.367	5809
278.426	1380
278.486	509
278.545	513
278.605	371
278.664	-1054
278.724	-184
278.783	2515
278.843	8366
278.902	1514
278.962	941
279.021	557
279.081	1371
279.140	1498
279.199	654
279.259	527
279.318	1413
279.378	2072
279.437	2800
279.496	15078
279.556	52316
279.615	38877
279.675	10010
279.734	3835
279.793	6934
279.853	12295
279.912	4201
279.971	1074
280.031	1121
280.090	4601
280.149	7762
280.208	3957
280.268	33272
280.327	34582
280.386	7401
280.445	4366
280.505	3399
280.564	1865
280.623	1201
280.682	1701
280.742	3333
280.801	66
280.860	380
280.919	-22
280.978	-6
281.037	-408
281.097	-155
281.156	208
281.215	-132
281.274	-101
281.333	5232
281.392	3467
281.451	220
281.510	-637
281.569	-193
281.628	-109
281.688	312
281.747	-115
281.806	231
281.865	-51
281.924	-127
281.983	-305
282.042	-30
282.101	-12
282.160	-471
282.219	-938
282.278	-802
282.337	1879
282.396	523
282.454	313
282.513	758
282.572	3141
282.631	2170
282.690	-246
282.749	-667
282.808	242
282.867	-118
282.926	36
282.985	395
283.043	-209
283.102	-168
283.161	-612
283.220	1244
283.279	4917
283.338	797
283.396	-194
283.455	28
283.514	75
283.573	1180
283.631	387
283.690	-611
283.749	-52
283.808	1219
283.866	923
283.925	535
283.984	-255
284.043	348
284.101	995
284.160	-330
284.219	1326
284.277	215
284.336	970
284.395	6538
284.453	4534
284.512	1605
284.570	1640
284.629	1021
284.688	1497
284.746	1491
284.805	2327
284.863	3414
284.922	4736
284.981	5200
285.039	8621
285.098	13718
285.156	33473
285.215	65295
285.273	64341
285.332	38423
285.390	19483
285.449	12845
285.507	7621
285.566	4650
285.624	3827
285.683	3102
285.741	2056
285.799	1799
285.858	1357
285.916	1965
285.975	855
286.033	585
286.091	-93
286.150	-117
286.208	110
286.267	1095
286.325	-112
286.383	1586
286.442	596
286.500	506
286.558	-194
286.616	106
286.675	401
286.733	364
286.791	551
286.850	539
286.908	-423
286.966	1721
287.024	-1
287.083	-154
287.141	-878
287.199	1283
287.257	215
287.315	336
287.374	235
287.432	2404
287.490	724
287.548	296
287.606	-306
287.664	48
287.723	770
287.781	772
287.839	-69
287.897	218
287.955	-60
288.013	674
288.071	1880
288.129	19782
288.187	65322
288.245	24422
288.303	7031
288.361	3583
288.419	2064
288.477	970
288.535	-164
288.593	8
288.651	-87
288.709	-549
288.767	175
288.825	-551
288.883	-391
288.941	-196
288.999	-795
289.057	-80
289.115	-598
289.173	-746
289.231	-43
289.289	-1305
289.346	133
289.404	-100
289.462	1165
289.520	830
289.578	578
289.636	9
289.694	45
289.751	-135
289.809	-856
289.867	-476
289.925	-122
289.983	-183
290.040	730
290.098	-676
290.156	-545
290.214	-405
290.271	-899
290.329	-69
290.387	-1017
290.444	-839
290.502	-1008
290.560	-1085
290.617	-1104
290.675	-119
290.733	-1373
290.790	355
290.848	-85
290.906	-356
290.963	-332
291.021	-41
291.078	-552
291.136	-1063
291.194	1234
291.251	4393
291.309	-211
291.366	-440
291.424	-691
291.481	-631
291.539	-450
291.596	-646
291.654	-1299
291.711	-1094
291.769	-886
291.826	616
291.884	266
291.941	-467
291.999	-531
292.056	-185
292.114	-1023
292.171	-985
292.228	-582
292.286	-702
292.343	-25
292.401	1459
292.458	38
292.515	-545
292.573	-493
292.630	-588
292.687	-1017
292.745	-724
292.802	-395
292.859	1801
292.917	5393
292.974	2002
293.031	93
293.089	-5
293.146	-323
293.203	-699
293.260	-170
293.318	571
293.375	-107
293.432	-824
293.489	-608
293.546	-743
293.604	-1109
293.661	2171
293.718	10235
293.775	4428
293.832	1585
293.889	742
293.947	503
294.004	363
294.061	206
294.118	2172
294.175	5418
294.232	5791
294.289	1277
294.346	940
294.403	250
294.460	-142
294.517	-528
294.574	-464
294.631	-1021
294.688	-436
294.745	1808
294.802	10988
294.859	10582
294.916	3843
294.973	1655
295.030	1015
295.087	893
295.144	419
295.201	148
295.258	-460
295.315	555
295.372	3359
295.429	7890
295.486	2643
295.542	484
295.599	3262
295.656	6206
295.713	4237
295.770	7729
295.827	1796
295.883	-100
295.940	768
295.997	1121
296.054	125
296.111	-63
296.167	-469
296.224	442
296.281	95
296.338	-871
296.394	-654
296.451	-736
296.508	2775
296.564	5213
296.621	2763
296.678	8057
296.734	12342
296.791	4308
296.848	842
296.904	1530
296.961	4493
297.018	8394
297.074	6132
297.131	1750
297.187	1087
297.244	612
297.301	9989
297.357	17346
297.414	6176
297.470	1502
297.527	694
297.583	255
297.640	60
297.696	-290
297.753	154
297.809	-326
297.866	-305
297.922	273
297.979	-569
298.035	76
298.092	267
298.148	4381
298.204	4989
298.261	1055
298.317	3596
298.374	11626
298.430	6369
298.486	1741
298.543	1809
298.599	608
298.656	1440
298.712	2246
298.768	6830
298.824	4588
298.881	522
298.937	523
298.993	597
299.050	-311
299.106	45
299.162	-162
299.218	387
299.275	-498
299.331	20
299.387	815
299.443	11135
299.500	10709
299.556	4167
299.612	566
299.668	456
299.724	1686
299.780	1203
299.837	86
299.893	567
299.949	8208
300.005	9248
300.061	6953
300.117	14078
300.173	7008
300.229	2223
300.285	2468
300.341	2492
300.397	1062
300.453	208
300.510	86
300.566	-94
300.622	1009
300.678	4169
300.734	9514
300.790	8724
300.845	9980
300.901	5337
300.957	9200
301.013	6017
301.069	1285
301.125	1775
301.181	910
301.237	1244
301.293	-135
301.349	620
301.405	115
301.461	74
301.516	487
301.572	846
301.628	1220
301.684	688
301.740	2849
301.796	4650
301.851	2676
301.907	5287
301.963	4289
302.019	8875
302.074	29674
302.130	28885
302.186	12417
302.242	4695
302.297	2607
302.353	1959
302.409	5098
302.464	4129
302.520	3191
302.576	10552
302.631	11382
302.687	5297
302.743	1822
302.798	423
302.854	-463
302.910	365
302.965	902
303.021	2984
303.076	2135
303.132	2546
303.187	4028
303.243	1911
303.299	152
303.354	-420
303.410	579
303.465	-253
303.521	-649
303.576	96
303.632	246
303.687	1742
303.743	9271
303.798	8374
303.853	2498
303.909	816
303.964	1115
304.020	2291
304.075	1703
304.130	1591
304.186	5118
304.241	5849
304.297	3503
304.352	1180
304.358	1084
304.407	308
304.449	771
304.463	930
304.518	375
304.539	225
304.573	-28
304.629	767
304.630	778
304.684	1363
304.720	4415
304.739	5938
304.794	10699
304.811	9045
304.850	5041
304.902	1730
304.905	1522
304.960	963
304.992	588
305.015	310
305.071	510
305.083	600
305.126	880
305.173	317
305.181	236
305.236	-221
305.264	82
305.292	406
305.347	271
305.354	280
305.402	354
305.445	693
305.457	748
305.512	1219
305.535	1333
305.567	1575
305.622	1257
305.626	1342
305.678	3514
305.716	8076
305.733	9624
305.788	10965
305.807	9531
305.843	7248
305.897	9833
305.898	9857
305.953	9743
305.988	6483
306.008	4803
306.063	3081
306.078	2578
306.118	1140
306.168	318
306.173	273
306.228	599
306.259	510
306.283	428
306.338	475
306.349	489
306.393	562
306.440	1056
306.448	1145
306.503	734
306.530	1046
306.558	1788
306.613	3351
306.620	3766
306.668	6662
306.711	9933
306.723	10235
306.778	7638
306.801	5653
306.833	3672
306.888	1969
306.892	1877
306.943	1111
306.982	563
306.997	416
307.052	834
307.072	821
307.107	802
307.162	1154
307.163	1156
307.217	1860
307.253	2514
307.272	2663
307.327	2620
307.343	2468
307.381	2265
307.434	1933
307.436	2015
307.491	4914
307.524	8104
307.546	9139
307.600	8894
307.614	8218
307.655	5435
307.704	2207
307.710	2083
307.765	2695
307.795	3047
307.819	3513
307.874	5875
307.885	6000
307.929	5233
307.975	4183
307.984	4357
308.038	6027
308.065	7595
308.093	14209
308.148	31023
308.156	35206
308.202	57078
308.246	68687
308.257	66178
308.312	35484
308.336	23944
308.366	18122
308.421	11632
308.426	10953
308.475	6547
308.517	4008
308.530	3650
308.585	3434
308.607	3465
308.639	3503
308.694	2999
308.697	3049
308.748	6001
308.787	8240
308.803	8014
308.857	6439
308.877	5374
308.912	5070
308.967	5804
308.967	5808
309.021	8726
309.058	11231
309.076	14228
309.130	24269
309.148	28329
309.185	48438
309.238	84755
309.239	85086
309.293	94438
309.328	87620
309.348	75305
309.402	37509
309.418	27730
309.457	19289
309.508	11780
309.511	11657
309.566	11605
309.598	12097
309.620	14896
309.674	23367
309.688	25473
309.729	23454
309.778	18279
309.783	17783
309.837	11635
309.868	8672
309.892	10063
309.946	14280
309.959	15577
310.001	19281
310.049	22811
310.055	22037
310.109	12889
310.139	7504
310.163	5785
310.218	3376
310.229	2946
310.272	2865
310.319	2903
310.326	2782
310.381	2069
310.409	1578
310.435	1438
310.489	1316
310.499	1310
310.543	1376
310.589	1515
310.598	1583
310.652	1842
310.679	1992
310.706	1889
310.760	1460
310.769	1426
310.814	1075
310.859	618
310.868	680
310.923	1063
310.948	1234
310.977	1528
311.031	2194
311.038	2278
311.085	1998
311.128	1546
311.139	1455
311.193	1105
311.218	961
311.247	1200
311.301	1640
311.308	1678
311.356	1564
311.398	1438
311.410	1453
311.464	1566
311.488	1618
311.518	1459
311.572	1128
311.578	1084
311.626	1541
311.668	2005
311.680	2117
311.734	2553
311.758	2709
311.788	2630
311.842	2505
311.847	2483
311.896	2799
311.937	3102
311.950	3227
312.004	3710
312.027	3917
312.058	3163
312.112	1791
312.117	1655
312.165	1674
312.207	1695
312.297	2026
312.386	2228
312.476	2005
312.566	4294
312.656	2556
312.745	1754
312.835	2064
312.925	1181
313.015	1588
313.104	2056
313.194	1329
313.284	1780
313.374	1809
313.463	2358
313.553	1387
313.643	1395
313.732	1451
313.822	1564
313.912	2093
314.001	1524
314.091	2354
314.180	2926
314.270	2931
314.360	2002
314.449	2022
314.539	1367
314.628	1914
314.718	2140
314.808	1988
314.897	1864
314.987	1400
315.076	2169
315.166	1896
315.255	2321
315.345	2899
315.434	1868
315.524	2829
315.613	2245
315.703	3579
315.792	4162
315.881	10248
315.971	3870
316.060	3726
316.150	4764
316.239	5345
316.328	1667
316.418	2040
316.507	1429
316.597	2672
316.686	2247
316.775	2157
316.865	5043
316.954	1252
317.043	1362
317.133	1234
317.222	2128
317.311	1802
317.400	565
317.490	3596
317.579	1773
317.668	1937
317.757	2948
317.847	6979
317.936	18214
318.025	9262
318.114	3993
318.203	2713
318.293	4756
318.382	9370
318.471	8199
318.560	10565
318.649	18030
318.738	3356
318.828	2994
318.917	2119
319.006	2554
319.095	7853
319.184	22639
319.273	12734
319.362	6444
319.451	1698
319.540	1284
319.629	5356
319.718	8161
319.807	2786
319.896	8114
319.985	28300
320.074	9265
320.163	2149
320.252	3565
320.341	3399
320.430	2999
320.519	4619
320.608	2459
320.697	2777
320.786	1690
320.875	2453
320.964	3949
321.053	6139
321.142	8867
321.230	9086
321.319	6700
321.408	15917
321.497	6459
321.586	5566
321.675	5534
321.764	6820
321.852	3927
321.941	9091
322.030	4874
322.119	6253
322.207	16688
322.296	8732
322.385	4149
322.474	6314
322.562	20399
322.651	8734
322.740	7254
322.829	9970
322.917	7405
323.006	4515
323.095	4729
323.183	2409
323.272	4644
323.361	7410
323.449	21890
323.538	6482
323.626	15228
323.715	8475
323.804	3112
323.892	13203
323.981	8403
324.069	2822
324.158	7128
324.246	5578
324.335	4303
324.424	5622
324.512	3038
324.601	4337
324.689	13971
324.778	27237
324.866	5994
324.954	1521
325.043	2174
325.131	3374
325.220	6186
325.308	5741
325.397	5060
325.485	3146
325.574	1311
325.662	1165
325.750	813
325.839	2095
325.927	643
326.015	1284
326.104	1972
326.192	3215
326.280	1494
326.369	1446
326.457	1891
326.545	5056
326.634	2032
326.722	1093
326.810	1046
326.898	1018
326.987	1444
327.075	3864
327.163	3858
327.251	2275
327.340	13641
327.428	19372
327.516	2891
327.604	1557
327.692	1456
327.781	1428
327.869	1405
327.957	2007
328.045	2092
328.133	1754
328.221	969
328.309	1552
328.397	1871
328.485	1424
328.574	2865
328.662	10172
328.750	4353
328.838	1238
328.926	1478
329.014	968
329.102	1755
329.190	5495
329.278	2984
329.366	1360
329.454	751
329.542	1044
329.630	679
329.718	1355
329.806	1847
329.893	1971
329.981	1615
330.069	3779
330.157	17393
330.245	49654
330.333	25034
330.421	4501
330.509	3384
330.597	13139
330.684	6918
330.772	2425
330.860	2551
330.948	4231
331.036	1324
331.123	1009
331.211	1197
331.299	1033
331.387	3207
331.475	5994
331.562	1488
331.650	880
331.738	1000
331.825	680
331.913	947
332.001	610
332.089	1083
332.176	2767
332.264	6452
332.352	5244
332.439	1699
332.527	945
332.614	632
332.702	1285
332.790	1069
332.877	2767
332.965	7562
333.052	2660
333.140	3195
333.228	8441
333.315	1853
333.403	1073
333.490	3080
333.578	4227
333.665	12253
333.753	5092
333.840	1218
333.928	2108
334.015	3574
334.103	7616
334.190	25627
334.278	6935
334.365	3151
334.452	3109
334.540	1469
334.627	1590
334.715	2929
334.802	4477
334.889	25204
334.977	26663
335.064	5087
335.151	2189
335.239	2002
335.326	2966
335.413	14646
335.501	18218
335.588	2289
335.675	2002
335.762	2646
335.850	4711
335.937	2753
336.024	8016
336.111	31240
336.199	16091
336.286	4508
336.373	1828
336.460	1229
336.547	1387
336.635	1999
336.722	1314
336.809	1251
336.896	1826
336.983	7841
337.070	20165
337.157	28670
337.245	16523
337.332	10542
337.419	1190
337.506	1242
337.593	2010
337.680	5985
337.767	19618
337.854	5192
337.941	5390
338.028	5214
338.115	2154
338.202	2637
338.289	4676
338.376	15501
338.463	5079
338.550	11018
338.637	10815
338.724	2265
338.811	4575
338.898	1168
338.984	556
339.071	839
339.158	1402
339.245	6232
339.332	3488
339.419	3128
339.506	3374
339.593	-638
339.679	1104
339.766	81
339.853	1267
339.940	3647
340.027	1136
340.113	1576
340.200	2176
340.287	1180
340.374	1788
340.460	3841
340.547	1198
340.634	2697
340.720	12243
340.807	5900
340.894	687
340.980	1367
341.067	222
341.154	2035
341.240	2521
341.327	6047
341.414	2628
341.500	1801
341.587	1618
341.674	1100
341.760	4095
341.847	4866
341.933	1527
342.020	-254
342.106	257
342.193	1231
342.279	3282
342.366	1984
342.452	4564
342.539	1738
342.625	5212
342.712	12275
342.798	5020
342.885	1551
342.971	220
343.058	-243
343.144	208
343.230	1074
343.317	1043
343.403	631
343.490	991
343.576	87
343.662	778
343.749	1047
343.835	1373
343.921	3314
344.008	20587
344.094	48395
344.180	10004
344.267	3638
344.353	14003
344.439	14435
344.525	5352
344.612	2300
344.698	1590
344.784	1318
344.870	1477
344.957	736
345.043	2529
345.129	1643
345.215	3590
345.301	1894
345.387	747
345.474	607
345.560	393
345.646	1045
345.732	1366
345.818	1447
345.904	1664
345.990	1063
346.076	752
346.162	1870
346.249	1326
346.335	30
346.421	398
346.507	4432
346.593	20679
346.679	3809
346.765	1035
346.851	1141
346.937	75
347.023	801
347.108	1418
347.194	878
347.280	666
347.366	1228
347.452	5725
347.538	21737
347.624	18153
347.710	14399
347.796	1181
347.882	384
347.967	727
348.053	105
348.139	775
348.225	1041
348.311	372
348.397	407
348.482	2245
348.568	1676
348.654	713
348.740	2091
348.825	850
348.911	2837
348.997	10045
349.083	20724
349.168	2785
349.254	971
349.340	1047
349.425	682
349.511	983
349.597	1305
349.682	3822
349.768	15940
349.854	7088
349.939	1379
350.025	423
350.110	853
350.196	-259
350.282	351
350.367	710
350.453	717
350.538	1540
350.624	1333
350.709	1388
350.795	569
350.880	-94
350.966	1455
351.051	1768
351.137	1289
351.222	1845
351.308	5044
351.393	13048
351.479	3727
351.564	254
351.649	680
351.735	495
351.820	594
351.906	831
351.991	1192
352.076	8328
352.162	13571
352.247	2777
352.332	1223
352.418	3365
352.503	4242
352.588	20043
352.673	15372
352.759	3599
352.844	1066
352.929	1129
353.014	2086
353.100	1746
353.185	3629
353.270	3943
353.355	4465
353.441	942
353.526	1045
353.611	4008
353.696	3625
353.781	2283
353.866	240
353.952	1430
354.037	3107
354.122	9251
354.207	8266
354.292	3268
354.377	906
354.462	1024
354.547	1400
354.632	1755
354.717	1906
354.802	3599
354.887	1504
354.972	1026
355.057	361
355.142	581
355.227	1014
355.312	2459
355.397	5223
355.482	14145
355.567	6260
355.652	5018
355.737	5733
355.822	16329
355.907	13969
355.991	2993
356.076	513
356.161	1413
356.246	696
356.331	1286
356.416	1803
356.501	26163
356.585	26609
356.670	3135
356.755	3386
356.840	3728
356.924	18095
357.009	61499
357.094	23669
357.179	4524
357.263	3297
357.348	3359
357.433	2746
357.517	3723
357.602	1959
357.687	1539
357.771	3724
357.856	12102
357.941	6289
358.025	12554
358.110	57422
358.195	27557
358.279	4205
358.364	2377
358.448	11184
358.533	33662
358.617	24100
358.702	23919
358.787	8123
358.871	4089
358.956	3378
359.040	807
359.125	751
359.209	1318
359.294	5559
359.378	9652
359.462	3897
359.547	2001
359.631	1088
359.716	255
359.800	1005
359.885	2120
359.969	847
360.053	1068
360.138	1416
360.222	2115
360.306	3662
360.391	3729
360.475	6140
360.559	15567
360.644	11704
360.728	7673
360.812	13898
360.896	38708
360.981	15693
361.065	8150
361.149	2435
361.233	1837
361.318	800
361.402	2038
361.486	1883
361.570	1056
361.654	1527
361.739	4476
361.823	23091
361.907	39387
361.991	6709
362.075	3570
362.159	8127
362.243	7113
362.327	6786
362.411	11727
362.495	4464
362.580	2021
362.664	1354
362.748	1480
362.832	2273
362.916	3406
363.000	16736
363.084	42502
363.168	48559
363.252	11411
363.336	3831
363.420	5090
363.503	18650
363.587	22931
363.671	3144
363.755	2902
363.839	4614
363.923	885
364.007	4297
364.091	4588
364.175	5871
364.258	33806
364.342	26550
364.426	40237
364.510	21252
364.594	8416
364.677	7639
364.761	31790
364.845	25483
364.929	7897
365.013	6294
365.096	5577
365.180	5308
365.264	7277
365.347	31004
365.431	13400
365.515	2945
365.598	1062
365.682	2110
365.766	2333
365.849	3656
365.933	1980
366.017	3001
366.100	879
366.184	-125
366.267	1374
366.351	1063
366.435	926
366.518	863
366.602	840
366.685	1358
366.769	1182
366.852	2455
366.936	5186
367.019	2528
367.103	819
367.186	4416
367.270	1284
367.353	577
367.436	1576
367.520	347
367.603	1440
367.687	2199
367.770	4830
367.853	3255
367.937	11017
368.020	17472
368.104	3161
368.187	3625
368.270	5673
368.353	4560
368.437	4585
368.520	9513
368.603	7457
368.687	11398
368.770	23556
368.853	6109
368.936	4992
369.020	4345
369.103	1552
369.186	561
369.269	426
369.352	3610
369.436	4509
369.519	2106
369.602	195
369.685	2286
369.768	1552
369.851	1715
369.934	364
370.018	1299
370.101	2527
370.184	5016
370.267	2930
370.350	3783
370.433	6741
370.516	16858
370.599	22669
370.682	5129
370.765	13126
370.848	16882
370.931	27897
371.014	11664
371.097	807
371.180	1603
371.263	1256
371.346	-41
371.429	1679
371.511	1376
371.594	2664
371.677	4251
371.760	5640
371.843	4810
371.926	20962
372.009	50009
372.091	19055
372.174	10299
372.257	25539
372.340	10699
372.423	6820
372.505	8945
372.588	3388
372.671	9014
372.754	27444
372.836	14247
372.919	8377
373.002	17911
373.085	5008
373.167	4853
373.250	10908
373.332	25683
373.415	32657
373.498	64399
373.580	26294
373.663	30039
373.746	42505
373.828	9670
373.911	4815
373.993	3534
374.076	16698
374.159	16647
374.241	6963
374.324	23551
374.406	17113
374.489	17813
374.571	52707
374.654	23864
374.736	9917
374.819	30862
374.901	47731
374.983	48127
375.066	8319
375.148	2552
375.231	13014
375.313	28304
375.395	9669
375.478	2399
375.560	2126
375.643	2667
375.725	9306
375.807	37756
375.890	32454
375.972	9127
376.054	6169
376.136	8066
376.219	4508
376.301	12127
376.383	35282
376.465	14702
376.548	7030
376.630	9758
376.712	30529
376.794	15967
376.877	1765
376.959	630
377.041	1099
377.123	2500
377.205	4411
377.287	-222
377.369	466
377.452	611
377.534	1075
377.616	811
377.698	1005
377.780	-22
377.862	899
377.944	1611
378.026	103
378.108	1611
378.190	360
378.272	1205
378.354	103
378.436	305
378.518	643
378.600	6110
378.682	7651
378.764	15612
378.846	13738
378.928	3094
379.010	4785
379.091	3402
379.173	1590
379.255	-195
379.337	1395
379.419	6784
379.501	23644
379.583	9176
379.664	1834
379.746	4325
379.828	16755
379.910	22227
379.991	21099
380.073	3103
380.155	1604
380.237	1688
380.318	378
380.400	276
380.482	2806
380.564	5026
380.645	5324
380.727	4562
380.809	3065
380.890	1367
380.972	-126
381.053	1069
381.135	2673
381.217	5439
381.298	17985
381.380	9052
381.461	6568
381.543	28736
381.624	39693
381.706	6664
381.787	3616
381.869	4121
381.951	12527
382.032	47018
382.113	34475
382.195	6563
382.276	5958
382.358	9763
382.439	27684
382.521	33007
382.602	48293
382.684	24092
382.765	41804
382.846	55905
382.928	89596
383.009	53118
383.090	34330
383.172	116360
383.253	180137
383.334	63850
383.416	47005
383.497	27791
383.578	15432
383.659	28939
383.741	98471
383.822	235457
383.903	134430
383.984	41975
384.066	58684
384.147	37319
384.228	8641
384.309	6152
384.390	4382
384.471	2765
384.553	3917
384.634	4295
384.715	5720
384.796	1905
384.877	3603
384.958	14961
385.039	19847
385.120	7611
385.201	2853
385.282	2637
385.363	3764
385.444	3957
385.525	7108
385.606	21046
385.687	20259
385.768	4489
385.849	4845
385.930	23214
386.011	40392
386.092	11215
386.173	2373
386.254	1493
386.335	2593
386.416	2198
386.496	9751
386.577	17627
386.658	6626
386.739	2390
386.820	3620
386.901	891
386.981	2280
387.062	873
387.143	2847
387.224	15603
387.304	16655
387.385	5515
387.466	2256
387.547	4206
387.627	2691
387.708	6664
387.789	27891
387.869	35157
387.950	9937
388.031	1686
388.111	-442
388.192	3162
388.273	6278
388.353	2863
388.434	2516
388.514	4662
388.595	23729
388.676	34024
388.756	17180
388.837	15926
388.917	9856
388.998	340
389.078	1820
389.159	1523
389.239	-7
389.320	3724
389.400	720
389.480	6323
389.561	16259
389.641	10161
389.722	2379
389.802	3554
389.883	7233
389.963	19646
390.043	12168
390.124	2678
390.204	6530
390.284	18115
390.365	12498
390.445	11941
390.525	30838
390.605	29340
390.686	10468
390.766	3945
390.846	2670
390.927	150
391.007	-369
391.087	2153
391.167	1843
391.247	339
391.328	2397
391.408	3760
391.488	2552
391.568	-688
391.648	1722
391.728	3172
391.808	3376
391.888	3622
391.969	9134
392.049	15676
392.129	7550
392.209	6746
392.289	19995
392.369	11411
392.449	7333
392.529	4260
392.609	4144
392.689	5391
392.769	17770
392.849	17214
392.929	11513
393.009	26105
393.089	22102
393.169	19020
393.248	56913
393.328	199948
393.408	227370
393.488	68843
393.568	17552
393.648	8691
393.728	5046
393.807	2999
393.887	3800
393.967	3421
394.047	3565
394.127	5008
394.206	9281
394.286	31722
394.366	128469
394.446	150249
394.525	38120
394.605	8951
394.685	6482
394.764	11698
394.844	18642
394.924	15126
395.003	4310
395.083	3227
395.163	3146
395.242	1801
395.322	2920
395.402	424
395.481	3147
395.561	7262
395.640	22487
395.720	21882
395.799	24430
395.879	21411
395.958	14374
396.038	47788
396.117	167105
396.197	196351
396.276	65714
396.356	18845
396.435	11349
396.515	8383
396.594	9061
396.673	18293
396.753	61028
396.832	186248
396.912	154424
396.991	38884
397.070	9925
397.150	4063
397.229	4548
397.308	6571
397.388	11971
397.467	6522
397.546	1978
397.625	-569
397.705	2950
397.784	2665
397.863	1086
397.942	538
398.022	496
398.101	4695
398.180	19246
398.259	10320
398.338	3148
398.417	1341
398.497	633
398.576	968
398.655	-463
398.734	641
398.813	513
398.892	5628
398.971	20916
399.050	10437
399.129	818
399.208	923
399.287	1105
399.366	-329
399.445	102
399.524	488
399.603	-1341
399.682	1489
399.761	6533
399.840	22000
399.919	19108
399.998	1569
400.077	-619
400.156	-1290
400.235	2635
400.313	-519
400.392	530
400.471	7871
400.550	14581
400.629	3298
400.708	1981
400.786	471
400.865	2960
400.944	3622
401.023	3426
401.102	-260
401.180	555
401.259	-92
401.338	314
401.416	1074
401.495	27
401.574	1054
401.652	-139
401.731	979
401.810	-129
401.888	815
401.967	-276
402.046	255
402.124	1562
402.203	341
402.281	1568
402.360	993
402.438	5434
402.517	2201
402.596	544
402.674	218
402.753	349
402.831	199
402.910	1321
402.988	4847
403.066	22788
403.145	15692
403.223	8341
403.302	19263
403.380	16031
403.459	15971
403.537	6099
403.615	1585
403.694	-1025
403.772	679
403.850	-137
403.929	-250
404.007	-151
404.085	1690
404.164	2499
404.242	-260
404.320	1595
404.398	2855
404.477	8296
404.555	37248
404.633	36117
404.711	5729
404.789	2371
404.868	310
404.946	-876
405.024	-614
405.102	-773
405.180	-529
405.258	-1778
405.336	709
405.415	-904
405.493	1915
405.571	2438
405.649	-474
405.727	-1234
405.805	984
405.883	1651
405.961	770
406.039	55
406.117	-1171
406.195	1564
406.273	7820
406.351	32516
406.429	21994
406.507	2113
406.585	-80
406.663	483
406.740	612
406.818	-301
406.896	-526
406.974	1208
407.052	1179
407.130	18247
407.208	29478
407.285	6339
407.363	-881
407.441	173
407.519	-367
407.596	1065
407.674	2839
407.752	11799
407.830	12913
407.907	3684
407.985	408
408.063	627
408.141	-613
408.218	1763
408.296	509
408.373	709
408.451	516
408.529	599
408.606	-632
408.684	-322
408.762	-161
408.839	-333
408.917	-325
408.994	-430
409.072	-391
409.149	-351
409.227	1135
409.304	1434
409.382	757
409.459	92
409.537	2431
409.614	2509
409.692	612
409.769	944
409.846	2008
409.924	4589
410.001	1171
410.079	1034
410.156	1364
410.233	364
410.311	-638
410.388	556
410.465	159
410.543	167
410.620	494
410.697	1329
410.775	985
410.852	-1232
410.929	1296
411.006	1919
411.083	59
411.161	2533
411.238	2148
411.315	688
411.392	101
411.469	1437
411.547	1232
411.624	-703
411.701	240
411.778	-358
411.855	1522
411.932	505
412.009	-347
412.086	762
412.163	1046
412.240	741
412.317	1155
412.394	92
412.471	-471
412.548	-546
412.625	-498
412.702	256
412.779	2032
412.856	1023
412.933	-216
413.010	-363
413.087	1307
413.164	7065
413.241	11667
413.318	1458
413.395	1792
413.471	2100
413.548	270
413.625	405
413.702	-46
413.779	88
413.855	-186
413.932	-712
414.009	-1410
414.086	-328
414.162	69
414.239	795
414.316	6509
414.393	17323
414.469	6541
414.546	71
414.623	-167
414.699	-139
414.776	-39
414.853	-651
414.929	579
415.006	-321
415.082	-446
415.159	295
415.236	-199
415.312	623
415.389	1081
415.465	1124
415.542	858
415.618	-508
415.695	1467
415.771	-116
415.848	-44
415.924	531
416.000	-176
416.077	518
416.153	-1437
416.230	-1490
416.306	-841
416.383	-704
416.459	-171
416.535	-732
416.612	-1131
416.688	-1006
416.764	-750
416.841	-1586
416.917	-901
416.993	43
417.069	213
417.146	47
417.222	112
417.298	209
417.374	-358
417.451	588
417.527	65
417.603	-108
417.679	-117
417.755	280
417.831	-1431
417.908	-18
417.984	-784
418.060	-1495
418.136	1016
418.212	2057
418.288	302
418.364	647
418.440	-1135
418.516	767
418.592	870
418.668	2611
418.744	4434
418.820	2830
418.896	228
418.972	-986
419.048	-122
419.124	1382
419.200	803
419.276	-802
419.352	-834
419.428	-85
419.504	-824
419.579	169
419.655	-141
419.731	-678
419.807	2501
419.883	5725
419.959	2966
420.034	489
420.110	1819
420.186	9901
420.262	9294
420.337	934
420.413	-246
420.489	-888
420.565	112
420.640	-672
420.716	-269
420.792	-966
420.867	218
420.943	-210
421.019	827
421.094	198
421.170	307
421.245	-905
421.321	17
421.397	10
421.472	2185
421.548	5838
421.623	5877
421.699	2088
421.774	2055
421.850	131
421.925	1922
422.001	2501
422.076	2234
422.152	2662
422.227	4471
422.302	7004
422.378	9684
422.453	18996
422.529	47365
422.604	117747
422.679	177060
422.755	136588
422.830	56776
422.905	21854
422.981	10920
423.056	7255
423.131	5413
423.207	3273
423.282	3054
423.357	5025
423.432	2104
423.508	2734
423.583	5459
423.658	4720
423.733	1452
423.808	734
423.883	2183
423.959	1272
424.034	541
424.109	823
424.184	126
424.259	731
424.334	-423
424.409	-419
424.484	-480
424.559	220
424.634	509
424.709	461
424.784	760
424.859	121
424.934	488
425.009	7266
425.084	13326
425.159	4436
425.234	367
425.309	-584
425.384	1721
425.459	3741
425.534	902
425.609	-1040
425.683	-506
425.758	-684
425.833	225
425.908	916
425.983	2969
426.058	13557
426.132	6152
426.207	-7
426.282	1239
426.357	1079
426.431	-93
426.506	698
426.581	348
426.655	176
426.730	-180
426.805	-754
426.879	-4
426.954	-434
427.029	892
427.103	11252
427.178	30911
427.253	15013
427.327	214
427.402	742
427.476	4804
427.551	1910
427.625	356
427.700	-100
427.774	-947
427.849	-346
427.923	-1509
427.998	-427
428.072	-681
428.147	2687
428.221	11100
428.296	36859
428.370	21111
428.444	1658
428.519	1033
428.593	3154
428.667	3185
428.742	3012
428.816	4342
428.890	20709
428.965	38347
429.039	11463
429.113	4116
429.188	1620
429.262	161
429.336	1184
429.410	6388
429.485	3854
429.559	2796
429.633	2602
429.707	186
429.781	3238
429.855	22104
429.930	36736
430.004	15843
430.078	19146
430.152	21099
430.226	43281
430.300	49524
430.374	7335
430.448	1799
430.522	5818
430.596	18070
430.670	14221
430.744	35578
430.818	55929
430.892	11723
430.966	590
431.040	177
431.114	-1339
431.188	-557
431.262	-6
431.336	-203
431.410	1340
431.484	4159
431.557	3328
431.631	84
431.705	404
431.779	5786
431.853	30192
431.927	25057
432.000	2094
432.074	-301
432.148	-302
432.222	-838
432.295	-510
432.369	-709
432.443	1271
432.516	11083
432.590	31036
432.664	11295
432.737	692
432.811	-756
432.885	-61
432.958	583
433.032	-1229
433.106	-786
433.179	-429
433.253	-353
433.326	-613
433.400	-1319
433.473	-936
433.547	-1064
433.620	-466
433.694	198
433.767	491
433.841	-1171
433.914	-1283
433.988	-1420
434.061	-571
434.134	-270
434.208	-1039
434.281	-1015
434.355	-1503
434.428	-115
434.501	122
434.575	-1758
434.648	-1171
434.721	-1272
434.795	-1028
434.868	-1001
434.941	-655
435.014	-995
435.088	-819
435.161	148
435.234	791
435.307	895
435.381	-367
435.454	-136
435.527	805
435.600	676
435.673	606
435.746	-144
435.819	-235
435.892	-409
435.966	-603
436.039	-687
436.112	-487
436.185	-628
436.258	-564
436.331	-729
436.404	-808
436.477	-1261
436.550	-699
436.623	-910
436.696	-1160
436.769	-522
436.842	-722
436.915	-15
436.987	-609
437.060	-26
437.133	-536
437.206	-968
437.279	-564
437.352	-1318
437.425	-147
437.498	-440
437.570	1055
437.643	1049
437.716	-718
437.789	-1108
437.861	1025
437.934	3753
438.007	1748
438.080	-472
438.152	-120
438.225	1313
438.298	14671
438.370	43516
438.443	20428
438.516	3956
438.588	-101
438.661	-733
438.734	-563
438.806	-606
438.879	536
438.951	-329
439.024	1523
439.096	129
439.169	-403
439.241	-229
439.314	-994
439.386	-346
439.459	594
439.531	580
439.604	-82
439.676	-830
439.749	-857
439.821	-766
439.893	-459
439.966	-429
440.038	-515
440.110	264
440.183	-877
440.255	-362
440.327	-201
440.400	5576
440.472	26941
440.544	21077
440.617	1273
440.689	1494
440.761	1428
440.833	3179
440.905	1141
440.978	-358
441.050	-929
441.122	-535
441.194	-606
441.266	-951
441.338	-633
441.411	381
441.483	7783
441.555	13719
441.627	2613
441.699	36
441.771	-88
441.843	-604
441.915	-139
441.987	-1072
442.059	-651
442.131	-373
442.203	269
442.275	940
442.347	1283
442.419	1979
442.491	15663
442.563	43727
442.635	18776
442.706	6279
442.778	4792
442.850	1075
442.922	-338
442.994	296
443.066	458
443.137	593
443.209	676
443.281	278
443.353	4415
443.425	19486
443.496	75929
443.568	78753
443.640	27899
443.711	3957
443.783	659
443.855	808
443.926	-662
443.998	-923
444.070	393
444.141	333
444.213	761
444.285	1965
444.356	-21
444.428	-286
444.499	-777
444.571	-621
444.642	-271
444.714	-880
444.785	978
444.857	411
444.928	2500
445.000	1903
445.071	1579
445.143	3505
445.214	1817
445.285	3251
445.357	12776
445.428	46240
445.500	113591
445.571	74447
445.642	38965
445.714	11500
445.785	7840
445.856	1687
445.928	1662
445.999	1586
446.070	142
446.141	1423
446.213	1781
446.284	392
446.355	-337
446.426	-611
446.497	-504
446.569	-266
446.640	930
446.711	904
446.782	-426
446.853	291
446.924	-329
446.995	-618
447.066	-252
447.138	1394
447.209	645
447.280	-1186
447.351	-821
447.422	-873
447.493	-582
447.564	513
447.635	853
447.706	-958
447.777	-755
447.847	-1515
447.918	-814
447.989	-439
448.060	-76
448.131	1734
448.202	1407
448.273	1039
448.344	624
448.414	-214
448.485	-505
448.556	-339
448.627	-1121
448.698	-694
448.768	-459
448.839	-535
448.910	499
448.981	399
449.051	-654
449.122	-143
449.193	-398
449.263	-337
449.334	-314
449.405	-147
449.475	1952
449.546	1309
449.616	925
449.687	845
449.758	306
449.828	290
449.899	-370
449.969	-866
450.040	-870
450.110	-218
450.181	-81
450.251	-754
450.322	-386
450.392	817
450.463	-267
450.533	-161
450.604	-503
450.674	-431
450.744	-505
450.815	-420
450.885	259
450.955	-714
451.026	-215
451.096	-716
451.166	-524
451.237	454
451.307	3615
451.377	1340
451.447	-309
451.518	-1409
451.588	-446
451.658	-159
451.728	109
451.799	3489
451.869	6064
451.939	365
452.009	-491
452.079	-88
452.149	208
452.219	387
452.289	4750
452.360	3732
452.430	6
452.500	30
452.570	299
452.640	1792
452.710	5618
452.780	8250
452.850	5491
452.920	4207
452.990	1323
453.060	101
453.129	-38
453.199	781
453.269	6280
453.339	14866
453.409	23505
453.479	20347
453.549	31294
453.619	33199
453.688	13157
453.758	1151
453.828	286
453.898	-455
453.968	-609
454.037	13
454.087	-267
454.107	-387
454.168	-326
454.177	-321
454.247	-496
454.249	-463
454.316	140
454.330	82
454.386	-180
454.411	734
454.456	2242
454.492	2954
454.525	3619
454.574	1857
454.595	1098
454.655	-575
454.665	-853
454.734	-665
454.736	-640
454.804	-187
454.817	786
454.873	4767
454.898	4936
454.943	5265
454.979	3017
455.013	1030
455.060	640
455.082	431
455.141	113
455.152	47
455.221	2227
455.222	2276
455.291	5424
455.303	4726
455.360	1734
455.384	2064
455.430	2654
455.465	1850
455.499	1017
455.546	2558
455.569	3225
455.627	2682
455.638	2604
455.707	67
455.708	69
455.777	-313
455.789	-179
455.846	476
455.869	129
455.916	-522
455.950	-330
455.985	-192
456.031	-275
456.054	-280
456.112	-149
456.124	-148
456.193	-282
456.193	-287
456.262	-291
456.274	-203
456.332	-65
456.355	27
456.401	348
456.436	73
456.470	-258
456.516	-331
456.540	-438
456.597	-695
456.609	-721
456.678	-138
456.678	-142
456.747	-512
456.759	-538
456.817	-520
456.840	-545
456.886	-690
456.920	-732
456.955	-742
457.001	-321
457.024	-150
457.082	58
457.093	121
457.162	91
457.163	97
457.232	9
457.243	-81
457.301	-347
457.324	-339
457.370	-412
457.405	-412
457.439	-380
457.485	-347
457.508	-364
457.566	-177
457.577	-69
457.646	434
457.647	443
457.715	952
457.727	1191
457.784	2469
457.808	3380
457.853	4536
457.889	5644
457.922	6430
457.969	4483
457.991	4012
458.050	3733
458.060	3711
458.129	7016
458.130	7124
458.198	9537
458.211	8419
458.267	4183
458.292	2833
458.336	1416
458.372	1093
458.405	1158
458.453	2311
458.474	2974
458.533	6527
458.543	6798
458.611	13409
458.614	13414
458.680	10622
458.694	8718
458.749	3313
458.775	2277
458.818	763
458.855	446
458.887	205
458.936	95
458.955	72
459.016	-68
459.024	-70
459.093	9
459.097	36
459.162	445
459.177	465
459.230	532
459.257	677
459.299	742
459.338	1082
459.368	1411
459.418	1032
459.437	843
459.499	585
459.505	607
459.574	499
459.579	509
459.643	-30
459.659	-33
459.711	118
459.740	3
459.780	144
459.820	565
459.849	710
459.900	800
459.917	852
459.981	1008
459.986	977
460.054	432
460.061	406
460.123	893
460.141	984
460.191	1030
460.222	1031
460.260	995
460.302	1473
460.328	1706
460.382	1912
460.397	1986
460.462	979
460.465	960
460.534	2350
460.543	2342
460.602	4747
460.623	6444
460.671	10457
460.703	15290
460.739	15559
460.783	12508
460.808	12020
460.864	4214
460.876	2923
460.944	847
460.945	824
461.013	741
461.024	619
461.081	81
461.104	332
461.150	627
461.184	609
461.218	539
461.264	399
461.286	471
461.345	185
461.355	163
461.423	811
461.425	816
461.491	260
461.505	275
461.559	1575
461.585	1890
461.628	2358
461.665	3438
461.696	3873
461.745	5124
461.764	4941
461.825	1711
461.832	1576
461.901	613
461.905	642
461.969	1087
461.985	1013
462.037	1247
462.065	1554
462.105	1050
462.145	479
462.173	928
462.225	1976
462.241	2067
462.305	2868
462.310	2849
462.378	2149
462.385	1964
462.446	1050
462.465	884
462.514	811
462.545	769
462.582	569
462.625	607
462.650	512
462.705	118
462.718	264
462.785	1209
462.786	1207
462.854	908
462.865	900
462.922	1651
462.945	1927
462.990	1662
463.025	1129
463.058	866
463.104	820
463.126	758
463.184	415
463.194	407
463.262	380
463.264	391
463.330	856
463.344	929
463.398	951
463.424	860
463.466	590
463.504	600
463.533	925
463.583	1028
463.601	949
463.663	847
463.669	838
463.737	957
463.743	976
463.805	2626
463.823	3033
463.873	3827
463.903	4488
463.940	4657
463.982	5044
464.008	4450
464.062	2374
464.076	2259
464.142	1249
464.144	1214
464.211	489
464.221	419
464.279	623
464.301	713
464.347	1222
464.381	1542
464.414	1381
464.461	1269
464.482	1409
464.540	1688
464.550	1686
464.617	1655
464.620	1647
464.685	1419
464.699	1376
464.753	1996
464.779	2399
464.820	2298
464.859	2125
464.888	2004
464.938	1901
464.956	2236
465.018	3064
465.023	3031
465.091	2819
465.098	2768
465.158	2095
465.177	1997
465.226	2252
465.257	2274
465.293	2404
465.336	2574
465.361	2538
465.416	2480
465.428	2624
465.495	3636
465.496	3646
465.563	4386
465.575	4562
465.631	5311
465.654	5777
465.698	4233
465.734	2483
465.765	2130
465.813	1592
465.833	1624
465.893	1981
465.900	1993
465.968	2113
465.972	2128
466.035	1251
466.052	973
466.102	1753
466.131	2227
466.170	2062
466.210	1860
466.237	2323
466.290	3255
466.304	3132
466.369	2537
466.372	2535
466.439	2485
466.449	2454
466.506	2607
466.528	2701
466.573	4057
466.607	5027
466.641	6017
466.687	7473
466.708	7898
466.766	9137
466.775	8606
466.842	4481
466.845	4279
466.909	3583
466.925	3464
466.977	3426
467.004	3424
467.044	3371
467.083	3343
467.111	3569
467.163	3967
467.178	4113
467.242	4723
467.245	4700
467.312	4199
467.321	4132
467.379	3731
467.400	3581
467.446	3399
467.480	3267
467.559	3301
467.638	2937
467.717	2681
467.796	3226
467.875	3108
467.955	2812
468.034	5272
468.113	8510
468.192	10650
468.271	2740
468.350	2103
468.429	3330
468.508	4235
468.588	2761
468.667	2473
468.746	3245
468.825	2101
468.904	2414
468.983	3146
469.062	3601
469.141	3287
469.220	2580
469.299	2907
469.378	1889
469.456	3955
469.535	3006
469.614	2762
469.693	3188
469.772	4033
469.851	4475
469.930	2613
470.009	2685
470.088	2508
470.166	3923
470.245	5334
470.324	4977
470.403	4040
470.482	2321
470.560	2235
470.639	2862
470.718	3480
470.797	2073
470.875	2916
470.954	2999
471.033	3863
471.111	1745
471.190	2774
471.269	1786
471.347	1806
471.426	1472
471.505	2196
471.583	3306
471.662	2514
471.740	2493
471.819	2512
471.898	1753
471.976	2600
472.055	1916
472.133	2324
472.212	2522
472.290	3343
472.369	1899
472.447	2048
472.526	2301
472.604	2369
472.683	1678
472.761	2183
472.839	1838
472.918	2314
472.996	2358
473.075	2894
473.153	1035
473.231	2085
473.310	2485
473.388	2671
473.466	1770
473.545	2661
473.623	3502
473.701	2454
473.780	2719
473.858	246
473.936	2585
474.014	2514
474.093	1916
474.171	3079
474.249	3467
474.327	2649
474.405	1047
474.484	2277
474.562	1834
474.640	1147
474.718	2334
474.796	1551
474.874	1622
474.952	1808
475.030	1348
475.108	2833
475.187	2794
475.265	3445
475.343	3302
475.421	3249
475.499	2353
475.577	1833
475.655	3656
475.733	5120
475.811	6473
475.889	6515
475.966	3480
476.044	1836
476.122	2669
476.200	2905
476.278	818
476.356	921
476.434	2102
476.512	2438
476.590	2624
476.667	2461
476.745	936
476.823	1918
476.901	1125
476.979	1344
477.056	1672
477.134	2074
477.212	1917
477.290	1380
477.367	1450
477.445	1664
477.523	1623
477.601	1674
477.678	2059
477.756	2582
477.834	1657
477.911	1982
477.989	1919
478.066	1661
478.144	2192
478.222	2133
478.299	4130
478.377	2756
478.454	1143
478.532	1357
478.609	1175
478.687	1745
478.764	1869
478.842	958
478.919	454
478.997	1755
479.074	1115
479.152	1428
479.229	1742
479.307	911
479.384	1004
479.461	1040
479.539	1746
479.616	1676
479.694	972
479.771	1493
479.848	2301
479.926	1261
480.003	2368
480.080	805
480.157	1953
480.235	612
480.312	1002
480.389	1471
480.467	2839
480.544	3502
480.621	1436
480.698	1759
480.775	2022
480.853	1965
480.930	1960
481.007	1159
481.084	1659
481.161	1095
481.238	1712
481.315	1057
481.392	735
481.470	1340
481.547	1476
481.624	1134
481.701	1166
481.778	1363
481.855	1585
481.932	2543
482.009	3774
482.086	1659
482.163	940
482.240	3059
482.317	4910
482.393	3041
482.470	803
482.547	570
482.624	1916
482.701	2028
482.778	651
482.855	788
482.932	1778
483.009	713
483.085	1165
483.162	1275
483.239	1978
483.316	790
483.393	1055
483.469	1066
483.546	1086
483.623	-268
483.699	646
483.776	1245
483.853	1728
483.930	2972
484.006	6878
484.083	10110
484.160	7879
484.236	10727
484.313	8330
484.389	5606
484.466	5060
484.543	5115
484.619	5285
484.696	6531
484.772	6104
484.849	5180
484.925	4810
485.002	4634
485.078	5173
485.155	5205
485.231	4263
485.308	4336
485.384	4913
485.461	5474
485.537	7597
485.614	8619
485.690	3812
485.766	4107
485.843	4506
485.919	5882
485.995	5779
486.072	4316
486.148	3798
486.224	3768
486.301	4288
486.377	4862
486.453	3712
486.530	5530
486.606	7142
486.682	6595
486.758	6814
486.835	6582
486.911	6130
486.987	11188
487.063	10595
487.139	13006
487.215	8392
487.292	5819
487.368	4835
487.444	5715
487.520	6880
487.596	5967
487.672	11977
487.748	25433
487.824	29909
487.900	9578
487.976	5449
488.052	4431
488.128	5433
488.204	4023
488.280	4649
488.356	6002
488.432	8513
488.508	11121
488.584	3090
488.660	3645
488.736	3572
488.812	4179
488.888	5683
488.964	7139
489.039	13458
489.115	17726
489.191	9618
489.267	4155
489.343	3789
489.418	3012
489.494	3541
489.570	2316
489.646	4197
489.722	2773
489.797	4152
489.873	5471
489.949	9047
490.024	5054
490.100	2411
490.176	3473
490.251	3019
490.327	4713
490.403	2104
490.478	2516
490.554	2445
490.629	3228
490.705	2454
490.781	3504
490.856	2276
490.932	2218
491.007	1864
491.083	2693
491.158	2843
491.234	2950
491.309	7022
491.385	5151
491.460	2049
491.536	3723
491.611	1757
491.686	3101
491.762	4165
491.837	7379
491.913	12594
491.988	18865
492.063	18460
492.139	5424
492.214	3413
492.289	2355
492.365	1315
492.440	2820
492.515	2189
492.590	2631
492.666	1487
492.741	2950
492.816	3020
492.891	2199
492.967	3030
493.042	1965
493.117	2162
493.192	2456
493.267	2637
493.342	3089
493.418	4103
493.493	1677
493.568	1486
493.643	1405
493.718	2198
493.793	3551
493.868	3179
493.943	2404
494.018	1984
494.093	1744
494.168	2007
494.243	1343
494.318	882
494.393	2532
494.468	1662
494.543	2109
494.618	1001
494.693	1424
494.768	1022
494.842	1419
494.917	1489
494.992	720
495.067	1066
495.142	963
495.217	1232
495.292	2167
495.366	1940
495.441	2632
495.516	3599
495.591	6447
495.665	19318
495.740	36448
495.815	9608
495.890	2574
495.964	1017
496.039	3604
496.114	2170
496.188	2112
496.263	2702
496.338	2329
496.412	2584
496.487	2889
496.561	2986
496.636	2753
496.710	2776
496.785	2395
496.860	2721
496.934	2346
497.009	2582
497.083	1901
497.158	3539
497.232	4270
497.307	3669
497.381	3932
497.455	4280
497.530	5357
497.604	4620
497.679	4527
497.753	7815
497.827	8184
497.902	7379
497.976	11380
498.050	26811
498.125	69828
498.199	52432
498.273	12944
498.348	10990
498.422	8666
498.496	7091
498.570	6293
498.645	4914
498.719	3697
498.793	5376
498.867	7553
498.941	10261
499.016	31560
499.090	63507
499.164	14117
499.238	3999
499.312	3334
499.386	3325
499.460	2967
499.534	2633
499.609	4028
499.683	3678
499.757	5490
499.831	15181
499.905	45492
499.979	30059
500.053	5377
500.127	4920
500.201	3454
500.275	2585
500.349	2023
500.422	2298
500.496	6438
500.570	12203
500.644	26365
500.718	39211
500.792	6547
500.866	2854
500.940	3494
501.013	2539
501.087	2257
501.161	4624
501.235	5872
501.309	17012
501.382	38424
501.456	24108
501.530	7117
501.603	10704
501.677	3021
501.751	985
501.825	3900
501.898	5823
501.972	14078
502.046	6099
502.119	1912
502.193	7621
502.266	14542
502.340	5964
502.413	7649
502.487	12032
502.561	5386
502.634	1211
502.708	1724
502.781	1079
502.855	2970
502.928	402
503.002	1595
503.075	1079
503.149	1546
503.222	1185
503.295	2148
503.369	2339
503.442	3831
503.516	12587
503.589	25170
503.662	12238
503.736	6600
503.809	13496
503.882	8890
503.956	16639
504.029	13801
504.102	14133
504.175	15565
504.249	3565
504.322	3851
504.395	1944
504.468	1554
504.542	1083
504.615	579
504.688	1560
504.761	1
504.834	2797
504.907	2050
504.980	3576
505.053	1793
505.127	150
505.200	5016
505.273	1454
505.346	428
505.419	-381
505.492	1287
505.565	784
505.638	1218
505.711	586
505.784	221
505.857	403
505.930	2199
506.003	-138
506.076	2486
506.149	941
506.221	36
506.294	3321
506.367	6333
506.440	20345
506.513	7275
506.586	1812
506.659	271
506.731	1209
506.804	1091
506.877	96
506.950	905
507.022	2020
507.095	-380
507.168	2015
507.241	2088
507.313	266
507.386	246
507.459	1782
507.531	6
507.604	506
507.677	1552
507.749	-767
507.822	2471
507.894	3530
507.967	5131
508.040	1696
508.112	1659
508.185	1778
508.257	1171
508.330	4139
508.402	1280
508.475	1706
508.547	1861
508.620	2252
508.692	2871
508.765	1519
508.837	843
508.909	1617
508.982	912
509.054	1309
509.127	1181
509.199	1297
509.271	15
509.344	458
509.416	1068
509.488	471
509.560	2031
509.633	752
509.705	1692
509.777	1080
509.849	2808
509.922	455
509.994	385
510.066	1920
510.138	711
510.210	5845
510.283	2214
510.355	2387
510.427	2384
510.499	3149
510.571	3006
510.643	1795
510.715	4291
510.787	1256
510.859	2979
510.931	1086
511.003	2756
511.076	2335
511.148	814
511.219	1267
511.291	3306
511.363	2312
511.435	987
511.507	326
511.579	1606
511.651	2367
511.723	1355
511.795	1085
511.867	1217
511.939	2509
512.010	2406
512.082	2544
512.154	-364
512.226	2180
512.298	3549
512.369	4421
512.441	3273
512.513	2998
512.585	401
512.656	3139
512.728	2465
512.800	1718
512.871	2228
512.943	1795
513.015	761
513.086	2381
513.158	2499
513.230	1361
513.301	2896
513.373	4008
513.444	1079
513.516	1137
513.588	896
513.659	2344
513.731	2144
513.802	1855
513.874	6218
513.945	7212
514.016	1508
514.088	1676
514.159	1051
514.231	3097
514.302	4076
514.374	2966
514.445	1296
514.516	6337
514.588	2816
514.659	2248
514.730	3161
514.802	3671
514.873	2216
514.944	5130
515.016	2649
515.087	2556
515.158	3693
515.229	4444
515.301	4306
515.372	5544
515.443	2191
515.514	1855
515.585	1344
515.656	3167
515.728	3182
515.799	1204
515.870	2459
515.941	2026
516.012	1030
516.083	3090
516.154	2383
516.225	4401
516.296	4125
516.367	2296
516.438	3671
516.509	5266
516.580	12023
516.651	38677
516.722	94506
516.793	28414
516.864	5393
516.935	6426
517.006	8042
517.077	14488
517.148	39089
517.219	134835
517.289	139570
517.360	28573
517.431	7797
517.502	3215
517.573	3731
517.643	3568
517.714	3338
517.785	4006
517.856	3234
517.926	6034
517.997	6189
518.068	6948
518.138	13658
518.209	26197
518.280	103757
518.350	264018
518.421	62855
518.492	7975
518.562	4823
518.633	5600
518.703	3272
518.774	12030
518.845	23627
518.915	17747
518.986	5839
519.056	5066
519.127	8683
519.197	11372
519.268	22240
519.338	12070
519.408	3763
519.479	4435
519.549	2484
519.620	3439
519.690	2773
519.760	1363
519.831	1888
519.901	1285
519.971	1787
520.042	1911
520.112	940
520.182	3036
520.253	2998
520.323	1520
520.393	1946
520.463	5896
520.534	1426
520.604	7082
520.674	3321
520.744	2916
520.814	6213
520.885	6056
520.955	8776
521.025	24042
521.095	5949
521.165	2199
521.235	1257
521.305	666
521.375	1822
521.445	1877
521.515	1805
521.585	2822
521.655	1014
521.725	2594
521.795	2650
521.865	-391
521.935	3923
522.005	1217
522.075	607
522.145	1735
522.215	1306
522.285	2821
522.355	3578
522.424	6728
522.494	3803
522.564	2750
522.634	7712
522.704	18610
522.774	4310
522.843	1738
522.913	1516
522.983	1581
523.053	484
523.122	2361
523.192	2782
523.262	9602
523.331	6221
523.401	2608
523.471	462
523.540	1034
523.610	273
523.680	1019
523.749	950
523.819	1491
523.888	1268
523.958	757
524.027	601
524.097	1317
524.166	915
524.236	900
524.305	3143
524.375	453
524.444	207
524.514	2500
524.583	279
524.653	390
524.722	1622
524.791	-565
524.861	1589
524.930	-397
524.999	375
525.069	2726
525.138	1256
525.207	1016
525.277	1855
525.346	547
525.415	842
525.484	632
525.554	457
525.623	1966
525.692	1431
525.761	1852
525.830	2383
525.900	1979
525.969	3738
526.038	7942
526.107	17523
526.176	45638
526.245	27447
526.314	11509
526.383	26818
526.452	28202
526.522	58227
526.591	41338
526.660	10162
526.729	4444
526.797	9948
526.867	21474
526.935	81009
527.004	123210
527.073	45749
527.142	3111
527.211	1956
527.280	2766
527.349	2044
527.418	-457
527.487	2167
527.555	-304
527.624	585
527.693	-449
527.762	962
527.831	-929
527.899	321
527.968	474
528.037	-1087
528.106	1159
528.174	3023
528.243	962
528.312	3855
528.380	2887
528.449	-20
528.518	2007
528.586	44
528.655	429
528.723	213
528.792	150
528.861	-310
528.929	-560
528.998	642
529.066	395
529.135	473
529.203	-35
529.272	-559
529.340	1369
529.409	1867
529.477	71
529.545	15
529.614	2735
529.682	-836
529.751	420
529.819	3471
529.887	645
529.956	-159
530.024	2087
530.092	10
530.161	1736
530.229	2187
530.297	-47
530.365	1110
530.434	202
530.502	441
530.570	806
530.638	-1250
530.707	348
530.775	2269
530.843	-547
530.911	765
530.979	1575
531.047	-275
531.115	565
531.183	586
531.252	1066
531.320	335
531.388	320
531.456	724
531.524	-515
531.592	1492
531.660	1612
531.728	-159
531.796	202
531.864	823
531.932	402
532.000	197
532.067	373
532.135	1141
532.203	1732
532.271	252
532.339	2838
532.407	7104
532.475	3611
532.542	2281
532.610	2569
532.678	4520
532.746	21626
532.814	34529
532.881	5367
532.949	813
533.017	751
533.084	1203
533.152	785
533.220	627
533.287	227
533.355	608
533.423	1096
533.490	180
533.558	-363
533.625	1304
533.693	-324
533.761	728
533.828	954
533.896	635
533.963	3278
534.031	3272
534.098	4914
534.166	1130
534.233	-718
534.300	2215
534.368	1428
534.435	1192
534.503	1239
534.570	531
534.637	717
534.705	1613
534.772	3191
534.840	5508
534.907	23460
534.974	20244
535.041	2072
535.109	1493
535.176	609
535.243	1278
535.310	1535
535.378	600
535.445	887
535.512	795
535.579	1342
535.646	471
535.714	927
535.781	2626
535.848	1179
535.915	1297
535.982	495
536.049	984
536.116	2130
536.183	839
536.250	415
536.317	1560
536.384	1502
536.451	1506
536.518	2655
536.585	618
536.652	3540
536.719	4545
536.786	591
536.853	882
536.920	3776
536.987	5721
537.053	4987
537.120	22781
537.187	13067
537.254	805
537.321	553
537.388	1811
537.454	90
537.521	304
537.588	810
537.654	2141
537.721	1404
537.788	2213
537.855	834
537.921	1624
537.988	434
538.055	1835
538.121	141
538.188	1539
538.254	2536
538.321	4313
538.388	2712
538.454	1059
538.521	1256
538.587	2268
538.654	661
538.720	1027
538.787	1109
538.853	1097
538.920	1320
538.986	742
539.053	1270
539.119	2112
539.185	1377
539.252	2936
539.318	2116
539.385	3815
539.451	774
539.517	2918
539.583	3226
539.650	6716
539.716	13508
539.782	1925
539.849	1076
539.915	2714
539.981	1154
540.047	1641
540.114	1795
540.180	2854
540.246	474
540.312	2565
540.378	4746
540.444	5620
540.510	7020
540.576	14841
540.643	2938
540.709	1009
540.775	617
540.841	827
540.907	2731
540.973	3205
541.039	2688
541.105	2673
541.171	1051
541.237	514
541.303	1689
541.369	3345
541.435	3386
541.500	3788
541.566	1038
541.632	1349
541.698	704
541.764	1945
541.830	939
541.896	-107
541.961	1670
542.027	894
542.093	1205
542.159	1392
542.224	349
542.290	3128
542.356	3829
542.421	4809
542.487	2598
542.553	1537
542.618	1807
542.684	1163
542.750	2087
542.815	2539
542.881	4399
542.947	16104
543.012	8554
543.078	1380
543.143	603
543.209	1926
543.274	639
543.340	3442
543.405	6214
543.471	7066
543.536	2127
543.602	2039
543.667	592
543.732	2522
543.798	-426
543.863	1909
543.928	191
543.994	979
544.059	1389
544.124	1670
544.190	1399
544.255	1463
544.320	1609
544.386	1562
544.451	2990
544.516	2848
544.581	2426
544.646	11307
544.712	12060
544.777	2420
544.842	2241
544.907	1830
544.972	1708
545.037	2010
545.102	2349
545.168	2382
545.233	2514
545.298	3056
545.363	2242
545.428	3862
545.493	6835
545.558	10282
545.623	3743
545.688	647
545.753	1566
545.818	2194
545.883	2450
545.947	1566
546.012	3575
546.077	1854
546.142	3459
546.207	3129
546.272	3653
546.337	3301
546.401	3081
546.466	3032
546.531	1634
546.596	3465
546.661	3321
546.725	3652
546.790	2289
546.855	3371
546.919	2680
546.984	4685
547.049	4140
547.113	5383
547.178	4593
547.243	7018
547.307	7296
547.372	7571
547.436	7892
547.501	7547
547.565	7804
547.630	8647
547.695	6758
547.759	7605
547.823	6553
547.888	7556
547.952	7464
548.017	7285
548.081	8450
548.146	9185
548.210	8593
548.274	8649
548.339	8171
548.403	8461
548.468	5854
548.532	6058
548.596	7317
548.660	6695
548.725	8974
548.789	8971
548.853	9515
548.917	7764
548.982	7996
549.046	8462
549.110	6202
549.174	7132
549.238	7549
549.303	7487
549.367	10024
549.431	7919
549.495	6767
549.559	6990
549.623	9911
549.687	10466
549.751	11255
549.815	11789
549.879	11890
549.943	9626
550.007	12115
550.071	11352
550.135	11569
550.199	9495
550.263	9947
550.327	9957
550.391	9774
550.455	11298
550.519	11643
550.582	12275
550.646	14116
550.710	14070
550.774	12559
550.838	13435
550.901	13631
550.965	15073
551.029	15591
551.093	17318
551.156	18846
551.220	24169
551.284	25261
551.347	18540
551.411	19613
551.475	19331
551.538	14484
551.602	13975
551.666	12534
551.729	11823
551.793	11318
551.856	10920
551.920	10641
551.983	11372
552.047	11961
552.110	11880
552.174	10989
552.237	12224
552.301	11156
552.364	11515
552.428	9927
552.491	10232
552.554	12008
552.618	11655
552.681	12338
552.745	11921
552.808	15997
552.871	17439
552.934	12409
552.998	10725
553.061	11394
553.124	9992
553.187	10286
553.251	11443
553.314	10297
553.377	10417
553.440	12198
553.503	13132
553.567	14176
553.630	11800
553.693	12029
553.756	10701
553.819	11322
553.882	11049
553.945	10620
554.008	10945
554.071	11319
554.134	11214
554.197	9917
554.260	10330
554.323	11567
554.386	10513
554.449	11152
554.512	11406
554.575	10422
554.638	10940
554.701	10832
554.764	10234
554.827	9538
554.889	9688
554.952	9030
555.015	9317
555.078	8978
555.141	9278
555.203	8637
555.266	9601
555.329	9170
555.391	8146
555.454	7981
555.517	7989
555.580	7777
555.642	7634
555.705	6540
555.768	8345
555.830	7763
555.893	7374
555.955	7530
556.018	7501
556.080	7247
556.143	7633
556.206	7101
556.268	7395
556.330	7031
556.393	7874
556.455	7287
556.518	7219
556.580	7103
556.643	6652
556.705	6291
556.767	5966
556.830	6445
556.892	6372
556.955	7020
557.017	5750
557.079	6116
557.142	5975
557.204	5776
557.266	9583
557.328	6902
557.391	4611
557.453	4642
557.515	5192
557.577	5795
557.639	6095
557.701	5489
557.764	4748
557.826	5079
557.888	6111
557.950	5944
558.012	6086
558.074	10099
558.136	21116
558.198	39264
558.260	12684
558.322	5177
558.384	6546
558.446	7969
558.508	8748
558.570	11535
558.632	16430
558.694	23538
558.756	36004
558.818	100094
558.880	175463
558.942	45345
559.003	41816
559.065	15570
559.127	7678
559.189	9855
559.251	12665
559.312	20515
559.374	47942
559.436	122497
559.498	43077
559.559	8953
559.621	9556
559.683	13892
559.744	23825
559.806	67280
559.868	73790
559.929	12970
559.991	12196
560.052	18027
560.114	43732
560.176	23625
560.237	27976
560.299	33484
560.360	6771
560.422	3476
560.483	4310
560.545	3950
560.606	3702
560.667	3104
560.729	4080
560.790	2565
560.852	4385
560.913	3554
560.974	3916
561.036	3398
561.097	3589
561.158	3729
561.220	3729
561.281	2920
561.342	3193
561.403	4908
561.465	5029
561.526	10840
561.587	10288
561.648	3077
561.709	3847
561.771	3643
561.832	3151
561.893	3100
561.954	3067
562.015	2891
562.076	3091
562.137	3552
562.198	3262
562.259	4097
562.320	3330
562.381	4210
562.442	5172
562.503	3878
562.564	4036
562.625	4000
562.686	3517
562.747	3054
562.808	3712
562.869	3044
562.930	3925
562.991	3975
563.051	3428
563.112	3138
563.173	3633
563.234	2904
563.294	3581
563.355	3497
563.416	3450
563.477	3264
563.537	3504
563.598	3159
563.659	3755
563.720	2727
563.780	3872
563.841	3745
563.901	4191
563.962	3579
564.023	4210
564.083	3545
564.144	4189
564.204	3652
564.265	4126
564.325	4070
564.386	6529
564.446	5322
564.507	3673
564.567	3049
564.628	3890
564.688	3695
564.749	3211
564.809	4272
564.869	4146
564.930	3672
564.990	4396
565.050	3470
565.111	3770
565.171	3143
565.231	3591
565.292	4272
565.352	3770
565.412	3791
565.472	3571
565.532	4123
565.593	3344
565.653	4184
565.713	3930
565.773	4297
565.833	4998
565.893	6443
565.953	4125
566.013	4415
566.074	4837
566.134	6845
566.194	8206
566.254	6394
566.314	6097
566.374	3781
566.434	5403
566.494	5844
566.554	5910
566.614	5745
566.673	5334
566.733	6329
566.793	8354
566.853	7750
566.913	8898
566.973	7298
567.033	8406
567.092	7528
567.152	7305
567.212	8680
567.272	8203
567.331	8298
567.391	9003
567.451	9999
567.511	10412
567.570	9800
567.630	8799
567.690	8726
567.749	8476
567.809	9030
567.868	11064
567.928	11489
567.988	14675
568.047	17582
568.107	21976
568.166	30679
568.226	47144
568.285	56649
568.345	46377
568.404	38423
568.464	33896
568.523	32317
568.582	35804
568.642	39780
568.701	51178
568.761	72671
568.820	103845
568.879	90590
568.939	67343
568.998	50683
569.057	40297
569.116	33394
569.176	27923
569.235	21554
569.294	19746
569.353	15937
569.413	15104
569.472	12843
569.531	11619
569.590	10818
569.649	10481
569.708	9902
569.767	9446
569.827	10319
569.886	9016
569.945	8415
570.004	7688
570.063	7442
570.122	7164
570.181	7333
570.240	7029
570.299	6701
570.358	7900
570.417	6012
570.475	6461
570.534	5594
570.593	7217
570.652	6325
570.711	6633
570.770	6092
570.829	6367
570.887	5387
570.946	6229
571.005	4004
571.064	5387
571.122	5735
571.181	4913
571.240	5344
571.299	4444
571.357	5579
571.416	5648
571.475	6094
571.533	6202
571.592	4924
571.650	5122
571.709	4540
571.768	4603
571.826	5563
571.885	4988
571.943	4475
572.002	5190
572.060	4682
572.119	4523
572.177	4759
572.236	4558
572.294	3818
572.352	4531
572.411	4117
572.469	4636
572.528	4284
572.586	4722
572.644	5213
572.703	7009
572.761	4973
572.819	3702
572.877	4259
572.936	3809
572.994	3885
573.052	4184
573.110	4970
573.169	4729
573.227	4085
573.285	3640
573.343	4195
573.401	4071
573.459	4842
573.517	3801
573.576	4056
573.634	4767
573.692	5524
573.750	4567
573.808	4624
573.866	4128
573.924	5674
573.982	5170
574.040	4580
574.098	4114
574.155	4391
574.213	5273
574.271	4638
574.329	4702
574.387	2682
574.445	3765
574.503	4054
574.560	4259
574.618	4237
574.676	4443
574.734	3571
574.792	4497
574.849	4104
574.907	4086
574.965	4118
575.022	3190
575.080	3622
575.138	5119
575.195	3596
575.253	4477
575.311	4939
575.368	5539
575.426	3498
575.483	4912
575.541	4557
575.598	4660
575.656	5208
575.713	3642
575.771	3799
575.828	4828
575.886	4657
575.943	4794
576.001	4779
576.058	4213
576.115	4014
576.173	4632
576.230	5646
576.287	6417
576.345	5369
576.402	5114
576.459	4667
576.517	4416
576.574	4739
576.631	5674
576.688	4626
576.746	4600
576.803	5065
576.860	4457
576.917	5757
576.974	5652
577.031	5358
577.089	4859
577.146	5448
577.203	4214
577.260	5654
577.317	5789
577.374	5851
577.431	5818
577.488	5078
577.545	4454
577.602	5314
577.659	5371
577.716	5523
577.773	4316
577.830	4960
577.886	6178
577.943	4417
578.000	4830
578.057	5218
578.114	5140
578.171	5630
578.227	5292
578.284	5284
578.341	5493
578.398	5281
578.454	5951
578.511	5608
578.568	5262
578.625	4988
578.681	4817
578.738	4244
578.794	5388
578.851	5381
578.908	5414
578.964	5716
579.021	5615
579.077	5114
579.134	6296
579.190	5098
579.247	5973
579.303	5145
579.360	5294
579.416	4607
579.473	5067
579.529	5493
579.586	5276
579.642	5182
579.698	5166
579.755	5134
579.811	5576
579.867	5386
579.924	5244
579.980	5953
580.036	6239
580.093	5869
580.149	6175
580.205	6557
580.261	6561
580.317	6091
580.374	6401
580.430	7056
580.486	6822
580.542	6408
580.598	5471
580.619	5549
580.654	5681
580.692	5808
580.710	5867
580.765	6000
580.767	6000
580.823	6138
580.838	6039
580.879	5758
580.911	5513
580.935	5322
580.984	5606
580.991	5648
581.047	6947
581.057	6944
581.103	6847
581.130	6805
581.159	6755
581.203	7008
581.215	7083
581.270	6990
581.276	6911
581.326	6102
581.349	6596
581.382	7291
581.422	7556
581.438	7675
581.494	7339
581.494	7343
581.550	7263
581.567	7598
581.606	8290
581.640	7738
581.661	7392
581.713	8392
581.717	8465
581.773	7618
581.786	7589
581.829	7486
581.859	7315
581.885	7219
581.932	8424
581.940	8615
581.996	8179
582.004	8167
582.052	8058
582.077	8097
582.107	8105
582.150	8318
582.163	8419
582.219	8863
582.223	8918
582.274	9514
582.296	9387
582.330	9076
582.368	8716
582.386	8605
582.441	8599
582.441	8593
582.497	8689
582.514	8654
582.552	8810
582.587	9313
582.608	9529
582.659	9460
582.663	9452
582.719	10367
582.732	10281
582.774	10068
582.805	9691
582.830	9413
582.877	9859
582.885	9920
582.941	10785
582.950	10810
582.996	10718
583.023	10879
583.052	11349
583.095	11398
583.107	11340
583.162	11803
583.168	11809
583.218	11563
583.240	11596
583.273	11745
583.313	12040
583.328	12300
583.384	12286
583.385	12292
583.439	11577
583.458	11532
583.494	11899
583.531	12209
583.549	12348
583.603	12106
583.605	12095
583.660	12995
583.676	13099
583.715	13400
583.748	13232
583.770	13227
583.820	13964
583.825	13992
583.881	13973
583.893	13850
583.936	13859
583.965	14333
583.991	14622
584.038	14559
584.046	14566
584.101	14932
584.110	14892
584.156	14868
584.183	15053
584.211	15200
584.255	15234
584.266	15227
584.321	15357
584.328	15405
584.376	16393
584.400	16766
584.431	17104
584.472	17028
584.486	16961
584.541	16472
584.545	16524
584.596	17745
584.617	17955
584.651	18659
584.689	19244
584.706	19348
584.761	19349
584.762	19329
584.816	19475
584.834	19948
584.871	20791
584.906	20881
584.926	21069
584.978	21657
584.980	21696
585.035	21755
585.051	21941
585.090	22937
585.123	24071
585.145	24696
585.195	25172
585.200	25320
585.254	26483
585.267	26955
585.309	28443
585.340	29739
585.364	30777
585.412	33003
585.419	33462
585.473	37404
585.484	38254
585.528	43329
585.556	47887
585.583	58891
585.628	80360
585.637	89572
585.692	160423
585.700	170767
585.747	205839
585.772	195446
585.801	135364
585.845	62925
585.856	56822
585.910	40978
585.917	39126
585.965	37047
585.989	36403
586.019	36397
586.061	36361
586.074	36597
586.128	37415
586.133	37413
586.183	38522
586.205	39040
586.237	39499
586.277	39310
586.292	39552
586.346	40881
586.349	40858
586.401	41706
586.421	42419
586.455	43995
586.493	45047
586.509	46408
586.564	50612
586.565	50668
586.618	58373
586.637	59509
586.672	56885
586.709	53939
586.727	53688
586.781	54693
586.781	54806
586.835	55435
586.853	55499
586.889	55832
586.925	56363
586.944	57188
586.996	59306
586.998	59501
587.052	62115
587.068	62791
587.106	64896
587.140	66314
587.161	67630
587.212	70614
587.215	70912
587.269	74003
587.284	74889
587.323	77746
587.356	79347
587.377	81225
587.427	86421
587.431	86953
587.485	91418
587.499	92333
587.539	96332
587.571	99190
587.593	102204
587.643	109055
587.648	109973
587.702	117198
587.715	118726
587.755	125083
587.786	130094
587.810	135157
587.858	144551
587.864	146171
587.917	159807
587.930	162489
587.971	174579
588.001	183101
588.025	190910
588.073	205940
588.079	208989
588.133	233415
588.145	238397
588.187	261187
588.217	276707
588.241	293259
588.288	325179
588.295	331458
588.348	379038
588.360	388567
588.402	435797
588.431	467932
588.456	505895
588.503	577926
588.510	593080
588.564	707205
588.575	729686
588.617	862222
588.646	951193
588.671	1061162
588.718	1264423
588.725	1303795
588.778	1583436
588.789	1634561
588.832	1718402
588.861	1759714
588.886	1605887
588.932	1274766
588.939	1258671
588.993	1116171
589.004	1094248
589.047	1523407
589.075	1793605
589.100	1824150
589.147	1843874
589.154	1818251
589.207	1565692
589.218	1509507
589.261	1411441
589.290	1341225
589.314	1367654
589.361	1413979
589.368	1441783
589.421	1642037
589.433	1678836
589.475	1711637
589.504	1715014
589.528	1571996
589.576	1258802
589.582	1294777
589.635	1613636
589.647	1674298
589.689	1666938
589.718	1640826
589.742	1478197
589.790	1134323
589.795	1111857
589.849	868233
589.861	809846
589.902	701071
589.932	617260
589.955	575257
590.004	482574
590.009	478301
590.062	416367
590.075	400097
590.115	366194
590.146	338076
590.168	325235
590.218	293670
590.222	292562
590.275	266637
590.289	258990
590.328	245459
590.360	233079
590.381	227046
590.431	210612
590.435	210482
590.488	196824
590.503	192294
590.541	184739
590.574	177357
590.594	174294
590.645	164255
590.647	164490
590.700	156140
590.716	153031
590.753	148427
590.787	143639
590.806	142231
590.859	136313
590.859	136673
590.912	129721
590.930	127076
590.965	125433
591.001	123017
591.018	122303
591.071	118577
591.072	118119
591.124	114366
591.143	112390
591.177	111549
591.214	109877
591.230	109794
591.283	108464
591.285	108006
591.336	104849
591.356	103148
591.389	102026
591.427	99761
591.442	99057
591.495	95246
591.498	94614
591.547	93679
591.569	92737
591.600	92082
591.640	90537
591.653	90480
591.706	88782
591.711	88270
591.759	88608
591.782	88269
591.811	88632
591.853	88401
591.864	88199
591.917	85458
591.924	84730
591.969	83782
591.995	82759
592.022	83253
592.066	83200
592.075	83462
592.127	83139
592.137	82751
592.180	84333
592.208	84833
592.233	83463
592.279	79875
592.285	80010
592.338	78561
592.350	77912
592.390	77000
592.421	75819
592.443	76076
592.491	75691
592.495	75935
592.548	75259
592.562	74780
592.600	74187
592.633	73149
592.653	73265
592.704	72416
592.705	72835
592.775	72794
592.846	71644
592.916	72984
592.987	71776
593.058	71035
593.128	66740
593.199	68799
593.270	67390
593.341	66271
593.411	67230
593.482	67723
593.553	65927
593.623	65845
593.694	66695
593.764	67273
593.835	65021
593.906	64297
593.976	63933
594.047	64452
594.117	68235
594.188	67992
594.258	65153
594.329	62627
594.399	62309
594.470	63554
594.540	63338
594.611	62461
594.681	62698
594.751	61893
594.822	64421
594.892	65103
594.963	65383
595.033	65823
595.103	66836
595.174	67121
595.244	73616
595.314	79290
595.384	67342
595.455	66984
595.525	68892
595.595	69131
595.665	70178
595.736	68375
595.806	68895
595.876	68186
595.946	69133
596.016	69675
596.087	71127
596.157	70666
596.227	71142
596.297	72593
596.367	76374
596.437	78573
596.507	84752
596.577	88518
596.647	80109
596.717	80550
596.787	81405
596.857	80014
596.927	80913
596.997	80400
597.067	81850
597.137	84057
597.207	84560
597.277	83763
597.347	81748
597.417	80682
597.487	81482
597.557	81458
597.626	82721
597.696	84011
597.766	87031
597.836	89876
597.906	78294
597.975	75503
598.045	75495
598.115	77686
598.185	80484
598.254	86964
598.324	94173
598.394	94477
598.464	92971
598.533	90899
598.603	84968
598.672	84276
598.742	85396
598.812	84107
598.881	87329
598.951	84852
599.020	86097
599.090	88540
599.159	90567
599.229	86383
599.299	84369
599.368	87663
599.437	86013
599.507	80670
599.576	79009
599.646	79618
599.715	79423
599.785	78377
599.854	77033
599.924	76785
599.993	76289
600.062	77130
600.132	77211
600.201	80599
600.270	89501
600.340	95371
600.409	91561
600.478	91084
600.547	94384
600.617	87803
600.686	74919
600.755	71508
600.824	68853
600.894	67330
600.963	67182
601.032	65353
601.101	64050
601.170	61875
601.239	62661
601.308	64572
601.378	64331
601.447	61532
601.516	62380
601.585	63333
601.654	66706
601.723	64488
601.792	65833
601.861	66948
601.930	69318
601.999	71441
602.068	69951
602.137	73738
602.206	72559
602.275	72124
602.343	75084
602.412	75705
602.481	71764
602.550	70590
602.619	74078
602.688	74435
602.756	74900
602.825	74026
602.894	76734
602.963	76297
603.032	77086
603.100	76592
603.169	77206
603.238	77316
603.307	77480
603.375	77492
603.444	78694
603.513	79628
603.581	80601
603.650	82084
603.719	77382
603.787	78695
603.856	82560
603.924	82434
603.993	85408
604.061	85776
604.130	88923
604.198	92209
604.267	94040
604.335	93764
604.404	94267
604.472	97365
604.541	97370
604.609	98648
604.678	98447
604.746	99990
604.815	101536
604.883	101304
604.951	101526
605.020	102930
605.088	103105
605.156	103950
605.225	106176
605.293	104960
605.361	106560
605.429	107112
605.498	108949
605.566	111406
605.634	115935
605.702	118595
605.771	121642
605.839	122575
605.907	118894
605.975	115493
606.043	114112
606.111	114781
606.180	115102
606.248	112564
606.316	111578
606.384	115607
606.452	113794
606.520	117838
606.588	117043
606.656	114112
606.724	112914
606.792	106289
606.860	97230
606.928	88296
606.996	85071
607.064	83274
607.132	85603
607.200	88830
607.267	93682
607.335	94260
607.403	97335
607.471	94345
607.539	91065
607.607	93133
607.674	82863
607.742	82114
607.810	82307
607.878	81803
607.946	83720
608.013	86468
608.081	88568
608.149	90510
608.216	90944
608.284	93664
608.352	93076
608.419	92842
608.487	97438
608.555	91556
608.622	91181
608.690	97177
608.757	106708
608.825	109701
608.893	107723
608.960	104357
609.028	102069
609.095	103802
609.163	99198
609.230	88631
609.298	83032
609.365	84774
609.432	92570
609.500	99739
609.567	113021
609.635	128254
609.702	136028
609.769	131160
609.837	106822
609.904	92118
609.971	95518
610.039	108642
610.106	144525
610.173	262689
610.241	594188
610.308	521896
610.375	268642
610.442	126807
610.509	100782
610.577	96483
610.644	96061
610.711	97532
610.778	99224
610.845	99960
610.912	108253
610.980	111159
611.047	110839
611.114	110020
611.181	105429
611.248	102789
611.315	109516
611.382	111282
611.449	115790
611.516	117078
611.583	114181
611.650	115319
611.717	117282
611.784	120375
611.851	125949
611.918	134987
611.984	157448
612.051	217307
612.118	422534
612.185	999634
612.252	692449
612.319	197577
612.386	154301
612.452	139431
612.519	134479
612.586	134411
612.653	134070
612.719	135238
612.786	131396
612.853	122175
612.919	118297
612.986	120882
613.053	113539
613.120	106865
613.186	104726
613.253	105740
613.319	103670
613.386	105857
613.453	109111
613.519	110490
613.586	113051
613.652	123674
613.719	117090
613.785	113397
613.852	108991
613.918	105414
613.985	108820
614.051	114022
614.118	115573
614.184	110359
614.250	107209
614.317	109205
614.383	106655
614.449	109574
614.516	108366
614.582	109950
614.648	108246
614.715	107507
614.781	105641
614.847	105539
614.914	107029
614.980	103726
615.046	102442
615.112	108215
615.179	107590
615.245	114290
615.311	126157
615.377	162888
615.443	177971
615.509	135775
615.575	122863
615.642	118335
615.708	120305
615.774	127584
615.840	139324
615.906	156943
615.972	214927
616.038	364847
616.104	626446
616.170	1209723
616.236	1089527
616.302	293475
616.368	200042
616.434	153007
616.500	138931
616.565	146738
616.631	173462
616.697	152396
616.763	153028
616.829	207022
616.895	347637
616.961	349808
617.026	176253
617.092	124914
617.158	116544
617.224	112431
617.289	106525
617.355	100520
617.421	98547
617.487	100223
617.552	93371
617.618	92938
617.684	93240
617.749	94865
617.815	91313
617.880	88042
617.946	88738
618.012	92132
618.077	93707
618.143	89331
618.208	91210
618.274	97424
618.339	98721
618.405	82410
618.470	82815
618.536	83501
618.601	83970
618.667	77186
618.732	74573
618.798	72148
618.863	72486
618.928	73420
618.994	73579
619.059	77143
619.124	84737
619.190	76800
619.255	72133
619.320	72978
619.386	72081
619.451	70725
619.516	69669
619.581	70851
619.647	72146
619.712	72411
619.777	70008
619.842	70528
619.907	72553
619.972	74078
620.038	71286
620.103	69913
620.168	70414
620.233	71546
620.298	71034
620.363	72897
620.428	73403
620.493	74625
620.558	75275
620.623	76555
620.688	76438
620.753	73595
620.818	76557
620.883	77614
620.948	76461
621.013	75582
621.078	75881
621.143	75728
621.207	78197
621.272	77400
621.337	75278
621.402	77104
621.467	79328
621.532	79338
621.596	77272
621.661	75480
621.726	72723
621.791	74335
621.855	75429
621.920	76249
621.985	75434
622.049	79698
622.114	78247
622.179	76630
622.243	80514
622.308	80960
622.373	85158
622.437	82875
622.502	80435
622.566	77345
622.631	76771
622.695	79629
622.760	79048
622.824	77483
622.889	79586
622.953	82340
623.018	96314
623.082	94494
623.147	83051
623.211	82105
623.276	82449
623.340	77398
623.404	75469
623.469	74923
623.533	76052
623.597	74594
623.662	74668
623.726	69995
623.790	67316
623.854	66441
623.919	67293
623.983	66921
624.047	68216
624.111	68026
624.176	70327
624.240	72302
624.304	75873
624.368	68804
624.432	68857
624.496	71968
624.560	76115
624.625	78217
624.689	74157
624.753	75995
624.817	73234
624.881	71696
624.945	66452
625.009	65949
625.073	66711
625.137	69457
625.201	76836
625.265	75899
625.329	68022
625.393	69317
625.456	68841
625.520	70557
625.584	74180
625.648	77224
625.712	88841
625.776	122213
625.839	128967
625.903	76369
625.967	61011
626.031	76156
626.095	98113
626.158	68606
626.222	53733
626.286	51423
626.349	51509
626.413	47949
626.477	50763
626.540	47373
626.604	48461
626.668	47660
626.731	46155
626.795	47137
626.858	47098
626.922	44929
626.986	46265
627.049	44491
627.113	47784
627.176	45685
627.240	45301
627.303	44244
627.366	44864
627.430	45511
627.493	44956
627.557	44541
627.620	46809
627.684	45792
627.747	46671
627.810	41742
627.874	41460
627.937	38936
628.000	42222
628.064	41093
628.127	36022
628.190	36844
628.253	35538
628.317	34784
628.380	34960
628.443	32833
628.506	34425
628.569	33452
628.632	31274
628.696	31604
628.759	32513
628.822	30230
628.885	30500
628.948	29979
629.011	30838
629.074	30626
629.137	28828
629.200	27727
629.263	31240
629.326	28281
629.389	28174
629.452	28077
629.515	29248
629.578	28878
629.641	29183
629.704	28114
629.767	29994
629.830	27515
629.892	27687
629.955	26806
630.018	29307
630.081	27975
630.144	32981
630.207	27650
630.269	30438
630.332	28666
630.395	27150
630.458	26954
630.520	25385
630.583	26091
630.646	26116
630.708	25987
630.771	24715
630.834	26785
630.896	26179
630.959	25678
631.021	24896
631.084	25734
631.146	27454
631.209	28212
631.272	25487
631.334	25558
631.397	26084
631.459	24920
631.522	27399
631.584	27029
631.646	28695
631.709	29121
631.771	32130
631.834	28952
631.896	27039
631.958	24449
632.021	26048
632.083	24576
632.145	25146
632.208	24105
632.270	25532
632.332	24137
632.395	23927
632.457	25121
632.519	24988
632.581	23744
632.643	22647
632.706	24524
632.768	23674
632.830	23949
632.892	24469
632.954	23321
633.016	24347
633.078	23488
633.141	24179
633.203	24481
633.265	23978
633.327	23419
633.389	23634
633.451	25773
633.513	27471
633.575	26703
633.637	26358
633.698	25399
633.760	24654
633.822	24301
633.884	25005
633.946	24231
634.008	24856
634.070	25050
634.132	26260
634.193	27144
634.255	27891
634.317	27621
634.379	28704
634.441	27391
634.502	25388
634.564	24316
634.626	23920
634.687	22982
634.749	23023
634.811	23047
634.873	21392
634.934	21857
634.996	22987
635.057	22050
635.119	22035
635.181	22517
635.242	23034
635.304	19507
635.365	25131
635.427	21673
635.488	21577
635.550	20262
635.611	22509
635.673	20983
635.734	24864
635.796	23992
635.857	26239
635.918	24694
635.980	27709
636.041	27472
636.102	28285
636.164	28629
636.225	29056
636.286	25450
636.348	24960
636.409	23146
636.470	22436
636.531	22450
636.593	23126
636.654	21720
636.715	20660
636.776	20329
636.838	18832
636.899	20907
636.960	19018
637.021	18534
637.082	19568
637.143	19389
637.204	18646
637.265	18378
637.326	19253
637.387	19419
637.448	17461
637.509	18878
637.570	18534
637.631	19391
637.692	16695
637.753	16494
637.814	18186
637.875	17618
637.936	19132
637.997	16874
638.058	17902
638.119	18629
638.179	17828
638.240	17027
638.301	18263
638.362	17358
638.423	18305
638.483	16903
638.544	15304
638.605	16852
638.666	16152
638.726	17347
638.787	18087
638.848	16305
638.908	15911
638.969	16768
639.030	15875
639.090	15000
639.151	15393
639.211	17519
639.272	20210
639.332	25868
639.393	19076
639.453	17317
639.514	17478
639.574	16483
639.635	15822
639.695	16188
639.756	15158
639.816	16790
639.877	17154
639.937	23169
639.997	26487
640.058	15401
640.118	14603
640.178	15535
640.239	15258
640.299	13817
640.359	14482
640.420	15799
640.480	16695
640.540	17912
640.600	16776
640.661	17539
640.721	16639
640.781	20085
640.841	16998
640.901	16719
640.961	14517
641.021	16168
641.082	16181
641.142	20654
641.202	16932
641.262	13341
641.322	16037
641.382	13513
641.442	15156
641.502	14024
641.562	14961
641.622	13180
641.682	15427
641.742	15309
641.802	15078
641.861	15594
641.921	15121
641.981	15952
642.041	16073
642.101	17333
642.161	14003
642.221	13146
642.280	13094
642.340	12986
642.400	12484
642.460	14529
642.519	14074
642.579	14380
642.639	15535
642.698	11947
642.758	15983
642.818	13671
642.877	14116
642.937	14894
642.997	15301
643.056	20494
643.116	13906
643.175	16671
643.235	14200
643.294	14388
643.354	15355
643.414	16878
643.473	19001
643.532	20779
643.592	27171
643.651	41335
643.711	69658
643.770	136287
643.830	324792
643.889	686994
643.948	173218
644.008	35463
644.067	23619
644.126	18306
644.186	17529
644.245	16223
644.304	13372
644.363	15420
644.423	12268
644.482	13440
644.541	14052
644.600	12780
644.659	16460
644.719	19558
644.778	27051
644.837	42290
644.896	83857
644.955	194906
645.014	66785
645.073	19560
645.132	15307
645.191	15294
645.250	13371
645.309	16077
645.368	15301
645.427	18824
645.486	26808
645.545	43922
645.604	16644
645.663	14071
645.722	14367
645.781	14578
645.840	15566
645.898	19122
645.957	26256
646.016	36110
646.075	65585
646.134	128880
646.192	337257
646.251	502937
646.310	79109
646.369	25739
646.427	21007
646.486	15881
646.545	15067
646.603	12802
646.662	12947
646.721	11819
646.779	11751
646.838	12505
646.896	16022
646.955	18165
647.014	27111
647.072	46682
647.131	123009
647.189	62151
647.248	13410
647.306	11998
647.365	12439
647.423	9702
647.481	12043
647.540	9402
647.598	9421
647.657	10694
647.715	10870
647.773	9704
647.832	10850
647.890	8807
647.948	9388
648.007	10864
648.065	9955
648.123	8874
648.181	11075
648.240	9776
648.298	9036
648.356	8160
648.414	10126
648.472	9298
648.531	10252
648.589	9241
648.647	8888
648.705	9484
648.763	8643
648.821	9395
648.879	10093
648.937	11143
648.995	12508
649.053	13803
649.111	20514
649.169	31485
649.227	55210
649.285	110346
649.343	318596
649.401	155238
649.459	38343
649.516	22991
649.574	12920
649.632	14403
649.690	16058
649.748	15824
649.806	20138
649.863	34093
649.921	87504
649.979	59048
650.037	13138
650.094	9039
650.152	9833
650.210	7438
650.268	9091
650.325	8356
650.383	9415
650.440	7055
650.498	8859
650.556	8462
650.613	7303
650.671	7778
650.728	7599
650.786	8201
650.843	9606
650.901	6756
650.958	8161
651.016	7300
651.073	6839
651.131	7023
651.188	6506
651.246	7772
651.303	6661
651.360	7165
651.418	7435
651.475	7852
651.532	5620
651.590	7253
651.647	6149
651.704	7028
651.762	7073
651.819	7477
651.876	7644
651.933	7171
651.990	8267
652.048	5458
652.105	6324
652.162	7183
652.219	5952
652.276	6710
652.333	6985
652.390	6670
652.448	6756
652.505	6069
652.562	6762
652.619	5949
652.676	6629
652.733	7435
652.790	6367
652.847	4978
652.904	6667
652.961	5192
653.017	5922
653.074	6384
653.131	6472
653.188	5100
653.245	5234
653.302	5454
653.359	5459
653.415	6364
653.472	6364
653.529	7062
653.586	6374
653.642	6048
653.699	6456
653.756	5332
653.813	7038
653.869	6151
653.926	5338
653.983	4759
654.039	6466
654.096	5057
654.152	6744
654.209	4705
654.266	5794
654.322	5537
654.379	6704
654.435	7098
654.492	7092
654.548	7422
654.605	10977
654.661	8108
654.717	5608
654.774	6677
654.830	6098
654.887	5556
654.943	6740
655.000	6692
655.056	6260
655.112	5345
655.168	5592
655.225	5979
655.281	6739
655.337	7213
655.394	9233
655.450	7569
655.506	7365
655.562	9769
655.618	9177
655.675	4348
655.731	6153
655.787	5024
655.843	5841
655.899	4514
655.955	6334
656.011	5812
656.067	4494
656.123	6054
656.179	5207
656.235	6606
656.291	5106
656.347	6603
656.403	5606
656.459	5487
656.515	5558
656.571	5605
656.627	6316
656.683	5560
656.739	7092
656.795	5338
656.850	6086
656.906	6081
656.962	6412
657.018	5607
657.074	5457
657.129	6397
657.185	9090
657.241	14373
657.297	9654
657.352	5966
657.408	5131
657.464	6626
657.519	5334
657.575	5210
657.630	5230
657.686	5615
657.742	4505
657.797	4635
657.853	5645
657.908	6916
657.964	3671
658.019	5170
658.075	5800
658.130	6113
658.186	4130
658.241	5305
658.297	4850
658.352	4491
658.407	5255
658.463	5030
658.518	5253
658.573	5714
658.629	4724
658.684	4562
658.739	6036
658.795	4417
658.850	5072
658.905	3571
658.960	5073
659.016	3725
659.071	5504
659.126	5569
659.181	6192
659.236	8035
659.291	8706
659.346	5854
659.401	6742
659.457	5463
659.512	5665
659.567	6797
659.622	4748
659.677	5162
659.732	5120
659.787	5445
659.842	5600
659.897	5843
659.952	6176
660.007	4371
660.061	4874
660.116	4721
660.171	4312
660.226	4333
660.281	6863
660.336	4614
660.391	5711
660.445	3773
660.500	5371
660.555	4510
660.610	6103
660.664	5695
660.719	4837
660.774	4559
660.828	5207
660.883	4767
660.938	5421
660.992	4023
661.047	5132
661.101	4149
661.156	5129
661.211	3831
661.265	4975
661.320	4331
661.374	5061
661.429	3957
661.483	4760
661.538	3218
661.592	4190
661.647	4168
661.701	5481
661.755	4911
661.810	5280
661.864	3900
661.919	4597
661.973	4874
662.027	4798
662.081	3756
662.136	4888
662.190	5394
662.244	4753
662.299	4348
662.353	4776
662.407	4161
662.461	4964
662.515	5186
662.569	4834
662.624	4582
662.678	4807
662.732	4369
662.786	4043
662.840	4756
662.894	5619
662.948	3661
663.002	5358
663.056	4829
663.110	4204
663.164	4362
663.218	5182
663.272	4529
663.326	4982
663.380	5120
663.434	5695
663.488	4616
663.542	4188
663.595	4708
663.649	5304
663.703	4696
663.757	4981
663.811	4058
663.864	4073
663.918	4967
663.972	4567
664.026	4319
664.079	3920
664.133	4162
664.187	4052
664.240	4764
664.294	4137
664.348	5370
664.401	4211
664.455	4697
664.508	4352
664.562	4350
664.615	4126
664.669	4024
664.722	4632
664.776	3771
664.829	4334
664.883	4102
664.936	4297
664.990	4204
665.043	4835
665.097	4994
665.150	5433
665.203	4176
665.257	4555
665.310	5207
665.363	4641
665.417	4664
665.470	4427
665.523	4832
665.576	5601
665.630	5066
665.683	4618
665.736	4447
665.789	5073
665.842	3604
665.895	4384
665.949	4471
666.002	5066
666.055	3946
666.108	5538
666.161	3756
666.214	5291
666.267	5629
666.320	5987
666.373	5363
666.426	4539
666.479	4560
666.532	4663
666.585	5355
666.638	5512
666.691	5769
666.744	5907
666.796	5335
666.849	5052
666.902	5294
666.955	5007
667.008	4130
667.060	5521
667.113	3870
667.166	4606
667.219	3856
667.271	4737
667.324	5016
667.377	4895
667.430	3827
667.482	5079
667.535	4472
667.587	4876
667.640	4555
667.693	6012
667.745	8280
667.798	8602
667.850	4434
667.903	4120
667.955	5127
668.008	4587
668.060	5295
668.113	5412
668.165	5068
668.218	5541
668.270	5025
668.322	4954
668.375	3567
668.427	5239
668.479	4106
668.532	4875
668.584	4970
668.636	4863
668.689	4813
668.741	5309
668.793	4830
668.845	4148
668.898	4972
668.950	5119
669.002	4368
669.054	4846
669.106	3935
669.158	5683
669.211	4717
669.263	5367
669.315	5535
669.367	5438
669.419	5231
669.471	6514
669.523	6234
669.575	7428
669.627	5940
669.679	5802
669.731	5565
669.783	5389
669.835	6416
669.886	5389
669.938	6299
669.990	6423
670.042	5333
670.094	6891
670.146	7112
670.197	8700
670.249	10354
670.301	12447
670.353	16567
670.404	22558
670.456	31784
670.508	50385
670.560	83972
670.611	143331
670.663	250928
670.715	531291
670.766	684308
670.818	287266
670.869	72719
670.921	36787
670.972	24534
671.024	17702
671.075	13318
671.127	11943
671.178	10368
671.230	8898
671.281	8541
671.333	8007
671.384	7461
671.436	7833
671.487	9413
671.538	10362
671.590	13377
671.641	18832
671.692	28836
671.744	49981
671.795	36443
671.846	16009
671.897	9411
671.949	7142
672.000	5604
672.051	6577
672.102	4998
672.153	4825
672.204	4237
672.256	5439
672.307	5034
672.358	5234
672.409	4706
672.460	4787
672.511	4231
672.562	4860
672.613	4746
672.664	4229
672.715	4682
672.766	4849
672.817	4090
672.868	4180
672.919	3519
672.970	3551
673.021	3208
673.071	3331
673.122	4067
673.173	3866
673.224	3934
673.275	2941
673.326	3804
673.376	3099
673.427	3291
673.478	3671
673.528	3955
673.579	3471
673.630	4257
673.680	4020
673.731	3133
673.782	3320
673.832	3398
673.883	4077
673.934	2955
673.984	3592
674.035	2720
674.085	3689
674.136	3798
674.186	4222
674.237	3774
674.287	5980
674.338	3329
674.388	3898
674.438	3622
674.489	4037
674.539	3792
674.589	3049
674.640	4560
674.690	3298
674.740	3294
674.791	4523
674.841	3474
674.891	4253
674.942	3552
674.992	3248
675.042	2953
675.092	2930
675.142	2607
675.193	3180
675.243	2884
675.293	3538
675.343	3245
675.393	3306
675.443	3439
675.493	3730
675.543	2642
675.593	2688
675.643	3010
675.693	3503
675.743	3133
675.793	4142
675.843	2749
675.893	3783
675.943	2748
675.993	3247
676.043	3423
676.093	3562
676.142	2574
676.192	2920
676.242	2325
676.292	3433
676.341	2970
676.391	3247
676.441	2527
676.491	3212
676.540	2597
676.590	2655
676.640	2976
676.689	3075
676.739	2908
676.789	3129
676.838	2893
676.888	2502
676.937	1994
676.987	2470
677.037	2412
677.086	1732
677.136	2732
677.185	2910
677.235	2377
677.284	1911
677.333	2701
677.383	2085
677.432	1306
677.482	2488
677.531	2718
677.580	2238
677.630	1892
677.679	2644
677.728	1742
677.778	2108
677.827	2917
677.876	2413
677.925	2262
677.975	2358
678.024	2479
678.073	2179
678.122	1636
678.171	2236
678.220	3004
678.269	3200
678.319	2991
678.368	2663
678.417	2385
678.466	2748
678.515	2759
678.564	2933
678.613	1821
678.662	1628
678.711	2820
678.760	2336
678.809	3124
678.857	2710
678.906	1655
678.955	2245
679.004	2242
679.053	2631
679.102	2420
679.151	2117
679.199	1546
679.248	2417
679.297	2673
679.346	2024
679.394	2611
679.443	2339
679.492	1765
679.540	2311
679.589	1504
679.638	2412
679.686	2381
679.735	2361
679.784	2531
679.832	2671
679.881	2062
679.929	2058
679.978	2209
680.026	2355
680.075	2276
680.123	2592
680.172	1999
680.220	3071
680.268	1219
680.317	2325
680.365	1636
680.414	1850
680.462	2090
680.510	2210
680.559	1783
680.607	1784
680.655	1841
680.703	1609
680.752	1152
680.800	1701
680.848	2073
680.896	2184
680.945	1525
680.993	2049
681.041	1060
681.089	1403
681.137	1658
681.185	1849
681.233	1648
681.258	1696
681.281	1687
681.329	1985
681.377	2536
681.380	2584
681.425	2466
681.473	2205
681.502	2183
681.521	2071
681.569	3287
681.617	2836
681.624	2839
681.665	2439
681.713	3064
681.745	3666
681.761	3878
681.809	2570
681.857	4005
681.867	3807
681.904	2895
681.952	3695
681.989	2828
682.000	2506
682.048	3301
682.096	3314
682.111	3436
682.143	3526
682.191	3521
682.233	4546
682.239	4647
682.286	4689
682.334	4816
682.354	4327
682.382	3556
682.430	4748
682.476	4911
682.477	4867
682.525	5107
682.572	4231
682.598	4554
682.620	4792
682.667	5117
682.715	5078
682.720	5150
682.763	5326
682.810	5349
682.841	5099
682.857	4879
682.905	5339
682.952	5636
682.963	5582
683.000	5265
683.047	5959
683.085	6502
683.095	6583
683.142	5849
683.190	5365
683.206	5619
683.237	5971
683.284	7022
683.328	6427
683.332	6339
683.379	6375
683.426	6480
683.449	6796
683.473	7025
683.521	5821
683.568	7403
683.571	7399
683.615	6910
683.662	6925
683.693	7027
683.709	6996
683.757	6979
683.804	7303
683.814	7241
683.851	6935
683.898	7287
683.936	7658
683.945	7707
683.992	7250
684.039	8079
684.057	8089
684.086	8063
684.133	8266
684.179	8222
684.180	8184
684.227	8878
684.274	8647
684.300	8600
684.321	8507
684.368	8783
684.415	8622
684.422	8645
684.462	8559
684.509	8362
684.543	9005
684.556	9219
684.603	8910
684.649	7969
684.665	8266
684.696	8866
684.743	9181
684.786	9983
684.790	10023
684.837	9474
684.883	10315
684.908	10543
684.930	10775
684.977	10709
685.023	11030
685.029	11078
685.070	10794
685.117	9922
685.150	9981
685.164	10095
685.210	11060
685.257	11314
685.272	11269
685.303	10950
685.350	11997
685.393	11248
685.396	11181
685.443	12234
685.490	12064
685.514	12319
685.536	12470
685.583	11928
685.629	11876
685.636	11964
685.675	12096
685.722	11800
685.757	11523
685.768	11504
685.815	11972
685.861	12701
685.878	12849
685.908	13029
685.954	12438
686.000	12851
686.000	12846
686.047	13182
686.093	13970
686.121	13861
686.139	13668
686.185	12842
686.232	13678
686.242	13545
686.278	13068
686.324	13356
686.363	12995
686.370	12916
686.416	12982
686.463	13653
686.484	13575
686.509	13496
686.555	13215
686.601	13427
686.606	13487
686.647	13929
686.693	12817
686.727	13159
686.739	13288
686.785	13150
686.831	13135
686.848	13279
686.877	13484
686.923	13408
686.969	13143
686.969	13141
687.015	13771
687.061	14191
687.090	14749
687.107	14922
687.153	14801
687.199	14709
687.211	14472
687.245	13884
687.291	14487
687.332	14957
687.336	15023
687.382	15064
687.428	14664
687.453	15046
687.474	15179
687.520	15285
687.565	15251
687.574	15111
687.611	14787
687.657	15274
687.695	15213
687.702	15297
687.748	16374
687.794	16936
687.816	17114
687.839	16680
687.885	16567
687.931	15534
687.937	15520
687.976	15996
688.022	15103
688.058	15594
688.067	15696
688.113	15996
688.158	15937
688.179	15784
688.204	15798
688.249	16229
688.295	16518
688.300	16537
688.340	16686
688.386	17254
688.421	16378
688.431	16102
688.477	16636
688.522	17273
688.542	17139
688.567	17093
688.613	16794
688.658	16968
688.663	16933
688.703	16763
688.749	17369
688.784	17328
688.794	17319
688.839	17290
688.884	17572
688.905	17555
688.930	17460
688.975	17072
689.020	17007
689.026	16959
689.065	17131
689.110	17364
689.146	17640
689.155	17675
689.201	17369
689.246	17454
689.267	17580
689.291	17792
689.336	17480
689.381	17568
689.388	17593
689.426	17806
689.471	18132
689.509	17684
689.516	17588
689.561	17342
689.606	17414
689.630	17313
689.651	17521
689.696	17727
689.741	18301
689.750	18358
689.785	18359
689.830	18173
689.871	17551
689.875	17508
689.920	17689
689.965	17828
689.992	17880
690.010	18045
690.054	17415
690.099	18206
690.112	18082
690.144	17705
690.189	17705
690.233	17469
690.233	17492
690.278	17772
690.323	17469
690.354	17546
690.367	17710
690.412	17887
690.457	18469
690.474	18520
690.501	18474
690.546	18596
690.590	18288
690.595	18290
690.635	18683
690.680	18133
690.716	18460
690.724	18609
690.769	18828
690.813	19744
690.836	19559
690.857	19664
690.902	20446
690.946	21388
690.957	21561
690.991	23365
691.035	25489
691.077	27949
691.080	28013
691.124	27615
691.168	27666
691.198	27295
691.213	26585
691.257	25115
691.301	23021
691.318	22212
691.346	21709
691.390	21267
691.434	20141
691.439	20036
691.478	20149
691.522	20594
691.559	20217
691.567	20266
691.611	21122
691.655	21609
691.680	21587
691.699	21279
691.743	20890
691.787	20708
691.800	20522
691.831	20817
691.875	21404
691.919	21563
691.921	21555
691.964	22388
692.008	22701
692.041	22631
692.052	22577
692.096	22298
692.139	22391
692.162	22154
692.183	21963
692.227	22178
692.271	21935
692.282	21839
692.315	21818
692.359	21207
692.402	21596
692.403	21641
692.447	21599
692.490	21380
692.523	21399
692.534	21553
692.578	22268
692.622	22466
692.643	22534
692.666	22312
692.709	21655
692.753	21616
692.763	21440
692.797	21436
692.840	21850
692.884	21870
692.884	21915
692.928	21947
692.971	22380
693.004	22362
693.015	22368
693.059	22233
693.102	22475
693.124	22392
693.146	22426
693.189	22512
693.233	22451
693.245	22558
693.276	23112
693.320	22866
693.363	23188
693.365	23152
693.407	23561
693.450	23690
693.485	23792
693.493	23957
693.537	24642
693.580	25128
693.605	25540
693.624	26214
693.667	27437
693.710	29053
693.725	29382
693.753	32645
693.797	37999
693.840	43401
693.845	43947
693.883	43409
693.926	42396
693.966	41572
693.970	41206
694.013	36752
694.056	32070
694.086	28938
694.099	28687
694.142	27102
694.185	26031
694.206	25461
694.229	25481
694.272	25142
694.315	25086
694.326	24917
694.358	24934
694.401	25184
694.444	25640
694.446	25588
694.487	25587
694.530	25358
694.566	25349
694.573	25263
694.616	24423
694.659	23333
694.686	22734
694.702	22899
694.745	23242
694.787	23343
694.806	23471
694.830	23634
694.873	23376
694.916	23523
694.926	23424
694.959	23193
695.002	23067
695.044	22945
695.046	22888
695.087	23446
695.130	23716
695.166	24042
695.172	24138
695.215	24228
695.258	24542
695.286	24706
695.301	24777
695.343	24641
695.386	24393
695.406	24350
695.428	24450
695.471	24454
695.514	24442
695.526	24354
695.556	24755
695.599	25390
695.641	25858
695.646	25871
695.684	25742
695.726	25138
695.766	24864
695.769	24925
695.811	24774
695.854	24595
695.886	24418
695.896	24473
695.938	24496
695.981	24499
696.005	24440
696.023	24624
696.065	24804
696.108	25148
696.125	25241
696.150	25602
696.192	25918
696.235	26405
696.245	26439
696.277	26118
696.319	25601
696.361	25188
696.365	25068
696.404	25207
696.446	25497
696.485	25735
696.488	25818
696.530	26005
696.572	26178
696.604	26185
696.614	26248
696.656	26250
696.698	26317
696.724	26318
696.740	26324
696.783	26004
696.825	25817
696.844	25717
696.867	25741
696.909	25285
696.951	25115
696.964	24958
696.992	25194
697.034	25515
697.076	25773
697.083	25778
697.118	26199
697.160	26493
697.202	26771
697.203	26706
697.244	26452
697.286	26368
697.323	26081
697.327	26174
697.369	26470
697.411	26698
697.442	26842
697.453	26878
697.494	26684
697.536	26510
697.562	26311
697.578	26367
697.620	26463
697.661	26334
697.682	26275
697.703	26843
697.744	27800
697.786	28833
697.801	29099
697.828	29077
697.869	28929
697.911	28784
697.921	28674
697.952	27947
697.994	26885
698.035	25807
698.040	25609
698.077	26398
698.118	27244
698.160	28041
698.160	27971
698.201	27787
698.243	27540
698.279	27257
698.284	27326
698.325	27289
698.367	27266
698.399	27131
698.408	27237
698.449	27378
698.491	27591
698.518	27619
698.532	27792
698.573	28134
698.614	28482
698.638	28584
698.656	28532
698.697	28252
698.738	27968
698.757	27755
698.779	28070
698.820	28528
698.862	28992
698.877	29089
698.903	29160
698.944	29140
698.985	29115
698.996	29031
699.026	29161
699.067	29232
699.116	29239
699.235	28731
699.354	27169
699.474	28039
699.593	28973
699.713	28197
699.832	27996
699.951	28373
700.070	27195
700.190	26807
700.309	27113
700.428	26124
700.547	27321
700.667	26801
700.786	27567
700.905	25747
701.024	26286
701.143	25497
701.262	25212
701.381	25287
701.500	26096
701.619	27092
701.738	25342
701.857	24646
701.976	25167
702.095	24245
702.214	25516
702.333	26973
702.452	24981
702.571	24623
702.690	25542
702.809	23668
702.928	24014
703.047	24124
703.165	23672
703.284	23159
703.403	23149
703.522	24507
703.640	24563
703.759	25179
703.878	28733
703.997	23820
704.115	22991
704.234	23353
704.353	22795
704.471	22633
704.590	22169
704.708	22060
704.827	21798
704.946	21835
705.064	23352
705.183	22442
705.301	24483
705.420	32500
705.538	29759
705.656	25597
705.775	24524
705.893	27368
706.012	30031
706.130	27098
706.249	26308
706.367	26945
706.485	26760
706.604	26170
706.722	26898
706.840	27809
706.958	30809
707.077	27023
707.195	25476
707.313	25170
707.431	24947
707.549	23381
707.668	25078
707.786	24309
707.904	23760
708.022	23809
708.140	23257
708.258	23665
708.376	24958
708.494	23588
708.612	25088
708.730	31087
708.848	32002
708.966	28807
709.084	27638
709.202	27415
709.320	27905
709.438	27852
709.556	28143
709.674	26988
709.791	26661
709.909	27074
710.027	27080
710.145	26914
710.263	26854
710.380	25171
710.498	25949
710.616	25918
710.733	26144
710.851	24778
710.969	26357
711.086	24856
711.204	25223
711.322	24886
711.439	24640
711.557	25130
711.674	24383
711.792	23242
711.909	23904
712.027	23317
712.144	23526
712.262	24222
712.379	25641
712.497	32876
712.614	33850
712.732	29328
712.849	28370
712.966	27746
713.084	31967
713.201	29065
713.318	29203
713.436	28176
713.553	28917
713.670	28899
713.787	30271
713.905	29750
714.022	28506
714.139	27582
714.256	30775
714.373	34457
714.490	47266
714.608	90953
714.725	344378
714.842	404751
714.959	47318
715.076	29881
715.193	27672
715.310	27176
715.427	25172
715.544	25111
715.661	25255
715.778	24408
715.895	27193
716.011	26346
716.128	25294
716.245	24811
716.362	26075
716.479	26724
716.596	24121
716.713	24800
716.829	23529
716.946	22256
717.063	22732
717.180	21771
717.296	23085
717.413	22870
717.530	22189
717.646	21890
717.763	21721
717.880	20987
717.996	22591
718.113	21400
718.229	21237
718.346	20713
718.462	20278
718.579	23116
718.695	28486
718.812	25445
718.928	23299
719.045	21413
719.161	19814
719.277	20056
719.394	20443
719.510	20830
719.626	20634
719.743	24649
719.859	25469
719.975	36361
720.092	105752
720.208	254916
720.324	44995
720.440	22825
720.557	22629
720.673	25076
720.789	29362
720.905	47333
721.021	26654
721.137	19388
721.253	19449
721.369	19780
721.486	19983
721.602	22908
721.718	18321
721.834	17680
721.950	17964
722.066	18187
722.181	17330
722.297	17661
722.413	17529
722.529	16686
722.645	17473
722.761	16486
722.877	16706
722.993	16888
723.108	17809
723.224	17042
723.340	16729
723.456	15923
723.571	17058
723.687	15789
723.803	16556
723.918	16537
724.034	16127
724.150	15522
724.265	16517
724.381	22640
724.497	27738
724.612	15731
724.728	14810
724.843	15676
724.959	16058
725.074	21465
725.190	24962
725.305	15150
725.421	15216
725.536	14548
725.651	15545
725.767	14391
725.882	14303
725.997	13351
726.113	14100
726.228	14055
726.343	14251
726.459	12908
726.574	14248
726.689	13905
726.804	14244
726.920	13778
727.035	13424
727.150	14067
727.265	12960
727.380	13895
727.495	14283
727.610	12490
727.725	12768
727.841	13669
727.956	14257
728.071	14507
728.186	13503
728.301	12652
728.416	13209
728.531	12693
728.645	12609
728.760	12849
728.875	13692
728.990	12677
729.105	13101
729.220	12863
729.335	13760
729.449	12421
729.564	12557
729.679	12430
729.794	12008
729.908	12586
730.023	12392
730.138	11761
730.253	11431
730.367	10569
730.482	11915
730.596	11874
730.711	13102
730.826	13016
730.940	12852
731.055	12257
731.169	11639
731.284	11373
731.398	12169
731.513	11865
731.627	12078
731.742	12710
731.856	14431
731.970	13163
732.085	13980
732.199	16975
732.313	23425
732.428	46658
732.542	124450
732.656	81662
732.771	20485
732.885	15380
732.999	13798
733.113	14656
733.227	13483
733.342	13238
733.456	12538
733.570	12638
733.684	11481
733.798	12126
733.912	12336
734.026	12245
734.140	11635
734.254	12284
734.368	15158
734.482	16752
734.596	11014
734.710	12097
734.824	12654
734.938	11343
735.052	11035
735.166	12292
735.280	11809
735.393	11549
735.507	10696
735.621	12032
735.735	16847
735.849	13037
735.962	11182
736.076	11178
736.190	10663
736.303	11935
736.417	14076
736.531	10789
736.644	11369
736.758	10011
736.872	10597
736.985	10390
737.099	10032
737.212	9648
737.326	10482
737.439	10100
737.553	10454
737.666	9821
737.780	9306
737.893	9999
738.007	9266
738.120	9086
738.233	10092
738.347	10270
738.460	10278
738.573	10838
738.687	9880
738.800	10038
738.913	11168
739.026	10495
739.140	10012
739.253	8914
739.366	9448
739.479	9344
739.592	8505
739.705	8994
739.818	10470
739.932	9651
740.045	9906
740.158	8510
740.271	9644
740.384	9216
740.497	8575
740.610	10111
740.723	8405
740.836	8999
740.949	9882
741.062	10285
741.174	9756
741.287	8995
741.400	9066
741.513	8674
741.626	9006
741.739	8845
741.851	9181
741.964	8565
742.077	8819
742.189	8031
742.302	9404
742.415	7985
742.527	8452
742.640	7971
742.753	8057
742.865	8053
742.978	8607
743.090	7920
743.203	8473
743.316	8283
743.428	8179
743.541	8021
743.653	7485
743.766	7848
743.878	7969
743.990	8493
744.103	9553
744.215	8356
744.327	8299
744.440	9018
744.552	10858
744.664	9073
744.777	8625
744.889	7439
745.001	8095
745.113	7966
745.226	8484
745.338	8162
745.450	7532
745.562	7196
745.674	7768
745.786	7405
745.898	8165
746.010	8007
746.122	7682
746.234	7900
746.347	7688
746.459	7711
746.570	7809
746.682	7586
746.794	8140
746.906	7356
747.018	7528
747.130	8629
747.242	7387
747.354	7266
747.466	7840
747.577	6912
747.689	7647
747.801	6878
747.913	7208
748.024	6999
748.136	6686
748.248	7304
748.359	6729
748.471	6718
748.583	6927
748.694	6354
748.806	7499
748.918	7724
749.029	8371
749.141	7583
749.252	7843
749.364	7792
749.475	11474
749.587	8638
749.698	6851
749.809	7335
749.921	7297
750.032	6354
750.144	6747
750.255	6699
750.366	6758
750.478	6349
750.589	6536
750.700	6405
750.811	7042
750.923	7929
751.034	11051
751.145	11976
751.256	6871
751.367	6730
751.479	6495
751.590	6535
751.701	7031
751.812	5716
751.923	6435
752.034	6138
752.145	6231
752.256	6046
752.367	6717
752.478	5794
752.589	6934
752.700	6219
752.811	5358
752.922	6207
753.032	5815
753.143	7066
753.254	5795
753.365	5858
753.476	6010
753.586	6235
753.697	5524
753.808	6310
753.919	6395
754.029	5983
754.140	6725
754.251	5666
754.361	6136
754.472	6874
754.582	6583
754.693	5442
754.804	6601
754.914	6098
755.025	5264
755.135	5653
755.246	5852
755.356	5670
755.466	6062
755.577	6795
755.687	5588
755.798	5808
755.908	5382
756.018	5165
756.129	5804
756.239	5805
756.349	5250
756.460	5884
756.570	6295
756.680	5774
756.790	6069
756.900	6372
757.011	6271
757.121	6347
757.231	6073
757.341	5664
757.451	5530
757.561	5005
757.671	4818
757.781	5219
757.891	6477
758.001	5556
758.111	5964
758.221	6349
758.331	6071
758.441	6150
758.551	6800
758.661	6732
758.771	6243
758.880	5771
758.990	6504
759.100	6543
759.210	5969
759.320	6076
759.429	6237
759.539	6821
759.649	6331
759.758	6510
759.868	7641
759.978	5929
760.087	6586
760.197	6616
760.307	7200
760.416	6759
760.526	6565
760.635	7453
760.745	6717
760.854	6625
760.964	6711
761.073	6838
761.182	7055
761.292	7220
761.401	7394
761.511	6469
761.620	6598
761.729	6253
761.839	6054
761.948	5895
762.057	5789
762.166	5972
762.276	6164
762.385	7173
762.494	6086
762.603	6614
762.712	6841
762.822	6710
762.931	6551
763.040	6674
763.149	6552
763.258	6255
763.367	7746
763.476	7468
763.585	6836
763.694	7232
763.803	6896
763.912	7771
764.021	6788
764.130	7328
764.238	7937
764.347	7944
764.456	7830
764.565	7989
764.674	8125
764.783	8391
764.891	8580
765.000	9913
765.109	10366
765.217	11305
765.326	12629
765.435	14584
765.543	16372
765.652	18357
765.761	23296
765.869	31297
765.978	46731
766.086	77273
766.195	141884
766.303	319220
766.412	653278
766.520	619637
766.629	305032
766.737	121145
766.846	66342
766.954	43399
767.062	33327
767.171	25206
767.279	20845
767.387	15871
767.496	15043
767.604	13386
767.712	12186
767.820	11851
767.928	10833
768.037	10627
768.145	10910
768.253	10642
768.361	9442
768.469	9200
768.577	9785
768.685	9864
768.793	11015
768.901	12090
769.009	11914
769.117	13422
769.225	15909
769.333	21860
769.441	32640
769.549	54439
769.657	116254
769.765	318027
769.873	569265
769.981	331102
770.088	96247
770.196	44749
770.304	29277
770.412	21496
770.519	16967
770.627	14602
770.735	12219
770.842	11277
770.950	10955
771.058	9599
771.165	9847
771.273	8600
771.380	9814
771.488	8868
771.595	8285
771.703	7835
771.810	8502
771.918	7655
772.025	8218
772.133	7728
772.240	8442
772.348	8111
772.455	7054
772.562	6851
772.670	7867
772.777	7542
772.884	7072
772.991	7762
773.099	7081
773.206	6571
773.313	8323
773.420	7445
773.528	7150
773.635	6350
773.742	7155
773.849	7354
773.956	7073
774.063	6326
774.170	6374
774.277	7523
774.384	6357
774.491	6577
774.598	6735
774.705	7248
774.812	7530
774.919	6774
775.026	7458
775.133	5951
775.239	6275
775.346	5446
775.453	6187
775.560	6478
775.667	6377
775.773	5443
775.880	6321
775.987	6080
776.093	7368
776.200	6957
776.307	5705
776.413	6628
776.520	6092
776.627	6143
776.733	5505
776.840	4562
776.946	7708
777.053	6408
777.159	7013
777.266	4528
777.372	6784
777.478	5490
777.585	7067
777.691	5753
777.798	5810
777.904	6096
778.010	7671
778.117	5871
778.223	5755
778.329	5852
778.435	5487
778.542	6035
778.648	5395
778.754	5829
778.860	5161
778.966	5159
779.072	6077
779.178	6065
779.284	5059
779.391	5048
779.497	4787
779.603	7129
779.708	5438
779.815	9120
779.920	21309
780.026	50120
780.132	11732
780.238	5550
780.344	4078
780.450	5934
780.556	5035
780.661	4218
780.767	6128
780.873	4749
780.979	5759
781.085	4937
781.190	4488
781.296	4755
781.402	4194
781.507	4571
781.613	5660
781.719	3968
781.824	4756
781.930	5801
782.035	3786
782.141	5286
782.246	4712
782.352	5681
782.457	5380
782.563	4278
782.668	5358
782.773	4661
782.879	5167
782.984	4795
783.090	6292
783.195	6489
783.300	6145
783.405	4634
783.511	5089
783.616	5041
783.721	4839
783.826	4054
783.932	5387
784.037	5143
784.142	4367
784.247	4018
784.352	4914
784.457	4511
784.562	4321
784.667	4452
784.772	4910
784.877	4513
784.982	4601
785.087	4280
785.192	4679
785.297	3650
785.402	3719
785.507	5177
785.611	4632
785.716	4643
785.821	4452
785.926	3583
786.031	4549
786.135	4320
786.240	4394
786.345	3169
786.450	4367
786.554	4236
786.659	3883
786.763	3221
786.868	3973
786.973	5111
787.077	4291
787.182	4299
787.286	4317
787.391	4637
787.495	3904
787.600	4178
787.704	3477
787.809	4611
787.913	3906
788.017	4323
788.122	4743
788.226	4132
788.330	3320
788.435	3851
788.539	3927
788.643	3493
788.747	3289
788.852	3487
788.956	3916
789.060	4207
789.164	3869
789.268	3295
789.372	4086
789.476	3633
789.580	3034
789.684	3431
789.788	4351
789.892	3756
789.996	4482
790.100	3986
790.204	4082
790.308	3549
790.412	3364
790.516	3383
790.620	3055
790.724	4157
790.828	3541
790.931	2948
791.035	4520
791.139	3339
791.242	3323
791.346	4361
791.450	2830
791.554	3590
791.657	3147
791.761	4017
791.864	4199
791.968	3324
792.072	3972
792.175	3715
792.279	3017
792.382	3922
792.486	4090
792.589	3306
792.693	3924
792.796	2412
792.899	4524
793.003	4310
793.106	2368
793.209	3660
793.313	5161
793.416	3627
793.519	4219
793.623	4384
793.726	5729
793.829	3248
793.932	3596
794.035	2810
794.138	4059
794.242	4448
794.345	4143
794.448	4051
794.551	5937
794.654	12661
794.757	25729
794.860	7598
794.963	3968
795.066	2689
795.169	4026
795.272	2989
795.375	3804
795.477	2081
795.580	3279
795.683	2756
795.786	3361
795.889	1728
795.991	4136
796.094	4452
796.197	2766
796.300	4468
796.402	3209
796.505	2663
796.608	2899
796.710	4015
796.813	3123
796.915	2935
797.018	2962
797.120	2758
797.223	2095
797.326	4567
797.428	3238
797.530	1996
797.633	3479
797.735	4478
797.838	4418
797.940	4859
798.042	2834
798.145	2364
798.247	3400
798.349	2772
798.452	3950
798.554	2541
798.656	2687
798.758	2756
798.860	3359
798.962	2671
799.065	2862
799.167	2399
799.269	3973
799.371	3166
799.473	3666
799.575	3192
799.677	2940
799.779	4424
799.881	3584
799.983	4981
800.085	3248
800.187	2305
800.289	2452
800.390	2795
800.492	2929
800.594	4207
800.696	2622
800.798	2928
800.899	3151
801.001	1961
801.103	2672
801.205	2087
801.306	2680
801.408	1917
801.509	2480
801.611	3433
801.713	2241
801.814	2344
801.916	2396
802.017	2183
802.119	1586
802.220	2198
802.322	1426
802.423	4226
802.525	2205
802.626	2258
802.727	3054
802.829	3174
802.930	745
803.031	3608
803.133	3444
803.234	2530
803.335	2426
803.436	1837
803.538	2505
803.639	1452
803.740	3063
803.841	1880
803.942	2718
804.043	2631
804.144	1697
804.245	2415
804.346	2800
804.447	2301
804.548	2769
804.649	3999
804.750	3073
804.851	2259
804.952	1906
805.053	2546
805.154	1947
805.255	3541
805.355	2600
805.456	1832
805.557	1286
805.658	1100
805.758	3103
805.859	2235
805.960	1546
806.061	1354
806.161	1390
806.262	3227
806.362	2047
806.463	2312
806.564	3095
806.664	2345
806.765	2760
806.865	3116
806.966	2364
807.066	2185
807.166	2933
807.267	2906
807.367	1954
807.468	3400
807.568	2234
807.668	2822
807.769	3525
807.869	1671
807.969	2781
808.069	2128
808.170	2302
808.270	2038
808.370	3415
808.470	3110
808.570	2847
808.670	2325
808.770	2322
808.870	2051
808.970	3106
809.070	2334
809.170	1639
809.271	2288
809.370	2233
809.470	2751
809.570	2187
809.670	1838
809.770	2628
809.870	3053
809.970	2303
810.070	2484
810.169	3059
810.269	1208
810.369	3223
810.469	1752
810.568	2397
810.668	1785
810.768	2385
810.867	1921
810.967	1872
811.066	3241
811.166	2451
811.265	2683
811.365	2028
811.464	1511
811.564	2529
811.663	2697
811.763	1359
811.862	3168
811.962	3171
812.061	2943
812.160	2671
812.260	3703
812.359	3478
812.458	5802
812.557	14531
812.657	25032
812.756	10145
812.855	3925
812.954	2991
813.053	3215
813.153	2731
813.252	2047
813.351	3584
813.450	2554
813.549	2699
813.648	2345
813.747	2796
813.846	2582
813.945	2694
814.044	3076
814.143	2432
814.242	3753
814.341	2599
814.439	3459
814.538	3245
814.637	3066
814.736	3114
814.835	4473
814.933	3177
815.032	3903
815.131	4683
815.229	3871
815.328	5166
815.427	4093
815.525	5595
815.624	4298
815.722	3656
815.821	4686
815.919	5268
816.018	4378
816.116	5443
816.215	5991
816.313	5820
816.412	5552
816.510	6357
816.609	7562
816.707	7372
816.805	7474
816.904	7839
817.002	8999
817.100	9885
817.198	11304
817.296	12330
817.395	14569
817.493	16783
817.591	18885
817.689	25024
817.787	33491
817.885	48885
817.983	79716
818.081	143928
818.179	280821
818.277	507333
818.375	491108
818.473	257704
818.571	126672
818.669	82262
818.767	66855
818.865	66012
818.963	74690
819.061	97037
819.158	145164
819.256	247637
819.354	430734
819.452	602219
819.549	522099
819.647	318855
819.745	173910
819.842	104955
819.940	72909
820.038	52600
820.135	40151
820.233	32859
820.330	25827
820.428	21773
820.525	19801
820.623	17061
820.720	14266
820.818	13662
820.915	11990
821.012	11072
821.110	9457
821.207	10222
821.304	8231
821.402	8793
821.499	7810
821.596	7465
821.693	7461
821.791	6553
821.888	7066
821.985	8938
822.082	6835
822.179	6612
822.276	5773
822.373	4838
822.470	4356
822.567	5058
822.664	4169
822.761	4646
822.858	3170
822.955	4665
823.052	3682
823.149	4728
823.246	3986
823.343	3426
823.440	4516
823.536	3396
823.633	4625
823.730	3872
823.827	3829
823.923	3885
824.020	4022
824.117	3335
824.213	2431
824.310	3836
824.407	3422
824.503	3177
824.600	3721
824.696	2973
824.793	3448
824.889	3098
824.986	3173
825.082	2372
825.179	2507
825.275	3130
825.371	3640
825.468	3076
825.564	2427
825.660	2722
825.757	3132
825.853	3870
825.949	2282
826.045	2580
826.142	2067
826.238	2506
826.334	3159
826.430	1578
826.526	2566
826.622	2148
826.718	2184
826.814	2569
826.910	2932
827.006	1465
827.102	1741
827.198	3326
827.294	1180
827.390	2609
827.486	2967
827.582	1231
827.678	936
827.774	3138
827.869	1475
827.965	2529
828.061	2625
828.157	1960
828.252	2442
828.348	2400
828.444	3218
828.539	1461
828.635	2363
828.731	2089
828.826	1455
828.922	2119
829.017	1997
829.113	2573
829.208	835
829.304	1368
829.399	2512
829.495	2216
829.590	2278
829.685	1373
829.781	2668
829.876	2001
829.971	1399
830.066	1831
830.162	1498
830.257	1899
830.352	2542
830.447	2765
830.543	2283
830.638	923
830.733	3284
830.828	2333
830.923	2567
831.018	2432
831.113	2153
831.208	1224
831.303	1307
831.398	2127
831.493	904
831.588	2579
831.683	1289
831.778	1855
831.873	1425
831.967	2425
832.062	1663
832.157	693
832.252	2054
832.346	2312
832.441	2712
832.536	2931
832.631	6023
832.725	5625
832.820	1300
832.914	1928
833.009	1377
833.104	1720
833.198	2403
833.293	1515
833.387	1808
833.482	2024
833.576	1503
833.670	2094
833.765	2093
833.859	1423
833.954	2591
834.048	1844
834.142	2255
834.237	906
834.331	1518
834.425	1829
834.519	1048
834.613	1737
834.708	1692
834.802	1509
834.896	724
834.990	2109
835.084	1081
835.178	1700
835.272	490
835.366	1386
835.460	2027
835.554	1969
835.648	2411
835.742	808
835.836	1748
835.930	802
836.024	1772
836.117	2151
836.211	879
836.305	2139
836.399	2893
836.493	928
836.586	2359
836.680	1461
836.774	1178
836.867	1887
836.961	1566
837.055	1469
837.148	1475
837.242	1056
837.335	704
837.429	1947
837.522	836
837.616	2165
837.709	3094
837.803	2565
837.896	1714
837.989	1775
838.083	1937
838.176	2837
838.269	2914
838.363	2991
838.456	1393
838.549	2465
838.642	2283
838.735	6446
838.829	3455
838.922	770
839.015	1424
839.108	737
839.201	1213
839.294	1588
839.387	1874
839.480	748
839.573	2503
839.666	2543
839.759	1548
839.852	215
839.945	2110
840.038	977
840.131	635
840.223	685
840.316	1368
840.409	760
840.502	749
840.594	2303
840.687	771
840.780	1141
840.873	1171
840.965	1829
841.058	1853
841.150	3552
841.243	2008
841.336	1766
841.428	666
841.521	583
841.613	1236
841.706	957
841.798	179
841.890	1796
841.983	478
842.075	2323
842.167	1095
842.260	1523
842.352	2110
842.444	2511
842.537	3069
842.629	4761
842.721	1222
842.813	1316
842.905	1035
842.997	1386
843.090	1381
843.182	2789
843.274	3242
843.366	6511
843.458	11717
843.550	9107
843.642	2385
843.734	2391
843.826	653
843.918	1766
844.009	1792
844.101	1884
844.193	1066
844.285	1463
844.377	1028
844.469	1232
844.560	1463
844.652	1977
844.744	924
844.835	1369
844.927	1817
845.019	1684
845.110	894
845.202	1508
845.293	1233
845.385	1426
845.476	1329
845.568	1247
845.659	899
845.751	1236
845.842	449
845.934	843
846.025	1090
846.116	1085
846.208	367
846.299	987
846.390	903
846.482	348
846.573	1609
846.664	2113
846.755	1603
846.846	2842
846.937	403
847.029	1574
847.120	684
847.211	463
847.302	1742
847.393	750
847.484	724
847.575	874
847.666	1114
847.757	669
847.847	1095
847.938	2174
848.029	521
848.120	1526
848.211	893
848.302	1153
848.392	835
848.483	1799
848.574	539
848.664	1458
848.755	584
848.846	1567
848.936	1867
849.027	1127
849.118	1257
849.208	36
849.299	1673
849.389	1372
849.480	2392
849.570	4696
849.661	7649
849.751	12999
849.841	5342
849.932	1502
850.022	1719
850.112	1213
850.203	720
850.293	1014
850.383	970
850.474	212
850.564	-265
850.654	1625
850.744	986
850.834	1668
850.924	964
851.014	1825
851.104	769
851.194	729
851.284	1299
851.374	2323
851.464	1539
851.554	1003
851.644	646
851.734	3049
851.824	1371
851.914	1485
852.004	1225
852.094	887
852.183	911
852.273	983
852.363	794
852.452	1050
852.542	970
852.632	741
852.721	1261
852.811	969
852.901	956
852.990	881
853.080	586
853.169	1275
853.259	849
853.348	1240
853.438	1675
853.527	1924
853.617	2116
853.706	4688
853.795	5963
853.885	14251
853.974	26691
854.063	46010
854.152	77827
854.242	33632
854.331	6172
854.420	2355
854.509	1772
854.598	2705
854.687	1752
854.777	1215
854.866	266
854.955	1418
855.044	618
855.133	279
855.222	917
855.311	536
855.400	1247
855.488	1099
855.577	257
855.666	1073
855.755	880
855.844	653
855.933	1202
856.021	1167
856.110	917
856.199	655
856.288	1019
856.376	990
856.465	409
856.554	1151
856.642	142
856.731	521
856.819	642
856.908	712
856.996	1232
857.085	509
857.173	320
857.262	1114
857.350	865
857.438	792
857.527	526
857.615	180
857.703	1176
857.792	362
857.880	-194
857.968	1117
858.056	451
858.145	1175
858.233	1051
858.321	743
858.409	1129
858.497	736
858.585	271
858.673	888
858.761	-266
858.849	770
858.937	524
859.025	723
859.113	935
859.201	684
859.289	1021
859.377	86
859.465	1723
859.552	197
859.640	5
859.728	1216
859.816	193
859.903	907
859.991	702
860.079	593
860.166	-91
860.254	1218
860.342	481
860.429	359
860.517	7
860.604	899
860.692	361
860.779	511
860.867	-155
860.954	503
861.042	728
861.129	1044
861.216	813
861.304	337
861.391	812
861.478	598
861.565	610
861.653	595
861.740	289
861.827	32
861.914	211
862.001	710
862.089	765
862.176	794
862.263	803
862.350	1044
862.437	-588
862.524	918
862.611	-63
862.698	796
862.785	1073
862.871	928
862.958	306
863.045	563
863.132	1229
863.219	329
863.306	405
863.392	1467
863.479	162
863.566	383
863.652	824
863.739	-64
863.826	1245
863.912	1125
863.999	518
864.086	1307
864.172	478
864.259	659
864.345	1171
864.432	1127
864.518	988
864.604	584
864.691	964
864.777	745
864.863	1339
864.950	1428
865.036	834
865.122	2003
865.209	2505
865.295	2122
865.381	2110
865.467	1876
865.553	2170
865.639	1962
865.726	3519
865.812	7633
865.898	14593
865.984	20146
866.070	35254
866.156	41881
866.242	12625
866.328	4155
866.414	962
866.499	2291
866.585	1712
866.671	1237
866.757	1700
866.843	1772
866.928	1208
867.014	1310
867.100	1474
867.186	1246
867.271	1610
867.357	2277
867.442	2045
867.528	1900
867.614	408
867.699	447
867.785	1286
867.870	1349
867.956	1494
868.041	2368
868.127	1248
868.212	1421
868.297	832
868.383	1756
868.468	1968
868.553	3403
868.639	4134
868.724	7040
868.809	7268
868.894	1856
868.979	977
869.065	1752
869.150	-203
869.235	1131
869.320	1502
869.405	944
869.490	564
869.575	1386
869.660	1165
869.745	1391
869.830	890
869.915	894
870.000	94
870.085	597
870.169	1099
870.254	1008
870.339	-224
870.424	1061
870.509	841
870.593	1188
870.678	1818
870.763	894
870.847	832
870.932	460
871.016	1482
871.101	582
871.186	1449
871.270	1623
871.355	-234
871.439	1804
871.523	760
871.608	1111
871.692	605
871.777	1033
871.861	798
871.945	535
872.030	1132
872.114	614
872.198	106
872.282	446
872.367	1356
872.451	322
872.535	698
872.619	807
872.703	43
872.787	504
872.871	451
872.955	458
873.039	178
873.123	231
873.207	971
873.291	1387
873.375	598
873.459	449
873.543	722
873.627	-457
873.711	226
873.794	1192
873.878	720
873.962	-502
874.045	790
874.129	530
874.137	466
874.213	-172
874.245	-8
874.296	263
874.352	152
874.380	95
874.460	-197
874.464	-208
874.547	-219
874.568	139
874.631	1201
874.676	577
874.714	46
874.784	1228
874.798	1466
874.881	1114
874.892	995
874.965	168
874.999	175
875.048	184
875.107	458
875.131	576
875.215	-308
875.215	-307
875.298	633
875.323	466
875.381	62
875.430	112
875.465	157
875.538	583
875.548	635
875.631	840
875.646	753
875.714	321
875.753	298
875.798	340
875.861	718
875.881	813
875.964	39
875.968	61
876.047	486
876.076	471
876.130	420
876.183	362
876.213	390
876.291	1005
876.296	1032
876.379	-13
876.398	119
876.462	616
876.506	206
876.545	-143
876.613	176
876.628	245
876.711	81
876.721	105
876.794	301
876.828	526
876.877	765
876.935	213
876.960	46
877.043	211
877.043	213
877.125	554
877.150	610
877.208	962
877.258	886
877.291	778
877.365	175
877.374	84
877.456	498
877.472	302
877.539	-214
877.579	138
877.622	445
877.687	600
877.704	606
877.787	451
877.794	435
877.869	327
877.901	294
877.952	267
878.008	347
878.034	385
878.115	932
878.117	942
878.199	-216
878.222	-57
878.282	376
878.329	401
878.364	428
878.437	483
878.447	464
878.529	341
878.544	307
878.611	272
878.651	465
878.694	742
878.758	401
878.776	275
878.858	3
878.865	23
878.941	233
878.972	191
879.023	120
879.078	187
879.105	295
879.185	566
879.187	567
879.269	412
879.292	407
879.351	262
879.399	-230
879.433	-471
879.506	164
879.516	243
879.598	284
879.613	132
879.680	-268
879.720	-85
879.762	-146
879.827	-244
879.844	-247
879.926	357
879.933	348
880.007	301
880.040	123
880.089	25
880.147	610
880.171	774
880.253	1991
880.254	1996
880.335	2194
880.360	2319
880.417	3076
880.467	5063
880.499	6037
880.574	6618
880.580	6650
880.662	2118
880.680	1770
880.744	660
880.787	395
880.825	-53
880.893	-204
880.907	-131
880.989	-62
881.000	-52
881.070	24
881.106	93
881.152	62
881.213	47
881.233	101
881.315	501
881.319	508
881.396	285
881.426	135
881.478	164
881.532	331
881.559	266
881.639	-262
881.641	-282
881.722	-646
881.745	-676
881.803	-38
881.852	180
881.885	164
881.958	129
881.966	137
882.047	202
882.064	259
882.129	26
882.171	152
882.210	747
882.277	1313
882.291	1295
882.372	669
882.383	583
882.454	-62
882.489	-283
882.535	-362
882.596	-359
882.616	-361
882.697	-254
882.702	-253
882.778	-322
882.808	-397
882.859	-392
882.914	-167
882.940	-86
883.020	-10
883.021	-11
883.102	-394
883.127	-327
883.183	-82
883.233	-328
883.264	-418
883.339	-117
883.345	-84
883.426	-520
883.445	-327
883.507	585
883.551	754
883.587	320
883.657	-272
883.668	-216
883.749	191
883.763	173
883.830	-459
883.869	-499
883.910	-324
883.975	-275
883.991	-357
884.072	-632
884.081	-646
884.152	-264
884.187	-142
884.233	-78
884.292	-280
884.314	-408
884.394	-611
884.398	-618
884.475	-94
884.504	163
884.555	361
884.610	286
884.636	128
884.716	90
884.716	89
884.797	-157
884.821	-387
884.877	-403
884.927	-131
884.958	-113
885.033	-26
885.038	-27
885.118	-178
885.139	-188
885.199	-123
885.244	-130
885.279	-132
885.350	-13
885.359	6
885.439	-160
885.456	-177
885.520	-320
885.561	-208
885.600	-208
885.667	-440
885.680	-361
885.760	142
885.773	220
885.840	578
885.878	826
885.920	407
885.984	-363
886.000	-268
886.080	272
886.089	322
886.160	-430
886.195	-778
886.240	-651
886.300	-496
886.320	-501
886.400	-334
886.406	-330
886.480	89
886.511	270
886.560	-78
886.616	-584
886.640	-299
886.720	700
886.722	723
886.800	-44
886.827	-261
886.879	-53
886.932	-167
886.959	-157
887.038	293
887.039	290
887.119	-243
887.143	-378
887.198	-68
887.248	197
887.278	258
887.354	363
887.358	360
887.437	328
887.459	332
887.517	370
887.564	275
887.596	78
887.669	-212
887.676	-168
887.755	269
887.774	398
887.835	508
887.880	579
887.914	116
887.985	-942
887.994	-857
888.073	-19
888.090	183
888.153	157
888.195	22
888.232	-83
888.300	-137
888.311	-200
888.391	-773
888.405	-859
888.470	-656
888.510	-568
888.549	-418
888.615	-35
888.628	-28
888.708	-104
888.720	-110
888.787	-531
888.825	-799
888.866	-494
888.930	65
888.945	45
889.024	-83
889.035	-101
889.103	-38
889.140	-4
889.182	-10
889.245	10
889.261	34
889.340	124
889.349	138
889.419	179
889.454	200
889.498	43
889.559	-171
889.577	-177
889.656	-187
889.664	-184
889.735	-282
889.768	-328
889.814	-382
889.873	-443
889.978	-702
890.083	-281
890.187	105
890.292	0
890.397	246
890.501	-91
890.606	-308
890.710	230
890.815	-320
890.919	189
891.024	-714
891.128	123
891.233	426
891.337	441
891.442	-1173
891.546	402
891.650	-987
891.755	213
891.859	322
891.963	339
892.068	-476
892.172	-265
892.276	-108
892.380	-49
892.484	-392
892.589	-79
892.693	-205
892.797	63
892.901	172
893.005	123
893.109	-293
893.213	392
893.317	-680
893.421	276
893.525	137
893.629	372
893.733	-324
893.837	109
893.941	-156
894.045	279
894.148	316
894.252	-387
894.356	-525
894.460	-542
894.564	-607
894.667	-462
894.771	299
894.875	186
894.978	-282
895.082	-918
895.186	-1
895.289	149
895.393	-2
895.496	597
895.600	-259
895.703	210
895.807	-387
895.910	-405
896.014	-322
896.117	85
896.221	632
896.324	-130
896.427	447
896.531	-612
896.634	-130
896.737	547
896.840	-626
896.944	-236
897.047	-183
897.150	-144
897.253	-494
897.356	620
897.460	-391
897.563	-258
897.666	-404
897.769	-21
897.872	138
897.975	-15
898.078	-778
898.181	-113
898.284	88
898.387	519
898.490	225
898.593	-439
898.695	-526
898.798	153
898.901	-324
899.004	519
899.107	-334
899.209	-779
899.312	-480
899.415	-129
899.518	402
899.620	-258
899.723	601
899.826	-363
899.928	472
900.031	-215
900.133	-198
900.236	-916
900.338	-109
900.441	-18
900.543	-465
900.646	-26
900.748	-216
900.851	-250
900.953	-1181
901.055	-61
901.158	-447
901.260	-162
901.362	-295
901.465	-556
901.567	-527
901.669	554
901.771	-223
901.873	-813
901.976	-788
902.078	-480
902.180	-774
902.282	-693
902.384	-321
902.486	7
902.588	138
902.690	429
902.792	-313
902.894	254
902.996	-260
903.098	-234
903.200	-157
903.302	486
903.404	-87
903.505	-976
903.607	-786
903.709	70
903.811	125
903.913	-252
904.014	-899
904.116	-327
904.218	-760
904.319	258
904.421	-101
904.523	66
904.624	-357
904.726	-638
904.827	-83
904.929	-381
905.030	-1134
905.132	-311
905.233	-687
905.335	-732
905.436	-1171
905.537	-287
905.639	-453
905.740	-252
905.841	-1274
905.943	306
906.044	11
906.145	-611
906.247	-571
906.348	-293
906.449	-426
906.550	-490
906.651	-924
906.752	-121
906.854	-1283
906.955	-404
907.056	-173
907.157	-245
907.258	-580
907.359	-489
907.460	-994
907.561	-527
907.662	-580
907.762	-1017
907.863	-203
907.964	-620
908.065	-453
908.166	44
908.267	65
908.367	-730
908.468	-619
908.569	-741
908.670	-785
908.770	-96
908.871	-271
908.971	-296
909.072	-551
909.173	-1025
909.273	-872
909.374	-769
909.474	210
909.575	-805
909.675	-437
909.776	-146
909.876	-671
909.977	-62
910.077	-376
910.177	-389
910.278	-460
910.378	-1048
910.478	-1047
910.579	-94
910.679	-1017
910.779	-1143
910.879	-1437
910.980	-744
911.080	-282
911.180	-226
911.280	-1057
911.380	-911
911.480	-572
911.580	-441
911.680	-209
911.780	-372
911.880	-682
911.980	-373
912.080	-1160
912.180	886
912.280	290
912.380	-481
912.480	-1276
912.580	-1083
912.679	-1282
912.779	21
912.879	-147
912.979	-127
913.078	-1135
913.178	-372
913.278	-163
913.377	-758
913.477	-1213
913.577	-890
913.676	278
913.776	-1151
913.875	-20
913.975	-763
914.074	-721
914.174	-665
914.273	-624
914.373	9
914.472	-1383
914.572	-498
914.671	-1238
914.770	-1292
914.870	-1341
914.969	-498
915.068	-406
915.167	-392
915.267	-652
915.366	-412
915.465	-1306
915.564	-900
915.663	-1273
915.763	-1268
915.862	-356
915.961	-943
916.060	-1094
916.159	-988
916.258	-910
916.357	-556
916.456	-377
916.555	-749
916.654	-1428
916.752	-603
916.851	-863
916.950	-232
917.049	-611
917.148	-721
917.247	-558
917.345	-1352
917.444	-1208
917.543	-397
917.642	-860
917.740	-1149
917.839	-729
917.937	-611
918.036	-150
918.135	-755
918.233	-570
918.332	-1315
918.430	-491
918.529	-1059
918.627	-717
918.726	-990
918.824	-844
918.923	-1215
919.021	-428
919.119	-693
919.218	-1084
919.316	-219
919.414	-1658
919.512	-350
919.611	-1075
919.709	-508
919.807	-1026
919.905	78
920.003	-620
920.102	-1276
920.200	-1561
920.298	-731
920.396	-849
920.494	-470
920.592	-1298
920.690	-900
920.788	-752
920.886	-786
920.984	-485
921.082	-511
921.180	418
921.277	-1000
921.375	-803
921.473	-606
921.571	-817
921.669	-967
921.766	-460
921.864	255
921.962	-250
922.060	-164
922.157	-628
922.255	-333
922.352	-527
922.450	-184
922.548	-1033
922.645	-794
922.743	-1611
922.840	-550
922.938	-816
923.035	-765
923.133	-1343
923.230	-992
923.327	-320
923.425	-230
923.522	-330
923.619	-1149
923.717	-605
923.814	-213
923.911	-968
924.008	-87
924.106	-609
924.203	-817
924.300	-1231
924.397	-604
924.494	-481
924.591	-1541
924.688	-582
924.786	-516
924.883	-1387
924.979	-1350
925.077	-756
925.173	-647
925.270	-999
925.367	-151
925.464	-419
925.561	68
925.658	-458
925.755	-644
925.852	-441
925.948	-28
926.045	-787
926.142	-765
926.239	-1292
926.335	-714
926.432	-720
926.529	-850
926.625	-398
926.722	-1223
926.818	-1186
926.915	-508
927.011	-1424
927.108	-1163
927.204	-1454
927.301	-1533
927.397	-357
927.494	-344
927.590	-906
927.687	-874
927.783	-577
927.879	-304
927.976	-967
928.072	-447
928.168	-315
928.264	-367
928.361	-704
928.457	-346
928.553	-431
928.649	-355
928.745	-1338
928.841	-840
928.937	-610
929.033	-343
929.129	-103
929.225	-984
929.321	-1124
929.417	-682
929.513	-992
929.609	-67
929.705	-957
929.801	-260
929.897	-1031
929.993	-691
930.089	-975
930.184	-349
930.280	-931
930.376	-973
930.471	-1039
930.567	-1050
930.663	-832
930.758	-994
930.854	-1216
930.950	-134
931.045	-1009
931.141	-642
931.236	-691
931.332	-701
931.427	-737
931.523	-712
931.618	-1092
931.714	-416
931.809	-1291
931.905	-659
932.000	-242
932.095	-475
932.191	-1181
932.286	-1235
932.381	-864
932.476	-91
932.572	-1582
932.667	-1020
932.762	-1401
932.857	-458
932.952	-158
933.047	-383
933.142	-235
933.237	-889
933.332	-1105
933.427	-283
933.522	-709
933.617	-758
933.712	-1209
933.807	-534
933.902	-1319
933.997	-462
934.092	-1480
934.187	-917
934.282	-892
934.376	-782
934.471	-947
934.566	-1011
934.661	-665
934.755	-687
934.850	-980
934.945	-1057
935.039	-594
935.134	-253
935.228	-1217
935.323	-276
935.417	-1180
935.512	-747
935.606	-664
935.701	-738
935.795	-798
935.890	-684
935.984	-1159
936.079	-470
936.173	-1156
936.267	-1335
936.362	-830
936.456	-485
936.550	-1336
936.644	-260
936.738	-435
936.833	-721
936.927	-1227
937.021	-1251
937.115	-1161
937.209	-1762
937.303	-266
937.397	-775
937.491	-439
937.585	-591
937.679	-1030
937.773	-987
937.867	-551
937.961	-547
938.055	-121
938.149	-359
938.243	-944
938.337	-403
938.430	-1746
938.524	-198
938.618	-1043
938.712	-715
938.805	-842
938.899	-1336
938.993	-1049
939.086	-669
939.180	-1140
939.274	298
939.367	-1323
939.461	-1077
939.554	-1257
939.648	-376
939.741	-539
939.835	-815
939.928	-1114
940.022	-212
940.115	-936
940.208	-971
940.302	-1229
940.395	-489
940.488	-2167
940.582	11
940.675	-844
940.768	-1284
940.861	-1184
940.954	-556
941.048	-592
941.141	-730
941.234	-448
941.327	-1092
941.420	-1450
941.513	-558
941.606	-1245
941.699	124
941.792	-944
941.885	-875
941.978	-1208
942.071	-366
942.164	-769
942.257	-536
942.349	-759
942.442	-994
942.535	-1368
942.628	-789
942.721	-191
942.813	-1522
942.906	-573
942.999	-565
943.091	-1342
943.184	-977
943.277	-1534
943.369	-399
943.462	-816
943.554	-1023
943.647	-1721
943.739	-579
943.832	-1086
943.924	-1271
944.017	-818
944.109	-1751
944.201	-976
944.294	-221
944.386	-1331
944.478	-902
944.571	-510
944.663	-331
944.755	-1381
944.847	-525
944.940	-1086
945.032	-1093
945.124	-874
945.216	-223
945.308	-939
945.400	-1374
945.492	-1035
945.584	-288
945.676	-580
945.768	234
945.860	-537
945.952	-1227
946.044	-847
946.136	-478
946.228	-1241
946.320	-1502
946.412	-1082
946.503	-1725
946.595	-711
946.687	-1037
946.779	-825
946.870	-484
946.962	-1651
947.054	-1037
947.145	-745
947.237	-514
947.329	-812
947.420	-955
947.512	-846
947.603	-914
947.695	-1730
947.786	-712
947.878	-1487
947.969	-1018
948.061	-805
948.152	-674
948.243	-508
948.335	-574
948.426	-836
948.517	-1767
948.609	-1591
948.700	-1112
948.791	-1248
948.882	-172
948.973	-1152
949.065	-1351
949.156	-1045
949.247	-1112
949.338	-595
949.429	-1137
949.520	-882
949.611	-1389
949.702	-881
949.793	-771
949.884	-795
949.975	-1115
950.066	-713
950.157	-1172
950.247	-944
950.338	-900
950.429	-1136
950.520	-738
950.611	-1401
950.701	-1309
950.792	-1501
950.883	-28
950.973	-1480
951.064	-1300
951.155	-1249
951.245	-1599
951.336	-1594
951.427	-1509
951.517	-358
951.608	-915
951.698	-860
951.788	-824
951.879	-1138
951.969	-941
952.060	-986
952.150	-1816
952.240	-489
952.331	-2266
952.421	128
952.511	-1351
952.602	-1345
952.692	-1172
952.782	-835
952.872	-1170
952.962	-1363
953.052	-1474
953.143	-1093
953.233	-1082
953.323	-616
953.413	-1169
953.503	-1385
953.593	-820
953.683	-1529
953.773	-1491
953.863	-1315
953.953	-1102
954.042	-1762
954.132	-979
954.222	-1190
954.312	-1441
954.402	-1216
954.492	-893
954.581	-1113
954.671	-1197
954.761	-1642
954.850	-712
954.940	-1115
955.030	-1152
955.119	-1123
955.209	-548
955.298	-1510
955.388	-1267
955.477	-837
955.567	-1011
955.656	-442
955.746	-1015
955.835	-1567
955.925	-1392
956.014	-589
956.103	-963
956.193	-392
956.282	-830
956.371	-1333
956.461	-1240
956.550	-1244
956.639	-1192
956.728	-1365
956.817	-732
956.906	-1100
956.995	-1121
957.085	-2195
957.174	-1278
957.263	-1792
957.352	-1531
957.441	-1835
957.530	-1136
957.619	-1011
957.708	-743
957.796	-1794
957.885	-1199
957.974	-898
958.063	-469
958.152	-1896
958.241	-484
958.329	-788
958.418	-1171
958.507	-1480
958.596	-1002
958.684	-1737
958.773	-649
958.861	-1814
958.950	-879
959.039	-1195
959.127	-1313
959.216	-1049
959.304	-1695
959.393	-2187
959.481	-1533
959.570	-1214
959.658	-1269
959.746	-1374
959.835	-745
959.923	-1839
960.011	-1622
960.100	-935
960.188	-2209
960.276	-1665
960.365	-1460
960.453	-1138
960.541	-1077
960.629	-676
960.717	-1666
960.805	-2080
960.893	-1195
960.981	-1734
961.069	-1066
961.158	-1862
961.245	-697
961.333	-1480
961.421	-1163
961.509	-1229
961.597	-1131
961.685	-1407
961.773	-1342
961.861	-1852
961.949	-413
962.036	-1786
962.124	-509
962.212	-1517
962.299	-1456
962.387	-1141
962.475	-1221
962.562	-2706
962.650	-957
962.738	-1117
962.825	-1636
962.913	-1636
963.000	-809
963.088	-1741
963.175	-940
963.263	-1784
963.350	-1214
963.438	-1546
963.525	-524
963.612	-1228
963.700	-1540
963.787	-795
963.874	-1229
963.962	-1094
964.049	-1360
964.136	-1012
964.223	-1519
964.310	-1102
964.398	-1297
964.485	-2364
964.572	-625
964.659	-1652
964.746	-763
964.833	-973
964.920	-765
965.007	-1599
965.094	-1579
965.181	-1781
965.268	-1764
965.355	-1262
965.441	-721
965.528	-1924
965.615	-791
965.702	-1049
965.789	-1796
965.875	-1762
965.962	-1206
966.049	-1133
966.136	-804
966.222	-1290
966.309	-590
966.395	-1507
966.482	-850
966.569	-1631
966.655	-1414
966.742	-1398
966.828	-808
966.915	-1584
967.001	-1167
967.087	-1390
967.174	-986
967.260	-1417
967.347	-1189
967.433	-1302
967.519	-1008
967.605	-1566
967.692	-695
967.778	-1801
967.864	-344
967.950	-1471
968.036	-1181
968.123	-1310
968.209	-946
968.295	-1791
968.381	-259
968.467	-1161
968.553	-1788
968.639	-532
968.725	-2640
968.811	-1252
968.897	-1010
968.983	-968
969.069	-1241
969.154	-1314
969.240	-504
969.326	-1936
969.412	-956
969.497	-1287
969.583	-1754
969.669	-539
969.755	-1457
969.840	-1714
969.926	-1259
970.012	-2378
970.097	-588
970.183	-1698
970.268	-874
970.354	-1497
970.439	-1528
970.525	-905
970.610	-1084
970.696	-614
970.781	-797
970.866	-2292
970.952	-602
971.037	-1984
971.122	-1035
971.208	-801
971.293	-1911
971.378	-1599
971.463	-1191
971.549	-1271
971.634	-1529
971.719	-1286
971.804	-1845
971.889	-897
971.974	-923
972.059	-2275
972.144	-1171
972.229	-1187
972.314	-989
972.399	-1377
972.484	-1690
972.569	-864
972.654	-1653
972.739	-678
972.824	-1195
972.908	-921
972.993	-1184
973.078	-1255
973.163	-1758
973.247	-848
973.332	-1957
973.417	-92
973.501	-1627
973.586	-413
973.671	-1177
973.755	-2556
973.840	-714
973.924	-1234
974.009	-1283
974.093	-1838
974.178	-475
974.262	-1556
974.346	-1406
974.431	-1427
974.515	-655
974.600	-2188
974.684	-892
974.768	-2654
974.852	-1077
974.937	-2538
975.021	-134
975.105	-1302
975.189	-1061
975.273	-946
975.358	-1384
975.442	-1482
975.526	-1376
975.610	-1341
975.694	-1498
975.778	17
975.862	-1070
975.946	-3456
976.030	398
976.114	-1963
976.198	-1103
976.281	-2278
976.365	-1032
976.449	-1374
976.533	-898
976.617	-421
976.700	-1216
976.784	-1514
976.868	-1727
976.951	-681
977.035	-714
977.119	-604
977.202	-229
977.286	-1583
977.369	-1659
977.453	-519
977.536	-1095
977.620	-1819
977.703	-908
977.787	-1900
977.870	-990
977.953	-345
978.037	-1638
978.120	-182
978.203	-1330
978.287	-1781
978.370	-1649
978.453	-1477
978.536	-1155
978.620	-1266
978.703	-1399
978.786	-1087
978.869	-1821
978.952	-2063
979.035	-291
979.118	-1113
979.201	-1590
979.284	-1204
979.367	-1399
979.450	-1538
979.533	-1600
979.616	-749
979.699	-1346
979.782	-1327
979.865	-1999
979.948	-916
980.030	-1810
980.113	-1767
980.196	-1780
980.279	-1017
980.361	-1643
980.444	-2383
980.526	-1119
980.609	-1454
980.692	-1460
980.774	-1300
980.857	-2125
980.939	-390
981.022	-1310
981.104	-1467
981.187	-1429
981.269	-1054
981.352	-1403
981.434	-2210
981.516	-999
981.599	-463
981.681	-725
981.763	-1728
981.846	-1364
981.928	-1212
982.010	-1219
982.092	-1775
982.174	-1269
982.256	-1873
982.339	-457
982.421	-1325
982.503	-1004
982.585	-2259
982.667	-746
982.749	-754
982.831	-1621
982.913	-1622
982.995	-554
983.077	-1518
983.158	-591
983.240	-2591
983.322	-1224
983.404	-1158
983.486	-1652
983.568	-523
983.649	-1358
983.731	-1849
983.813	-1644
983.894	-1333
983.976	-1498
984.058	-1766
984.139	-887
984.221	-2218
984.302	-556
984.384	-1154
984.465	-1336
984.547	-1032
984.628	-2161
984.710	-780
984.791	-977
984.872	-1149
984.954	-1654
985.035	-1083
985.116	-1813
985.198	-1903
985.279	-1350
985.360	-1597
985.441	-681
985.522	-855
985.604	-1080
985.685	-2537
985.766	-432
985.847	-338
985.928	-2789
986.009	-1654
986.090	-1099
986.171	-1987
986.252	-935
986.333	-1556
986.414	-586
986.495	-1680
986.576	-948
986.656	-1790
986.737	-1379
986.818	-2282
986.899	-1923
986.980	-2579
987.060	-810
987.141	-1670
987.222	-807
987.302	-1707
987.383	-1076
987.464	-2360
987.544	-876
987.625	-2176
987.705	-669
987.786	-1092
987.866	-1012
987.947	-1776
988.027	-1362
988.108	-1829
988.188	-426
988.268	-1505
988.349	-1579
988.429	-1602
988.509	-270
988.589	-1168
988.670	-2272
988.750	-410
988.830	-1471
988.910	-2269
988.990	-1879
989.070	-1607
989.151	-1259
989.231	-1641
989.311	-1862
989.391	-1462
989.471	-1540
989.551	-1948
989.631	-1611
989.711	-1203
989.791	-1771
989.870	-1989
989.950	-467
990.030	-1913
990.110	-1491
990.190	-2136
990.269	-1508
990.349	-2079
990.429	-1485
990.509	-1050
990.588	-2048
990.668	-1439
990.747	-1908
990.827	-1456
990.907	-1501
990.986	-2096
991.066	-1574
991.145	-2975
991.225	-728
991.304	-1936
991.383	-1080
991.463	-1663
991.542	-1554
991.622	-1832
991.701	-1435
991.780	-1538
991.859	-1589
991.939	-1659
992.018	-1086
992.097	-1212
992.176	-1370
992.256	-2336
992.335	-2060
992.414	-1284
992.493	-2269
992.572	-1654
992.651	-241
992.730	-2040
992.809	-1141
992.888	-1626
992.967	-1637
993.046	-1542
993.125	-1610
993.203	-1335
993.282	-1343
993.361	-2170
993.440	-1417
993.519	-2366
993.597	-1234
993.676	-1718
993.755	-995
993.834	-1743
993.912	-2312
993.991	-1222
994.069	-1455
994.148	-1804
994.226	-1856
994.305	-1892
994.384	-2610
994.462	-1581
994.540	-2724
994.619	-2691
994.697	-816
994.776	-2093
994.854	-1039
994.932	-2780
995.011	-1014
995.089	-1998
995.167	-1677
995.245	-1741
995.324	-2571
995.402	-971
995.480	-1680
995.558	-1377
995.636	-2063
995.714	-2243
995.792	-651
995.870	-2210
995.948	-2117
996.026	-1247
996.104	-2329
996.182	-1161
996.260	-1639
996.338	-1581
996.416	-1870
996.494	-635
996.572	-213
996.649	-1806
996.727	-1644
996.805	-1277
996.883	-1374
996.960	-2221
997.038	-1664
997.116	-1296
997.193	-2252
997.271	-940
997.348	-1661
997.426	-1375
997.504	-1565
997.581	-1501
997.658	-701
997.736	-2164
997.813	-2418
997.891	-710
997.968	-1375
998.046	-2414
998.123	-1636
998.200	-1860
998.277	-2651
998.355	-1258
998.432	-2520
998.509	-1170
998.586	-1041
998.663	-1797
998.741	-1902
998.818	-1546
998.895	-2230
998.972	-2408
999.049	-906
999.126	-2235
999.203	-1438
999.280	-1790
999.357	-2021
999.434	-1777
999.511	-1206
999.587	-903
999.664	-1908
999.741	-972
999.818	-1543
999.895	-1783
999.971	-1738
1000.048	-1364
1000.125	-837
1000.202	-2097
1000.278	-1398
1000.355	-2163
1000.431	-1597
1000.508	-2057
1000.584	-1260
1000.661	-1264
1000.738	-2033
1000.814	-1849
1000.890	-923
1000.967	-1890
1001.043	-837
1001.120	-2653
1001.196	-1537
1001.272	-2270
1001.349	-1190
1001.425	-868
1001.501	-1247
1001.577	-2409
1001.654	-1281
1001.730	-1839
1001.806	-1517
1001.882	-2101
1001.958	-1573
1002.034	-1082
1002.110	-1809
1002.186	-2023
1002.262	-1432
1002.338	-1675
1002.414	-1447
1002.490	-1617
1002.566	-1580
1002.642	-1773
1002.718	-1729
1002.794	-1260
1002.870	-1738
1002.945	-1879
1003.021	-1296
1003.097	-1731
1003.173	-1660
1003.248	-2521
1003.324	-1324
1003.400	-1962
1003.475	-2345
1003.551	-1134
1003.626	-927
1003.702	-1389
1003.777	-1829
1003.853	-1642
1003.928	-1863
1004.004	-1684
1004.079	-1135
1004.155	-2205
1004.230	-1528
1004.305	-1364
1004.381	-1919
1004.456	-1538
1004.531	-1304
1004.607	-1064
1004.682	-2049
1004.757	-1747
1004.832	-2112
1004.907	-1513
1004.982	-1380
1005.057	-1876
1005.133	-1869
1005.208	-1586
1005.283	-1822
1005.358	-1196
1005.433	-1804
1005.508	-2079
1005.583	-1795
1005.657	-1661
1005.732	-552
1005.807	-1972
1005.882	-1665
1005.957	-1669
1006.032	-1077
1006.106	-1950
1006.181	-1281
1006.256	-1783
1006.331	-1226
1006.405	-1853
1006.480	-1917
1006.554	-1508
1006.629	-1440
1006.704	-1722
1006.778	-1659
1006.853	-1788
1006.927	-1593
1007.002	-2365
1007.076	-1121
1007.150	-2247
1007.225	-1688
1007.299	-1803
1007.373	-1440
1007.448	-1819
1007.522	-901
1007.596	-1259
1007.671	-2302
1007.745	-1735
1007.819	-1829
1007.893	-1592
1007.967	-1359
1008.041	-2212
1008.115	-125
1008.190	-2038
1008.264	-992
1008.338	-2945
1008.412	-1994
1008.486	-2152
1008.560	-1372
1008.633	-2540
1008.707	-1784
1008.781	-2138
1008.855	-1344
1008.929	-1324
1009.003	-1344
1009.076	-1811
1009.150	-2063
1009.224	-2225
1009.298	-1110
1009.371	-2602
1009.445	-1627
1009.519	-1256
1009.592	-2653
1009.666	-1767
1009.739	-1698
1009.813	-2519
1009.886	-999
1009.960	-2470
1010.033	-1433
1010.107	-1390
1010.180	-1830
1010.253	-1728
1010.327	-2797
1010.400	-2490
1010.473	-1391
1010.547	-726
1010.620	-1469
1010.693	-1447
1010.766	-2336
1010.840	-1767
1010.913	-1990
1010.986	-2317
1011.059	-2007
1011.132	-1882
1011.205	-1092
1011.278	-1986
1011.351	-1459
1011.424	-1800
1011.497	-1337
1011.570	-1398
1011.643	-2101
1011.716	-1641
1011.789	-2011
1011.862	-1159
1011.934	-728
1012.007	-2232
1012.080	-1378
1012.153	-2141
1012.225	-1028
1012.298	-1914
1012.371	-1469
1012.443	-1972
1012.516	-2018
1012.588	-1541
1012.661	-1521
1012.733	-1686
1012.806	-1088
1012.879	-1775
1012.951	-1760
1013.023	-1478
1013.096	-1434
1013.168	-1947
1013.241	-1348
1013.313	-1514
1013.385	-2148
1013.458	-1628
1013.530	-1318
1013.602	-2609
1013.674	-1476
1013.746	-2553
1013.819	-2081
1013.891	-1946
1013.963	-2517
1014.035	-2184
1014.107	-1055
1014.179	-2208
1014.251	-3614
1014.323	-1194
1014.395	-1562
1014.467	-1172
1014.539	-1275
1014.611	-1924
1014.683	-1806
1014.754	-2373
1014.826	-2227
1014.898	-1856
1014.970	-2392
1015.042	-996
1015.113	-1679
1015.185	-2025
1015.257	-2431
1015.328	-1625
1015.400	-1741
1015.471	-1428
1015.543	-2195
1015.615	-1259
1015.686	-2368
1015.757	-2061
1015.829	-1165
1015.901	-2141
1015.972	-1621
1016.043	-2590
1016.115	-2336
1016.186	-2456
1016.257	-1123
1016.328	-1784
1016.400	-1462
1016.471	-3186
1016.542	-1574
1016.613	-1939
1016.685	-1560
1016.756	-1503
1016.827	-1564
1016.898	-2116
1016.969	-971
1017.040	-2725
1017.111	-1659
1017.182	-2740
1017.253	-1929
1017.324	-1534
1017.395	-1789
1017.466	-1245
1017.537	-2213
1017.608	-1763
1017.678	-1736
1017.749	-2139
1017.820	-1510
1017.891	-2582
1017.961	-2041
1018.032	-2255
1018.103	-2563
1018.173	-1873
1018.244	-1359
1018.315	-2511
1018.385	-1756
1018.456	-2110
1018.526	-2541
1018.597	-2205
1018.667	-3144
1018.738	-2689
1018.808	-1821
1018.878	-2075
1018.949	-2894
1019.019	-1546
1019.089	-1594
1019.160	-2550
1019.230	-1890
1019.300	-1852
1019.371	-2460
1019.441	-740
1019.511	-2613
1019.581	-2157
1019.651	-2294
1019.721	-2102
1019.791	-1975
1019.861	-2166
1019.931	-1860
1020.001	-2275
1020.071	-2383
1020.141	-2629
1020.211	-2489
1020.281	-2434
1020.351	-1331
1020.421	-2027
1020.491	-1904
1020.560	-2827
1020.630	-1724
1020.700	-1954
1020.770	-2221
1020.839	-2732
1020.909	-2487
1020.979	-2466
1021.048	-2252
1021.118	-2389
1021.187	-2467
1021.257	-2147
1021.326	-1979
1021.396	-2166
1021.465	-1861
1021.535	-1970
1021.604	-3106
1021.674	-1921
1021.743	-2123
1021.812	-2171
1021.882	-3181
1021.951	-2454
1022.020	-2731
1022.089	-1952
1022.159	-2380
1022.228	-2272
1022.297	-2313
1022.366	-2524
1022.435	-1370
1022.504	-2191
1022.573	-2507
1022.642	-1606
1022.711	-2482
1022.781	-2115
1022.849	-2575
1022.918	-2779
1022.987	-1741
1023.056	-2503
1023.125	-1783
1023.194	-2008
1023.263	-1826
1023.331	-1971
1023.400	-1893
1023.469	-2667
1023.538	-2103
1023.606	-2301
1023.675	-2109
1023.744	-3033
1023.812	-2694
1023.881	-2070
1023.949	-2395
1024.018	-2910
1024.086	-2260
1024.155	-2130
1024.223	-2254
1024.292	-2202
1024.360	-1930
1024.429	-2789
1024.497	-2637
1024.565	-2264
1024.634	-2471
1024.702	-2285
1024.770	-2844
1024.838	-3058
1024.907	-2686
1024.975	-2781
1025.043	-2251
1025.111	-2634
1025.179	-1631
1025.247	-2048
1025.315	-1798
1025.383	-1733
1025.451	-1531
1025.519	-3360
1025.587	-2635
1025.655	-2307
1025.723	-2001
1025.791	-2052
1025.859	-1645
1025.927	-1873
1025.995	-2788
1026.062	-2742
1026.130	-1689
1026.198	-2620
1026.266	-2131
1026.333	-2129
1026.401	-1786
1026.469	-2211
1026.536	-1800
1026.604	-2622
1026.671	-1879
1026.739	-2685
1026.806	-2087
1026.874	-3160
1026.941	-3472
1027.009	-2622
1027.076	-2679
1027.144	-2434
1027.211	-2302
1027.278	-2803
1027.345	-1881
1027.413	-2624
1027.480	-2327
1027.547	-3375
1027.614	-2467
1027.682	-2352
1027.749	-2206
1027.816	-2976
1027.883	-2373
1027.950	-2262
1028.017	-2892
1028.084	-2806
1028.151	-2675
1028.218	-2413
1028.285	-2210
1028.352	-2713
1028.419	-1484
1028.486	-3227
1028.553	-2080
1028.619	-2214
1028.686	-1705
1028.753	-3622
1028.820	-2972
1028.886	-2806
1028.953	-2027
1029.020	-2514
1029.086	-2218
1029.153	-2379
1029.220	-3110
1029.286	-2893
1029.353	-2796
1029.419	-2582
1029.486	-1933
1029.552	-2657
1029.619	-2220
1029.685	-3001
1029.751	-3133
1029.818	-1466
1029.884	-2800
1029.951	-1539
1030.017	-2764
1030.083	-2262
1030.149	-2155
1030.216	-3190
1030.282	-2141
1030.348	-2385
1030.414	-2404
1030.480	-2928
1030.546	-2637
1030.612	-2552
1030.678	-2575
1030.744	-2983
1030.810	-2570
1030.876	-2938
1030.942	-2191
1031.008	-3631
1031.074	-2751
1031.140	-2390
1031.206	-2333
1031.272	-2302
1031.337	-2184
1031.403	-2132
1031.469	-2949
1031.534	-1870
1031.600	-2691
1031.666	-2226
1031.731	-2668
1031.797	-2254
1031.863	-2497
1031.928	-3119
1031.994	-2123
1032.059	-2614
1032.125	-2554
1032.190	-2372
1032.256	-2319
1032.321	-3571
1032.386	-2921
1032.452	-2383
1032.517	-1976
1032.582	-2399
1032.647	-2517
1032.713	-2863
1032.778	-2107
1032.843	-2657
1032.908	-1970
1032.974	-2900
1033.039	-3276
1033.104	-2949
1033.169	-2067
1033.234	-2283
1033.299	-2480
1033.364	-2889
1033.429	-2050
1033.494	-2471
1033.559	-2434
1033.624	-2747
1033.688	-1832
1033.753	-2331
1033.818	-2756
1033.883	-2034
1033.948	-2806
1034.013	-2076
1034.077	-2161
1034.142	-2863
1034.207	-2715
1034.271	-1912
1034.336	-1626
1034.400	-2103
1034.465	-2586
1034.530	-2333
1034.594	-2328
1034.658	-2679
1034.723	-2976
1034.787	-2026
1034.852	-1984
1034.916	-2557
1034.981	-2200
1035.045	-2403
1035.109	-2836
1035.173	-2407
1035.238	-1876
1035.302	-2804
1035.366	-2398
1035.430	-1514
1035.495	-2912
1035.559	-2059
1035.623	-2250
1035.687	-2625
1035.751	-2408
1035.815	-2714
1035.879	-2369
1035.943	-2079
1036.007	-1800
1036.071	-2249
1036.135	-1984
1036.198	-2024
1036.262	-2404
1036.326	-1951
1036.390	-2437
1036.454	-1531
1036.517	-2458
1036.581	-2521
1036.645	-2194
1036.709	-2378
1036.772	-2648
1036.836	-2220
1036.900	-2049
1036.963	-1441
1037.026	-1925
1037.090	-2991
1037.154	-2444
1037.217	-2214
1037.280	-2703
1037.344	-2307
1037.407	-2639
1037.471	-2732
1037.534	-2264
1037.597	-2410
1037.661	-2328
1037.724	-2319
1037.787	-2008
1037.850	-2051
1037.913	-1414
1037.977	-1882
1038.040	-2168
1038.103	-2772
1038.166	-1914
1038.229	-2044
1038.292	-2846
1038.355	-2841
1038.418	-2366
1038.481	-2288
1038.544	-2572
1038.607	-2203
1038.670	-2031
1038.732	-2085
1038.795	-2530
1038.858	-1759
1038.921	-1160
1038.984	-2501
1039.046	-2329
1039.109	-3399
1039.172	-2241
1039.234	-2011
1039.297	-2758
1039.360	-1424
1039.422	-1938
1039.485	-2512
1039.547	-2683
1039.610	-2346
1039.672	-2459
1039.734	-2537
1039.797	-2027
1039.859	-2074
1039.922	-2180
1039.984	-2077
1040.046	-2144
1040.109	-2439
1040.171	-2728
1040.233	-2282
1040.295	-1986
1040.358	-2833
1040.420	-1425
1040.482	-2511
1040.544	-2011
1040.606	-1776
1040.668	-2090
1040.730	-2567
1040.792	-1902
1040.854	-1892
1040.916	-2568
1040.978	-2048
1041.040	-1284
1041.102	-3006
1041.164	-2094
1041.225	-2619
1041.287	-1922
1041.349	-2612
1041.411	-1837
1041.472	-2269
1041.534	-1534
1041.596	-2796
1041.657	-1786
1041.719	-2333
1041.781	-1704
1041.842	-1295
1041.904	-1889
1041.965	-2253
1042.027	-1668
1042.088	-1992
1042.150	-1919
1042.211	-2422
1042.272	-2082
1042.334	-2424
1042.395	-2541
1042.456	-2942
1042.518	-1517
1042.579	-1423
1042.640	-2107
1042.701	-1926
1042.763	-1573
1042.824	-2421
1042.885	-2341
1042.946	-2507
1043.007	-2496
1043.068	-2149
1043.129	-1587
1043.190	-1699
1043.251	-1665
1043.312	-2617
1043.373	-2202
1043.434	-2181
1043.495	-1971
1043.556	-1522
1043.616	-2931
1043.677	-1663
1043.738	-2296
1043.799	-2108
1043.859	-2056
1043.920	-2392
1043.981	-1874
1044.041	-2281
1044.102	-1993
1044.162	-2090
1044.223	-1772
1044.284	-1502
1044.344	-2130
1044.405	-2260
1044.465	-1383
1044.525	-2595
1044.586	-1583
1044.646	-2468
1044.707	-2226
1044.767	-1992
1044.827	-1729
1044.887	-2760
1044.948	-1677
1045.008	-2020
1045.068	-2323
1045.128	-1987
1045.188	-2034
1045.249	-1672
1045.309	-1643
1045.369	-1107
1045.429	-2748
1045.489	-1982
1045.549	-2134
1045.609	-2687
1045.669	-1613
1045.729	-2666
1045.789	-1860
1045.848	-2651
1045.908	-1680
1045.968	-1887
1046.028	-1074
1046.088	-2059
1046.147	-1956
1046.207	-1268
1046.267	-1868
1046.326	-2401
1046.386	-1374
1046.446	-1734
1046.505	-2075
1046.565	-643
1046.624	-1777
1046.684	-1171
1046.743	-1165
1046.803	-1403
1046.862	-640
1046.922	0
