'Start Wavelength	183.907
'End Wavelength	1046.922
'Gate Delay	5.000
'Gate Width (ms)	1.050
'Laser Output Level	0.000
'X Position	0.000
'Y Position	0.000
'Z Position	0.000
'Grid Point Number	1.000
'Shot Number	100.000
183.907	383.000
183.977	-347.000
184.047	265
184.116	-134
184.186	-144
184.256	-152
184.325	205
184.395	-1322
184.465	528
184.534	412
184.604	-661
184.674	-311
184.743	-57
184.813	-54
184.883	456
184.952	205
185.022	420
185.092	-8
185.161	89
185.231	287
185.301	-729
185.370	491
185.440	213
185.509	917
185.579	379
185.649	-22
185.718	-232
185.788	586
185.857	-270
185.927	-1065
185.996	277
186.066	-148
186.136	-534
186.205	-410
186.275	-66
186.344	-572
186.414	56
186.483	-41
186.553	785
186.622	435
186.692	375
186.761	-110
186.831	-782
186.900	13
186.970	79
187.039	163
187.109	611
187.178	518
187.248	1082
187.317	178
187.387	-13
187.456	34
187.526	-416
187.595	495
187.664	244
187.734	-102
187.803	149
187.873	1019
187.942	127
188.012	-28
188.081	200
188.150	-438
188.220	645
188.289	-132
188.358	-94
188.428	191
188.497	78
188.567	428
188.636	-133
188.705	-624
188.775	-78
188.844	-152
188.913	266
188.983	193
189.052	-169
189.121	-65
189.191	-497
189.260	31
189.329	9
189.399	450
189.468	10
189.537	-296
189.606	116
189.676	-22
189.745	320
189.814	315
189.883	-155
189.953	-57
190.022	255
190.091	317
190.161	247
190.230	1023
190.299	-49
190.368	-222
190.437	267
190.507	-348
190.576	-324
190.645	512
190.714	335
190.783	-443
190.853	281
190.922	592
190.991	-42
191.060	116
191.129	-307
191.198	285
191.268	-129
191.337	-434
191.406	158
191.475	54
191.544	-101
191.613	-427
191.682	-371
191.752	27
191.821	-489
191.890	-76
191.959	557
192.028	128
192.097	211
192.166	512
192.235	-256
192.304	-174
192.373	-180
192.442	692
192.511	-38
192.580	-390
192.650	-148
192.719	-136
192.788	124
192.857	556
192.926	148
192.995	440
193.064	-174
193.133	564
193.202	884
193.271	787
193.340	287
193.409	366
193.478	349
193.547	748
193.615	-196
193.684	964
193.753	365
193.822	688
193.891	619
193.960	739
194.029	-253
194.098	425
194.167	-151
194.236	561
194.305	-393
194.374	-15
194.443	-703
194.512	-743
194.580	1065
194.649	211
194.718	649
194.787	-590
194.856	576
194.925	951
194.994	25
195.062	354
195.131	-83
195.200	-62
195.269	966
195.338	513
195.407	-268
195.475	-1039
195.544	356
195.613	683
195.682	387
195.751	563
195.819	611
195.888	449
195.957	497
196.026	-211
196.094	519
196.163	425
196.232	319
196.301	526
196.369	362
196.438	-65
196.507	844
196.576	379
196.644	-293
196.713	-722
196.782	-585
196.850	1303
196.919	191
196.988	-256
197.056	-516
197.125	892
197.194	369
197.262	-18
197.331	115
197.400	465
197.468	-69
197.537	321
197.606	153
197.674	211
197.743	181
197.812	108
197.880	1112
197.949	-145
198.017	715
198.086	244
198.155	-435
198.223	891
198.292	639
198.360	83
198.429	214
198.497	-256
198.566	820
198.635	520
198.703	278
198.772	789
198.840	316
198.909	815
198.977	-280
199.046	213
199.114	157
199.183	755
199.251	649
199.320	330
199.388	334
199.457	87
199.525	-460
199.594	401
199.662	-543
199.731	-49
199.799	-292
199.867	149
199.936	-346
200.004	108
200.073	846
200.141	165
200.210	89
200.278	170
200.346	325
200.415	-16
200.483	-132
200.552	132
200.620	39
200.688	-42
200.757	-763
200.825	-36
200.893	116
200.962	99
201.030	185
201.098	-192
201.167	355
201.235	284
201.303	640
201.372	73
201.440	614
201.508	351
201.577	268
201.645	-126
201.713	-64
201.781	107
201.850	653
201.918	112
201.986	727
202.055	474
202.123	288
202.191	109
202.259	540
202.327	-134
202.396	109
202.464	485
202.532	868
202.600	2279
202.669	835
202.737	-760
202.805	119
202.873	97
202.941	-255
203.009	-184
203.078	90
203.146	189
203.214	142
203.282	338
203.350	796
203.418	-25
203.487	325
203.555	-298
203.623	1197
203.691	913
203.759	-353
203.827	601
203.895	-301
203.963	-126
204.031	-111
204.099	-561
204.168	113
204.236	797
204.304	123
204.372	611
204.440	364
204.508	-176
204.576	-516
204.644	715
204.712	-569
204.780	367
204.848	908
204.916	452
204.984	646
205.052	69
205.120	355
205.188	145
205.256	-532
205.324	21
205.392	-229
205.460	-210
205.528	-215
205.596	197
205.664	358
205.732	-121
205.799	1397
205.867	1595
205.935	310
206.003	1146
206.071	-220
206.139	286
206.207	750
206.275	-270
206.343	-74
206.411	664
206.478	862
206.546	600
206.614	458
206.682	-120
206.750	56
206.818	635
206.885	227
206.953	-13
207.021	783
207.089	31
207.157	87
207.225	35
207.292	-149
207.360	156
207.428	520
207.496	-440
207.563	-274
207.631	543
207.699	75
207.767	679
207.834	-477
207.902	357
207.970	393
208.038	429
208.105	43
208.173	675
208.241	547
208.309	444
208.376	612
208.444	1182
208.512	341
208.579	-541
208.647	1217
208.715	581
208.782	331
208.850	348
208.918	-190
208.985	1132
209.053	285
209.120	512
209.188	64
209.256	564
209.323	741
209.391	903
209.459	1789
209.526	647
209.594	259
209.661	-5
209.729	-87
209.796	868
209.864	128
209.932	-118
209.999	1308
210.067	814
210.134	644
210.202	305
210.269	857
210.337	1180
210.404	-122
210.472	840
210.539	696
210.607	739
210.674	311
210.742	770
210.809	528
210.877	634
210.944	870
211.012	-97
211.079	1477
211.146	721
211.214	475
211.281	526
211.349	722
211.416	682
211.484	1447
211.551	295
211.618	499
211.686	792
211.753	362
211.821	339
211.888	580
211.955	386
212.023	939
212.090	644
212.157	-294
212.225	313
212.292	722
212.359	1754
212.427	5493
212.494	2294
212.561	940
212.629	528
212.696	-347
212.763	894
212.831	10
212.898	1024
212.965	448
213.032	350
213.100	514
213.167	150
213.234	708
213.301	781
213.369	555
213.436	895
213.503	301
213.570	1551
213.638	823
213.705	33
213.772	-121
213.839	663
213.906	1449
213.973	1059
214.041	125
214.108	574
214.175	822
214.242	385
214.309	523
214.376	434
214.444	787
214.511	361
214.578	249
214.645	1243
214.712	475
214.779	738
214.846	-276
214.913	1064
214.980	967
215.048	1165
215.115	589
215.182	527
215.249	629
215.316	1243
215.383	1175
215.450	971
215.517	417
215.584	1004
215.651	300
215.718	453
215.785	780
215.852	831
215.919	1193
215.986	627
216.053	344
216.120	-17
216.187	955
216.254	1012
216.321	-484
216.388	602
216.455	856
216.522	1032
216.589	810
216.656	2043
216.722	1713
216.789	871
216.856	1231
216.923	2033
216.990	1495
217.057	922
217.124	1074
217.191	1029
217.258	2025
217.324	2048
217.391	2437
217.458	1220
217.525	922
217.592	875
217.659	15
217.725	1237
217.792	1634
217.859	920
217.926	527
217.993	121
218.059	1615
218.126	168
218.193	712
218.260	270
218.327	-47
218.393	461
218.460	609
218.527	600
218.594	84
218.660	1839
218.727	1974
218.794	-47
218.860	181
218.927	864
218.994	537
219.061	-31
219.127	86
219.194	1412
219.261	646
219.327	748
219.394	1121
219.461	-120
219.527	664
219.594	1002
219.661	684
219.727	-208
219.794	290
219.860	-312
219.927	552
219.994	1174
220.060	2658
220.127	1839
220.193	949
220.260	634
220.326	1077
220.393	2059
220.460	4217
220.526	1663
220.593	1055
220.659	1710
220.726	1174
220.792	3033
220.859	2024
220.925	4105
220.992	6379
221.058	4838
221.125	4869
221.191	3531
221.258	1471
221.324	1731
221.391	99
221.457	29
221.524	291
221.590	1024
221.657	3150
221.723	941
221.789	1779
221.856	2855
221.922	-130
221.989	1747
222.055	309
222.121	674
222.188	2014
222.254	847
222.321	469
222.387	16
222.453	341
222.520	135
222.586	-381
222.652	55
222.719	220
222.785	1139
222.851	1139
222.918	233
222.984	7
223.050	1186
223.116	-348
223.183	1517
223.249	-578
223.315	28
223.382	462
223.448	637
223.514	383
223.580	699
223.647	-86
223.713	321
223.779	474
223.845	521
223.911	-113
223.978	-567
224.044	252
224.110	-215
224.176	272
224.242	531
224.309	-27
224.375	884
224.441	-67
224.507	-228
224.573	-36
224.639	813
224.705	-15
224.772	935
224.838	-270
224.904	348
224.970	700
225.036	868
225.102	-632
225.168	441
225.234	934
225.300	256
225.366	1091
225.432	372
225.499	432
225.565	955
225.631	312
225.697	1150
225.763	1015
225.829	1309
225.895	1151
225.961	1864
226.027	843
226.093	503
226.159	1954
226.225	2050
226.291	5650
226.357	9546
226.423	4232
226.489	1397
226.554	1409
226.620	916
226.686	1715
226.752	2625
226.818	4025
226.884	11897
226.950	10267
227.016	3441
227.082	1921
227.148	865
227.214	1187
227.279	1776
227.345	1402
227.411	556
227.477	835
227.543	2793
227.609	2129
227.674	822
227.740	720
227.806	747
227.872	295
227.938	356
228.003	1402
228.069	195
228.135	379
228.201	409
228.267	286
228.332	919
228.398	803
228.464	813
228.530	-483
228.595	1267
228.661	93
228.727	1308
228.792	1974
228.858	736
228.924	-580
228.990	1230
229.055	-376
229.121	904
229.187	606
229.252	419
229.318	742
229.384	589
229.449	888
229.515	-1169
229.581	-288
229.646	1528
229.712	1052
229.777	2621
229.843	1589
229.909	2058
229.974	1951
230.040	1145
230.105	921
230.171	312
230.236	1112
230.302	2008
230.368	1879
230.433	809
230.499	317
230.564	1359
230.630	289
230.695	552
230.761	1343
230.826	-126
230.892	2064
230.957	360
231.023	562
231.088	1055
231.154	466
231.219	1086
231.284	522
231.350	1753
231.415	-97
231.481	891
231.546	838
231.612	190
231.677	492
231.742	-308
231.808	1446
231.873	390
231.939	-736
232.004	2669
232.069	2097
232.135	-338
232.200	85
232.265	608
232.331	-329
232.396	500
232.461	-341
232.527	-480
232.592	-1073
232.657	573
232.723	822
232.788	24
232.853	504
232.918	704
232.984	-820
233.049	538
233.114	484
233.179	1143
233.245	1203
233.310	2087
233.375	165
233.440	364
233.506	122
233.571	-475
233.636	169
233.701	584
233.766	1036
233.832	814
233.897	-466
233.962	470
234.027	2124
234.092	449
234.157	785
234.222	576
234.288	1092
234.353	3595
234.418	3359
234.483	1911
234.548	2255
234.613	1208
234.678	1046
234.743	-374
234.808	3693
234.873	1468
234.938	1640
235.004	763
235.069	1070
235.134	151
235.199	1364
235.264	506
235.329	67
235.394	1749
235.459	1015
235.524	272
235.589	732
235.654	373
235.719	-970
235.784	957
235.849	810
235.913	2618
235.978	1693
236.043	2192
236.108	1042
236.173	180
236.238	1420
236.303	-271
236.368	81
236.433	1539
236.498	2065
236.563	2010
236.627	3208
236.692	14347
236.757	10913
236.822	3692
236.887	1906
236.952	2178
237.017	600
237.081	2627
237.146	1673
237.211	6118
237.276	13900
237.341	25215
237.405	9643
237.470	3127
237.535	2643
237.600	1584
237.664	1769
237.729	828
237.794	1028
237.859	3840
237.923	2173
237.988	670
238.053	2026
238.118	2217
238.182	5390
238.247	5083
238.312	1210
238.376	1932
238.441	25
238.506	1726
238.570	-234
238.635	1473
238.700	794
238.764	527
238.829	2094
238.893	1860
238.958	1919
239.023	1726
239.087	539
239.152	1738
239.216	-203
239.281	972
239.346	740
239.410	1289
239.475	193
239.539	5423
239.604	3183
239.668	1258
239.733	900
239.797	1243
239.862	3233
239.926	3535
239.991	1869
240.055	887
240.120	59
240.184	1010
240.249	830
240.313	269
240.378	757
240.442	2825
240.507	4310
240.571	1600
240.635	2364
240.700	3020
240.764	477
240.829	693
240.893	2
240.957	1028
241.022	3447
241.086	6378
241.151	1032
241.215	539
241.279	1542
241.344	1926
241.408	1073
241.472	513
241.537	1957
241.601	1588
241.665	-234
241.730	1053
241.794	1470
241.858	872
241.922	592
241.987	1472
242.051	152
242.115	399
242.179	326
242.244	586
242.308	1363
242.372	1122
242.436	473
242.501	893
242.565	863
242.629	1115
242.693	1507
242.757	109
242.822	669
242.886	872
242.950	1524
243.014	334
243.078	1506
243.142	1549
243.206	453
243.271	1969
243.335	512
243.399	1573
243.463	5629
243.527	18600
243.591	5149
243.655	2307
243.719	555
243.783	2749
243.847	2708
243.911	3477
243.975	3940
244.040	2263
244.104	1931
244.168	1025
244.232	1463
244.296	2512
244.360	3202
244.424	1692
244.488	1103
244.552	1292
244.615	-428
244.679	706
244.743	1276
244.807	1831
244.871	405
244.935	1537
244.999	-197
245.063	259
245.127	1904
245.191	2131
245.255	2702
245.319	1739
245.383	344
245.446	1906
245.510	767
245.574	1248
245.638	1391
245.702	756
245.766	5126
245.829	3614
245.893	410
245.957	559
246.021	1349
246.085	768
246.149	1713
246.212	5732
246.276	7962
246.340	2908
246.404	2433
246.467	2315
246.531	2328
246.595	2145
246.659	1486
246.722	1378
246.786	2570
246.850	3123
246.913	3451
246.977	1183
247.041	1398
247.104	2408
247.168	1383
247.232	4360
247.295	11995
247.359	5004
247.423	2590
247.486	4741
247.550	3233
247.614	2192
247.677	2935
247.741	1798
247.804	522
247.868	1644
247.932	3755
247.995	11013
248.059	2768
248.122	843
248.186	2836
248.249	3412
248.313	17708
248.376	19122
248.440	10638
248.503	2844
248.567	3891
248.630	4087
248.694	7512
248.757	8852
248.821	19919
248.884	11271
248.948	8792
249.011	14151
249.075	22321
249.138	18886
249.202	6095
249.265	3558
249.328	4194
249.392	1972
249.455	3915
249.519	2185
249.582	3252
249.645	5505
249.709	3232
249.772	2221
249.835	2425
249.899	1987
249.962	2346
250.025	910
250.089	5819
250.152	8942
250.215	4051
250.279	1950
250.342	3317
250.405	2333
250.468	1789
250.532	3565
250.595	4145
250.658	17182
250.721	28965
250.785	9576
250.848	6636
250.911	2852
250.974	2501
251.038	3907
251.101	11644
251.164	4888
251.227	4851
251.290	3992
251.354	6186
251.417	24716
251.480	23633
251.543	14563
251.606	45274
251.669	32002
251.732	11432
251.795	13237
251.859	13068
251.922	28505
251.985	16665
252.048	6324
252.111	4315
252.174	3768
252.237	8721
252.300	22768
252.363	20076
252.426	41012
252.489	15349
252.552	7600
252.615	4711
252.678	5473
252.741	15223
252.804	17780
252.867	38470
252.930	25108
252.993	12311
253.056	7748
253.119	5010
253.182	3502
253.245	5041
253.308	5408
253.371	4613
253.434	3795
253.497	4897
253.559	10824
253.622	6718
253.685	6940
253.748	7983
253.811	2706
253.874	4324
253.937	3425
254.000	3320
254.062	7091
254.125	10428
254.188	8602
254.251	7466
254.314	2902
254.376	5576
254.439	7681
254.502	6379
254.565	6908
254.628	12546
254.690	7403
254.753	3776
254.816	2869
254.878	2290
254.941	7212
255.004	7842
255.067	3022
255.129	2730
255.192	2207
255.255	605
255.317	3011
255.380	1829
255.443	666
255.505	688
255.568	1165
255.631	-4
255.693	1339
255.756	159
255.819	1124
255.881	752
255.944	729
256.006	1016
256.069	747
256.132	635
256.194	1830
256.257	4008
256.319	2817
256.382	1952
256.444	2159
256.507	1213
256.569	918
256.632	756
256.694	2074
256.757	8065
256.819	23538
256.882	7798
256.944	2835
257.007	3233
257.069	2316
257.132	1551
257.194	2505
257.257	1288
257.319	895
257.381	869
257.444	4402
257.506	26951
257.569	28159
257.631	13260
257.693	7573
257.756	3481
257.818	2148
257.880	1055
257.943	2573
258.005	768
258.067	490
258.130	1478
258.192	1051
258.254	4459
258.317	1961
258.379	1552
258.441	5273
258.503	5643
258.566	5509
258.628	8065
258.690	1585
258.753	2185
258.815	4115
258.877	2225
258.939	1913
259.001	1643
259.064	859
259.126	265
259.188	1703
259.250	1921
259.312	2387
259.375	5227
259.437	3534
259.499	1404
259.561	1158
259.623	1558
259.685	1276
259.747	1664
259.809	5247
259.872	9783
259.934	15836
259.996	14113
260.058	3809
260.120	1329
260.182	1473
260.244	1387
260.306	665
260.368	1553
260.430	215
260.492	2699
260.554	6073
260.616	4311
260.678	9261
260.740	12153
260.802	2670
260.864	2562
260.926	846
260.988	2227
261.050	927
261.112	3503
261.174	11558
261.236	7878
261.298	2525
261.359	4659
261.421	6669
261.483	1652
261.545	1647
261.607	-73
261.669	1429
261.731	2173
261.793	7527
261.854	2945
261.916	2597
261.978	1485
262.040	1801
262.102	1931
262.164	1932
262.225	2508
262.287	2040
262.349	5232
262.411	4336
262.472	2130
262.534	2858
262.596	7112
262.658	2277
262.719	182
262.781	2352
262.843	4498
262.904	2921
262.966	1535
263.028	1370
263.090	10283
263.151	28353
263.213	9057
263.275	4893
263.336	1875
263.398	1269
263.459	523
263.521	1710
263.583	4684
263.644	3456
263.706	97
263.767	-289
263.829	759
263.891	-83
263.952	-123
264.014	60
264.075	1437
264.137	4173
264.198	2326
264.260	828
264.321	110
264.383	3597
264.444	7491
264.506	2183
264.567	1812
264.629	2809
264.690	4383
264.752	2077
264.813	1129
264.875	554
264.936	1426
264.998	200
265.059	-52
265.120	592
265.182	1872
265.243	11531
265.305	11089
265.366	2804
265.427	1117
265.489	1403
265.550	-331
265.611	1274
265.673	320
265.734	560
265.795	870
265.857	48
265.918	544
265.979	2547
266.040	20321
266.102	15390
266.163	4281
266.224	3054
266.286	1612
266.347	152
266.408	1127
266.469	689
266.530	1067
266.592	288
266.653	2058
266.714	4719
266.775	2015
266.836	669
266.898	-20
266.959	1162
267.020	1064
267.081	2006
267.142	745
267.203	845
267.264	153
267.326	1352
267.387	614
267.448	195
267.509	515
267.570	820
267.631	-111
267.692	352
267.753	388
267.814	-40
267.875	2398
267.936	7666
267.997	2190
268.058	2311
268.119	616
268.180	606
268.241	334
268.302	-34
268.363	454
268.424	449
268.485	874
268.546	-124
268.607	1018
268.668	326
268.729	-334
268.790	573
268.851	936
268.912	3331
268.972	4953
269.033	2022
269.094	5
269.155	256
269.216	465
269.277	593
269.338	421
269.398	1068
269.459	743
269.520	1477
269.581	2072
269.642	3391
269.702	1107
269.763	1060
269.824	1351
269.885	1697
269.945	2714
270.006	1537
270.067	655
270.128	436
270.188	-425
270.249	-198
270.310	409
270.370	741
270.431	701
270.492	20
270.553	242
270.613	2423
270.674	7110
270.734	2496
270.795	971
270.856	1507
270.916	1421
270.977	489
271.038	1695
271.098	1327
271.159	2701
271.219	2427
271.280	157
271.340	411
271.401	-79
271.462	3019
271.522	1657
271.583	722
271.643	194
271.704	595
271.764	796
271.825	3666
271.885	17200
271.946	24457
272.006	7019
272.066	9827
272.127	18925
272.187	5190
272.248	1570
272.308	2113
272.369	13061
272.429	7039
272.489	3865
272.550	3471
272.610	5121
272.671	3637
272.731	2519
272.791	3937
272.852	2359
272.912	2734
272.972	1634
273.033	581
273.093	1009
273.153	2407
273.214	1386
273.274	1710
273.334	8640
273.394	18574
273.455	6349
273.515	6100
273.575	16312
273.635	5913
273.696	7922
273.756	18360
273.816	7167
273.876	3355
273.936	5715
273.997	10655
274.057	2097
274.117	1651
274.177	3153
274.237	22850
274.297	17730
274.358	9619
274.418	14090
274.478	10720
274.538	3394
274.598	2254
274.658	8246
274.718	10267
274.778	4050
274.838	1821
274.898	4405
274.958	14995
275.018	17541
275.078	11887
275.138	3595
275.198	1434
275.258	1616
275.318	2441
275.378	4407
275.438	5083
275.498	2523
275.558	6366
275.618	16692
275.678	12535
275.738	6605
275.798	4721
275.858	1704
275.918	1207
275.978	2095
276.038	1244
276.098	835
276.157	2752
276.217	13099
276.277	5580
276.337	3497
276.397	1583
276.457	1697
276.517	1336
276.576	1156
276.636	1181
276.696	2000
276.756	6918
276.815	4687
276.875	3024
276.935	1688
276.995	1591
277.055	1414
277.114	1406
277.174	2352
277.234	10945
277.293	3365
277.353	1761
277.413	1845
277.472	956
277.532	1224
277.592	1770
277.651	8500
277.711	17717
277.771	4162
277.830	21060
277.890	15498
277.950	10837
278.009	35997
278.069	11591
278.128	11701
278.188	17357
278.248	6339
278.307	19111
278.367	10627
278.426	2603
278.486	1970
278.545	982
278.605	680
278.664	1178
278.724	1937
278.783	7110
278.843	19784
278.902	4882
278.962	2111
279.021	3218
279.081	2339
279.140	2715
279.199	3070
279.259	3394
279.318	3220
279.378	3454
279.437	6011
279.496	27233
279.556	74189
279.615	57083
279.675	15265
279.734	8565
279.793	12038
279.853	22350
279.912	7448
279.971	3981
280.031	2728
280.090	8677
280.149	15775
280.208	9742
280.268	48558
280.327	50225
280.386	11556
280.445	9415
280.505	7757
280.564	3854
280.623	2898
280.682	5325
280.742	9170
280.801	2232
280.860	1394
280.919	1645
280.978	1299
281.037	943
281.097	914
281.156	1262
281.215	1520
281.274	1172
281.333	12745
281.392	9602
281.451	2043
281.510	1373
281.569	748
281.628	837
281.688	219
281.747	1558
281.806	673
281.865	1155
281.924	1168
281.983	1001
282.042	781
282.101	297
282.160	638
282.219	612
282.278	838
282.337	6402
282.396	3842
282.454	946
282.513	2002
282.572	10113
282.631	5202
282.690	1817
282.749	118
282.808	1801
282.867	1401
282.926	1351
282.985	1411
283.043	675
283.102	757
283.161	1391
283.220	4695
283.279	12049
283.338	3407
283.396	1514
283.455	1882
283.514	1712
283.573	3264
283.631	1841
283.690	1033
283.749	659
283.808	4509
283.866	5548
283.925	683
283.984	2032
284.043	2066
284.101	2590
284.160	1913
284.219	2488
284.277	1763
284.336	2465
284.395	15087
284.453	12679
284.512	3913
284.570	5613
284.629	3973
284.688	3880
284.746	4672
284.805	4914
284.863	7125
284.922	8440
284.981	8856
285.039	12916
285.098	22703
285.156	60220
285.215	128949
285.273	126212
285.332	68185
285.390	33732
285.449	19990
285.507	13045
285.566	8546
285.624	6697
285.683	5424
285.741	3465
285.799	2611
285.858	2921
285.916	2335
285.975	2052
286.033	2114
286.091	1604
286.150	1508
286.208	1569
286.267	1639
286.325	1714
286.383	2658
286.442	2927
286.500	1248
286.558	1084
286.616	920
286.675	2572
286.733	1757
286.791	805
286.850	2015
286.908	2856
286.966	5218
287.024	1276
287.083	727
287.141	506
287.199	1025
287.257	1950
287.315	722
287.374	1686
287.432	5507
287.490	2976
287.548	1124
287.606	547
287.664	738
287.723	1153
287.781	2637
287.839	647
287.897	824
287.955	1855
288.013	1784
288.071	4882
288.129	33120
288.187	107894
288.245	40376
288.303	12674
288.361	6302
288.419	4113
288.477	1970
288.535	1582
288.593	1409
288.651	862
288.709	88
288.767	469
288.825	1135
288.883	1031
288.941	449
288.999	942
289.057	-77
289.115	414
289.173	162
289.231	1105
289.289	594
289.346	271
289.404	780
289.462	2249
289.520	2521
289.578	705
289.636	-79
289.694	142
289.751	-299
289.809	457
289.867	-3
289.925	1175
289.983	1795
290.040	277
290.098	798
290.156	610
290.214	1295
290.271	-168
290.329	137
290.387	-256
290.444	417
290.502	13
290.560	187
290.617	474
290.675	-608
290.733	-146
290.790	847
290.848	484
290.906	-89
290.963	118
291.021	-89
291.078	-95
291.136	-256
291.194	4079
291.251	11821
291.309	2159
291.366	306
291.424	14
291.481	543
291.539	-767
291.596	826
291.654	-532
291.711	-484
291.769	719
291.826	2784
291.884	958
291.941	208
291.999	362
292.056	446
292.114	1137
292.171	228
292.228	-338
292.286	1184
292.343	2659
292.401	3289
292.458	1643
292.515	757
292.573	1844
292.630	928
292.687	1424
292.745	421
292.802	128
292.859	4211
292.917	12796
292.974	5996
293.031	1374
293.089	321
293.146	79
293.203	196
293.260	229
293.318	445
293.375	1242
293.432	175
293.489	1005
293.546	1050
293.604	616
293.661	6794
293.718	22214
293.775	8999
293.832	3752
293.889	2698
293.947	2552
294.004	1134
294.061	1131
294.118	5062
294.175	10746
294.232	10927
294.289	3528
294.346	1294
294.403	1808
294.460	947
294.517	731
294.574	585
294.631	699
294.688	473
294.745	5331
294.802	23743
294.859	20460
294.916	7098
294.973	3797
295.030	3660
295.087	2331
295.144	1367
295.201	1408
295.258	491
295.315	926
295.372	9065
295.429	18401
295.486	5881
295.542	2623
295.599	7921
295.656	12516
295.713	10842
295.770	17316
295.827	4994
295.883	2455
295.940	2577
295.997	3863
296.054	3915
296.111	1900
296.167	1608
296.224	485
296.281	507
296.338	482
296.394	271
296.451	189
296.508	7055
296.564	13794
296.621	7484
296.678	18907
296.734	26266
296.791	8595
296.848	3695
296.904	4020
296.961	10042
297.018	20444
297.074	13453
297.131	4340
297.187	3110
297.244	3258
297.301	20571
297.357	36162
297.414	11376
297.470	4129
297.527	1718
297.583	1947
297.640	1721
297.696	1447
297.753	418
297.809	648
297.866	240
297.922	751
297.979	361
298.035	716
298.092	2131
298.148	11361
298.204	9652
298.261	3742
298.317	7128
298.374	23813
298.430	12827
298.486	4366
298.543	2862
298.599	1895
298.656	2245
298.712	5617
298.768	14587
298.824	8312
298.881	2139
298.937	1314
298.993	1800
299.050	1938
299.106	1926
299.162	672
299.218	1972
299.275	1307
299.331	915
299.387	4151
299.443	21207
299.500	21146
299.556	6042
299.612	3186
299.668	2914
299.724	2223
299.780	2870
299.837	1203
299.893	3434
299.949	17442
300.005	18189
300.061	15556
300.117	28361
300.173	12518
300.229	5191
300.285	6726
300.341	7817
300.397	3701
300.453	975
300.510	1710
300.566	1130
300.622	1426
300.678	6555
300.734	15778
300.790	17754
300.845	21896
300.901	11635
300.957	16976
301.013	11945
301.069	4396
301.125	3264
301.181	2923
301.237	2329
301.293	863
301.349	1248
301.405	1222
301.461	746
301.516	1792
301.572	1320
301.628	3511
301.684	3916
301.740	6438
301.796	12058
301.851	6804
301.907	11936
301.963	10133
302.019	20609
302.074	61776
302.130	56194
302.186	23897
302.242	9920
302.297	5758
302.353	4931
302.409	12031
302.464	9066
302.520	6578
302.576	21574
302.631	25212
302.687	12874
302.743	5143
302.798	2733
302.854	1642
302.910	1747
302.965	2345
303.021	5416
303.076	5227
303.132	6767
303.187	7848
303.243	3640
303.299	2431
303.354	1290
303.410	1405
303.465	581
303.521	39
303.576	501
303.632	1164
303.687	5125
303.743	19760
303.798	16390
303.853	5979
303.909	2341
303.964	2332
304.020	3118
304.075	5645
304.130	5115
304.186	10763
304.241	11897
304.297	8371
304.352	3991
304.358	3775
304.407	2021
304.449	1953
304.463	1934
304.518	2201
304.539	2051
304.573	1780
304.629	1324
304.630	1359
304.684	3257
304.720	11276
304.739	15231
304.794	22501
304.811	19093
304.850	10766
304.902	4660
304.905	4285
304.960	2356
304.992	2152
305.015	2035
305.071	2396
305.083	2381
305.126	2186
305.173	1739
305.181	1687
305.236	1375
305.264	1707
305.292	2071
305.347	2498
305.354	2536
305.402	2748
305.445	2263
305.457	2140
305.512	2555
305.535	2643
305.567	2697
305.622	3102
305.626	3210
305.678	7142
305.716	18377
305.733	22173
305.788	23179
305.807	20071
305.843	15351
305.897	21771
305.898	21826
305.953	20342
305.988	13022
306.008	9253
306.063	5347
306.078	4612
306.118	3166
306.168	2489
306.173	2431
306.228	1128
306.259	1086
306.283	1239
306.338	1032
306.349	1155
306.393	1462
306.440	2275
306.448	2454
306.503	2376
306.530	2594
306.558	3666
306.613	7764
306.620	8514
306.668	14832
306.711	23490
306.723	24204
306.778	17617
306.801	13339
306.833	9105
306.888	3740
306.892	3591
306.943	3049
306.982	2212
306.997	1991
307.052	1821
307.072	1910
307.107	2330
307.162	3001
307.163	3006
307.217	4360
307.253	5776
307.272	6072
307.327	6662
307.343	6175
307.381	5377
307.434	4766
307.436	4978
307.491	12247
307.524	18756
307.546	20491
307.600	20657
307.614	18874
307.655	11093
307.704	4671
307.710	4582
307.765	5180
307.795	6709
307.819	8284
307.874	12914
307.885	13144
307.929	11136
307.975	8321
307.984	8576
308.038	11856
308.065	14414
308.093	27283
308.148	59326
308.156	66708
308.202	106421
308.246	128295
308.257	122380
308.312	65077
308.336	43396
308.366	34232
308.421	21999
308.426	20781
308.475	12895
308.517	8298
308.530	7734
308.585	6329
308.607	5827
308.639	5828
308.694	6936
308.697	7022
308.748	12682
308.787	18610
308.803	18544
308.857	13810
308.877	11857
308.912	11026
308.967	11354
308.967	11343
309.021	17033
309.058	21319
309.076	27346
309.130	48509
309.148	56194
309.185	96151
309.238	166331
309.239	167018
309.293	182626
309.328	170095
309.348	144316
309.402	68825
309.418	49319
309.457	35211
309.508	21673
309.511	21554
309.566	21027
309.598	21720
309.620	27075
309.674	43551
309.688	47549
309.729	44353
309.778	35803
309.783	34843
309.837	23261
309.868	17201
309.892	21411
309.946	33392
309.959	36795
310.001	47828
310.049	57780
310.055	55493
310.109	30606
310.139	16880
310.163	13397
310.218	7261
310.229	6140
310.272	5092
310.319	4557
310.326	4450
310.381	3539
310.409	3200
310.435	3244
310.489	3137
310.499	3168
310.543	3370
310.589	3471
310.598	3500
310.652	3605
310.679	3616
310.706	3203
310.760	2394
310.769	2254
310.814	2533
310.859	2966
310.868	2957
310.923	2575
310.948	2514
310.977	3072
311.031	4111
311.038	4242
311.085	3479
311.128	2616
311.139	2720
311.193	3348
311.218	3642
311.247	3374
311.301	2668
311.308	2588
311.356	3371
311.398	4052
311.410	3941
311.464	3339
311.488	3052
311.518	3149
311.572	3315
311.578	3332
311.626	5204
311.668	6802
311.680	6618
311.734	5592
311.758	5151
311.788	4585
311.842	3455
311.847	3338
311.896	5677
311.937	7662
311.950	7551
312.004	6959
312.027	6677
312.058	5667
312.112	3832
312.117	3643
312.165	3575
312.207	3508
312.297	5582
312.386	4167
312.476	4471
312.566	11261
312.656	5260
312.745	2096
312.835	3799
312.925	4188
313.015	3648
313.104	3972
313.194	3579
313.284	3300
313.374	6298
313.463	5226
313.553	3265
313.643	3044
313.732	3120
313.822	2233
313.912	4103
314.001	4348
314.091	5139
314.180	5850
314.270	6779
314.360	6279
314.449	5934
314.539	2513
314.628	3130
314.718	3743
314.808	4587
314.897	2724
314.987	3251
315.076	5167
315.166	5828
315.255	4718
315.345	5899
315.434	5277
315.524	4924
315.613	5370
315.703	8383
315.792	8808
315.881	16608
315.971	7592
316.060	10723
316.150	12561
316.239	12292
316.328	4616
316.418	3829
316.507	3400
316.597	6028
316.686	5063
316.775	6693
316.865	12272
316.954	3755
317.043	1968
317.133	3711
317.222	3323
317.311	4039
317.400	1853
317.490	5379
317.579	5857
317.668	4057
317.757	6934
317.847	11951
317.936	31619
318.025	19492
318.114	9067
318.203	7523
318.293	11119
318.382	22765
318.471	17788
318.560	23619
318.649	40146
318.738	8152
318.828	6366
318.917	6709
319.006	6427
319.095	18986
319.184	54346
319.273	33016
319.362	17726
319.451	5181
319.540	4838
319.629	14927
319.718	24445
319.807	7987
319.896	19770
319.985	67997
320.074	23788
320.163	6123
320.252	7959
320.341	7437
320.430	7895
320.519	11885
320.608	5777
320.697	5209
320.786	4687
320.875	7426
320.964	9347
321.053	16135
321.142	23779
321.230	22978
321.319	17290
321.408	42796
321.497	14786
321.586	16266
321.675	14658
321.764	14932
321.852	10473
321.941	24703
322.030	13983
322.119	15886
322.207	43634
322.296	21440
322.385	10006
322.474	15253
322.562	54684
322.651	24223
322.740	16924
322.829	23172
322.917	19044
323.006	13703
323.095	12537
323.183	6960
323.272	10573
323.361	21642
323.449	52964
323.538	17097
323.626	38880
323.715	20969
323.804	7711
323.892	35076
323.981	21279
324.069	6292
324.158	16807
324.246	16224
324.335	9164
324.424	16326
324.512	5320
324.601	9588
324.689	27341
324.778	54127
324.866	15977
324.954	4994
325.043	3843
325.131	8877
325.220	13142
325.308	16036
325.397	11992
325.485	7625
325.574	2974
325.662	3618
325.750	4274
325.839	3787
325.927	3120
326.015	4992
326.104	5427
326.192	8016
326.280	3220
326.369	3370
326.457	7134
326.545	13451
326.634	4621
326.722	3130
326.810	3691
326.898	3534
326.987	3712
327.075	11779
327.163	9578
327.251	5770
327.340	21193
327.428	33560
327.516	3326
327.604	3325
327.692	3247
327.781	3786
327.869	5656
327.957	4969
328.045	5732
328.133	2357
328.221	3458
328.309	3532
328.397	3820
328.485	5038
328.574	6827
328.662	30229
328.750	12612
328.838	4342
328.926	3104
329.014	2779
329.102	4774
329.190	14703
329.278	9282
329.366	2307
329.454	3250
329.542	3419
329.630	2539
329.718	3363
329.806	4181
329.893	4277
329.981	4482
330.069	7248
330.157	33807
330.245	105107
330.333	53895
330.421	7707
330.509	8071
330.597	36202
330.684	21178
330.772	6262
330.860	8057
330.948	9950
331.036	4566
331.123	2576
331.211	2061
331.299	3374
331.387	8445
331.475	17206
331.562	4534
331.650	2554
331.738	3398
331.825	3775
331.913	2131
332.001	2678
332.089	3354
332.176	6250
332.264	16685
332.352	13605
332.439	5034
332.527	3624
332.614	2461
332.702	4234
332.790	2489
332.877	9165
332.965	17532
333.052	6134
333.140	6317
333.228	18431
333.315	4101
333.403	3688
333.490	8610
333.578	10262
333.665	23944
333.753	10808
333.840	2471
333.928	4109
334.015	9231
334.103	16576
334.190	61575
334.278	15624
334.365	6360
334.452	5438
334.540	2772
334.627	4831
334.715	5965
334.802	10613
334.889	57032
334.977	60182
335.064	8888
335.151	4354
335.239	4115
335.326	5632
335.413	30741
335.501	45756
335.588	5262
335.675	4673
335.762	5289
335.850	9342
335.937	6475
336.024	15456
336.111	67546
336.199	29814
336.286	6546
336.373	4100
336.460	3008
336.547	3538
336.635	5317
336.722	4330
336.809	2849
336.896	5946
336.983	19057
337.070	48389
337.157	67511
337.245	38855
337.332	26667
337.419	4280
337.506	2508
337.593	3335
337.680	12869
337.767	46199
337.854	12532
337.941	14300
338.028	16746
338.115	4544
338.202	5966
338.289	10815
338.376	39796
338.463	12187
338.550	25489
338.637	28641
338.724	8065
338.811	11310
338.898	3483
338.984	3059
339.071	3299
339.158	5141
339.245	16714
339.332	10262
339.419	9237
339.506	9561
339.593	2335
339.679	3810
339.766	2047
339.853	4778
339.940	12143
340.027	3407
340.113	4208
340.200	6018
340.287	2924
340.374	5474
340.460	10956
340.547	4194
340.634	7474
340.720	33584
340.807	18910
340.894	4179
340.980	3435
341.067	3541
341.154	3991
341.240	7824
341.327	17496
341.414	7242
341.500	8205
341.587	4738
341.674	3278
341.760	11022
341.847	14147
341.933	4303
342.020	622
342.106	2440
342.193	3389
342.279	9571
342.366	6504
342.452	11247
342.539	5466
342.625	13507
342.712	36570
342.798	15556
342.885	5777
342.971	2334
343.058	2080
343.144	3038
343.230	2951
343.317	3346
343.403	2675
343.490	2455
343.576	2130
343.662	3136
343.749	3755
343.835	4092
343.921	6668
344.008	55278
344.094	136680
344.180	29000
344.267	9808
344.353	37119
344.439	39253
344.525	16638
344.612	6823
344.698	5675
344.784	3432
344.870	2681
344.957	2492
345.043	7068
345.129	4397
345.215	10767
345.301	6149
345.387	4937
345.474	1898
345.560	2256
345.646	2714
345.732	2627
345.818	4522
345.904	4952
345.990	3758
346.076	3573
346.162	7522
346.249	4332
346.335	1893
346.421	3625
346.507	14278
346.593	56077
346.679	12616
346.765	4669
346.851	2977
346.937	3487
347.023	2900
347.108	4178
347.194	2949
347.280	4117
347.366	3517
347.452	14356
347.538	63009
347.624	48234
347.710	39936
347.796	5647
347.882	2919
347.967	2394
348.053	4114
348.139	3425
348.225	2594
348.311	3326
348.397	2016
348.482	4339
348.568	4749
348.654	2234
348.740	3226
348.825	3294
348.911	4945
348.997	25630
349.083	58410
349.168	9010
349.254	4245
349.340	4774
349.425	3014
349.511	4694
349.597	5728
349.682	11335
349.768	40409
349.854	19453
349.939	3467
350.025	2409
350.110	2340
350.196	1637
350.282	2109
350.367	2134
350.453	3473
350.538	4297
350.624	3721
350.709	5148
350.795	2313
350.880	3773
350.966	3378
351.051	5936
351.137	3161
351.222	2995
351.308	11078
351.393	37606
351.479	10222
351.564	3912
351.649	2699
351.735	2376
351.820	1382
351.906	3403
351.991	4001
352.076	22273
352.162	36234
352.247	6325
352.332	4072
352.418	11199
352.503	12193
352.588	52458
352.673	44380
352.759	9003
352.844	4012
352.929	4518
353.014	6890
353.100	4744
353.185	7792
353.270	12226
353.355	12601
353.441	3777
353.526	3447
353.611	11231
353.696	12814
353.781	7947
353.866	2651
353.952	3580
354.037	10539
354.122	26995
354.207	23921
354.292	9086
354.377	4326
354.462	3079
354.547	5149
354.632	5247
354.717	5696
354.802	9315
354.887	3689
354.972	2487
355.057	2180
355.142	2663
355.227	3391
355.312	6404
355.397	16125
355.482	42135
355.567	20503
355.652	13231
355.737	13840
355.822	44151
355.907	38138
355.991	6167
356.076	2171
356.161	3446
356.246	2241
356.331	3103
356.416	7189
356.501	63690
356.585	74263
356.670	9981
356.755	6970
356.840	8752
356.924	42281
357.009	163757
357.094	66742
357.179	13285
357.263	8616
357.348	8421
357.433	8769
357.517	8663
357.602	6611
357.687	4899
357.771	7055
357.856	17688
357.941	12128
358.025	30905
358.110	150408
358.195	78499
358.279	10983
358.364	7872
358.448	29476
358.533	88017
358.617	64902
358.702	63128
358.787	22876
358.871	12578
358.956	10588
359.040	3311
359.125	2069
359.209	3364
359.294	7188
359.378	14088
359.462	8954
359.547	5675
359.631	3764
359.716	2846
359.800	3049
359.885	5771
359.969	3690
360.053	4044
360.138	1594
360.222	5597
360.306	12025
360.391	9135
360.475	12042
360.559	30577
360.644	31759
360.728	23863
360.812	32720
360.896	102356
360.981	43055
361.065	23575
361.149	6555
361.233	6570
361.318	4156
361.402	4960
361.486	5548
361.570	3825
361.654	5342
361.739	14324
361.823	61340
361.907	104892
361.991	19755
362.075	10314
362.159	23755
362.243	18242
362.327	13691
362.411	18145
362.495	9020
362.580	5188
362.664	4037
362.748	3498
362.832	4404
362.916	7160
363.000	24813
363.084	77072
363.168	121375
363.252	30748
363.336	9594
363.420	12664
363.503	41944
363.587	55533
363.671	9713
363.755	7561
363.839	12119
363.923	5059
364.007	11629
364.091	14536
364.175	13923
364.258	69169
364.342	52098
364.426	53330
364.510	31856
364.594	15645
364.677	18102
364.761	81982
364.845	65187
364.929	21307
365.013	17991
365.096	14758
365.180	16686
365.264	18172
365.347	68916
365.431	32770
365.515	7927
365.598	4944
365.682	4996
365.766	7749
365.849	9170
365.933	5104
366.017	6536
366.100	4439
366.184	1614
366.267	3956
366.351	2507
366.435	3154
366.518	1676
366.602	2747
366.685	2816
366.769	4004
366.852	6931
366.936	14424
367.019	9211
367.103	4394
367.186	10708
367.270	3983
367.353	1787
367.436	2971
367.520	2052
367.603	4355
367.687	7408
367.770	13861
367.853	8633
367.937	25174
368.020	48188
368.104	12185
368.187	10186
368.270	16007
368.353	14554
368.437	14067
368.520	25000
368.603	20819
368.687	29656
368.770	64963
368.853	15649
368.936	13166
369.020	12582
369.103	5395
369.186	2441
369.269	4140
369.352	8415
369.436	13539
369.519	8181
369.602	3156
369.685	4608
369.768	4855
369.851	3653
369.934	2379
370.018	4302
370.101	10974
370.184	9589
370.267	6284
370.350	10071
370.433	17536
370.516	43667
370.599	58418
370.682	15650
370.765	33831
370.848	42815
370.931	73735
371.014	29507
371.097	5485
371.180	4452
371.263	3321
371.346	1167
371.429	3514
371.511	2597
371.594	6903
371.677	12021
371.760	13480
371.843	11519
371.926	52584
372.009	131806
372.091	47715
372.174	26533
372.257	67852
372.340	28281
372.423	17888
372.505	20562
372.588	9615
372.671	20653
372.754	70388
372.836	39408
372.919	20807
373.002	42313
373.085	15715
373.167	11806
373.250	31095
373.332	66770
373.415	81905
373.498	172251
373.580	69132
373.663	71950
373.746	112454
373.828	27444
373.911	11267
373.993	10499
374.076	38091
374.159	39260
374.241	18816
374.324	59952
374.406	44799
374.489	44805
374.571	144061
374.654	65967
374.736	26593
374.819	81425
374.901	119550
374.983	130133
375.066	24491
375.148	7045
375.231	29582
375.313	65182
375.395	25755
375.478	6075
375.560	3834
375.643	6546
375.725	22204
375.807	100623
375.890	83486
375.972	26995
376.054	15612
376.136	20673
376.219	11494
376.301	27103
376.383	92462
376.465	39692
376.548	22133
376.630	26386
376.712	79088
376.794	41480
376.877	5265
376.959	2101
377.041	3830
377.123	7113
377.205	9457
377.287	2203
377.369	3119
377.452	2433
377.534	2654
377.616	2153
377.698	2743
377.780	2047
377.862	3094
377.944	3409
378.026	1140
378.108	1523
378.190	2332
378.272	2986
378.354	1901
378.436	1750
378.518	4193
378.600	18205
378.682	19370
378.764	41059
378.846	37047
378.928	8970
379.010	14153
379.091	7869
379.173	3431
379.255	1604
379.337	4840
379.419	19014
379.501	61109
379.583	27885
379.664	6852
379.746	13838
379.828	43176
379.910	61487
379.991	53848
380.073	8468
380.155	5367
380.237	3824
380.318	3232
380.400	3062
380.482	8809
380.564	14298
380.645	13753
380.727	13542
380.809	8545
380.890	4778
380.972	3660
381.053	3917
381.135	5238
381.217	14293
381.298	45966
381.380	25215
381.461	17285
381.543	73027
381.624	103468
381.706	20871
381.787	8851
381.869	9908
381.951	31579
382.032	121972
382.113	92507
382.195	18603
382.276	12498
382.358	25000
382.439	72490
382.521	79535
382.602	122842
382.684	62021
382.765	102113
382.846	128052
382.928	183609
383.009	112025
383.090	70354
383.172	235799
383.253	376391
383.334	137225
383.416	114584
383.497	68176
383.578	32313
383.659	59618
383.741	200775
383.822	495753
383.903	291168
383.984	94100
384.066	142291
384.147	96557
384.228	21244
384.309	14831
384.390	11547
384.471	7331
384.553	8745
384.634	11722
384.715	13331
384.796	6338
384.877	8883
384.958	36946
385.039	52601
385.120	19675
385.201	8370
385.282	8585
385.363	9765
385.444	7588
385.525	14984
385.606	53328
385.687	53627
385.768	11447
385.849	14195
385.930	57341
386.011	108227
386.092	33574
386.173	6857
386.254	4105
386.335	6051
386.416	6453
386.496	25379
386.577	46063
386.658	16206
386.739	8263
386.820	7730
386.901	5428
386.981	5595
387.062	3244
387.143	9195
387.224	39660
387.304	42608
387.385	13735
387.466	7362
387.547	8515
387.627	6460
387.708	14604
387.789	69671
387.869	93271
387.950	27461
388.031	4096
388.111	2798
388.192	9744
388.273	15655
388.353	8704
388.434	6002
388.514	12160
388.595	59190
388.676	90428
388.756	47521
388.837	40002
388.917	27696
388.998	3361
389.078	5817
389.159	3596
389.239	3811
389.320	7751
389.400	6378
389.480	14506
389.561	44483
389.641	25325
389.722	7758
389.802	11389
389.883	18624
389.963	51263
390.043	34472
390.124	8244
390.204	13531
390.284	47803
390.365	33981
390.445	26744
390.525	68716
390.605	66944
390.686	27975
390.766	7998
390.846	5228
390.927	2562
391.007	2951
391.087	4572
391.167	4257
391.247	2179
391.328	6281
391.408	9095
391.488	7755
391.568	1026
391.648	5216
391.728	8593
391.808	8186
391.888	8388
391.969	23429
392.049	42041
392.129	17936
392.209	17487
392.289	49916
392.369	29413
392.449	17242
392.529	12382
392.609	9883
392.689	12863
392.769	46054
392.849	44594
392.929	24824
393.009	62026
393.089	52914
393.169	32380
393.248	94705
393.328	351199
393.408	419846
393.488	121890
393.568	32189
393.648	15654
393.728	9773
393.807	6829
393.887	7945
393.967	5836
394.047	8082
394.127	10403
394.206	16850
394.286	54918
394.366	238561
394.446	292121
394.525	75825
394.605	17349
394.685	11998
394.764	24822
394.844	43317
394.924	33892
395.003	11256
395.083	7097
395.163	6177
395.242	5617
395.322	6611
395.402	3036
395.481	7362
395.561	16366
395.640	49946
395.720	42421
395.799	51642
395.879	45600
395.958	27483
396.038	82910
396.117	310497
396.197	382117
396.276	127446
396.356	37166
396.435	24822
396.515	17179
396.594	19299
396.673	31662
396.753	103847
396.832	333460
396.912	293678
396.991	79891
397.070	20531
397.150	10221
397.229	8506
397.308	9987
397.388	16881
397.467	9775
397.546	5183
397.625	2272
397.705	6663
397.784	6752
397.863	3502
397.942	1312
398.022	2735
398.101	12803
398.180	42620
398.259	24719
398.338	6122
398.417	4472
398.497	2265
398.576	3505
398.655	1167
398.734	1352
398.813	2374
398.892	11893
398.971	45532
399.050	26074
399.129	2359
399.208	1275
399.287	3597
399.366	1439
399.445	1849
399.524	1929
399.603	903
399.682	5511
399.761	16046
399.840	49443
399.919	42493
399.998	5352
400.077	1654
400.156	774
400.235	3775
400.313	1169
400.392	3226
400.471	20875
400.550	39778
400.629	10366
400.708	4097
400.786	2408
400.865	7965
400.944	11371
401.023	6940
401.102	1020
401.180	849
401.259	68
401.338	2125
401.416	3730
401.495	3186
401.574	2600
401.652	2197
401.731	4436
401.810	2586
401.888	1409
401.967	912
402.046	1723
402.124	3767
402.203	4544
402.281	2694
402.360	2926
402.438	12549
402.517	7944
402.596	3298
402.674	1620
402.753	1581
402.831	1181
402.910	2475
402.988	12774
403.066	50494
403.145	32911
403.223	15009
403.302	40727
403.380	34266
403.459	30274
403.537	13753
403.615	3954
403.694	335
403.772	1405
403.850	1103
403.929	830
404.007	970
404.085	4945
404.164	6392
404.242	1676
404.320	3641
404.398	6221
404.477	18360
404.555	90965
404.633	94196
404.711	14669
404.789	4022
404.868	1366
404.946	1208
405.024	287
405.102	798
405.180	-237
405.258	459
405.336	1810
405.415	612
405.493	4076
405.571	4696
405.649	761
405.727	-70
405.805	3202
405.883	3443
405.961	2680
406.039	3365
406.117	1545
406.195	4395
406.273	19520
406.351	83632
406.429	57591
406.507	8480
406.585	1784
406.663	3130
406.740	4397
406.818	2943
406.896	1065
406.974	2997
407.052	5806
407.130	46748
407.208	76161
407.285	15947
407.363	1913
407.441	2419
407.519	798
407.596	3047
407.674	6066
407.752	17634
407.830	20690
407.907	9412
407.985	2209
408.063	2274
408.141	846
408.218	3379
408.296	3096
408.373	2506
408.451	3085
408.529	2508
408.606	697
408.684	169
408.762	535
408.839	254
408.917	-690
408.994	484
409.072	-347
409.149	1675
409.227	2845
409.304	4305
409.382	2229
409.459	2315
409.537	3683
409.614	3947
409.692	1935
409.769	1791
409.846	3940
409.924	6653
410.001	4322
410.079	2877
410.156	1714
410.233	2411
410.311	1403
410.388	671
410.465	1933
410.543	2140
410.620	1443
410.697	1640
410.775	2785
410.852	800
410.929	2423
411.006	4329
411.083	1326
411.161	4863
411.238	6236
411.315	2129
411.392	632
411.469	3871
411.547	2889
411.624	1091
411.701	909
411.778	2016
411.855	6087
411.932	4228
412.009	530
412.086	1546
412.163	884
412.240	2300
412.317	2344
412.394	2686
412.471	901
412.548	698
412.625	843
412.702	1495
412.779	4140
412.856	2715
412.933	-331
413.010	1180
413.087	2961
413.164	19668
413.241	33298
413.318	8400
413.395	3694
413.471	6294
413.548	2596
413.625	2384
413.702	1088
413.779	702
413.855	404
413.932	-379
414.009	-864
414.086	415
414.162	419
414.239	2927
414.316	18985
414.393	48429
414.469	18520
414.546	1023
414.623	520
414.699	651
414.776	1516
414.853	582
414.929	1248
415.006	1188
415.082	850
415.159	1323
415.236	322
415.312	1533
415.389	3782
415.465	5817
415.542	2262
415.618	846
415.695	3816
415.771	1892
415.848	1278
415.924	1582
416.000	994
416.077	843
416.153	-987
416.230	-439
416.306	-681
416.383	464
416.459	163
416.535	297
416.612	-279
416.688	177
416.764	-148
416.841	-24
416.917	280
416.993	1392
417.069	1537
417.146	2440
417.222	3913
417.298	2431
417.374	233
417.451	2021
417.527	1872
417.603	3235
417.679	1934
417.755	1692
417.831	-115
417.908	578
417.984	-592
418.060	-94
418.136	4020
418.212	7655
418.288	2091
418.364	1377
418.440	369
418.516	3370
418.592	3065
418.668	8797
418.744	14511
418.820	11303
418.896	1981
418.972	245
419.048	1375
419.124	6127
419.200	4401
419.276	1113
419.352	-1203
419.428	543
419.504	240
419.579	2237
419.655	1248
419.731	1428
419.807	8284
419.883	16908
419.959	11801
420.034	3348
420.110	4926
420.186	28524
420.262	25740
420.337	4107
420.413	2199
420.489	961
420.565	882
420.640	951
420.716	1038
420.792	81
420.867	1138
420.943	703
421.019	2832
421.094	2289
421.170	799
421.245	-39
421.321	675
421.397	857
421.472	3649
421.548	9107
421.623	8239
421.699	3293
421.774	2628
421.850	2206
421.925	4534
422.001	5000
422.076	2335
422.152	4844
422.227	7975
422.302	9599
422.378	12127
422.453	23894
422.529	57201
422.604	167756
422.679	291481
422.755	213954
422.830	74942
422.905	28106
422.981	13012
423.056	8755
423.131	6052
423.207	4403
423.282	4780
423.357	10215
423.432	7423
423.508	6298
423.583	13519
423.658	12189
423.733	2725
423.808	3295
423.883	4313
423.959	4119
424.034	2129
424.109	2448
424.184	308
424.259	638
424.334	799
424.409	814
424.484	398
424.559	1712
424.634	750
424.709	2064
424.784	3768
424.859	1684
424.934	3451
425.009	19448
425.084	34554
425.159	13797
425.234	1990
425.309	669
425.384	2511
425.459	5239
425.534	1568
425.609	1099
425.683	254
425.758	542
425.833	939
425.908	2754
425.983	9911
426.058	36607
426.132	17074
426.207	2068
426.282	2958
426.357	2837
426.431	-56
426.506	961
426.581	1041
426.655	1695
426.730	1670
426.805	607
426.879	1076
426.954	1270
427.029	3660
427.103	29644
427.178	76297
427.253	38839
427.327	3075
427.402	3341
427.476	7242
427.551	3993
427.625	751
427.700	1915
427.774	34
427.849	1574
427.923	-15
427.998	-386
428.072	906
428.147	4368
428.221	18746
428.296	59244
428.370	35255
428.444	4645
428.519	3689
428.593	8209
428.667	8017
428.742	8225
428.816	9695
428.890	32710
428.965	58975
429.039	19589
429.113	9943
429.188	3671
429.262	716
429.336	4330
429.410	15747
429.485	10946
429.559	7698
429.633	6235
429.707	1108
429.781	6844
429.855	37034
429.930	66643
430.004	32713
430.078	43336
430.152	42433
430.226	73725
430.300	83954
430.374	13579
430.448	3594
430.522	12654
430.596	41396
430.670	30311
430.744	66079
430.818	112613
430.892	25301
430.966	3782
431.040	580
431.114	501
431.188	-156
431.262	711
431.336	90
431.410	4169
431.484	10999
431.557	9742
431.631	623
431.705	1399
431.779	8588
431.853	46833
431.927	39714
432.000	4367
432.074	447
432.148	1205
432.222	883
432.295	288
432.369	229
432.443	2948
432.516	25826
432.590	74606
432.664	30377
432.737	3449
432.811	-212
432.885	-234
432.958	-373
433.032	-62
433.106	-806
433.179	401
433.253	-650
433.326	-305
433.400	-564
433.473	449
433.547	-881
433.620	678
433.694	3058
433.767	3362
433.841	-722
433.914	342
433.988	-354
434.061	388
434.134	-176
434.208	-98
434.281	-721
434.355	-610
434.428	-250
434.501	-626
434.575	-1060
434.648	-71
434.721	-330
434.795	-989
434.868	-1280
434.941	-376
435.014	-1061
435.088	-360
435.161	76
435.234	2475
435.307	2957
435.381	1526
435.454	690
435.527	707
435.600	1086
435.673	1611
435.746	446
435.819	473
435.892	-93
435.966	-271
436.039	-882
436.112	906
436.185	-1008
436.258	-882
436.331	-744
436.404	-558
436.477	-151
436.550	-727
436.623	-184
436.696	-57
436.769	188
436.842	185
436.915	601
436.987	1839
437.060	477
437.133	-759
437.206	-814
437.279	254
437.352	-93
437.425	-246
437.498	-338
437.570	3852
437.643	4607
437.716	424
437.789	-873
437.861	2077
437.934	7456
438.007	3845
438.080	-95
438.152	1162
438.225	3054
438.298	32187
438.370	101643
438.443	47780
438.516	8010
438.588	998
438.661	-786
438.734	139
438.806	187
438.879	1730
438.951	914
439.024	3675
439.096	972
439.169	-22
439.241	-1017
439.314	-507
439.386	431
439.459	2221
439.531	2880
439.604	1199
439.676	420
439.749	133
439.821	-409
439.893	-605
439.966	73
440.038	823
440.110	1057
440.183	48
440.255	40
440.327	1492
440.400	12843
440.472	63543
440.544	47899
440.617	4819
440.689	3518
440.761	3813
440.833	6320
440.905	4458
440.978	-683
441.050	-699
441.122	-33
441.194	-281
441.266	-667
441.338	-170
441.411	1678
441.483	20970
441.555	35238
441.627	7397
441.699	1726
441.771	1750
441.843	-37
441.915	-294
441.987	-173
442.059	14
442.131	165
442.203	1811
442.275	2067
442.347	2197
442.419	2853
442.491	21119
442.563	56164
442.635	26874
442.706	13529
442.778	11541
442.850	1062
442.922	514
442.994	1303
443.066	2624
443.137	1002
443.209	1122
443.281	2328
443.353	6181
443.425	27120
443.496	103113
443.568	105199
443.640	37446
443.711	5711
443.783	1671
443.855	1339
443.926	291
443.998	-124
444.070	1637
444.141	631
444.213	3372
444.285	4726
444.356	2788
444.428	986
444.499	794
444.571	-294
444.642	79
444.714	-210
444.785	2662
444.857	2966
444.928	6738
445.000	3634
445.071	4622
445.143	5762
445.214	4459
445.285	4918
445.357	20129
445.428	66523
445.500	165349
445.571	104199
445.642	50629
445.714	16820
445.785	15347
445.856	4583
445.928	3894
445.999	3188
446.070	1875
446.141	1832
446.213	5042
446.284	1558
446.355	1541
446.426	-333
446.497	155
446.569	1354
446.640	4495
446.711	3234
446.782	-62
446.853	1168
446.924	1862
446.995	576
447.066	1128
447.138	2214
447.209	979
447.280	-437
447.351	81
447.422	-474
447.493	869
447.564	757
447.635	3373
447.706	172
447.777	501
447.847	-861
447.918	-246
447.989	641
448.060	1402
448.131	4557
448.202	6077
448.273	3315
448.344	967
448.414	-607
448.485	471
448.556	466
448.627	-1009
448.698	-244
448.768	-62
448.839	-205
448.910	1970
448.981	2391
449.051	1403
449.122	-68
449.193	-254
449.263	-171
449.334	-491
449.405	1360
449.475	5459
449.546	3258
449.616	3128
449.687	2687
449.758	949
449.828	-457
449.899	325
449.969	-282
450.040	661
450.110	391
450.181	813
450.251	113
450.322	355
450.392	192
450.463	229
450.533	165
450.604	69
450.674	-790
450.744	16
450.815	-496
450.885	396
450.955	766
451.026	-711
451.096	-675
451.166	609
451.237	1894
451.307	8338
451.377	2845
451.447	265
451.518	-585
451.588	35
451.658	196
451.728	1154
451.799	8646
451.869	10555
451.939	541
452.009	811
452.079	-564
452.149	208
452.219	1397
452.289	9938
452.360	8103
452.430	251
452.500	1022
452.570	1712
452.640	2091
452.710	8742
452.780	13665
452.850	10366
452.920	10946
452.990	2912
453.060	1373
453.129	2473
453.199	2847
453.269	11144
453.339	27856
453.409	44618
453.479	38523
453.549	60278
453.619	63329
453.688	25590
453.758	2628
453.828	347
453.898	-445
453.968	-231
454.037	526
454.087	-28
454.107	-258
454.168	-148
454.177	-138
454.247	674
454.249	654
454.316	-45
454.330	46
454.386	367
454.411	1612
454.456	3662
454.492	5882
454.525	7891
454.574	3773
454.595	1976
454.655	551
454.665	323
454.734	727
454.736	775
454.804	1910
454.817	3287
454.873	8968
454.898	9668
454.943	10986
454.979	6667
455.013	2731
455.060	1562
455.082	1035
455.141	925
455.152	894
455.221	5966
455.222	6054
455.291	12203
455.303	11025
455.360	5970
455.384	6425
455.430	7132
455.465	6298
455.499	5362
455.546	6930
455.569	7620
455.627	5458
455.638	5108
455.707	293
455.708	299
455.777	454
455.789	513
455.846	716
455.869	634
455.916	539
455.950	572
455.985	543
456.031	768
456.054	878
456.112	547
456.124	494
456.193	-152
456.193	-162
456.262	-314
456.274	8
456.332	1489
456.355	1324
456.401	832
456.436	818
456.470	809
456.516	166
456.540	-98
456.597	-129
456.609	-127
456.678	104
456.678	99
456.747	-78
456.759	-150
456.817	-403
456.840	-169
456.886	103
456.920	25
456.955	85
457.001	160
457.024	191
457.082	210
457.093	201
457.162	1055
457.163	1062
457.232	1147
457.243	1062
457.301	563
457.324	199
457.370	-287
457.405	-261
457.439	-284
457.485	136
457.508	353
457.566	479
457.577	526
457.646	720
457.647	737
457.715	1981
457.727	1947
457.784	1821
457.808	3094
457.853	5273
457.889	6489
457.922	7283
457.969	5002
457.991	4406
458.050	4458
458.060	4470
458.129	8318
458.130	8427
458.198	10771
458.211	9684
458.267	5661
458.292	3848
458.336	1302
458.372	1473
458.405	2240
458.453	2925
458.474	3369
458.533	7253
458.543	7626
458.611	15111
458.614	15140
458.680	12308
458.694	10114
458.749	3855
458.775	2965
458.818	1687
458.855	1405
458.887	1166
458.936	859
458.955	771
459.016	340
459.024	278
459.093	690
459.097	684
459.162	698
459.177	794
459.230	1127
459.257	1459
459.299	1599
459.338	1405
459.368	1537
459.418	1689
459.437	1614
459.499	1532
459.505	1545
459.574	941
459.579	927
459.643	485
459.659	545
459.711	883
459.740	972
459.780	1228
459.820	1295
459.849	1133
459.900	1088
459.917	1148
459.981	633
459.986	597
460.054	1633
460.061	1615
460.123	1238
460.141	1295
460.191	1779
460.222	2012
460.260	2105
460.302	3008
460.328	3398
460.382	2459
460.397	2314
460.462	1996
460.465	2014
460.534	2548
460.543	2703
460.602	6047
460.623	7475
460.671	11478
460.703	16970
460.739	17492
460.783	14637
460.808	13717
460.864	4095
460.876	2781
460.944	1666
460.945	1646
461.013	1215
461.024	1210
461.081	1092
461.104	1152
461.150	1165
461.184	1109
461.218	1155
461.264	861
461.286	843
461.345	1078
461.355	1061
461.423	1256
461.425	1242
461.491	811
461.505	937
461.559	2551
461.585	2936
461.628	4233
461.665	6291
461.696	6861
461.745	9390
461.764	9375
461.825	4139
461.832	3965
461.901	2096
461.905	2162
461.969	1875
461.985	1699
462.037	2047
462.065	2211
462.105	1772
462.145	1326
462.173	2014
462.225	3509
462.241	3627
462.305	4861
462.310	4777
462.378	3649
462.385	3199
462.446	1685
462.465	1661
462.514	1238
462.545	990
462.582	965
462.625	1176
462.650	1238
462.705	1013
462.718	1022
462.785	1636
462.786	1650
462.854	1770
462.865	1904
462.922	2895
462.945	3332
462.990	2906
463.025	2052
463.058	1649
463.104	1156
463.126	1127
463.184	1409
463.194	1383
463.262	991
463.264	985
463.330	1002
463.344	1000
463.398	1183
463.424	1250
463.466	1335
463.504	1525
463.533	1704
463.583	1582
463.601	1598
463.663	2058
463.669	2121
463.737	2609
463.743	2698
463.805	4419
463.823	4818
463.873	6584
463.903	7889
463.940	7834
463.982	8211
464.008	7087
464.062	2994
464.076	2829
464.142	2096
464.144	2058
464.211	901
464.221	842
464.279	1337
464.301	1461
464.347	1600
464.381	1749
464.414	1796
464.461	1859
464.482	1956
464.540	2376
464.550	2415
464.617	2179
464.620	2181
464.685	2794
464.699	2871
464.753	3114
464.779	3352
464.820	3691
464.859	3870
464.888	3536
464.938	3237
464.956	3566
465.018	4398
465.023	4351
465.091	3651
465.098	3563
465.158	2883
465.177	2766
465.226	2654
465.257	2459
465.293	2841
465.336	3387
465.361	3633
465.416	4227
465.428	4469
465.495	5858
465.496	5881
465.563	8196
465.575	8716
465.631	10136
465.654	10844
465.698	7856
465.734	4565
465.765	3789
465.813	2783
465.833	2696
465.893	2888
465.900	2837
465.968	2357
465.972	2328
466.035	2476
466.052	2459
466.102	2740
466.131	2978
466.170	2689
466.210	2319
466.237	2692
466.290	3475
466.304	3542
466.369	3760
466.372	3777
466.439	4283
466.449	4323
466.506	4517
466.528	4625
466.573	6512
466.607	7868
466.641	10188
466.687	13491
466.708	14192
466.766	16266
466.775	15238
466.842	7294
466.845	6906
466.909	5261
466.925	4938
466.977	5118
467.004	5258
467.044	5441
467.083	5628
467.111	5950
467.163	6521
467.178	6545
467.242	6644
467.245	6628
467.312	6170
467.321	6108
467.379	6026
467.400	5980
467.446	5745
467.480	5566
467.559	5340
467.638	4428
467.717	4294
467.796	5091
467.875	5834
467.955	5091
468.034	7669
468.113	14874
468.192	19683
468.271	5118
468.350	3956
468.429	4462
468.508	4778
468.588	4096
468.667	4404
468.746	4064
468.825	4277
468.904	3727
468.983	4573
469.062	5503
469.141	6824
469.220	3455
469.299	4157
469.378	4361
469.456	6025
469.535	5342
469.614	3635
469.693	4464
469.772	5595
469.851	7551
469.930	5643
470.009	3806
470.088	4449
470.166	5068
470.245	7921
470.324	9217
470.403	4935
470.482	4025
470.560	3718
470.639	4338
470.718	5594
470.797	4655
470.875	4688
470.954	5965
471.033	5313
471.111	3636
471.190	2801
471.269	2262
471.347	2697
471.426	2962
471.505	3746
471.583	4347
471.662	3418
471.740	3894
471.819	3907
471.898	2724
471.976	4288
472.055	2881
472.133	3864
472.212	5145
472.290	4442
472.369	2658
472.447	2606
472.526	3312
472.604	3895
472.683	3906
472.761	3717
472.839	3093
472.918	3481
472.996	3850
473.075	4786
473.153	3652
473.231	3179
473.310	4015
473.388	2703
473.466	4133
473.545	4627
473.623	5383
473.701	5175
473.780	3775
473.858	2075
473.936	4682
474.014	3426
474.093	3335
474.171	5288
474.249	6635
474.327	4144
474.405	2425
474.484	2622
474.562	2407
474.640	3176
474.718	3474
474.796	3146
474.874	3312
474.952	2230
475.030	2320
475.108	3314
475.187	3901
475.265	3791
475.343	5369
475.421	5899
475.499	2985
475.577	3945
475.655	4922
475.733	8074
475.811	12007
475.889	10599
475.966	6358
476.044	3598
476.122	4238
476.200	4862
476.278	3614
476.356	3018
476.434	4229
476.512	4304
476.590	5079
476.667	3971
476.745	2411
476.823	4049
476.901	3094
476.979	3212
477.056	2656
477.134	4241
477.212	3201
477.290	3071
477.367	2738
477.445	3312
477.523	2503
477.601	2594
477.678	2695
477.756	3764
477.834	3734
477.911	2161
477.989	2063
478.066	2447
478.144	3022
478.222	3505
478.299	6614
478.377	4653
478.454	3296
478.532	2289
478.609	2486
478.687	3680
478.764	1876
478.842	2740
478.919	2912
478.997	2958
479.074	2214
479.152	3082
479.229	3713
479.307	2571
479.384	1850
479.461	1884
479.539	2101
479.616	2381
479.694	1792
479.771	2784
479.848	3052
479.926	3257
480.003	4016
480.080	2182
480.157	2006
480.235	1424
480.312	2030
480.389	3119
480.467	4610
480.544	4417
480.621	3379
480.698	2893
480.775	3577
480.853	3141
480.930	3242
481.007	2888
481.084	2773
481.161	3596
481.238	2547
481.315	2350
481.392	1419
481.470	2108
481.547	2286
481.624	1298
481.701	2543
481.778	2961
481.855	3532
481.932	4217
482.009	6657
482.086	3356
482.163	2189
482.240	4512
482.317	6299
482.393	5528
482.470	2605
482.547	2623
482.624	3140
482.701	2026
482.778	2813
482.855	1461
482.932	1542
483.009	2544
483.085	2674
483.162	3214
483.239	3769
483.316	1822
483.393	2512
483.469	2088
483.546	3045
483.623	2533
483.699	1287
483.776	1989
483.853	2863
483.930	4998
484.006	11164
484.083	18680
484.160	11470
484.236	18777
484.313	12835
484.389	10300
484.466	9715
484.543	7610
484.619	7109
484.696	10520
484.772	8376
484.849	9393
484.925	8320
485.002	7559
485.078	8343
485.155	8140
485.231	7120
485.308	7140
485.384	6852
485.461	8883
485.537	13025
485.614	14188
485.690	7154
485.766	6870
485.843	8279
485.919	10162
485.995	10208
486.072	6909
486.148	6713
486.224	7146
486.301	6732
486.377	6792
486.453	7077
486.530	8433
486.606	10989
486.682	10568
486.758	13103
486.835	12459
486.911	11252
486.987	18504
487.063	20861
487.139	25616
487.215	16592
487.292	8461
487.368	7624
487.444	8406
487.520	10174
487.596	9077
487.672	14787
487.748	30475
487.824	37948
487.900	12167
487.976	7994
488.052	7890
488.128	9278
488.204	7484
488.280	8092
488.356	8768
488.432	14917
488.508	18513
488.584	7553
488.660	6838
488.736	7067
488.812	6787
488.888	9453
488.964	13599
489.039	27731
489.115	37149
489.191	18542
489.267	6656
489.343	6402
489.418	5542
489.494	5466
489.570	3983
489.646	6414
489.722	5803
489.797	5648
489.873	8933
489.949	15759
490.024	12277
490.100	5030
490.176	5470
490.251	7172
490.327	9106
490.403	4741
490.478	5743
490.554	4120
490.629	4209
490.705	3871
490.781	5413
490.856	4786
490.932	5804
491.007	6386
491.083	4859
491.158	4347
491.234	7024
491.309	12779
491.385	10226
491.460	4280
491.536	5984
491.611	5099
491.686	6142
491.762	8462
491.837	17716
491.913	27590
491.988	38333
492.063	42044
492.139	9808
492.214	6049
492.289	4343
492.365	3847
492.440	5492
492.515	4174
492.590	4490
492.666	3782
492.741	6176
492.816	6130
492.891	3357
492.967	4387
493.042	3560
493.117	2711
493.192	3314
493.267	6414
493.342	10005
493.418	11577
493.493	3912
493.568	3223
493.643	3058
493.718	4573
493.793	6507
493.868	8719
493.943	5014
494.018	4020
494.093	3306
494.168	3594
494.243	2900
494.318	3697
494.393	3225
494.468	3007
494.543	2784
494.618	3888
494.693	3017
494.768	2899
494.842	3164
494.917	2415
494.992	3475
495.067	2874
495.142	3543
495.217	3007
495.292	3518
495.366	3644
495.441	4703
495.516	6420
495.591	12692
495.665	41002
495.740	80644
495.815	24219
495.890	4071
495.964	2280
496.039	5824
496.114	4282
496.188	5060
496.263	4438
496.338	3977
496.412	4282
496.487	5417
496.561	5431
496.636	5449
496.710	3913
496.785	4917
496.860	5137
496.934	4557
497.009	4420
497.083	4417
497.158	5193
497.232	6343
497.307	6978
497.381	6253
497.455	6752
497.530	8592
497.604	6323
497.679	7826
497.753	11494
497.827	14689
497.902	14225
497.976	18500
498.050	42905
498.125	126170
498.199	103195
498.273	22158
498.348	17601
498.422	14299
498.496	12207
498.570	10239
498.645	6990
498.719	6671
498.793	8489
498.867	13580
498.941	17948
499.016	54899
499.090	119354
499.164	32277
499.238	4505
499.312	6117
499.386	6381
499.460	5605
499.534	5442
499.609	6531
499.683	8559
499.757	9536
499.831	25738
499.905	82894
499.979	60860
500.053	10749
500.127	10574
500.201	7817
500.275	4800
500.349	4639
500.422	5695
500.496	10313
500.570	23080
500.644	50923
500.718	73627
500.792	12466
500.866	4999
500.940	5578
501.013	4139
501.087	5681
501.161	10146
501.235	12767
501.309	29647
501.382	70257
501.456	49094
501.530	12412
501.603	19433
501.677	6684
501.751	2693
501.825	6076
501.898	10336
501.972	25534
502.046	12995
502.119	3998
502.193	14042
502.266	27233
502.340	12459
502.413	13295
502.487	22077
502.561	11230
502.634	3582
502.708	3867
502.781	2361
502.855	3517
502.928	2615
503.002	2350
503.075	1856
503.149	2610
503.222	2677
503.295	2695
503.369	3516
503.442	6050
503.516	22417
503.589	46188
503.662	24956
503.736	10089
503.809	22831
503.882	16999
503.956	28848
504.029	21384
504.102	18603
504.175	21924
504.249	5764
504.322	4475
504.395	3332
504.468	2454
504.542	1603
504.615	1726
504.688	2660
504.761	474
504.834	3398
504.907	4568
504.980	7711
505.053	3584
505.127	3803
505.200	6085
505.273	3849
505.346	2403
505.419	794
505.492	1822
505.565	1468
505.638	1656
505.711	1137
505.784	1893
505.857	599
505.930	2687
506.003	657
506.076	2929
506.149	2059
506.221	2363
506.294	5641
506.367	12324
506.440	35599
506.513	14831
506.586	3762
506.659	2215
506.731	2354
506.804	2577
506.877	3632
506.950	2165
507.022	2182
507.095	1752
507.168	2886
507.241	2825
507.313	1524
507.386	2488
507.459	4986
507.531	2077
507.604	1577
507.677	1175
507.749	679
507.822	4111
507.894	7065
507.967	7958
508.040	3701
508.112	3633
508.185	4307
508.257	2579
508.330	6542
508.402	2920
508.475	2968
508.547	2676
508.620	2656
508.692	5321
508.765	3204
508.837	1472
508.909	3019
508.982	2435
509.054	3062
509.127	2182
509.199	2338
509.271	2042
509.344	1587
509.416	2667
509.488	2073
509.560	2790
509.633	1927
509.705	3057
509.777	3610
509.849	4203
509.922	1886
509.994	1686
510.066	3030
510.138	2695
510.210	8227
510.283	5188
510.355	4561
510.427	4445
510.499	4935
510.571	4746
510.643	3439
510.715	7894
510.787	4072
510.859	4621
510.931	4710
511.003	7166
511.076	5982
511.148	3436
511.219	2615
511.291	5549
511.363	5283
511.435	2623
511.507	2068
511.579	3613
511.651	3312
511.723	2028
511.795	1784
511.867	1843
511.939	3665
512.010	6907
512.082	5168
512.154	2918
512.226	2685
512.298	6086
512.369	7317
512.441	6365
512.513	6389
512.585	2991
512.656	5200
512.728	4759
512.800	3826
512.871	3934
512.943	3172
513.015	2247
513.086	3200
513.158	4367
513.230	3048
513.301	7489
513.373	7074
513.444	3308
513.516	3460
513.588	3250
513.659	5016
513.731	4930
513.802	4121
513.874	11885
513.945	14224
514.016	4175
514.088	4326
514.159	2921
514.231	5754
514.302	7317
514.374	5396
514.445	3759
514.516	9634
514.588	5392
514.659	4613
514.730	6628
514.802	7516
514.873	4166
514.944	6736
515.016	4853
515.087	5046
515.158	5933
515.229	8865
515.301	6407
515.372	8234
515.443	3928
515.514	3553
515.585	1925
515.656	3214
515.728	3798
515.799	2486
515.870	3420
515.941	4082
516.012	2952
516.083	6404
516.154	5699
516.225	8739
516.296	6649
516.367	5593
516.438	6312
516.509	9107
516.580	18670
516.651	62533
516.722	166394
516.793	55283
516.864	10858
516.935	12144
517.006	14860
517.077	24637
517.148	65412
517.219	220699
517.289	250760
517.360	51786
517.431	15195
517.502	5733
517.573	5885
517.643	5725
517.714	5756
517.785	6194
517.856	6522
517.926	9413
517.997	9866
518.068	12713
518.138	21694
518.209	43444
518.280	166492
518.350	444136
518.421	120586
518.492	12965
518.562	7670
518.633	7556
518.703	6871
518.774	15396
518.845	26514
518.915	21985
518.986	8751
519.056	9104
519.127	16140
519.197	23583
519.268	43390
519.338	21280
519.408	7772
519.479	9216
519.549	6089
519.620	5320
519.690	3998
519.760	2985
519.831	3462
519.901	2235
519.971	3223
520.042	3054
520.112	3401
520.182	5965
520.253	4983
520.323	2731
520.393	3649
520.463	7211
520.534	2526
520.604	9127
520.674	4726
520.744	4975
520.814	10101
520.885	9825
520.955	16288
521.025	45049
521.095	12926
521.165	4023
521.235	2071
521.305	1705
521.375	2399
521.445	4094
521.515	5057
521.585	6989
521.655	3513
521.725	5125
521.795	4490
521.865	533
521.935	5967
522.005	2821
522.075	1456
522.145	3685
522.215	1822
522.285	5532
522.355	6465
522.424	11306
522.494	7302
522.564	6909
522.634	16938
522.704	40668
522.774	11137
522.843	3432
522.913	2955
522.983	4250
523.053	2501
523.122	4275
523.192	7100
523.262	22963
523.331	15856
523.401	3801
523.471	1813
523.540	3002
523.610	1758
523.680	2635
523.749	2312
523.819	2441
523.888	2061
523.958	1665
524.027	2235
524.097	2501
524.166	2729
524.236	2391
524.305	4151
524.375	1943
524.444	754
524.514	3640
524.583	1772
524.653	1809
524.722	3517
524.791	1665
524.861	2478
524.930	612
524.999	1553
525.069	4309
525.138	2738
525.207	2453
525.277	2329
525.346	2198
525.415	3075
525.484	2324
525.554	2415
525.623	2959
525.692	2171
525.761	2719
525.830	2467
525.900	2957
525.969	5820
526.038	9932
526.107	20034
526.176	50418
526.245	33780
526.314	15122
526.383	30834
526.452	33214
526.522	65927
526.591	55504
526.660	18317
526.729	9663
526.797	15739
526.867	38769
526.935	140103
527.004	167644
527.073	65016
527.142	4369
527.211	3236
527.280	5099
527.349	3703
527.418	1261
527.487	2580
527.555	912
527.624	1284
527.693	311
527.762	2671
527.831	1477
527.899	1717
527.968	1279
528.037	1058
528.106	3753
528.174	5958
528.243	4643
528.312	7114
528.380	8249
528.449	1721
528.518	2498
528.586	346
528.655	2611
528.723	1435
528.792	462
528.861	855
528.929	556
528.998	2154
529.066	1054
529.135	1598
529.203	588
529.272	-196
529.340	1116
529.409	2941
529.477	877
529.545	408
529.614	3503
529.682	820
529.751	2368
529.819	5348
529.887	1734
529.956	903
530.024	1457
530.092	1008
530.161	2571
530.229	4088
530.297	1427
530.365	2301
530.434	1380
530.502	-231
530.570	1436
530.638	143
530.707	1905
530.775	3187
530.843	-281
530.911	1200
530.979	1106
531.047	823
531.115	1537
531.183	2032
531.252	1375
531.320	1144
531.388	291
531.456	2170
531.524	-466
531.592	1209
531.660	3351
531.728	666
531.796	712
531.864	791
531.932	1971
532.000	1043
532.067	1516
532.135	1608
532.203	3697
532.271	2528
532.339	6971
532.407	16640
532.475	7238
532.542	3997
532.610	5302
532.678	9199
532.746	43147
532.814	80170
532.881	14224
532.949	2414
533.017	1841
533.084	1303
533.152	2328
533.220	2091
533.287	1198
533.355	1143
533.423	1538
533.490	432
533.558	1062
533.625	1662
533.693	807
533.761	1633
533.828	2764
533.896	1610
533.963	4369
534.031	6413
534.098	8905
534.166	2524
534.233	863
534.300	2805
534.368	2666
534.435	1140
534.503	2052
534.570	2474
534.637	1035
534.705	2589
534.772	3830
534.840	6048
534.907	26756
534.974	24999
535.041	3284
535.109	2365
535.176	108
535.243	2380
535.310	1607
535.378	1188
535.445	2781
535.512	1918
535.579	2174
535.646	1020
535.714	1335
535.781	3193
535.848	3463
535.915	2462
535.982	1790
536.049	1789
536.116	2918
536.183	2118
536.250	2265
536.317	1568
536.384	3640
536.451	4302
536.518	5041
536.585	902
536.652	5608
536.719	7575
536.786	3175
536.853	3783
536.920	6960
536.987	10918
537.053	11435
537.120	47858
537.187	30306
537.254	2508
537.321	1938
537.388	3408
537.454	1144
537.521	1397
537.588	2151
537.654	1845
537.721	3207
537.788	3663
537.855	1701
537.921	2714
537.988	1998
538.055	3255
538.121	1611
538.188	3705
538.254	4654
538.321	9866
538.388	5744
538.454	2888
538.521	2983
538.587	2519
538.654	1633
538.720	1580
538.787	3221
538.853	2941
538.920	3427
538.986	2762
539.053	1926
539.119	2730
539.185	2531
539.252	4469
539.318	5321
539.385	4986
539.451	2828
539.517	4511
539.583	6208
539.650	13874
539.716	30540
539.782	6820
539.849	2128
539.915	3573
539.981	3222
540.047	2960
540.114	3130
540.180	4764
540.246	2841
540.312	5341
540.378	10036
540.444	11260
540.510	16570
540.576	34814
540.643	8174
540.709	1430
540.775	2106
540.841	2908
540.907	4372
540.973	6765
541.039	5533
541.105	5817
541.171	2552
541.237	2217
541.303	4095
541.369	6164
541.435	5367
541.500	9855
541.566	2746
541.632	3111
541.698	2562
541.764	4124
541.830	2267
541.896	2008
541.961	2848
542.027	1973
542.093	2565
542.159	3755
542.224	2979
542.290	6635
542.356	9047
542.421	10432
542.487	4472
542.553	2988
542.618	2892
542.684	3231
542.750	2809
542.815	5639
542.881	9989
542.947	34113
543.012	19339
543.078	3227
543.143	1732
543.209	3939
543.274	3169
543.340	5485
543.405	13195
543.471	16471
543.536	3938
543.602	3152
543.667	1033
543.732	3569
543.798	1869
543.863	3304
543.928	2108
543.994	2532
544.059	3879
544.124	3346
544.190	3164
544.255	3394
544.320	2333
544.386	2839
544.451	5741
544.516	6147
544.581	6088
544.646	23679
544.712	27637
544.777	6024
544.842	4331
544.907	3755
544.972	3562
545.037	3662
545.102	3769
545.168	4092
545.233	4794
545.298	4864
545.363	4088
545.428	6474
545.493	14202
545.558	25545
545.623	8961
545.688	2660
545.753	3970
545.818	4212
545.883	4788
545.947	3529
546.012	5312
546.077	3901
546.142	5145
546.207	4299
546.272	6471
546.337	5541
546.401	4997
546.466	4470
546.531	4031
546.596	4703
546.661	4549
546.725	5136
546.790	4301
546.855	5139
546.919	4513
546.984	6354
547.049	5778
547.113	6737
547.178	6072
547.243	8136
547.307	9115
547.372	10418
547.436	9269
547.501	9108
547.565	10723
547.630	10830
547.695	10837
547.759	10241
547.823	8605
547.888	8726
547.952	8681
548.017	9705
548.081	10388
548.146	12716
548.210	11265
548.274	10719
548.339	10622
548.403	9524
548.468	9422
548.532	8927
548.596	8821
548.660	9135
548.725	10427
548.789	11771
548.853	12868
548.917	10120
548.982	11660
549.046	10596
549.110	7144
549.174	8557
549.238	9542
549.303	10266
549.367	11837
549.431	9801
549.495	9745
549.559	9762
549.623	11479
549.687	13460
549.751	15415
549.815	14962
549.879	14634
549.943	12738
550.007	14776
550.071	14424
550.135	14805
550.199	12955
550.263	10984
550.327	13324
550.391	13964
550.455	12975
550.519	14375
550.582	15566
550.646	19289
550.710	19041
550.774	15351
550.838	16204
550.901	15886
550.965	18434
551.029	18509
551.093	20642
551.156	23204
551.220	30080
551.284	31703
551.347	23480
551.411	28261
551.475	27033
551.538	18226
551.602	16590
551.666	14961
551.729	13394
551.793	14768
551.856	13678
551.920	13782
551.983	13703
552.047	15197
552.110	14377
552.174	13612
552.237	14984
552.301	13768
552.364	13080
552.428	11902
552.491	13153
552.554	14253
552.618	13572
552.681	15094
552.745	14347
552.808	21182
552.871	23997
552.934	16561
552.998	14192
553.061	13137
553.124	13631
553.187	13525
553.251	13656
553.314	13635
553.377	13568
553.440	15642
553.503	19828
553.567	22248
553.630	15140
553.693	14576
553.756	14021
553.819	14305
553.882	13750
553.945	14234
554.008	13731
554.071	13190
554.134	14163
554.197	12155
554.260	13024
554.323	13993
554.386	14153
554.449	14049
554.512	15003
554.575	12878
554.638	13022
554.701	12265
554.764	13332
554.827	13357
554.889	12026
554.952	11933
555.015	11125
555.078	10991
555.141	12280
555.203	11592
555.266	11335
555.329	11034
555.391	10959
555.454	11381
555.517	11712
555.580	9951
555.642	10397
555.705	9821
555.768	10165
555.830	9712
555.893	8989
555.955	9388
556.018	9358
556.080	9025
556.143	8835
556.206	9924
556.268	9220
556.330	10092
556.393	9493
556.455	9122
556.518	10992
556.580	10412
556.643	8143
556.705	8081
556.767	7998
556.830	7795
556.892	9673
556.955	10385
557.017	9805
557.079	8842
557.142	8327
557.204	8896
557.266	15111
557.328	11448
557.391	6635
557.453	6031
557.515	7362
557.577	7593
557.639	7708
557.701	7772
557.764	6566
557.826	7221
557.888	7223
557.950	7782
558.012	8848
558.074	12822
558.136	23985
558.198	44269
558.260	15255
558.322	8206
558.384	7771
558.446	9984
558.508	11081
558.570	15350
558.632	24820
558.694	34466
558.756	43638
558.818	114871
558.880	218573
558.942	56973
559.003	47064
559.065	20441
559.127	10448
559.189	11512
559.251	15216
559.312	25299
559.374	55210
559.436	143836
559.498	55266
559.559	10462
559.621	12026
559.683	16792
559.744	27979
559.806	75288
559.868	88038
559.929	16626
559.991	14177
560.052	20304
560.114	48883
560.176	27684
560.237	30776
560.299	39614
560.360	9316
560.422	6427
560.483	5510
560.545	6159
560.606	6050
560.667	6060
560.729	4845
560.790	5171
560.852	5676
560.913	4739
560.974	5351
561.036	4915
561.097	5574
561.158	5463
561.220	5387
561.281	5272
561.342	6552
561.403	8205
561.465	9690
561.526	20458
561.587	21497
561.648	6424
561.709	5829
561.771	5610
561.832	5299
561.893	5792
561.954	5832
562.015	5219
562.076	6001
562.137	6178
562.198	6125
562.259	6445
562.320	6105
562.381	7146
562.442	9046
562.503	6599
562.564	5185
562.625	5481
562.686	6316
562.747	6495
562.808	6499
562.869	5615
562.930	7417
562.991	6743
563.051	5042
563.112	5976
563.173	5946
563.234	5174
563.294	5399
563.355	5855
563.416	6874
563.477	5979
563.537	6201
563.598	6097
563.659	6022
563.720	5724
563.780	6458
563.841	5933
563.901	5850
563.962	5182
564.023	6622
564.083	6439
564.144	6529
564.204	6016
564.265	6149
564.325	7269
564.386	11512
564.446	8566
564.507	7330
564.567	5533
564.628	5862
564.688	5724
564.749	5671
564.809	7199
564.869	7459
564.930	6564
564.990	7260
565.050	5986
565.111	6632
565.171	6054
565.231	6065
565.292	7443
565.352	6100
565.412	7068
565.472	6072
565.532	7685
565.593	6941
565.653	6581
565.713	7379
565.773	7626
565.833	8592
565.893	10232
565.953	7613
566.013	7345
566.074	7971
566.134	9416
566.194	12296
566.254	12084
566.314	8792
566.374	7852
566.434	8213
566.494	8595
566.554	7186
566.614	9060
566.673	8445
566.733	9504
566.793	9536
566.853	10592
566.913	9798
566.973	10610
567.033	10179
567.092	9708
567.152	10066
567.212	10750
567.272	10888
567.331	11526
567.391	11310
567.451	12378
567.511	15068
567.570	13726
567.630	10849
567.690	10911
567.749	11880
567.809	11988
567.868	14011
567.928	15172
567.988	18073
568.047	22129
568.107	28245
568.166	38300
568.226	59769
568.285	76361
568.345	57614
568.404	46175
568.464	39359
568.523	37816
568.582	41647
568.642	47117
568.701	61621
568.761	91025
568.820	134737
568.879	115375
568.939	80616
568.998	59150
569.057	44649
569.116	37470
569.176	29855
569.235	24955
569.294	22466
569.353	19283
569.413	18308
569.472	16462
569.531	14195
569.590	14095
569.649	13065
569.708	11427
569.767	11921
569.827	11945
569.886	11905
569.945	10469
570.004	9982
570.063	10169
570.122	10137
570.181	10035
570.240	10434
570.299	10286
570.358	10281
570.417	8717
570.475	7844
570.534	9467
570.593	9453
570.652	9009
570.711	9180
570.770	7927
570.829	8667
570.887	8164
570.946	9596
571.005	8005
571.064	8891
571.122	8287
571.181	8419
571.240	8177
571.299	7850
571.357	8693
571.416	7907
571.475	9134
571.533	9382
571.592	7310
571.650	8411
571.709	7744
571.768	8525
571.826	7337
571.885	7291
571.943	6984
572.002	6778
572.060	7609
572.119	6869
572.177	6807
572.236	7264
572.294	6735
572.352	7286
572.411	7590
572.469	6833
572.528	6923
572.586	7690
572.644	8041
572.703	9551
572.761	8235
572.819	6988
572.877	7460
572.936	7154
572.994	6477
573.052	6768
573.110	7017
573.169	6914
573.227	6100
573.285	7074
573.343	7043
573.401	6464
573.459	7214
573.517	6696
573.576	7003
573.634	7694
573.692	6373
573.750	7021
573.808	7002
573.866	7035
573.924	8727
573.982	7771
574.040	6570
574.098	6744
574.155	6326
574.213	7860
574.271	7094
574.329	7247
574.387	6730
574.445	6062
574.503	6687
574.560	6972
574.618	6736
574.676	6415
574.734	6325
574.792	6912
574.849	6396
574.907	6171
574.965	5978
575.022	6193
575.080	6219
575.138	6403
575.195	6943
575.253	6578
575.311	7736
575.368	6902
575.426	6088
575.483	6597
575.541	6287
575.598	6560
575.656	7013
575.713	6619
575.771	6805
575.828	6787
575.886	6699
575.943	7911
576.001	7340
576.058	6417
576.115	6950
576.173	8415
576.230	8737
576.287	9022
576.345	8221
576.402	6868
576.459	7749
576.517	7116
576.574	9138
576.631	7808
576.688	7019
576.746	7018
576.803	7140
576.860	7049
576.917	7661
576.974	7405
577.031	7748
577.089	7933
577.146	7229
577.203	7377
577.260	8376
577.317	8003
577.374	7370
577.431	7440
577.488	7985
577.545	7581
577.602	8101
577.659	7176
577.716	7424
577.773	8000
577.830	6955
577.886	8652
577.943	7684
578.000	7209
578.057	7357
578.114	8215
578.171	7134
578.227	7788
578.284	7368
578.341	8425
578.398	7881
578.454	8486
578.511	9200
578.568	8497
578.625	7698
578.681	8051
578.738	7843
578.794	8086
578.851	8296
578.908	8030
578.964	9234
579.021	8792
579.077	8550
579.134	8865
579.190	7693
579.247	8051
579.303	8000
579.360	8240
579.416	8348
579.473	7560
579.529	7522
579.586	8142
579.642	8428
579.698	8577
579.755	8552
579.811	7857
579.867	8221
579.924	8398
579.980	7459
580.036	7775
580.093	8542
580.149	8686
580.205	8637
580.261	8649
580.317	8369
580.374	8878
580.430	10460
580.486	9412
580.542	9200
580.598	9068
580.619	9114
580.654	9194
580.692	8972
580.710	8863
580.765	9825
580.767	9855
580.823	9876
580.838	9850
580.879	9768
580.911	9150
580.935	8696
580.984	9092
580.991	9151
581.047	9759
581.057	9693
581.103	9363
581.130	9914
581.159	10496
581.203	10201
581.215	10126
581.270	9903
581.276	9877
581.326	9539
581.349	10075
581.382	10889
581.422	10065
581.438	9718
581.494	10455
581.494	10463
581.550	10996
581.567	11170
581.606	11483
581.640	11223
581.661	11090
581.713	12428
581.717	12526
581.773	10659
581.786	10733
581.829	10916
581.859	10959
581.885	11060
581.932	11793
581.940	11921
581.996	11836
582.004	11865
582.052	11902
582.077	12035
582.107	12240
582.150	11680
582.163	11496
582.219	12527
582.223	12460
582.274	11631
582.296	11841
582.330	12152
582.368	12746
582.386	12998
582.441	12380
582.441	12374
582.497	12727
582.514	12836
582.552	13120
582.587	12777
582.608	12583
582.659	12308
582.663	12262
582.719	13349
582.732	13281
582.774	13210
582.805	13743
582.830	14151
582.877	14417
582.885	14458
582.941	13541
582.950	13549
582.996	13672
583.023	13982
583.052	14382
583.095	14784
583.107	14822
583.162	14484
583.168	14520
583.218	14966
583.240	14858
583.273	14609
583.313	14808
583.328	15015
583.384	15283
583.385	15302
583.439	15370
583.458	15196
583.494	14879
583.531	14900
583.549	15058
583.603	16253
583.605	16280
583.660	15611
583.676	15745
583.715	16235
583.748	16996
583.770	17603
583.820	18354
583.825	18373
583.881	17365
583.893	17327
583.936	17956
583.965	18037
583.991	17784
584.038	17977
584.046	18053
584.101	18270
584.110	18350
584.156	18840
584.183	18924
584.211	18931
584.255	19340
584.266	19450
584.321	19060
584.328	19109
584.376	19973
584.400	20228
584.431	20359
584.472	20217
584.486	20224
584.541	21099
584.545	21113
584.596	21767
584.617	21725
584.651	22013
584.689	23425
584.706	23798
584.761	23473
584.762	23458
584.816	24161
584.834	24221
584.871	24342
584.906	24628
584.926	24968
584.978	25991
584.980	26058
585.035	27510
585.051	27772
585.090	28340
585.123	28819
585.145	29247
585.195	29755
585.200	29896
585.254	31477
585.267	31927
585.309	33136
585.340	34366
585.364	35763
585.412	38054
585.419	38478
585.473	42962
585.484	43936
585.528	49710
585.556	54075
585.583	65478
585.628	87870
585.637	98644
585.692	178678
585.700	190947
585.747	233572
585.772	225636
585.801	157660
585.845	73953
585.856	67219
585.910	47931
585.917	45689
585.965	43068
585.989	42183
586.019	42573
586.061	41951
586.074	41926
586.128	43055
586.133	43050
586.183	44296
586.205	44726
586.237	45350
586.277	45554
586.292	45762
586.346	47669
586.349	47609
586.401	48345
586.421	48993
586.455	50025
586.493	51445
586.509	53800
586.564	60856
586.565	60975
586.618	74349
586.637	76785
586.672	69707
586.709	62839
586.727	62293
586.781	61873
586.781	61988
586.835	62306
586.853	62638
586.889	63506
586.925	63473
586.944	64327
586.996	67175
586.998	67379
587.052	70088
587.068	70752
587.106	72941
587.140	74668
587.161	75943
587.212	79294
587.215	79679
587.269	84390
587.284	85235
587.323	87645
587.356	89887
587.377	91888
587.427	96193
587.431	96750
587.485	102011
587.499	103212
587.539	107576
587.571	110842
587.593	114209
587.643	121068
587.648	122036
587.702	130800
587.715	132466
587.755	139801
587.786	145591
587.810	150791
587.858	160772
587.864	162628
587.917	178012
587.930	181238
587.971	195150
588.001	205340
588.025	215018
588.073	233081
588.079	236499
588.133	264014
588.145	269625
588.187	295734
588.217	313719
588.241	333678
588.288	373386
588.295	380614
588.348	434977
588.360	446290
588.402	504673
588.431	545110
588.456	590402
588.503	676650
588.510	695124
588.564	838672
588.575	867602
588.617	1036188
588.646	1151220
588.671	1300840
588.718	1583675
588.725	1647196
588.778	2117024
588.789	2206426
588.832	2497449
588.861	2674654
588.886	2535101
588.932	2190300
588.939	2154876
588.993	1835510
589.004	1787143
589.047	2394962
589.075	2757908
589.100	2687595
589.147	2494449
589.154	2443285
589.207	1984269
589.218	1886560
589.261	1737997
589.290	1636814
589.314	1678788
589.361	1759527
589.368	1806131
589.421	2163662
589.433	2234012
589.475	2467504
589.504	2601825
589.528	2443202
589.576	2062644
589.582	2101026
589.635	2452212
589.647	2510616
589.689	2306842
589.718	2132721
589.742	1872480
589.790	1337798
589.795	1307456
589.849	991471
589.861	917039
589.902	787360
589.932	688055
589.955	636858
590.004	526574
590.009	521586
590.062	451792
590.075	433631
590.115	396216
590.146	365612
590.168	351415
590.218	316489
590.222	315268
590.275	287656
590.289	279654
590.328	264555
590.360	250872
590.381	243787
590.431	224938
590.435	224771
590.488	210253
590.503	205645
590.541	199244
590.574	192389
590.594	188792
590.645	177635
590.647	177810
590.700	167735
590.716	164137
590.753	160451
590.787	156079
590.806	153794
590.859	145750
590.859	146124
590.912	140033
590.930	137577
590.965	135366
591.001	132519
591.018	132224
591.071	129704
591.072	129246
591.124	125265
591.143	123298
591.177	121396
591.214	118425
591.230	118640
591.283	118173
591.285	117750
591.336	115416
591.356	113983
591.389	112595
591.427	109882
591.442	109026
591.495	104791
591.498	104114
591.547	102534
591.569	101308
591.600	100489
591.640	98600
591.653	98861
591.706	98549
591.711	98181
591.759	98031
591.782	97415
591.811	98833
591.853	100056
591.864	99451
591.917	94604
591.924	93560
591.969	92778
591.995	91848
592.022	91666
592.066	90470
592.075	91252
592.127	94125
592.137	94316
592.180	96294
592.208	96955
592.233	94236
592.279	88150
592.285	88211
592.338	86032
592.350	85222
592.390	84172
592.421	82871
592.443	83210
592.491	82998
592.495	83274
592.548	82947
592.562	82560
592.600	82256
592.633	81432
592.653	81611
592.704	80849
592.705	81272
592.775	78955
592.846	79100
592.916	81038
592.987	81437
593.058	79343
593.128	75374
593.199	74503
593.270	73904
593.341	72814
593.411	73436
593.482	74257
593.553	72624
593.623	70253
593.694	73068
593.764	73709
593.835	71917
593.906	70624
593.976	69183
594.047	71335
594.117	75883
594.188	76768
594.258	69128
594.329	67203
594.399	67437
594.470	68333
594.540	68073
594.611	67973
594.681	67827
594.751	68236
594.822	69786
594.892	70960
594.963	71296
595.033	69837
595.103	71521
595.174	73229
595.244	85460
595.314	95337
595.384	72829
595.455	71750
595.525	73487
595.595	73690
595.665	73654
595.736	71909
595.806	72086
595.876	70880
595.946	71700
596.016	72355
596.087	73977
596.157	73464
596.227	73679
596.297	75519
596.367	78762
596.437	83325
596.507	91107
596.577	98381
596.647	82746
596.717	84011
596.787	82822
596.857	82258
596.927	83065
596.997	81906
597.067	83837
597.137	85063
597.207	85535
597.277	86002
597.347	83475
597.417	81736
597.487	82742
597.557	84671
597.626	84792
597.696	87280
597.766	92451
597.836	100150
597.906	81443
597.975	77830
598.045	77427
598.115	79257
598.185	81330
598.254	89050
598.324	95356
598.394	95648
598.464	93263
598.533	89566
598.603	86708
598.672	85222
598.742	86576
598.812	84265
598.881	86529
598.951	85283
599.020	86513
599.090	85926
599.159	88047
599.229	86956
599.299	83591
599.368	86976
599.437	85642
599.507	81391
599.576	80496
599.646	80714
599.715	80207
599.785	77221
599.854	77714
599.924	79516
599.993	78094
600.062	76552
600.132	78389
600.201	82127
600.270	92471
600.340	93515
600.409	89430
600.478	90553
600.547	90575
600.617	87221
600.686	76475
600.755	72035
600.824	70040
600.894	70169
600.963	67519
601.032	67288
601.101	66621
601.170	63798
601.239	64619
601.308	64611
601.378	65407
601.447	63501
601.516	64926
601.585	67568
601.654	70544
601.723	67175
601.792	65362
601.861	68362
601.930	73194
601.999	75098
602.068	70779
602.137	74615
602.206	75331
602.275	73618
602.343	77318
602.412	78190
602.481	72127
602.550	71442
602.619	72553
602.688	74335
602.756	74366
602.825	72776
602.894	73834
602.963	74114
603.032	75740
603.100	75357
603.169	75304
603.238	76573
603.307	76995
603.375	76434
603.444	76806
603.513	76798
603.581	79312
603.650	79321
603.719	76622
603.787	77005
603.856	78950
603.924	80983
603.993	82414
604.061	84564
604.130	87890
604.198	89230
604.267	89797
604.335	89747
604.404	91800
604.472	91372
604.541	93107
604.609	94157
604.678	93613
604.746	95073
604.815	96197
604.883	97486
604.951	97584
605.020	98011
605.088	99097
605.156	100585
605.225	100401
605.293	99875
605.361	100778
605.429	102813
605.498	104308
605.566	105348
605.634	110926
605.702	111834
605.771	115142
605.839	114891
605.907	112717
605.975	109999
606.043	108629
606.111	106259
606.180	108734
606.248	106692
606.316	107779
606.384	108649
606.452	112622
606.520	119102
606.588	112192
606.656	107753
606.724	104145
606.792	100376
606.860	91960
606.928	83594
606.996	82646
607.064	80538
607.132	82042
607.200	86878
607.267	89695
607.335	90815
607.403	91784
607.471	89443
607.539	87891
607.607	88596
607.674	79424
607.742	81187
607.810	81281
607.878	80151
607.946	81249
608.013	82463
608.081	86440
608.149	87249
608.216	88924
608.284	91562
608.352	90456
608.419	90113
608.487	98483
608.555	89906
608.622	88855
608.690	93062
608.757	100566
608.825	102475
608.893	103169
608.960	102316
609.028	104399
609.095	104734
609.163	96296
609.230	87026
609.298	79634
609.365	81653
609.432	88641
609.500	95744
609.567	106994
609.635	119752
609.702	126850
609.769	122334
609.837	103834
609.904	89715
609.971	92996
610.039	106400
610.106	143679
610.173	275799
610.241	644919
610.308	546356
610.375	256996
610.442	121894
610.509	95737
610.577	91345
610.644	90939
610.711	93681
610.778	94103
610.845	96123
610.912	101564
610.980	103800
611.047	106760
611.114	104911
611.181	100005
611.248	97042
611.315	104261
611.382	104289
611.449	108551
611.516	110888
611.583	108047
611.650	110107
611.717	112194
611.784	114135
611.851	121152
611.918	133035
611.984	156198
612.051	231165
612.118	480786
612.185	1208462
612.252	871039
612.319	210918
612.386	151926
612.452	136025
612.519	129802
612.586	133479
612.653	128730
612.719	127604
612.786	122115
612.853	114394
612.919	109726
612.986	113223
613.053	105575
613.120	101060
613.186	96981
613.253	100072
613.319	97320
613.386	98961
613.453	102332
613.519	106927
613.586	114540
613.652	136296
613.719	121481
613.785	115946
613.852	103349
613.918	101448
613.985	101101
614.051	108473
614.118	115904
614.184	112550
614.250	101335
614.317	102102
614.383	100111
614.449	101424
614.516	101692
614.582	102554
614.648	100079
614.715	100043
614.781	98547
614.847	99078
614.914	100597
614.980	100449
615.046	99240
615.112	101704
615.179	103765
615.245	111152
615.311	125886
615.377	171407
615.443	191990
615.509	139022
615.575	119121
615.642	113285
615.708	118375
615.774	124214
615.840	139426
615.906	163709
615.972	233179
616.038	422445
616.104	753528
616.170	1516401
616.236	1431794
616.302	337347
616.368	209845
616.434	156732
616.500	139153
616.565	145639
616.631	177541
616.697	153832
616.763	151353
616.829	212488
616.895	372341
616.961	386674
617.026	186293
617.092	123277
617.158	111544
617.224	107431
617.289	100974
617.355	97086
617.421	96140
617.487	94795
617.552	90780
617.618	88088
617.684	88648
617.749	90529
617.815	84569
617.880	83152
617.946	84769
618.012	87108
618.077	88712
618.143	84997
618.208	85945
618.274	90117
618.339	92304
618.405	79147
618.470	79544
618.536	80812
618.601	82115
618.667	77368
618.732	74374
618.798	72732
618.863	72102
618.928	71223
618.994	74361
619.059	78830
619.124	96142
619.190	80829
619.255	70866
619.320	71042
619.386	71191
619.451	69543
619.516	68351
619.581	69314
619.647	71726
619.712	70143
619.777	68414
619.842	70000
619.907	72550
619.972	71376
620.038	73169
620.103	68848
620.168	67319
620.233	68777
620.298	69827
620.363	70125
620.428	70678
620.493	72296
620.558	71754
620.623	72904
620.688	74357
620.753	72728
620.818	72935
620.883	74951
620.948	74430
621.013	72451
621.078	73566
621.143	73086
621.207	76515
621.272	76384
621.337	77816
621.402	77130
621.467	83696
621.532	84844
621.596	80044
621.661	75380
621.726	73146
621.791	72928
621.855	75408
621.920	77393
621.985	77538
622.049	80996
622.114	80320
622.179	78206
622.243	79838
622.308	80970
622.373	83141
622.437	84000
622.502	78676
622.566	77924
622.631	77149
622.695	80080
622.760	78439
622.824	78743
622.889	80619
622.953	85044
623.018	107943
623.082	107398
623.147	82357
623.211	82214
623.276	82915
623.340	76535
623.404	74379
623.469	75052
623.533	75424
623.597	73860
623.662	73453
623.726	70092
623.790	66628
623.854	65656
623.919	67969
623.983	68713
624.047	69796
624.111	68448
624.176	70624
624.240	72826
624.304	78820
624.368	69161
624.432	69715
624.496	72081
624.560	76948
624.625	82437
624.689	73764
624.753	73204
624.817	72378
624.881	69985
624.945	66138
625.009	64701
625.073	65880
625.137	71738
625.201	82013
625.265	82063
625.329	69508
625.393	70349
625.456	69015
625.520	69961
625.584	74918
625.648	80816
625.712	97103
625.776	158455
625.839	175552
625.903	90755
625.967	65506
626.031	86452
626.095	118676
626.158	74054
626.222	55682
626.286	53861
626.349	51485
626.413	49627
626.477	54492
626.540	50548
626.604	49589
626.668	49397
626.731	48789
626.795	49614
626.858	49475
626.922	46955
626.986	48862
627.049	46013
627.113	48263
627.176	48079
627.240	45955
627.303	46684
627.366	46696
627.430	48216
627.493	47344
627.557	46314
627.620	47771
627.684	47277
627.747	47936
627.810	45179
627.874	43392
627.937	41355
628.000	45849
628.064	43705
628.127	39168
628.190	39571
628.253	38953
628.317	38392
628.380	36975
628.443	37294
628.506	38875
628.569	35235
628.632	34287
628.696	34173
628.759	34744
628.822	33683
628.885	34231
628.948	33544
629.011	34458
629.074	33047
629.137	32957
629.200	32442
629.263	36170
629.326	30987
629.389	31503
629.452	32369
629.515	32618
629.578	31238
629.641	33591
629.704	32790
629.767	33237
629.830	31303
629.892	30984
629.955	30388
630.018	32668
630.081	33392
630.144	41072
630.207	34040
630.269	35105
630.332	33262
630.395	31776
630.458	29892
630.520	29668
630.583	29884
630.646	29688
630.708	29040
630.771	28502
630.834	30207
630.896	28466
630.959	27851
631.021	28481
631.084	27834
631.146	30790
631.209	33004
631.272	28957
631.334	28827
631.397	29990
631.459	28270
631.522	31021
631.584	31436
631.646	31520
631.709	33594
631.771	39931
631.834	33683
631.896	29407
631.958	27822
632.021	28947
632.083	26690
632.145	29415
632.208	29153
632.270	29397
632.332	25665
632.395	25649
632.457	27544
632.519	27106
632.581	26803
632.643	26434
632.706	26901
632.768	25539
632.830	26317
632.892	25863
632.954	26940
633.016	27037
633.078	26383
633.141	26210
633.203	25741
633.265	26756
633.327	25621
633.389	26045
633.451	29333
633.513	34240
633.575	31760
633.637	32040
633.698	30272
633.760	27925
633.822	27941
633.884	28356
633.946	27824
634.008	27613
634.070	28623
634.132	30065
634.193	30285
634.255	32123
634.317	32001
634.379	33291
634.441	30238
634.502	28147
634.564	27228
634.626	26224
634.687	25045
634.749	25553
634.811	25089
634.873	23322
634.934	24135
634.996	24874
635.057	24534
635.119	24002
635.181	24485
635.242	24949
635.304	23703
635.365	26477
635.427	24905
635.488	26060
635.550	22958
635.611	24859
635.673	23858
635.734	27817
635.796	27085
635.857	30303
635.918	28871
635.980	30969
636.041	30614
636.102	33090
636.164	32455
636.225	32512
636.286	29788
636.348	29628
636.409	25832
636.470	24432
636.531	24581
636.593	26272
636.654	23615
636.715	22403
636.776	22470
636.838	21282
636.899	21321
636.960	20803
637.021	21048
637.082	20974
637.143	21348
637.204	19810
637.265	19446
637.326	21393
637.387	20123
637.448	19068
637.509	21014
637.570	20367
637.631	21006
637.692	19652
637.753	17452
637.814	19565
637.875	19173
637.936	20769
637.997	18991
638.058	19777
638.119	21344
638.179	18838
638.240	19142
638.301	19898
638.362	18696
638.423	18908
638.483	19087
638.544	17853
638.605	18648
638.666	18392
638.726	18535
638.787	19247
638.848	18143
638.908	18067
638.969	17762
639.030	18299
639.090	17399
639.151	17584
639.211	19589
639.272	24358
639.332	38198
639.393	24911
639.453	18321
639.514	19702
639.574	18147
639.635	17021
639.695	17674
639.756	17211
639.816	18697
639.877	21918
639.937	32880
639.997	42134
640.058	19452
640.118	17586
640.178	17473
640.239	16055
640.299	15815
640.359	16651
640.420	17242
640.480	17833
640.540	18694
640.600	20324
640.661	19280
640.721	17785
640.781	23435
640.841	19557
640.901	17430
640.961	17669
641.021	18742
641.082	21075
641.142	28138
641.202	21713
641.262	14721
641.322	16204
641.382	14394
641.442	16217
641.502	15821
641.562	16848
641.622	14787
641.682	17395
641.742	17653
641.802	17945
641.861	17235
641.921	17375
641.981	18735
642.041	19338
642.101	23433
642.161	17578
642.221	14369
642.280	14837
642.340	14617
642.400	14580
642.460	16111
642.519	15316
642.579	14808
642.639	16587
642.698	13575
642.758	17343
642.818	15709
642.877	15367
642.937	16824
642.997	19331
643.056	26907
643.116	18317
643.175	17134
643.235	16219
643.294	16428
643.354	18320
643.414	18684
643.473	21300
643.532	24071
643.592	33063
643.651	50645
643.711	87652
643.770	171374
643.830	410796
643.889	932606
643.948	242109
644.008	43175
644.067	27874
644.126	21124
644.186	18849
644.245	17755
644.304	15125
644.363	16770
644.423	15198
644.482	15667
644.541	15717
644.600	14485
644.659	20499
644.719	22123
644.778	31673
644.837	48467
644.896	95126
644.955	231241
645.014	83224
645.073	23593
645.132	18302
645.191	17464
645.250	16668
645.309	17987
645.368	17141
645.427	20659
645.486	29243
645.545	49259
645.604	20060
645.663	15189
645.722	14994
645.781	16472
645.840	19116
645.898	21561
645.957	30831
646.016	45104
646.075	81971
646.134	160838
646.192	426796
646.251	681238
646.310	107562
646.369	31577
646.427	23476
646.486	18790
646.545	16992
646.603	15223
646.662	14826
646.721	14707
646.779	13985
646.838	13808
646.896	17440
646.955	22220
647.014	31350
647.072	53054
647.131	143170
647.189	76427
647.248	16178
647.306	13436
647.365	13073
647.423	11187
647.481	13049
647.540	10687
647.598	11565
647.657	10939
647.715	12121
647.773	10856
647.832	12330
647.890	9949
647.948	10533
648.007	10991
648.065	9833
648.123	11018
648.181	13286
648.240	11223
648.298	10365
648.356	9756
648.414	11565
648.472	10359
648.531	11523
648.589	10628
648.647	9833
648.705	9709
648.763	10328
648.821	11252
648.879	11663
648.937	12656
648.995	13819
649.053	16321
649.111	24068
649.169	36718
649.227	66306
649.285	131567
649.343	396951
649.401	207559
649.459	57800
649.516	36206
649.574	16030
649.632	21032
649.690	22519
649.748	19854
649.806	24658
649.863	39737
649.921	98541
649.979	73270
650.037	14923
650.094	10641
650.152	11643
650.210	9918
650.268	11010
650.325	9678
650.383	10705
650.440	8723
650.498	10190
650.556	9109
650.613	9108
650.671	9335
650.728	10812
650.786	9331
650.843	11506
650.901	9316
650.958	8970
651.016	7774
651.073	8187
651.131	7910
651.188	8018
651.246	9118
651.303	7639
651.360	8396
651.418	8046
651.475	9287
651.532	7558
651.590	8387
651.647	7898
651.704	8451
651.762	7863
651.819	8244
651.876	8248
651.933	7263
651.990	8550
652.048	6635
652.105	7792
652.162	7804
652.219	7976
652.276	7868
652.333	7868
652.390	6392
652.448	8463
652.505	7907
652.562	7824
652.619	7584
652.676	7993
652.733	9260
652.790	8067
652.847	5833
652.904	7702
652.961	6489
653.017	8017
653.074	8120
653.131	7644
653.188	5998
653.245	7967
653.302	6985
653.359	7842
653.415	7516
653.472	6612
653.529	7242
653.586	6821
653.642	7230
653.699	7928
653.756	6657
653.813	6431
653.869	7439
653.926	6679
653.983	5500
654.039	6936
654.096	6792
654.152	7941
654.209	6106
654.266	7779
654.322	7414
654.379	7820
654.435	8049
654.492	8946
654.548	12275
654.605	18483
654.661	10249
654.717	8826
654.774	7942
654.830	7127
654.887	6352
654.943	7083
655.000	7400
655.056	8012
655.112	7443
655.168	6315
655.225	7731
655.281	8024
655.337	8613
655.394	13510
655.450	10572
655.506	10188
655.562	14365
655.618	12373
655.675	6258
655.731	7427
655.787	6973
655.843	8113
655.899	5651
655.955	6394
656.011	7025
656.067	6668
656.123	6300
656.179	7172
656.235	8372
656.291	6129
656.347	7292
656.403	6460
656.459	7183
656.515	7564
656.571	8162
656.627	8008
656.683	7294
656.739	8060
656.795	6693
656.850	8010
656.906	8958
656.962	8935
657.018	5822
657.074	7820
657.129	8022
657.185	9984
657.241	16006
657.297	11448
657.352	7312
657.408	7298
657.464	8194
657.519	8290
657.575	5866
657.630	6603
657.686	6060
657.742	6341
657.797	5696
657.853	6364
657.908	8088
657.964	4945
658.019	5553
658.075	6261
658.130	6802
658.186	5753
658.241	5800
658.297	5581
658.352	6575
658.407	6693
658.463	5918
658.518	6453
658.573	6938
658.629	5375
658.684	5790
658.739	6551
658.795	4992
658.850	6444
658.905	6042
658.960	6420
659.016	5593
659.071	6877
659.126	6933
659.181	7722
659.236	12095
659.291	14084
659.346	7841
659.401	8045
659.457	7369
659.512	6520
659.567	7648
659.622	6286
659.677	5605
659.732	5565
659.787	6639
659.842	6784
659.897	8357
659.952	7110
660.007	5605
660.061	6421
660.116	5425
660.171	5657
660.226	5737
660.281	6512
660.336	5895
660.391	7648
660.445	5246
660.500	7160
660.555	5453
660.610	5705
660.664	5783
660.719	4628
660.774	6483
660.828	6624
660.883	6295
660.938	6976
660.992	4477
661.047	5970
661.101	5266
661.156	5788
661.211	5945
661.265	5653
661.320	5071
661.374	6697
661.429	4682
661.483	7140
661.538	5582
661.592	5872
661.647	5850
661.701	6840
661.755	5621
661.810	6216
661.864	4931
661.919	5600
661.973	6336
662.027	5946
662.081	5431
662.136	5832
662.190	6845
662.244	6612
662.299	6016
662.353	5962
662.407	5419
662.461	6558
662.515	5913
662.569	6493
662.624	6021
662.678	5758
662.732	5829
662.786	5995
662.840	5758
662.894	6805
662.948	5457
663.002	6197
663.056	5695
663.110	6266
663.164	6056
663.218	5600
663.272	5401
663.326	6929
663.380	6193
663.434	6580
663.488	5622
663.542	6380
663.595	5421
663.649	5297
663.703	5869
663.757	6387
663.811	5201
663.864	5374
663.918	5728
663.972	5909
664.026	5692
664.079	5287
664.133	5418
664.187	5996
664.240	5456
664.294	5674
664.348	5915
664.401	5904
664.455	5079
664.508	5448
664.562	5327
664.615	5878
664.669	4953
664.722	5778
664.776	5611
664.829	5680
664.883	5689
664.936	5977
664.990	5378
665.043	6872
665.097	6111
665.150	7307
665.203	6172
665.257	5898
665.310	6941
665.363	6537
665.417	5895
665.470	6395
665.523	5915
665.576	6341
665.630	6403
665.683	6464
665.736	6459
665.789	5444
665.842	5179
665.895	5812
665.949	6057
666.002	6136
666.055	5319
666.108	6915
666.161	6210
666.214	6954
666.267	7062
666.320	7578
666.373	6654
666.426	6210
666.479	6086
666.532	6856
666.585	6701
666.638	7463
666.691	7100
666.744	7293
666.796	7362
666.849	7268
666.902	5862
666.955	6668
667.008	5913
667.060	5762
667.113	4723
667.166	5986
667.219	5561
667.271	6175
667.324	5514
667.377	6070
667.430	5823
667.482	6329
667.535	6400
667.587	6737
667.640	7628
667.693	8567
667.745	13003
667.798	13688
667.850	6264
667.903	6223
667.955	6621
668.008	5939
668.060	7147
668.113	7093
668.165	6589
668.218	7173
668.270	6095
668.322	6514
668.375	6025
668.427	6411
668.479	5320
668.532	6938
668.584	6642
668.636	5964
668.689	6824
668.741	6479
668.793	6115
668.845	5532
668.898	6284
668.950	6371
669.002	6771
669.054	6405
669.106	6507
669.158	6778
669.211	5600
669.263	6783
669.315	6996
669.367	6841
669.419	6728
669.471	8120
669.523	7902
669.575	9931
669.627	8702
669.679	7388
669.731	7437
669.783	7801
669.835	7828
669.886	7782
669.938	7901
669.990	8105
670.042	7647
670.094	8135
670.146	8645
670.197	9794
670.249	10968
670.301	13780
670.353	18571
670.404	25853
670.456	36370
670.508	58558
670.560	98121
670.611	171197
670.663	300485
670.715	678044
670.766	1001716
670.818	355551
670.869	72492
670.921	36612
670.972	26064
671.024	19016
671.075	15762
671.127	13328
671.178	11079
671.230	10045
671.281	9542
671.333	9386
671.384	8987
671.436	9268
671.487	11245
671.538	11980
671.590	14100
671.641	22316
671.692	32764
671.744	57294
671.795	45519
671.846	20244
671.897	12165
671.949	9799
672.000	8460
672.051	8025
672.102	7519
672.153	7443
672.204	6872
672.256	6753
672.307	6783
672.358	6916
672.409	7334
672.460	6656
672.511	5928
672.562	6385
672.613	5473
672.664	5704
672.715	6196
672.766	6424
672.817	5164
672.868	5647
672.919	5605
672.970	5977
673.021	5801
673.071	4675
673.122	5532
673.173	5601
673.224	5806
673.275	5152
673.326	4771
673.376	5993
673.427	3706
673.478	5355
673.528	5319
673.579	5292
673.630	4558
673.680	5368
673.731	5401
673.782	4147
673.832	5471
673.883	5782
673.934	4488
673.984	4706
674.035	4379
674.085	5096
674.136	5198
674.186	5429
674.237	6373
674.287	9027
674.338	5169
674.388	5339
674.438	4836
674.489	5496
674.539	5626
674.589	5579
674.640	5880
674.690	5231
674.740	5657
674.791	6434
674.841	5451
674.891	5236
674.942	5387
674.992	5014
675.042	4037
675.092	3920
675.142	3509
675.193	4171
675.243	4526
675.293	4959
675.343	4367
675.393	4746
675.443	3934
675.493	4163
675.543	4177
675.593	4784
675.643	4101
675.693	5136
675.743	4358
675.793	4452
675.843	3990
675.893	4475
675.943	5284
675.993	4744
676.043	4531
676.093	4166
676.142	3415
676.192	5170
676.242	4233
676.292	3893
676.341	4286
676.391	4529
676.441	4190
676.491	4219
676.540	3115
676.590	5019
676.640	3921
676.689	4381
676.739	3486
676.789	4594
676.838	4100
676.888	3844
676.937	4452
676.987	4290
677.037	3288
677.086	3829
677.136	3862
677.185	3039
677.235	2979
677.284	4146
677.333	3565
677.383	4021
677.432	3220
677.482	3721
677.531	4053
677.580	2912
677.630	4314
677.679	2958
677.728	3716
677.778	3887
677.827	2189
677.876	3482
677.925	3757
677.975	3843
678.024	3228
678.073	3871
678.122	4640
678.171	4736
678.220	3118
678.269	4832
678.319	4338
678.368	4033
678.417	4174
678.466	5093
678.515	5324
678.564	4601
678.613	3732
678.662	3955
678.711	3897
678.760	4404
678.809	2872
678.857	4072
678.906	3695
678.955	3259
679.004	3646
679.053	3849
679.102	3570
679.151	3991
679.199	3777
679.248	3865
679.297	3061
679.346	3491
679.394	3496
679.443	3916
679.492	2946
679.540	2980
679.589	3777
679.638	3770
679.686	2955
679.735	3134
679.784	3750
679.832	3605
679.881	3813
679.929	2890
679.978	2911
680.026	3672
680.075	3076
680.123	3645
680.172	2715
680.220	2640
680.268	2962
680.317	3502
680.365	2870
680.414	2981
680.462	3289
680.510	3342
680.559	2183
680.607	3677
680.655	2883
680.703	3527
680.752	2575
680.800	2422
680.848	2024
680.896	2947
680.945	2449
680.993	2985
681.041	2342
681.089	3568
681.137	3010
681.185	2865
681.233	2289
681.258	2545
681.281	2743
681.329	2434
681.377	2874
681.380	2952
681.425	3563
681.473	3774
681.502	3615
681.521	3432
681.569	4320
681.617	3276
681.624	3348
681.665	3466
681.713	3078
681.745	3692
681.761	3929
681.809	3842
681.857	4073
681.867	4112
681.904	4059
681.952	4012
681.989	4535
682.000	4638
682.048	3945
682.096	3946
682.111	4260
682.143	4808
682.191	4400
682.233	5382
682.239	5484
682.286	5079
682.334	4571
682.354	4490
682.382	4294
682.430	5692
682.476	4709
682.477	4650
682.525	5199
682.572	5007
682.598	5042
682.620	5014
682.667	4723
682.715	5887
682.720	5938
682.763	6032
682.810	4947
682.841	5403
682.857	5575
682.905	5890
682.952	6049
682.963	6076
683.000	6034
683.047	5558
683.085	6674
683.095	6929
683.142	6116
683.190	6508
683.206	6299
683.237	5853
683.284	6403
683.328	6046
683.332	5978
683.379	6152
683.426	6394
683.449	6666
683.473	6951
683.521	6575
683.568	5926
683.571	6022
683.615	6702
683.662	7189
683.693	6827
683.709	6597
683.757	6395
683.804	7227
683.814	7261
683.851	7322
683.898	7716
683.936	7893
683.945	7890
683.992	7768
684.039	7615
684.057	7714
684.086	7809
684.133	8051
684.179	7552
684.180	7511
684.227	7913
684.274	8369
684.300	8547
684.321	8565
684.368	8541
684.415	8480
684.422	8442
684.462	8112
684.509	8374
684.543	7647
684.556	7386
684.603	8692
684.649	8462
684.665	8665
684.696	9006
684.743	8987
684.786	9444
684.790	9464
684.837	8938
684.883	10112
684.908	9814
684.930	9499
684.977	10489
685.023	9903
685.029	9948
685.070	9851
685.117	9901
685.150	9927
685.164	10009
685.210	10546
685.257	10792
685.272	10795
685.303	10569
685.350	10511
685.393	10650
685.396	10659
685.443	11143
685.490	12117
685.514	11853
685.536	11565
685.583	11358
685.629	11447
685.636	11446
685.675	11234
685.722	11312
685.757	11037
685.768	10946
685.815	11209
685.861	11534
685.878	11501
685.908	11475
685.954	11493
686.000	11644
686.000	11637
686.047	11946
686.093	12967
686.121	13008
686.139	12888
686.185	12241
686.232	12095
686.242	12185
686.278	12428
686.324	11864
686.363	12314
686.370	12401
686.416	11769
686.463	11862
686.484	11907
686.509	12018
686.555	12274
686.601	12341
686.606	12376
686.647	12486
686.693	12207
686.727	12323
686.739	12379
686.785	11857
686.831	12499
686.848	12461
686.877	12273
686.923	11915
686.969	12241
686.969	12243
687.015	12569
687.061	12469
687.090	12804
687.107	12840
687.153	12929
687.199	13004
687.211	12970
687.245	12888
687.291	12309
687.332	12346
687.336	12394
687.382	13332
687.428	13204
687.453	13551
687.474	13509
687.520	13430
687.565	13100
687.574	13007
687.611	13076
687.657	13083
687.695	13938
687.702	14117
687.748	14403
687.794	14403
687.816	14684
687.839	14714
687.885	13690
687.931	14027
687.937	13963
687.976	13903
688.022	14012
688.058	14744
688.067	14867
688.113	14190
688.158	13542
688.179	13602
688.204	13828
688.249	13923
688.295	14266
688.300	14242
688.340	14354
688.386	14817
688.421	14924
688.431	14898
688.477	15489
688.522	15328
688.542	15305
688.567	15291
688.613	14697
688.658	14454
688.663	14459
688.703	14704
688.749	15186
688.784	15091
688.794	15070
688.839	15307
688.884	16043
688.905	16024
688.930	15827
688.975	15077
689.020	15460
689.026	15341
689.065	15144
689.110	15211
689.146	15315
689.155	15269
689.201	15000
689.246	15308
689.267	15114
689.291	15130
689.336	15434
689.381	15462
689.388	15505
689.426	15615
689.471	15733
689.509	15581
689.516	15576
689.561	16080
689.606	15358
689.630	15488
689.651	15662
689.696	15095
689.741	15726
689.750	15703
689.785	15750
689.830	15802
689.871	15438
689.875	15399
689.920	15464
689.965	15737
689.992	15437
690.010	15392
690.054	15505
690.099	15931
690.112	15832
690.144	15625
690.189	15629
690.233	15830
690.233	15851
690.278	15861
690.323	15561
690.354	15481
690.367	15617
690.412	15979
690.457	16461
690.474	16434
690.501	16081
690.546	15770
690.590	15364
690.595	15335
690.635	15712
690.680	15754
690.716	15761
690.724	15791
690.769	15905
690.813	16577
690.836	16399
690.857	16270
690.902	16577
690.946	16523
690.957	16661
690.991	18086
691.035	18995
691.077	20301
691.080	20356
691.124	20510
691.168	20885
691.198	21154
691.213	20992
691.257	20397
691.301	19148
691.318	18895
691.346	18579
691.390	17945
691.434	17069
691.439	16941
691.478	17071
691.522	17821
691.559	18109
691.567	18158
691.611	18035
691.655	17898
691.680	18017
691.699	18209
691.743	18062
691.787	18249
691.800	18236
691.831	18279
691.875	18382
691.919	18387
691.921	18371
691.964	19077
692.008	19120
692.041	19358
692.052	19370
692.096	18605
692.139	18709
692.162	18400
692.183	18295
692.227	18826
692.271	18411
692.282	18377
692.315	18419
692.359	18748
692.402	18595
692.403	18630
692.447	18662
692.490	18860
692.523	18909
692.534	19014
692.578	19233
692.622	19514
692.643	19607
692.666	19496
692.709	19186
692.753	18881
692.763	18781
692.797	18827
692.840	18818
692.884	18634
692.884	18674
692.928	19072
692.971	19371
693.004	19814
693.015	19854
693.059	19504
693.102	19518
693.124	19166
693.146	19068
693.189	19298
693.233	19233
693.245	19255
693.276	19457
693.320	19386
693.363	19672
693.365	19627
693.407	19731
693.450	20167
693.485	20193
693.493	20230
693.537	20691
693.580	20573
693.605	20802
693.624	21234
693.667	21669
693.710	22576
693.725	22713
693.753	24254
693.797	26789
693.840	29168
693.845	29424
693.883	29426
693.926	29030
693.966	28816
693.970	28626
694.013	25834
694.056	23149
694.086	21249
694.099	21270
694.142	21416
694.185	21124
694.206	21184
694.229	21411
694.272	21275
694.315	21482
694.326	21418
694.358	21465
694.401	21783
694.444	22074
694.446	22031
694.487	22087
694.530	21964
694.566	21927
694.573	21868
694.616	21217
694.659	20520
694.686	19938
694.702	19811
694.745	19695
694.787	19424
694.806	19221
694.830	19308
694.873	19439
694.916	19510
694.926	19465
694.959	19571
695.002	20084
695.044	20187
695.046	20143
695.087	20380
695.130	20804
695.166	20967
695.172	20994
695.215	20785
695.258	20886
695.286	20753
695.301	20907
695.343	21301
695.386	21636
695.406	21684
695.428	21497
695.471	21136
695.514	20930
695.526	20788
695.556	21011
695.599	21438
695.641	21471
695.646	21448
695.684	21297
695.726	21096
695.766	20820
695.769	20884
695.811	20956
695.854	21135
695.886	21342
695.896	21409
695.938	21265
695.981	21249
696.005	21127
696.023	21214
696.065	21155
696.108	21449
696.125	21465
696.150	21676
696.192	21852
696.235	22060
696.245	22086
696.277	22008
696.319	21654
696.361	21537
696.365	21454
696.404	21688
696.446	21956
696.485	22106
696.488	22167
696.530	22384
696.572	22453
696.604	22534
696.614	22563
696.656	22236
696.698	22266
696.724	22038
696.740	22057
696.783	22131
696.825	22054
696.844	22031
696.867	22310
696.909	22601
696.951	22931
696.964	22988
696.992	22841
697.034	22543
697.076	22149
697.083	22056
697.118	22340
697.160	22414
697.202	22595
697.203	22540
697.244	22435
697.286	22379
697.323	22162
697.327	22218
697.369	22275
697.411	22380
697.442	22353
697.453	22423
697.494	22452
697.536	22467
697.562	22453
697.578	22541
697.620	22577
697.661	22644
697.682	22636
697.703	22795
697.744	22882
697.786	23140
697.801	23128
697.828	23340
697.869	23551
697.911	23763
697.921	23774
697.952	23570
697.994	23156
698.035	22741
698.040	22634
698.077	22610
698.118	22529
698.160	22342
698.160	22281
698.201	22368
698.243	22368
698.279	22343
698.284	22439
698.325	22746
698.367	23086
698.399	23237
698.408	23265
698.449	23161
698.491	23069
698.518	22924
698.532	22930
698.573	22773
698.614	22609
698.638	22449
698.656	22509
698.697	22507
698.738	22524
698.757	22475
698.779	22813
698.820	23320
698.862	23842
698.877	23969
698.903	24200
698.944	24466
698.985	24738
698.996	24748
699.026	24578
699.067	24253
699.116	23803
699.235	22797
699.354	23210
699.474	23432
699.593	23940
699.713	23484
699.832	23400
699.951	24449
700.070	23281
700.190	22470
700.309	22096
700.428	23013
700.547	22432
700.667	22898
700.786	22728
700.905	21989
701.024	22649
701.143	21592
701.262	20272
701.381	20614
701.500	21960
701.619	22428
701.738	21569
701.857	20989
701.976	20355
702.095	20969
702.214	21986
702.333	22546
702.452	21373
702.571	20217
702.690	20140
702.809	20772
702.928	19064
703.047	21128
703.165	19967
703.284	19532
703.403	19522
703.522	19949
703.640	19778
703.759	21014
703.878	23806
703.997	19843
704.115	19743
704.234	19554
704.353	18500
704.471	19625
704.590	18354
704.708	18314
704.827	19090
704.946	19467
705.064	19281
705.183	18067
705.301	21615
705.420	27587
705.538	25278
705.656	23066
705.775	21622
705.893	24960
706.012	28027
706.130	22880
706.249	24117
706.367	22982
706.485	23854
706.604	21863
706.722	22820
706.840	24568
706.958	25508
707.077	23552
707.195	21367
707.313	21702
707.431	20364
707.549	20865
707.668	20296
707.786	21667
707.904	21003
708.022	20484
708.140	20956
708.258	20159
708.376	21642
708.494	20974
708.612	22382
708.730	29480
708.848	27932
708.966	25749
709.084	23961
709.202	23636
709.320	24565
709.438	25048
709.556	23914
709.674	23502
709.791	24400
709.909	23802
710.027	23047
710.145	23422
710.263	23527
710.380	22095
710.498	23367
710.616	22772
710.733	22558
710.851	22810
710.969	23391
711.086	21920
711.204	21898
711.322	21604
711.439	21735
711.557	21565
711.674	21896
711.792	20630
711.909	21573
712.027	21031
712.144	20301
712.262	20503
712.379	23033
712.497	29946
712.614	31840
712.732	26746
712.849	25896
712.966	25434
713.084	29180
713.201	26547
713.318	25878
713.436	25079
713.553	26550
713.670	25700
713.787	25997
713.905	25745
714.022	24990
714.139	24695
714.256	27129
714.373	29201
714.490	38005
714.608	67821
714.725	244908
714.842	300936
714.959	39063
715.076	25541
715.193	24228
715.310	24057
715.427	22825
715.544	21754
715.661	22065
715.778	22483
715.895	24295
716.011	23971
716.128	22374
716.245	22596
716.362	22495
716.479	24197
716.596	21021
716.713	21758
716.829	21155
716.946	21179
717.063	20573
717.180	19538
717.296	19964
717.413	20743
717.530	19813
717.646	20359
717.763	20259
717.880	19426
717.996	19571
718.113	20016
718.229	19147
718.346	18344
718.462	18894
718.579	20772
718.695	26288
718.812	23253
718.928	20797
719.045	18981
719.161	17890
719.277	18189
719.394	17425
719.510	18706
719.626	18748
719.743	22955
719.859	22244
719.975	29612
720.092	73296
720.208	173007
720.324	36543
720.440	20005
720.557	20149
720.673	23435
720.789	26852
720.905	42181
721.021	24535
721.137	16903
721.253	17379
721.369	17427
721.486	18162
721.602	21145
721.718	16250
721.834	15432
721.950	16723
722.066	15402
722.181	16078
722.297	16384
722.413	15985
722.529	14940
722.645	15274
722.761	14509
722.877	15700
722.993	14153
723.108	16309
723.224	15086
723.340	15408
723.456	14830
723.571	14453
723.687	14249
723.803	14933
723.918	13956
724.034	15034
724.150	14434
724.265	15194
724.381	20254
724.497	25263
724.612	14274
724.728	13003
724.843	14127
724.959	14488
725.074	19130
725.190	22919
725.305	14504
725.421	13071
725.536	13285
725.651	13591
725.767	13402
725.882	12848
725.997	13251
726.113	12876
726.228	13475
726.343	12078
726.459	11491
726.574	12628
726.689	12427
726.804	12903
726.920	12032
727.035	12952
727.150	12968
727.265	12088
727.380	12848
727.495	11817
727.610	11647
727.725	12139
727.841	12014
727.956	13180
728.071	13792
728.186	11724
728.301	12009
728.416	12436
728.531	11728
728.645	11219
728.760	11823
728.875	11904
728.990	11629
729.105	11792
729.220	11891
729.335	11127
729.449	11368
729.564	11094
729.679	10743
729.794	11367
729.908	10802
730.023	11230
730.138	9473
730.253	11154
730.367	10275
730.482	11026
730.596	11171
730.711	11135
730.826	11767
730.940	10103
731.055	11202
731.169	10067
731.284	10291
731.398	9675
731.513	11836
731.627	10060
731.742	11349
731.856	12015
731.970	11012
732.085	11736
732.199	13122
732.313	17376
732.428	31324
732.542	80382
732.656	54880
732.771	16943
732.885	12341
732.999	11862
733.113	12305
733.227	11629
733.342	10897
733.456	10755
733.570	10445
733.684	9837
733.798	10706
733.912	10584
734.026	9369
734.140	9390
734.254	10926
734.368	12910
734.482	15350
734.596	9020
734.710	9329
734.824	10179
734.938	10602
735.052	10091
735.166	9794
735.280	10610
735.393	9475
735.507	9153
735.621	11394
735.735	13797
735.849	10585
735.962	10199
736.076	10070
736.190	9595
736.303	11559
736.417	13948
736.531	9846
736.644	9773
736.758	9454
736.872	9084
736.985	8522
737.099	8517
737.212	8853
737.326	9758
737.439	8002
737.553	9435
737.666	8847
737.780	8961
737.893	8460
738.007	8040
738.120	8958
738.233	8443
738.347	8408
738.460	8228
738.573	8917
738.687	8737
738.800	8598
738.913	8531
739.026	8313
739.140	8153
739.253	8310
739.366	8103
739.479	8571
739.592	7936
739.705	8553
739.818	9165
739.932	7999
740.045	7665
740.158	8243
740.271	9138
740.384	8179
740.497	7778
740.610	7687
740.723	8052
740.836	7556
740.949	8607
741.062	9200
741.174	9014
741.287	8028
741.400	8353
741.513	7054
741.626	7666
741.739	8515
741.851	8155
741.964	7730
742.077	7847
742.189	7226
742.302	8101
742.415	7487
742.527	7831
742.640	6668
742.753	6756
742.865	7420
742.978	7800
743.090	8093
743.203	7932
743.316	6778
743.428	7105
743.541	7890
743.653	7379
743.766	6441
743.878	7408
743.990	8174
744.103	8595
744.215	7422
744.327	7162
744.440	8326
744.552	10479
744.664	7941
744.777	6892
744.889	6822
745.001	6618
745.113	6421
745.226	6980
745.338	7277
745.450	6935
745.562	6487
745.674	6955
745.786	6530
745.898	7005
746.010	5932
746.122	7468
746.234	7112
746.347	7055
746.459	6801
746.570	6479
746.682	6946
746.794	7431
746.906	6635
747.018	6838
747.130	6801
747.242	6537
747.354	5787
747.466	7026
747.577	6325
747.689	6543
747.801	6291
747.913	5913
748.024	5643
748.136	6553
748.248	6299
748.359	6845
748.471	6913
748.583	5525
748.694	5851
748.806	6858
748.918	7055
749.029	6904
749.141	6275
749.252	6771
749.364	6934
749.475	10117
749.587	8368
749.698	6279
749.809	6753
749.921	6586
750.032	6758
750.144	5375
750.255	6753
750.366	6071
750.478	6090
750.589	5941
750.700	7022
750.811	7499
750.923	6684
751.034	10253
751.145	11664
751.256	6074
751.367	6000
751.479	5428
751.590	5265
751.701	6335
751.812	5264
751.923	5709
752.034	5947
752.145	4600
752.256	6050
752.367	5735
752.478	5527
752.589	5345
752.700	4953
752.811	5242
752.922	5805
753.032	5759
753.143	6489
753.254	5852
753.365	6695
753.476	5414
753.586	5481
753.697	5795
753.808	5309
753.919	5813
754.029	4915
754.140	5182
754.251	5238
754.361	5571
754.472	5344
754.582	5425
754.693	5393
754.804	6055
754.914	5459
755.025	5130
755.135	5204
755.246	4870
755.356	5672
755.466	5045
755.577	4897
755.687	6138
755.798	4818
755.908	4886
756.018	4591
756.129	5347
756.239	4861
756.349	5111
756.460	5320
756.570	5804
756.680	5269
756.790	5531
756.900	5714
757.011	4690
757.121	5048
757.231	4788
757.341	5152
757.451	5002
757.561	4163
757.671	3406
757.781	5022
757.891	4710
758.001	4449
758.111	5311
758.221	5025
758.331	6202
758.441	5877
758.551	6682
758.661	6279
758.771	5849
758.880	5651
758.990	5532
759.100	5492
759.210	5120
759.320	5864
759.429	5444
759.539	5615
759.649	4237
759.758	5878
759.868	5749
759.978	5235
760.087	5837
760.197	6146
760.307	6196
760.416	4573
760.526	4536
760.635	5295
760.745	5360
760.854	5598
760.964	5590
761.073	5503
761.182	5139
761.292	5767
761.401	5278
761.511	4823
761.620	5676
761.729	5226
761.839	5055
761.948	5381
762.057	5656
762.166	5688
762.276	4835
762.385	5794
762.494	5332
762.603	5309
762.712	5340
762.822	5400
762.931	5761
763.040	4999
763.149	5350
763.258	5318
763.367	6372
763.476	5755
763.585	5468
763.694	6221
763.803	5884
763.912	6158
764.021	5626
764.130	6202
764.238	6237
764.347	5555
764.456	5735
764.565	5819
764.674	6127
764.783	6082
764.891	6439
765.000	7020
765.109	7551
765.217	8120
765.326	8091
765.435	10757
765.543	10881
765.652	11375
765.761	13614
765.869	19137
765.978	28493
766.086	48383
766.195	94038
766.303	239246
766.412	671266
766.520	636192
766.629	195046
766.737	66965
766.846	37546
766.954	24080
767.062	19881
767.171	15341
767.279	14399
767.387	10909
767.496	9846
767.604	9515
767.712	8758
767.820	8546
767.928	8060
768.037	7318
768.145	8036
768.253	8206
768.361	7027
768.469	7571
768.577	6842
768.685	7637
768.793	7914
768.901	7674
769.009	8839
769.117	8655
769.225	10427
769.333	14630
769.441	21891
769.549	38089
769.657	84290
769.765	269514
769.873	603720
769.981	254074
770.088	54210
770.196	26280
770.304	16600
770.412	14418
770.519	12091
770.627	9362
770.735	8638
770.842	7819
770.950	7823
771.058	7852
771.165	7326
771.273	6852
771.380	7413
771.488	7461
771.595	6746
771.703	6605
771.810	6767
771.918	5748
772.025	6961
772.133	6823
772.240	6394
772.348	7086
772.455	7007
772.562	5150
772.670	5859
772.777	5432
772.884	6452
772.991	5556
773.099	5681
773.206	5328
773.313	5290
773.420	5644
773.528	5050
773.635	5157
773.742	6644
773.849	5995
773.956	4731
774.063	5248
774.170	5935
774.277	6598
774.384	5151
774.491	5482
774.598	5369
774.705	5643
774.812	6603
774.919	6132
775.026	6354
775.133	5325
775.239	5373
775.346	5229
775.453	5436
775.560	5358
775.667	5663
775.773	4581
775.880	5447
775.987	5009
776.093	6331
776.200	5509
776.307	5397
776.413	4980
776.520	4565
776.627	5729
776.733	5492
776.840	4225
776.946	6284
777.053	4918
777.159	5784
777.266	3455
777.372	5516
777.478	5316
777.585	4716
777.691	5261
777.798	5902
777.904	5401
778.010	6391
778.117	6209
778.223	5156
778.329	5286
778.435	5341
778.542	5004
778.648	5403
778.754	4963
778.860	5169
778.966	5400
779.072	5405
779.178	5206
779.284	4492
779.391	3900
779.497	3750
779.603	5555
779.708	3947
779.815	6814
779.920	10716
780.026	20555
780.132	5935
780.238	4527
780.344	4943
780.450	5417
780.556	4264
780.661	3867
780.767	4185
780.873	3950
780.979	5120
781.085	4004
781.190	4768
781.296	3403
781.402	4043
781.507	4185
781.613	3051
781.719	3641
781.824	5215
781.930	4143
782.035	3588
782.141	3916
782.246	3598
782.352	4034
782.457	3918
782.563	4323
782.668	4187
782.773	4752
782.879	3802
782.984	4750
783.090	5225
783.195	5582
783.300	5494
783.405	3979
783.511	4677
783.616	4003
783.721	3440
783.826	3557
783.932	4171
784.037	4278
784.142	4197
784.247	3144
784.352	4432
784.457	4027
784.562	3530
784.667	4624
784.772	3693
784.877	3705
784.982	3728
785.087	3352
785.192	4208
785.297	3819
785.402	3826
785.507	4240
785.611	3915
785.716	3874
785.821	4010
785.926	3681
786.031	3458
786.135	3552
786.240	3925
786.345	2654
786.450	4173
786.554	3515
786.659	3117
786.763	2588
786.868	3951
786.973	4476
787.077	3063
787.182	3579
787.286	3401
787.391	3453
787.495	3034
787.600	2893
787.704	2667
787.809	3656
787.913	3185
788.017	3726
788.122	3495
788.226	3732
788.330	2631
788.435	2968
788.539	3661
788.643	3422
788.747	3384
788.852	3186
788.956	2586
789.060	3701
789.164	3129
789.268	2819
789.372	3922
789.476	4130
789.580	2992
789.684	3070
789.788	3978
789.892	2574
789.996	2565
790.100	3274
790.204	2971
790.308	2925
790.412	3038
790.516	3361
790.620	3298
790.724	3505
790.828	2994
790.931	2547
791.035	4195
791.139	3669
791.242	2957
791.346	4525
791.450	3002
791.554	2753
791.657	2232
791.761	3105
791.864	3484
791.968	2646
792.072	3061
792.175	2852
792.279	2942
792.382	3002
792.486	3062
792.589	1980
792.693	3677
792.796	2378
792.899	3738
793.003	3223
793.106	1816
793.209	2855
793.313	3741
793.416	1809
793.519	3191
793.623	3956
793.726	4370
793.829	3280
793.932	3048
794.035	2319
794.138	3126
794.242	3204
794.345	2799
794.448	3726
794.551	3497
794.654	7525
794.757	10673
794.860	4708
794.963	3040
795.066	2388
795.169	3505
795.272	2296
795.375	3051
795.477	2543
795.580	2507
795.683	1877
795.786	2611
795.889	1719
795.991	4294
796.094	3433
796.197	1847
796.300	4099
796.402	2037
796.505	2010
796.608	2057
796.710	2996
796.813	3068
796.915	2316
797.018	2802
797.120	2447
797.223	1984
797.326	3283
797.428	2544
797.530	1736
797.633	1924
797.735	3428
797.838	2696
797.940	3758
798.042	2063
798.145	2112
798.247	3406
798.349	1684
798.452	3251
798.554	1763
798.656	1203
798.758	2697
798.860	2341
798.962	1625
799.065	2339
799.167	1399
799.269	3489
799.371	2947
799.473	2933
799.575	1995
799.677	2782
799.779	4036
799.881	2972
799.983	3528
800.085	2907
800.187	2484
800.289	1532
800.390	2212
800.492	2701
800.594	3599
800.696	2494
800.798	2811
800.899	2438
801.001	2044
801.103	2093
801.205	2898
801.306	2201
801.408	1750
801.509	1989
801.611	2684
801.713	2607
801.814	2044
801.916	2160
802.017	2015
802.119	1028
802.220	2546
802.322	462
802.423	3474
802.525	2319
802.626	2235
802.727	2096
802.829	2383
802.930	653
803.031	3540
803.133	1814
803.234	2872
803.335	1771
803.436	1418
803.538	1744
803.639	1991
803.740	2840
803.841	1283
803.942	2072
804.043	2609
804.144	1583
804.245	2122
804.346	1981
804.447	1066
804.548	2670
804.649	3756
804.750	1882
804.851	2157
804.952	953
805.053	2730
805.154	757
805.255	3092
805.355	2234
805.456	2069
805.557	1804
805.658	944
805.758	2835
805.859	2758
805.960	2255
806.061	2119
806.161	1268
806.262	2201
806.362	1315
806.463	2214
806.564	2273
806.664	1755
806.765	2139
806.865	2009
806.966	1499
807.066	1147
807.166	3424
807.267	2888
807.367	1269
807.468	1357
807.568	997
807.668	2340
807.769	2213
807.869	1864
807.969	2255
808.069	1942
808.170	2192
808.270	1602
808.370	2777
808.470	2906
808.570	1389
808.670	1780
808.770	1911
808.870	1376
808.970	2440
809.070	1094
809.170	1901
809.271	2966
809.370	2380
809.470	2509
809.570	2037
809.670	1273
809.770	1756
809.870	2345
809.970	1287
810.070	1497
810.169	2010
810.269	621
810.369	2763
810.469	1597
810.568	2428
810.668	2468
810.768	2124
810.867	1455
810.967	1780
811.066	2087
811.166	1903
811.265	2401
811.365	1422
811.464	1796
811.564	1883
811.663	2850
811.763	1698
811.862	2877
811.962	2462
812.061	2116
812.160	1739
812.260	2047
812.359	1708
812.458	3578
812.557	7975
812.657	12425
812.756	5134
812.855	1675
812.954	1386
813.053	3135
813.153	1813
813.252	1359
813.351	2207
813.450	2655
813.549	1206
813.648	2579
813.747	1331
813.846	2704
813.945	2139
814.044	1738
814.143	2671
814.242	2848
814.341	1643
814.439	1919
814.538	3011
814.637	2389
814.736	2005
814.835	2773
814.933	2503
815.032	3560
815.131	3282
815.229	2485
815.328	3671
815.427	3033
815.525	4187
815.624	4004
815.722	3124
815.821	2996
815.919	4453
816.018	4606
816.116	4101
816.215	3905
816.313	3880
816.412	4155
816.510	5274
816.609	6564
816.707	5226
816.805	5672
816.904	6149
817.002	7016
817.100	7483
817.198	8029
817.296	8086
817.395	9592
817.493	12586
817.591	13877
817.689	18637
817.787	24499
817.885	37248
817.983	62219
818.081	119808
818.179	250294
818.277	502550
818.375	484948
818.473	220185
818.571	98816
818.669	60816
818.767	49774
818.865	48176
818.963	55518
819.061	75210
819.158	118480
819.256	215384
819.354	409736
819.452	649683
819.549	525669
819.647	277860
819.745	136125
819.842	81288
819.940	53915
820.038	38942
820.135	29338
820.233	24142
820.330	19268
820.428	16030
820.525	14166
820.623	12082
820.720	9854
820.818	9373
820.915	8863
821.012	8213
821.110	6602
821.207	7351
821.304	5494
821.402	7201
821.499	6124
821.596	5330
821.693	5537
821.791	6091
821.888	5340
821.985	7292
822.082	5223
822.179	4882
822.276	3980
822.373	3762
822.470	3744
822.567	3383
822.664	2674
822.761	4727
822.858	3164
822.955	2796
823.052	3095
823.149	2706
823.246	2593
823.343	2955
823.440	3379
823.536	2768
823.633	2109
823.730	2921
823.827	2756
823.923	3166
824.020	3386
824.117	1596
824.213	1804
824.310	2657
824.407	2550
824.503	2686
824.600	1832
824.696	2090
824.793	2484
824.889	1654
824.986	1453
825.082	1655
825.179	2138
825.275	2845
825.371	2015
825.468	2589
825.564	1241
825.660	2778
825.757	1778
825.853	2179
825.949	910
826.045	1442
826.142	1383
826.238	1569
826.334	1826
826.430	1574
826.526	2292
826.622	1163
826.718	1531
826.814	999
826.910	2574
827.006	1219
827.102	783
827.198	2728
827.294	2448
827.390	1675
827.486	2602
827.582	564
827.678	752
827.774	2596
827.869	885
827.965	3151
828.061	1594
828.157	787
828.252	1696
828.348	1194
828.444	2546
828.539	2270
828.635	715
828.731	2804
828.826	875
828.922	2036
829.017	837
829.113	1851
829.208	1580
829.304	1833
829.399	2691
829.495	1433
829.590	2046
829.685	1051
829.781	1121
829.876	1607
829.971	1459
830.066	1474
830.162	1114
830.257	1589
830.352	1031
830.447	1791
830.543	1883
830.638	177
830.733	2029
830.828	1727
830.923	2399
831.018	1602
831.113	1717
831.208	1451
831.303	1638
831.398	1507
831.493	602
831.588	1618
831.683	1223
831.778	1365
831.873	1178
831.967	1924
832.062	1410
832.157	1420
832.252	1363
832.346	1267
832.441	2345
832.536	2688
832.631	6082
832.725	5549
832.820	1764
832.914	1785
833.009	1286
833.104	1092
833.198	2068
833.293	1633
833.387	1620
833.482	1943
833.576	911
833.670	2099
833.765	1052
833.859	926
833.954	2352
834.048	1822
834.142	1493
834.237	117
834.331	1447
834.425	1196
834.519	-213
834.613	1290
834.708	677
834.802	1311
834.896	1104
834.990	1008
835.084	1433
835.178	549
835.272	487
835.366	1200
835.460	1968
835.554	832
835.648	1202
835.742	1128
835.836	1917
835.930	1020
836.024	1443
836.117	1959
836.211	755
836.305	1154
836.399	2059
836.493	898
836.586	2012
836.680	504
836.774	695
836.867	2029
836.961	438
837.055	940
837.148	1528
837.242	1226
837.335	395
837.429	1708
837.522	933
837.616	1742
837.709	2626
837.803	1715
837.896	1321
837.989	1067
838.083	1869
838.176	2655
838.269	1879
838.363	1938
838.456	866
838.549	1780
838.642	3046
838.735	6570
838.829	3995
838.922	1076
839.015	1008
839.108	638
839.201	943
839.294	1327
839.387	1325
839.480	611
839.573	717
839.666	1366
839.759	628
839.852	179
839.945	1617
840.038	986
840.131	750
840.223	449
840.316	1328
840.409	1462
840.502	163
840.594	2132
840.687	442
840.780	1717
840.873	1185
840.965	1371
841.058	1798
841.150	2226
841.243	1993
841.336	674
841.428	943
841.521	159
841.613	1292
841.706	568
841.798	-85
841.890	67
841.983	183
842.075	1547
842.167	505
842.260	1121
842.352	1748
842.444	951
842.537	2822
842.629	4677
842.721	784
842.813	1053
842.905	797
842.997	1308
843.090	777
843.182	1926
843.274	1808
843.366	5451
843.458	9449
843.550	8487
843.642	1204
843.734	882
843.826	702
843.918	1172
844.009	923
844.101	661
844.193	646
844.285	307
844.377	625
844.469	1543
844.560	763
844.652	1660
844.744	1329
844.835	362
844.927	184
845.019	839
845.110	1204
845.202	784
845.293	258
845.385	235
845.476	1059
845.568	1668
845.659	821
845.751	1398
845.842	307
845.934	-55
846.025	1097
846.116	938
846.208	628
846.299	-173
846.390	918
846.482	262
846.573	1006
846.664	1506
846.755	2154
846.846	2128
846.937	-642
847.029	905
847.120	446
847.211	11
847.302	1835
847.393	-420
847.484	429
847.575	825
847.666	12
847.757	92
847.847	1355
847.938	761
848.029	567
848.120	724
848.211	301
848.302	969
848.392	-38
848.483	1101
848.574	115
848.664	397
848.755	486
848.846	207
848.936	198
849.027	416
849.118	374
849.208	-92
849.299	-108
849.389	1835
849.480	1724
849.570	3013
849.661	4554
849.751	8492
849.841	3888
849.932	710
850.022	-25
850.112	486
850.203	332
850.293	809
850.383	-212
850.474	337
850.564	-2
850.654	1184
850.744	-301
850.834	477
850.924	517
851.014	325
851.104	631
851.194	283
851.284	802
851.374	722
851.464	1162
851.554	808
851.644	-195
851.734	1213
851.824	1309
851.914	189
852.004	1155
852.094	143
852.183	1118
852.273	1283
852.363	510
852.452	-158
852.542	609
852.632	-139
852.721	64
852.811	540
852.901	1081
852.990	711
853.080	922
853.169	-335
853.259	485
853.348	156
853.438	1
853.527	1797
853.617	1113
853.706	3348
853.795	3495
853.885	10501
853.974	17720
854.063	32243
854.152	55413
854.242	24085
854.331	4409
854.420	1621
854.509	1578
854.598	1276
854.687	1104
854.777	1018
854.866	820
854.955	356
855.044	1474
855.133	51
855.222	296
855.311	63
855.400	766
855.488	407
855.577	889
855.666	1102
855.755	1998
855.844	827
855.933	306
856.021	323
856.110	700
856.199	318
856.288	100
856.376	619
856.465	43
856.554	480
856.642	241
856.731	485
856.819	-20
856.908	375
856.996	-312
857.085	296
857.173	354
857.262	766
857.350	789
857.438	320
857.527	568
857.615	-247
857.703	459
857.792	239
857.880	386
857.968	586
858.056	303
858.145	389
858.233	-447
858.321	640
858.409	1363
858.497	835
858.585	-756
858.673	785
858.761	446
858.849	255
858.937	141
859.025	481
859.113	1395
859.201	-325
859.289	597
859.377	-297
859.465	62
859.552	1055
859.640	-1019
859.728	872
859.816	789
859.903	408
859.991	-182
860.079	212
860.166	713
860.254	296
860.342	874
860.429	-407
860.517	150
860.604	735
860.692	403
860.779	-170
860.867	108
860.954	-116
861.042	732
861.129	695
861.216	-78
861.304	-257
861.391	191
861.478	499
861.565	1098
861.653	1053
861.740	-44
861.827	-204
861.914	342
862.001	-130
862.089	1145
862.176	473
862.263	826
862.350	-339
862.437	-224
862.524	-488
862.611	304
862.698	113
862.785	935
862.871	32
862.958	-84
863.045	272
863.132	98
863.219	680
863.306	-628
863.392	620
863.479	21
863.566	-239
863.652	601
863.739	-803
863.826	15
863.912	251
863.999	-251
864.086	470
864.172	-482
864.259	547
864.345	183
864.432	741
864.518	375
864.604	724
864.691	439
864.777	855
864.863	1053
864.950	1270
865.036	664
865.122	1551
865.209	1090
865.295	1643
865.381	837
865.467	1072
865.553	695
865.639	831
865.726	1546
865.812	5491
865.898	9826
865.984	13536
866.070	24991
866.156	29419
866.242	8801
866.328	2562
866.414	954
866.499	938
866.585	392
866.671	353
866.757	1123
866.843	972
866.928	765
867.014	1047
867.100	1728
867.186	1402
867.271	852
867.357	1937
867.442	896
867.528	213
867.614	978
867.699	955
867.785	-9
867.870	643
867.956	560
868.041	1020
868.127	1065
868.212	592
868.297	89
868.383	704
868.468	1344
868.553	3000
868.639	3435
868.724	5125
868.809	6448
868.894	1693
868.979	914
869.065	264
869.150	227
869.235	540
869.320	452
869.405	-82
869.490	587
869.575	30
869.660	338
869.745	974
869.830	-331
869.915	212
870.000	40
870.085	-329
870.169	717
870.254	276
870.339	222
870.424	-426
870.509	263
870.593	84
870.678	390
870.763	1089
870.847	521
870.932	-187
871.016	-136
871.101	561
871.186	420
871.270	-158
871.355	-655
871.439	17
871.523	-410
871.608	258
871.692	341
871.777	-13
871.861	406
871.945	-399
872.030	189
872.114	-781
872.198	579
872.282	-292
872.367	353
872.451	897
872.535	998
872.619	237
872.703	131
872.787	-4
872.871	77
872.955	-369
873.039	-125
873.123	457
873.207	362
873.291	-308
873.375	118
873.459	348
873.543	486
873.627	76
873.711	-174
873.794	-131
873.878	172
873.962	-646
874.045	-14
874.129	20
874.137	39
874.213	227
874.245	111
874.296	-74
874.352	-154
874.380	-193
874.460	-388
874.464	-397
874.547	-396
874.568	-273
874.631	120
874.676	-129
874.714	-348
874.784	235
874.798	351
874.881	451
874.892	411
874.965	118
874.999	364
875.048	691
875.107	-210
875.131	-557
875.215	237
875.215	237
875.298	21
875.323	-47
875.381	-206
875.430	-115
875.465	-29
875.538	425
875.548	478
875.631	235
875.646	260
875.714	391
875.753	85
875.798	-251
875.861	467
875.881	670
875.964	207
875.968	185
876.047	-99
876.076	-52
876.130	37
876.183	141
876.213	186
876.291	290
876.296	301
876.379	24
876.398	191
876.462	675
876.506	56
876.545	-539
876.613	-27
876.628	144
876.711	-252
876.721	-64
876.794	1077
876.828	696
876.877	180
876.935	-131
876.960	-227
877.043	569
877.043	569
877.125	486
877.150	759
877.208	1401
877.258	715
877.291	237
877.365	-98
877.374	-130
877.456	581
877.472	540
877.539	272
877.579	60
877.622	-102
877.687	-125
877.704	-116
877.787	-29
877.794	37
877.869	671
877.901	566
877.952	308
878.008	-276
878.034	-528
878.115	12
878.117	28
878.199	-302
878.222	-219
878.282	-81
878.329	-192
878.364	-362
878.437	359
878.447	475
878.529	-446
878.544	-349
878.611	110
878.651	158
878.694	203
878.758	567
878.776	700
878.858	-67
878.865	-29
878.941	197
878.972	83
879.023	-59
879.078	-95
879.105	-49
879.185	377
879.187	382
879.269	206
879.292	45
879.351	-139
879.399	14
879.433	-35
879.506	218
879.516	282
879.598	-177
879.613	-123
879.680	33
879.720	192
879.762	290
879.827	-32
879.844	-50
879.926	73
879.933	83
880.007	64
880.040	51
880.089	-28
880.147	159
880.171	269
880.253	791
880.254	796
880.335	1705
880.360	2050
880.417	2836
880.467	3871
880.499	4619
880.574	5831
880.580	5844
880.662	2065
880.680	1703
880.744	750
880.787	274
880.825	-88
880.893	192
880.907	233
880.989	164
881.000	98
881.070	-181
881.106	3
881.152	377
881.213	504
881.233	444
881.315	172
881.319	148
881.396	50
881.426	42
881.478	-98
881.532	113
881.559	210
881.639	252
881.641	257
881.722	667
881.745	564
881.803	168
881.852	104
881.885	261
881.958	592
881.966	574
882.047	579
882.064	488
882.129	528
882.171	811
882.210	1075
882.277	1642
882.291	1638
882.372	614
882.383	488
882.454	72
882.489	134
882.535	367
882.596	282
882.616	45
882.697	-543
882.702	-536
882.778	652
882.808	648
882.859	112
882.914	-53
882.940	8
883.020	182
883.021	185
883.102	198
883.127	284
883.183	150
883.233	-138
883.264	-266
883.339	-39
883.345	-16
883.426	-259
883.445	-246
883.507	408
883.551	712
883.587	488
883.657	403
883.668	459
883.749	988
883.763	875
883.830	-86
883.869	-172
883.910	-34
883.975	47
883.991	51
884.072	-61
884.081	-61
884.152	27
884.187	35
884.233	108
884.292	141
884.314	173
884.394	311
884.398	328
884.475	-55
884.504	-269
884.555	-181
884.610	18
884.636	144
884.716	79
884.716	76
884.797	-263
884.821	-488
884.877	-232
884.927	96
884.958	55
885.033	-178
885.038	-156
885.118	259
885.139	374
885.199	265
885.244	194
885.279	154
885.350	10
885.359	8
885.439	-53
885.456	-77
885.520	-67
885.561	122
885.600	344
885.667	387
885.680	301
885.760	-83
885.773	-143
885.840	-33
885.878	-12
885.920	-52
885.984	-15
886.000	-1
886.080	-117
886.089	-111
886.160	-299
886.195	-427
886.240	-97
886.300	272
886.320	282
886.400	720
886.406	713
886.480	617
886.511	671
886.560	480
886.616	198
886.640	323
886.720	781
886.722	789
886.800	442
886.827	306
886.879	59
886.932	-305
886.959	-252
887.038	141
887.039	152
887.119	712
887.143	861
887.198	634
887.248	455
887.278	223
887.354	-432
887.358	-420
887.437	-162
887.459	-101
887.517	581
887.564	1144
887.596	808
887.669	88
887.676	105
887.755	178
887.774	208
887.835	-153
887.880	-310
887.914	-151
887.985	-212
887.994	-187
888.073	365
888.090	445
888.153	125
888.195	-74
888.232	-86
888.300	-54
888.311	-25
888.391	116
888.405	144
888.470	154
888.510	167
888.549	195
888.615	157
888.628	224
888.708	741
888.720	804
888.787	397
888.825	171
888.866	152
888.930	137
888.945	109
889.024	-38
889.035	-58
889.103	110
889.140	165
889.182	253
889.245	478
889.261	502
889.340	492
889.349	500
889.419	309
889.454	186
889.498	246
889.559	346
889.577	215
889.656	-359
889.664	-412
889.735	-67
889.768	101
889.814	426
889.873	859
889.978	105
890.083	-119
890.187	-212
890.292	409
890.397	697
890.501	617
890.606	247
890.710	329
890.815	246
890.919	-312
891.024	-136
891.128	148
891.233	296
891.337	1145
891.442	713
891.546	521
891.650	-621
891.755	345
891.859	1199
891.963	617
892.068	281
892.172	1088
892.276	-345
892.380	798
892.484	365
892.589	-137
892.693	512
892.797	180
892.901	562
893.005	-97
893.109	145
893.213	548
893.317	5
893.421	475
893.525	224
893.629	-288
893.733	75
893.837	226
893.941	178
894.045	809
894.148	140
894.252	-255
894.356	378
894.460	332
894.564	442
894.667	-270
894.771	109
894.875	985
894.978	92
895.082	504
895.186	745
895.289	486
895.393	-253
895.496	247
895.600	-316
895.703	667
895.807	262
895.910	502
896.014	510
896.117	1017
896.221	260
896.324	221
896.427	216
896.531	-272
896.634	-181
896.737	1363
896.840	-185
896.944	-29
897.047	421
897.150	150
897.253	-278
897.356	498
897.460	530
897.563	483
897.666	47
897.769	327
897.872	-48
897.975	-265
898.078	867
898.181	-29
898.284	-361
898.387	142
898.490	380
898.593	406
898.695	-35
898.798	181
898.901	270
899.004	780
899.107	91
899.209	221
899.312	-52
899.415	624
899.518	-127
899.620	772
899.723	156
899.826	536
899.928	643
900.031	460
900.133	229
900.236	551
900.338	-386
900.441	-118
900.543	176
900.646	602
900.748	-27
900.851	660
900.953	-17
901.055	-210
901.158	-86
901.260	120
901.362	-256
901.465	394
901.567	874
901.669	396
901.771	1118
901.873	5
901.976	-570
902.078	240
902.180	591
902.282	89
902.384	213
902.486	195
902.588	186
902.690	-380
902.792	-603
902.894	797
902.996	21
903.098	995
903.200	435
903.302	642
903.404	224
903.505	-96
903.607	908
903.709	381
903.811	390
903.913	43
904.014	918
904.116	894
904.218	368
904.319	197
904.421	116
904.523	404
904.624	87
904.726	865
904.827	23
904.929	404
905.030	450
905.132	592
905.233	477
905.335	-507
905.436	162
905.537	80
905.639	275
905.740	392
905.841	756
905.943	274
906.044	-140
906.145	972
906.247	101
906.348	-77
906.449	69
906.550	282
906.651	1042
906.752	595
906.854	-134
906.955	156
907.056	-79
907.157	1076
907.258	459
907.359	398
907.460	-5
907.561	-172
907.662	-58
907.762	888
907.863	250
907.964	-87
908.065	644
908.166	346
908.267	-226
908.367	141
908.468	-31
908.569	-26
908.670	615
908.770	208
908.871	69
908.971	875
909.072	334
909.173	101
909.273	46
909.374	179
909.474	701
909.575	-274
909.675	1029
909.776	146
909.876	474
909.977	-44
910.077	-210
910.177	310
910.278	634
910.378	-75
910.478	-317
910.579	18
910.679	-491
910.779	871
910.879	772
910.980	426
911.080	-227
911.180	-85
911.280	-418
911.380	59
911.480	-347
911.580	-10
911.680	912
911.780	935
911.880	-144
911.980	106
912.080	-156
912.180	1014
912.280	510
912.380	579
912.480	-10
912.580	940
912.679	137
912.779	249
912.879	548
912.979	-359
913.078	-570
913.178	1190
913.278	152
913.377	86
913.477	-346
913.577	575
913.676	994
913.776	641
913.875	327
913.975	571
914.074	296
914.174	509
914.273	141
914.373	689
914.472	726
914.572	720
914.671	268
914.770	489
914.870	-170
914.969	168
915.068	164
915.167	449
915.267	-417
915.366	193
915.465	-291
915.564	297
915.663	766
915.763	364
915.862	238
915.961	194
916.060	-266
916.159	330
916.258	-567
916.357	89
916.456	296
916.555	78
916.654	203
916.752	-118
916.851	157
916.950	-76
917.049	-192
917.148	407
917.247	1005
917.345	1036
917.444	321
917.543	620
917.642	346
917.740	415
917.839	145
917.937	582
918.036	1397
918.135	573
918.233	570
918.332	39
918.430	133
918.529	-24
918.627	386
918.726	608
918.824	372
918.923	-177
919.021	-173
919.119	-238
919.218	-58
919.316	913
919.414	57
919.512	1237
919.611	426
919.709	272
919.807	584
919.905	467
920.003	343
920.102	-37
920.200	-98
920.298	395
920.396	-232
920.494	-345
920.592	212
920.690	57
920.788	785
920.886	-208
920.984	-248
921.082	-508
921.180	1611
921.277	307
921.375	445
921.473	-25
921.571	229
921.669	1052
921.766	697
921.864	420
921.962	569
922.060	500
922.157	449
922.255	518
922.352	131
922.450	605
922.548	-433
922.645	192
922.743	-517
922.840	466
922.938	394
923.035	1045
923.133	83
923.230	656
923.327	289
923.425	1132
923.522	603
923.619	365
923.717	1090
923.814	702
923.911	280
924.008	814
924.106	865
924.203	596
924.300	-507
924.397	-160
924.494	1113
924.591	623
924.688	581
924.786	294
924.883	982
924.979	378
925.077	628
925.173	601
925.270	63
925.367	1239
925.464	340
925.561	936
925.658	559
925.755	769
925.852	1232
925.948	-30
926.045	1033
926.142	433
926.239	525
926.335	431
926.432	519
926.529	14
926.625	249
926.722	559
926.818	983
926.915	408
927.011	323
927.108	86
927.204	616
927.301	936
927.397	255
927.494	212
927.590	389
927.687	330
927.783	684
927.879	316
927.976	-120
928.072	394
928.168	-52
928.264	250
928.361	-417
928.457	193
928.553	812
928.649	714
928.745	0
928.841	419
928.937	413
929.033	888
929.129	1006
929.225	580
929.321	380
929.417	-158
929.513	547
929.609	525
929.705	1099
929.801	1198
929.897	758
929.993	70
930.089	324
930.184	-139
930.280	474
930.376	-193
930.471	41
930.567	1122
930.663	1028
930.758	918
930.854	597
930.950	22
931.045	325
931.141	569
931.236	1151
931.332	880
931.427	1010
931.523	405
931.618	-127
931.714	-104
931.809	459
931.905	1362
932.000	-345
932.095	580
932.191	-408
932.286	564
932.381	290
932.476	-130
932.572	-780
932.667	363
932.762	559
932.857	608
932.952	-329
933.047	455
933.142	9
933.237	677
933.332	-57
933.427	562
933.522	293
933.617	495
933.712	573
933.807	-295
933.902	-318
933.997	542
934.092	-481
934.187	662
934.282	314
934.376	328
934.471	1410
934.566	331
934.661	360
934.755	132
934.850	-251
934.945	1511
935.039	-364
935.134	677
935.228	131
935.323	-117
935.417	654
935.512	86
935.606	-18
935.701	563
935.795	-445
935.890	441
935.984	-143
936.079	554
936.173	242
936.267	33
936.362	198
936.456	284
936.550	-12
936.644	978
936.738	-126
936.833	539
936.927	84
937.021	446
937.115	-282
937.209	-121
937.303	862
937.397	666
937.491	-91
937.585	-316
937.679	181
937.773	774
937.867	-41
937.961	604
938.055	136
938.149	408
938.243	233
938.337	529
938.430	780
938.524	133
938.618	421
938.712	1097
938.805	-864
938.899	106
938.993	-598
939.086	775
939.180	101
939.274	-26
939.367	472
939.461	357
939.554	-70
939.648	499
939.741	641
939.835	46
939.928	275
940.022	224
940.115	-442
940.208	1038
940.302	109
940.395	-84
940.488	-650
940.582	293
940.675	484
940.768	-96
940.861	-529
940.954	84
941.048	463
941.141	118
941.234	-703
941.327	-679
941.420	257
941.513	483
941.606	184
941.699	514
941.792	-404
941.885	135
941.978	-338
942.071	72
942.164	-52
942.257	-28
942.349	-25
942.442	205
942.535	-646
942.628	257
942.721	516
942.813	-1275
942.906	26
942.999	-591
943.091	-759
943.184	398
943.277	-1031
943.369	697
943.462	297
943.554	275
943.647	-735
943.739	96
943.832	219
943.924	-180
944.017	996
944.109	111
944.201	509
944.294	201
944.386	317
944.478	-252
944.571	464
944.663	329
944.755	-451
944.847	374
944.940	-101
945.032	-1024
945.124	-476
945.216	845
945.308	-696
945.400	491
945.492	165
945.584	-333
945.676	170
945.768	804
945.860	328
945.952	462
946.044	288
946.136	-233
946.228	305
946.320	52
946.412	-98
946.503	2
946.595	403
946.687	-233
946.779	39
946.870	-167
946.962	-54
947.054	638
947.145	58
947.237	-461
947.329	-462
947.420	130
947.512	168
947.603	-682
947.695	273
947.786	-208
947.878	105
947.969	1001
948.061	-504
948.152	638
948.243	-45
948.335	245
948.426	275
948.517	-518
948.609	511
948.700	-172
948.791	-187
948.882	425
948.973	-131
949.065	968
949.156	105
949.247	-924
949.338	-306
949.429	-125
949.520	437
949.611	-173
949.702	-285
949.793	245
949.884	337
949.975	-529
950.066	-150
950.157	-534
950.247	-274
950.338	340
950.429	-363
950.520	-756
950.611	-666
950.701	100
950.792	217
950.883	-19
950.973	107
951.064	-424
951.155	-430
951.245	272
951.336	-436
951.427	785
951.517	-267
951.608	208
951.698	-482
951.788	-485
951.879	-508
951.969	49
952.060	-149
952.150	-460
952.240	591
952.331	-1169
952.421	717
952.511	-351
952.602	-284
952.692	-480
952.782	-375
952.872	-292
952.962	-523
953.052	-586
953.143	-251
953.233	-98
953.323	-306
953.413	-404
953.503	-219
953.593	-849
953.683	-1045
953.773	-837
953.863	-34
953.953	-482
954.042	416
954.132	-739
954.222	410
954.312	-537
954.402	-241
954.492	59
954.581	913
954.671	-584
954.761	-382
954.850	-141
954.940	-503
955.030	-46
955.119	-629
955.209	-192
955.298	-1042
955.388	460
955.477	535
955.567	-646
955.656	109
955.746	797
955.835	-573
955.925	-828
956.014	-149
956.103	148
956.193	468
956.282	70
956.371	-330
956.461	-434
956.550	-192
956.639	48
956.728	-731
956.817	-729
956.906	-681
956.995	563
957.085	-260
957.174	-420
957.263	318
957.352	-498
957.441	-1081
957.530	479
957.619	-241
957.708	-15
957.796	269
957.885	-318
957.974	-920
958.063	-72
958.152	-1038
958.241	236
958.329	-126
958.418	-655
958.507	-632
958.596	223
958.684	-729
958.773	790
958.861	929
958.950	-437
959.039	-1321
959.127	-388
959.216	-779
959.304	-371
959.393	-311
959.481	-224
959.570	-207
959.658	-155
959.746	-586
959.835	-438
959.923	-1087
960.011	-310
960.100	-330
960.188	-61
960.276	-588
960.365	-572
960.453	-536
960.541	-876
960.629	-636
960.717	-811
960.805	-388
960.893	-153
960.981	-1497
961.069	720
961.158	-1162
961.245	-55
961.333	325
961.421	-586
961.509	-382
961.597	-91
961.685	-512
961.773	-70
961.861	-302
961.949	-183
962.036	-1750
962.124	185
962.212	-248
962.299	559
962.387	-1133
962.475	-747
962.562	-846
962.650	618
962.738	-728
962.825	-404
962.913	-1004
963.000	-255
963.088	-213
963.175	-413
963.263	21
963.350	-411
963.438	-87
963.525	-207
963.612	244
963.700	55
963.787	1131
963.874	576
963.962	64
964.049	122
964.136	-507
964.223	-404
964.310	-592
964.398	-228
964.485	-203
964.572	210
964.659	-41
964.746	-385
964.833	94
964.920	-138
965.007	-339
965.094	-430
965.181	70
965.268	-793
965.355	-528
965.441	-715
965.528	-317
965.615	-261
965.702	22
965.789	-257
965.875	-191
965.962	-632
966.049	-751
966.136	27
966.222	-1064
966.309	206
966.395	-841
966.482	-387
966.569	-473
966.655	-783
966.742	-450
966.828	154
966.915	-542
967.001	-635
967.087	-690
967.174	-81
967.260	-212
967.347	-852
967.433	-242
967.519	92
967.605	-531
967.692	-557
967.778	60
967.864	-213
967.950	-564
968.036	-523
968.123	-308
968.209	-426
968.295	-1154
968.381	340
968.467	-231
968.553	-1317
968.639	-739
968.725	-630
968.811	-325
968.897	34
968.983	-614
969.069	-758
969.154	599
969.240	-81
969.326	-721
969.412	-663
969.497	99
969.583	-446
969.669	100
969.755	-427
969.840	-317
969.926	314
970.012	-873
970.097	363
970.183	-887
970.268	-493
970.354	681
970.439	-1086
970.525	621
970.610	-772
970.696	426
970.781	228
970.866	-1176
970.952	-394
971.037	-739
971.122	-342
971.208	-23
971.293	-599
971.378	-996
971.463	-500
971.549	273
971.634	-503
971.719	-481
971.804	-573
971.889	690
971.974	-175
972.059	-47
972.144	-211
972.229	-624
972.314	-802
972.399	-146
972.484	-964
972.569	68
972.654	-774
972.739	430
972.824	-1045
972.908	239
972.993	-581
973.078	-437
973.163	-1087
973.247	-1076
973.332	-1684
973.417	202
973.501	-396
973.586	-313
973.671	73
973.755	-399
973.840	-67
973.924	-242
974.009	-416
974.093	-715
974.178	-232
974.262	-211
974.346	-501
974.431	-1306
974.515	-311
974.600	-550
974.684	252
974.768	-899
974.852	338
974.937	-1328
975.021	395
975.105	-1015
975.189	-1164
975.273	79
975.358	-1295
975.442	-1751
975.526	-674
975.610	-433
975.694	-647
975.778	-187
975.862	-444
975.946	-1700
976.030	1151
976.114	-557
976.198	-837
976.281	-712
976.365	679
976.449	-759
976.533	-439
976.617	-1044
976.700	-267
976.784	-436
976.868	-427
976.951	67
977.035	-763
977.119	-752
977.202	-969
977.286	-157
977.369	-124
977.453	166
977.536	-923
977.620	-365
977.703	528
977.787	-1339
977.870	409
977.953	661
978.037	-1912
978.120	27
978.203	-1535
978.287	-402
978.370	-476
978.453	-625
978.536	-569
978.620	-371
978.703	174
978.786	32
978.869	-496
978.952	-525
979.035	903
979.118	-112
979.201	-99
979.284	195
979.367	-1007
979.450	97
979.533	-387
979.616	-818
979.699	-101
979.782	233
979.865	-336
979.948	-704
980.030	-963
980.113	-584
980.196	-1386
980.279	-434
980.361	192
980.444	-527
980.526	-398
980.609	-187
980.692	-366
980.774	-451
980.857	-1440
980.939	-212
981.022	-317
981.104	-778
981.187	-606
981.269	66
981.352	-247
981.434	-1785
981.516	455
981.599	-138
981.681	-711
981.763	-305
981.846	-59
981.928	-414
982.010	-519
982.092	-975
982.174	201
982.256	-553
982.339	-393
982.421	-321
982.503	-402
982.585	-367
982.667	-600
982.749	-324
982.831	-581
982.913	-1342
982.995	105
983.077	-1127
983.158	-298
983.240	-1315
983.322	-206
983.404	-115
983.486	-927
983.568	-244
983.649	-552
983.731	-679
983.813	-1019
983.894	-1216
983.976	-886
984.058	-422
984.139	1319
984.221	-1846
984.302	926
984.384	-1000
984.465	-1204
984.547	248
984.628	-1007
984.710	254
984.791	-550
984.872	-1222
984.954	-341
985.035	-168
985.116	-1182
985.198	-823
985.279	283
985.360	-424
985.441	-748
985.522	-490
985.604	-972
985.685	-2462
985.766	136
985.847	349
985.928	-538
986.009	-870
986.090	-883
986.171	-951
986.252	-1339
986.333	-342
986.414	-1056
986.495	-592
986.576	49
986.656	-491
986.737	-444
986.818	-430
986.899	-331
986.980	-700
987.060	210
987.141	-998
987.222	-212
987.302	-385
987.383	-673
987.464	-1106
987.544	47
987.625	-575
987.705	483
987.786	-710
987.866	-77
987.947	-417
988.027	-628
988.108	-709
988.188	198
988.268	-45
988.349	-516
988.429	-795
988.509	-77
988.589	-213
988.670	-2527
988.750	534
988.830	-1203
988.910	-117
988.990	-425
989.070	-993
989.151	118
989.231	-1164
989.311	-391
989.391	-174
989.471	-708
989.551	-967
989.631	-1133
989.711	-196
989.791	-1695
989.870	-690
989.950	358
990.030	-1347
990.110	-1062
990.190	-679
990.269	-1447
990.349	-603
990.429	-427
990.509	-449
990.588	-905
990.668	-214
990.747	-962
990.827	-1080
990.907	-690
990.986	-533
991.066	-629
991.145	-876
991.225	-663
991.304	-1172
991.383	-528
991.463	-568
991.542	-801
991.622	-965
991.701	-1309
991.780	-730
991.859	-681
991.939	-1405
992.018	-185
992.097	-635
992.176	-363
992.256	-692
992.335	-835
992.414	-447
992.493	-776
992.572	-633
992.651	-697
992.730	-1167
992.809	-382
992.888	-866
992.967	-999
993.046	-459
993.125	-1407
993.203	-659
993.282	-1020
993.361	-1053
993.440	-408
993.519	-2075
993.597	-331
993.676	-1296
993.755	-364
993.834	-1120
993.912	-1931
993.991	185
994.069	-1217
994.148	-1300
994.226	-875
994.305	-468
994.384	-1767
994.462	-167
994.540	-1024
994.619	-1255
994.697	-387
994.776	-1107
994.854	-368
994.932	-748
995.011	-322
995.089	-738
995.167	-1040
995.245	-1157
995.324	-1615
995.402	76
995.480	-1614
995.558	-213
995.636	-1396
995.714	-907
995.792	-44
995.870	-903
995.948	51
996.026	-737
996.104	-1176
996.182	-508
996.260	-1205
996.338	74
996.416	-1137
996.494	-1181
996.572	-630
996.649	-1061
996.727	-2110
996.805	-362
996.883	-697
996.960	-1911
997.038	-140
997.116	-850
997.193	-1596
997.271	-1246
997.348	-943
997.426	-1193
997.504	-1106
997.581	-279
997.658	-89
997.736	-1227
997.813	-1334
997.891	-313
997.968	-1417
998.046	-1310
998.123	-1366
998.200	-1044
998.277	-1717
998.355	-288
998.432	-1978
998.509	-1366
998.586	-421
998.663	-949
998.741	-369
998.818	-983
998.895	-1434
998.972	-284
999.049	66
999.126	-1823
999.203	241
999.280	-592
999.357	-1597
999.434	-2209
999.511	-686
999.587	200
999.664	-673
999.741	-668
999.818	-170
999.895	-795
999.971	-478
1000.048	-838
1000.125	121
1000.202	-1001
1000.278	-1568
1000.355	-325
1000.431	-832
1000.508	-1250
1000.584	-696
1000.661	-717
1000.738	-1652
1000.814	-1181
1000.890	-604
1000.967	-1804
1001.043	-843
1001.120	-1460
1001.196	-473
1001.272	-1687
1001.349	-905
1001.425	-358
1001.501	-933
1001.577	-1224
1001.654	-511
1001.730	-1196
1001.806	-757
1001.882	-1773
1001.958	-217
1002.034	-1358
1002.110	-1008
1002.186	-978
1002.262	-1546
1002.338	-1451
1002.414	-611
1002.490	-469
1002.566	-1540
1002.642	-1534
1002.718	-545
1002.794	-586
1002.870	-910
1002.945	-968
1003.021	-638
1003.097	-831
1003.173	-1051
1003.248	-971
1003.324	-812
1003.400	-1015
1003.475	-438
1003.551	-342
1003.626	-466
1003.702	-1197
1003.777	-1080
1003.853	-1087
1003.928	-1459
1004.004	-995
1004.079	-968
1004.155	-1131
1004.230	-1852
1004.305	147
1004.381	-1341
1004.456	-1450
1004.531	-1385
1004.607	-953
1004.682	-621
1004.757	-931
1004.832	-1202
1004.907	-1087
1004.982	-1190
1005.057	-1214
1005.133	-1016
1005.208	-1238
1005.283	-882
1005.358	-853
1005.433	-1651
1005.508	-1023
1005.583	-1797
1005.657	-1087
1005.732	-1140
1005.807	-1720
1005.882	-978
1005.957	-1127
1006.032	-863
1006.106	-608
1006.181	-1253
1006.256	-678
1006.331	-2026
1006.405	-1438
1006.480	-1214
1006.554	-1224
1006.629	-1574
1006.704	-1130
1006.778	-906
1006.853	-760
1006.927	-945
1007.002	-1531
1007.076	-1028
1007.150	-1045
1007.225	-969
1007.299	-742
1007.373	-1324
1007.448	-999
1007.522	-1098
1007.596	-827
1007.671	-1412
1007.745	-1858
1007.819	-2037
1007.893	-1317
1007.967	-311
1008.041	-1665
1008.115	-469
1008.190	-1418
1008.264	-1287
1008.338	-2814
1008.412	-1489
1008.486	-722
1008.560	-880
1008.633	-1487
1008.707	-1609
1008.781	-888
1008.855	-1423
1008.929	-2714
1009.003	-830
1009.076	-1078
1009.150	-955
1009.224	-663
1009.298	-1330
1009.371	-2006
1009.445	-193
1009.519	-1299
1009.592	-2162
1009.666	-726
1009.739	-1395
1009.813	-2505
1009.886	-747
1009.960	-1723
1010.033	-318
1010.107	-1213
1010.180	-2109
1010.253	-476
1010.327	-1800
1010.400	-1162
1010.473	-1199
1010.547	-615
1010.620	-917
1010.693	-1193
1010.766	-1746
1010.840	-1213
1010.913	-821
1010.986	-1333
1011.059	-1659
1011.132	-1133
1011.205	-981
1011.278	-1709
1011.351	-2083
1011.424	-1607
1011.497	-1328
1011.570	-1616
1011.643	-1850
1011.716	-1982
1011.789	-1815
1011.862	-690
1011.934	-948
1012.007	-2717
1012.080	-892
1012.153	-1395
1012.225	-740
1012.298	-960
1012.371	-1318
1012.443	-1448
1012.516	-1919
1012.588	-1727
1012.661	-1225
1012.733	-2406
1012.806	-403
1012.879	-1314
1012.951	-937
1013.023	-1832
1013.096	-730
1013.168	-2227
1013.241	-1002
1013.313	-1240
1013.385	-1794
1013.458	-1406
1013.530	-1051
1013.602	-1514
1013.674	-1045
1013.746	-1921
1013.819	-2118
1013.891	-1560
1013.963	-2078
1014.035	-1446
1014.107	-1452
1014.179	-1739
1014.251	-2550
1014.323	-961
1014.395	-1481
1014.467	-1489
1014.539	-1400
1014.611	-1997
1014.683	-1209
1014.754	-942
1014.826	-2127
1014.898	-2004
1014.970	-2714
1015.042	-866
1015.113	-1412
1015.185	-1352
1015.257	-2508
1015.328	-102
1015.400	-1701
1015.471	-865
1015.543	-1842
1015.615	-1098
1015.686	-1791
1015.757	-2091
1015.829	-1485
1015.901	-2075
1015.972	-789
1016.043	-1651
1016.115	-1288
1016.186	-2306
1016.257	-2009
1016.328	-1336
1016.400	-1307
1016.471	-1823
1016.542	-1925
1016.613	-1761
1016.685	-1433
1016.756	-1504
1016.827	-1653
1016.898	-1744
1016.969	-996
1017.040	-1607
1017.111	-2193
1017.182	-1879
1017.253	-1603
1017.324	-1471
1017.395	-2176
1017.466	-1318
1017.537	-1937
1017.608	-1958
1017.678	-1652
1017.749	-2269
1017.820	-2199
1017.891	-1910
1017.961	-1720
1018.032	-2386
1018.103	-1156
1018.173	-1960
1018.244	-1625
1018.315	-1477
1018.385	-1285
1018.456	-1775
1018.526	-1123
1018.597	-2092
1018.667	-1586
1018.738	-1437
1018.808	-1821
1018.878	-1414
1018.949	-1784
1019.019	-1391
1019.089	-1497
1019.160	-880
1019.230	-2347
1019.300	-1874
1019.371	-2566
1019.441	-1996
1019.511	-1744
1019.581	-2303
1019.651	-1267
1019.721	-2050
1019.791	-1748
1019.861	-1607
1019.931	-734
1020.001	-1454
1020.071	-1829
1020.141	-1741
1020.211	-1390
1020.281	-1618
1020.351	-1796
1020.421	-1694
1020.491	-994
1020.560	-2490
1020.630	-1968
1020.700	-1334
1020.770	-1997
1020.839	-1831
1020.909	-2153
1020.979	-1757
1021.048	-2093
1021.118	-2067
1021.187	-1770
1021.257	-1512
1021.326	-1448
1021.396	-1998
1021.465	-1723
1021.535	-1654
1021.604	-2547
1021.674	-1365
1021.743	-1965
1021.812	-1867
1021.882	-1930
1021.951	-1800
1022.020	-2111
1022.089	-1466
1022.159	-2059
1022.228	-1766
1022.297	-1698
1022.366	-1913
1022.435	-1994
1022.504	-1084
1022.573	-2027
1022.642	-2104
1022.711	-1456
1022.781	-1299
1022.849	-1940
1022.918	-2002
1022.987	-1670
1023.056	-1686
1023.125	-2004
1023.194	-2130
1023.263	-1340
1023.331	-1494
1023.400	-2604
1023.469	-2397
1023.538	-1415
1023.606	-1706
1023.675	-2108
1023.744	-2275
1023.812	-1821
1023.881	-2056
1023.949	-1707
1024.018	-1934
1024.086	-1077
1024.155	-2228
1024.223	-1829
1024.292	-1630
1024.360	-911
1024.429	-1670
1024.497	-2370
1024.565	-2172
1024.634	-1159
1024.702	-2176
1024.770	-1609
1024.838	-3302
1024.907	-1331
1024.975	-2891
1025.043	-2160
1025.111	-1640
1025.179	-1418
1025.247	-1544
1025.315	-1934
1025.383	-2136
1025.451	-1531
1025.519	-1619
1025.587	-1822
1025.655	-1953
1025.723	-2128
1025.791	-2319
1025.859	-1350
1025.927	-1631
1025.995	-2007
1026.062	-1843
1026.130	-1358
1026.198	-2808
1026.266	-2476
1026.333	-2093
1026.401	-2100
1026.469	-1790
1026.536	-2351
1026.604	-1775
1026.671	-2306
1026.739	-1840
1026.806	-1753
1026.874	-2114
1026.941	-1804
1027.009	-1999
1027.076	-2479
1027.144	-1188
1027.211	-2576
1027.278	-2201
1027.345	-2536
1027.413	-2257
1027.480	-2325
1027.547	-1721
1027.614	-2492
1027.682	-1945
1027.749	-858
1027.816	-2407
1027.883	-2029
1027.950	-1232
1028.017	-1905
1028.084	-1923
1028.151	-1991
1028.218	-1999
1028.285	-2259
1028.352	-2512
1028.419	-2193
1028.486	-2280
1028.553	-1790
1028.619	-2274
1028.686	-1694
1028.753	-2286
1028.820	-2911
1028.886	-2129
1028.953	-1479
1029.020	-1841
1029.086	-1558
1029.153	-2208
1029.220	-2104
1029.286	-2177
1029.353	-1749
1029.419	-2566
1029.486	-1925
1029.552	-2738
1029.619	-2084
1029.685	-2148
1029.751	-2457
1029.818	-1797
1029.884	-1901
1029.951	-1591
1030.017	-1795
1030.083	-1415
1030.149	-1659
1030.216	-3454
1030.282	-1780
1030.348	-2123
1030.414	-2050
1030.480	-1914
1030.546	-1696
1030.612	-1159
1030.678	-2408
1030.744	-2505
1030.810	-1360
1030.876	-2258
1030.942	-2175
1031.008	-2039
1031.074	-1545
1031.140	-2331
1031.206	-788
1031.272	-2535
1031.337	-2436
1031.403	-1846
1031.469	-2219
1031.534	-2564
1031.600	-2085
1031.666	-2443
1031.731	-1962
1031.797	-1472
1031.863	-2133
1031.928	-1954
1031.994	-2486
1032.059	-1833
1032.125	-1967
1032.190	-2201
1032.256	-1418
1032.321	-2004
1032.386	-1887
1032.452	-1735
1032.517	-1642
1032.582	-1388
1032.647	-1988
1032.713	-2406
1032.778	-2274
1032.843	-2338
1032.908	-1525
1032.974	-1772
1033.039	-2322
1033.104	-2136
1033.169	-2287
1033.234	-2411
1033.299	-2293
1033.364	-2026
1033.429	-2583
1033.494	-1772
1033.559	-2860
1033.624	-1779
1033.688	-1930
1033.753	-2065
1033.818	-1721
1033.883	-2431
1033.948	-1589
1034.013	-2641
1034.077	-1702
1034.142	-2008
1034.207	-2173
1034.271	-2728
1034.336	-1422
1034.400	-1890
1034.465	-2267
1034.530	-1835
1034.594	-1344
1034.658	-1725
1034.723	-2240
1034.787	-1523
1034.852	-2311
1034.916	-2575
1034.981	-1871
1035.045	-1546
1035.109	-2449
1035.173	-1425
1035.238	-2505
1035.302	-2505
1035.366	-2115
1035.430	-2808
1035.495	-2444
1035.559	-2183
1035.623	-2609
1035.687	-2934
1035.751	-2517
1035.815	-2539
1035.879	-2198
1035.943	-2481
1036.007	-2195
1036.071	-1734
1036.135	-2280
1036.198	-2221
1036.262	-2029
1036.326	-1975
1036.390	-1803
1036.454	-1553
1036.517	-2653
1036.581	-2288
1036.645	-2236
1036.709	-2242
1036.772	-2145
1036.836	-2313
1036.900	-2048
1036.963	-2816
1037.026	-2272
1037.090	-2284
1037.154	-2061
1037.217	-2314
1037.280	-2557
1037.344	-2628
1037.407	-2757
1037.471	-2146
1037.534	-2760
1037.597	-2618
1037.661	-2694
1037.724	-1871
1037.787	-1987
1037.850	-1664
1037.913	-1825
1037.977	-2327
1038.040	-1426
1038.103	-3247
1038.166	-2656
1038.229	-2287
1038.292	-1835
1038.355	-2217
1038.418	-1434
1038.481	-2108
1038.544	-1734
1038.607	-2342
1038.670	-3150
1038.732	-1873
1038.795	-2414
1038.858	-1731
1038.921	-1627
1038.984	-2135
1039.046	-2815
1039.109	-2155
1039.172	-2906
1039.234	-2216
1039.297	-3023
1039.360	-2526
1039.422	-2311
1039.485	-2168
1039.547	-2716
1039.610	-2523
1039.672	-1669
1039.734	-1777
1039.797	-2620
1039.859	-2201
1039.922	-2728
1039.984	-2342
1040.046	-1485
1040.109	-2473
1040.171	-2211
1040.233	-2255
1040.295	-2057
1040.358	-2431
1040.420	-2315
1040.482	-2526
1040.544	-2390
1040.606	-2135
1040.668	-2485
1040.730	-2470
1040.792	-2040
1040.854	-2977
1040.916	-2069
1040.978	-2146
1041.040	-1428
1041.102	-2379
1041.164	-2222
1041.225	-2264
1041.287	-2272
1041.349	-2258
1041.411	-3205
1041.472	-2385
1041.534	-1988
1041.596	-2990
1041.657	-2041
1041.719	-1908
1041.781	-2627
1041.842	-2365
1041.904	-2874
1041.965	-2056
1042.027	-2384
1042.088	-2322
1042.150	-2612
1042.211	-1784
1042.272	-1748
1042.334	-2484
1042.395	-2916
1042.456	-2296
1042.518	-2373
1042.579	-1842
1042.640	-1980
1042.701	-2558
1042.763	-2064
1042.824	-2481
1042.885	-2251
1042.946	-2931
1043.007	-1595
1043.068	-2170
1043.129	-2978
1043.190	-2762
1043.251	-1421
1043.312	-2115
1043.373	-1708
1043.434	-2170
1043.495	-1753
1043.556	-1504
1043.616	-2293
1043.677	-2436
1043.738	-2125
1043.799	-2462
1043.859	-2654
1043.920	-3094
1043.981	-2617
1044.041	-1883
1044.102	-1587
1044.162	-1775
1044.223	-2166
1044.284	-2287
1044.344	-2085
1044.405	-1607
1044.465	-2578
1044.525	-2171
1044.586	-1474
1044.646	-1935
1044.707	-2443
1044.767	-1709
1044.827	-2869
1044.887	-2322
1044.948	-2050
1045.008	-2159
1045.068	-2304
1045.128	-2053
1045.188	-2605
1045.249	-2211
1045.309	-2606
1045.369	-1647
1045.429	-2282
1045.489	-2048
1045.549	-2826
1045.609	-2244
1045.669	-1903
1045.729	-2667
1045.789	-1966
1045.848	-2414
1045.908	-1818
1045.968	-1469
1046.028	-2147
1046.088	-2025
1046.147	-2199
1046.207	-2629
1046.267	-2244
1046.326	-2374
1046.386	-1791
1046.446	-2015
1046.505	-1003
1046.565	-819
1046.624	-1696
1046.684	-1058
1046.743	-1026
1046.803	-860
1046.862	-344
1046.922	0
