'Start Wavelength	183.907
'End Wavelength	1046.922
'Gate Delay	5.000
'Gate Width (ms)	1.050
'Laser Output Level	0.000
'X Position	0.000
'Y Position	0.000
'Z Position	0.000
'Grid Point Number	1.000
'Shot Number	100.000
183.907	-75.000
183.977	-191.000
184.047	114
184.116	-153
184.186	280
184.256	-536
184.325	290
184.395	-710
184.465	534
184.534	285
184.604	-747
184.674	376
184.743	-523
184.813	-591
184.883	264
184.952	-303
185.022	151
185.092	-54
185.161	-313
185.231	-10
185.301	587
185.370	568
185.440	-224
185.509	-716
185.579	17
185.649	-97
185.718	1047
185.788	525
185.857	-101
185.927	-431
185.996	-98
186.066	282
186.136	-7
186.205	-295
186.275	54
186.344	-275
186.414	-154
186.483	-551
186.553	438
186.622	-365
186.692	54
186.761	-228
186.831	-133
186.900	60
186.970	-12
187.039	66
187.109	677
187.178	302
187.248	499
187.317	-677
187.387	144
187.456	277
187.526	323
187.595	4
187.664	108
187.734	-130
187.803	524
187.873	-25
187.942	691
188.012	-168
188.081	911
188.150	-538
188.220	455
188.289	595
188.358	464
188.428	19
188.497	-56
188.567	392
188.636	-521
188.705	-25
188.775	-543
188.844	-317
188.913	626
188.983	-229
189.052	120
189.121	-489
189.191	365
189.260	702
189.329	452
189.399	-422
189.468	783
189.537	-427
189.606	280
189.676	192
189.745	313
189.814	-75
189.883	172
189.953	241
190.022	349
190.091	507
190.161	176
190.230	22
190.299	-429
190.368	-35
190.437	-883
190.507	-357
190.576	-527
190.645	196
190.714	364
190.783	-593
190.853	-13
190.922	186
190.991	-107
191.060	-450
191.129	-168
191.198	740
191.268	408
191.337	-296
191.406	-22
191.475	-671
191.544	52
191.613	-946
191.682	-855
191.752	-450
191.821	368
191.890	-282
191.959	-657
192.028	-407
192.097	0
192.166	610
192.235	-729
192.304	-259
192.373	47
192.442	-203
192.511	218
192.580	-412
192.650	-118
192.719	-582
192.788	610
192.857	-305
192.926	-156
192.995	78
193.064	312
193.133	9
193.202	876
193.271	345
193.340	474
193.409	330
193.478	773
193.547	458
193.615	982
193.684	796
193.753	1152
193.822	4
193.891	-9
193.960	399
194.029	-209
194.098	358
194.167	79
194.236	65
194.305	102
194.374	-562
194.443	-142
194.512	193
194.580	75
194.649	286
194.718	380
194.787	110
194.856	-831
194.925	555
194.994	100
195.062	111
195.131	370
195.200	-344
195.269	702
195.338	245
195.407	529
195.475	-174
195.544	1279
195.613	298
195.682	246
195.751	-669
195.819	28
195.888	550
195.957	789
196.026	88
196.094	1157
196.163	-67
196.232	399
196.301	542
196.369	279
196.438	234
196.507	-178
196.576	151
196.644	-683
196.713	-43
196.782	447
196.850	262
196.919	167
196.988	-413
197.056	-34
197.125	422
197.194	498
197.262	-1
197.331	338
197.400	-591
197.468	262
197.537	-259
197.606	403
197.674	211
197.743	291
197.812	-72
197.880	1046
197.949	-194
198.017	838
198.086	403
198.155	315
198.223	30
198.292	806
198.360	-64
198.429	-96
198.497	-107
198.566	-156
198.635	1328
198.703	723
198.772	718
198.840	274
198.909	348
198.977	415
199.046	-116
199.114	448
199.183	180
199.251	544
199.320	-52
199.388	25
199.457	-306
199.525	948
199.594	-70
199.662	741
199.731	-353
199.799	409
199.867	-560
199.936	678
200.004	-86
200.073	584
200.141	-459
200.210	-174
200.278	-311
200.346	-224
200.415	178
200.483	-7
200.552	91
200.620	238
200.688	-1030
200.757	12
200.825	-477
200.893	153
200.962	-15
201.030	-108
201.098	-202
201.167	409
201.235	24
201.303	-299
201.372	478
201.440	401
201.508	966
201.577	344
201.645	390
201.713	730
201.781	-86
201.850	923
201.918	679
201.986	338
202.055	194
202.123	440
202.191	670
202.259	-73
202.327	454
202.396	109
202.464	690
202.532	593
202.600	1356
202.669	72
202.737	-343
202.805	-121
202.873	6
202.941	805
203.009	126
203.078	130
203.146	124
203.214	334
203.282	-683
203.350	371
203.418	-12
203.487	44
203.555	276
203.623	217
203.691	499
203.759	469
203.827	-281
203.895	861
203.963	50
204.031	497
204.099	748
204.168	-122
204.236	213
204.304	285
204.372	809
204.440	154
204.508	272
204.576	-130
204.644	534
204.712	502
204.780	-286
204.848	-533
204.916	441
204.984	95
205.052	628
205.120	487
205.188	396
205.256	499
205.324	65
205.392	310
205.460	226
205.528	352
205.596	508
205.664	-450
205.732	199
205.799	1317
205.867	1492
205.935	-175
206.003	834
206.071	799
206.139	-401
206.207	382
206.275	609
206.343	-247
206.411	-64
206.478	-375
206.546	420
206.614	288
206.682	-58
206.750	99
206.818	681
206.885	1066
206.953	84
207.021	515
207.089	437
207.157	252
207.225	556
207.292	389
207.360	661
207.428	744
207.496	-284
207.563	147
207.631	131
207.699	-456
207.767	409
207.834	528
207.902	55
207.970	-220
208.038	16
208.105	170
208.173	572
208.241	-393
208.309	324
208.376	-328
208.444	538
208.512	-118
208.579	-414
208.647	766
208.715	656
208.782	456
208.850	638
208.918	700
208.985	478
209.053	658
209.120	488
209.188	512
209.256	-373
209.323	-469
209.391	368
209.459	1335
209.526	1081
209.594	-327
209.661	1143
209.729	327
209.796	-19
209.864	512
209.932	-906
209.999	1388
210.067	721
210.134	80
210.202	267
210.269	914
210.337	911
210.404	124
210.472	489
210.539	692
210.607	951
210.674	-74
210.742	484
210.809	457
210.877	639
210.944	760
211.012	25
211.079	1779
211.146	-89
211.214	864
211.281	499
211.349	1063
211.416	714
211.484	857
211.551	-626
211.618	258
211.686	-82
211.753	311
211.821	554
211.888	31
211.955	142
212.023	95
212.090	350
212.157	671
212.225	155
212.292	1388
212.359	920
212.427	3108
212.494	1795
212.561	1432
212.629	430
212.696	431
212.763	327
212.831	846
212.898	443
212.965	318
213.032	958
213.100	-92
213.167	48
213.234	451
213.301	653
213.369	835
213.436	726
213.503	665
213.570	1838
213.638	1559
213.705	373
213.772	-82
213.839	258
213.906	971
213.973	778
214.041	-134
214.108	813
214.175	804
214.242	704
214.309	1080
214.376	377
214.444	189
214.511	561
214.578	1291
214.645	1585
214.712	1231
214.779	486
214.846	373
214.913	980
214.980	1660
215.048	830
215.115	2235
215.182	1181
215.249	1086
215.316	634
215.383	1760
215.450	1095
215.517	74
215.584	183
215.651	808
215.718	589
215.785	1051
215.852	672
215.919	1753
215.986	718
216.053	438
216.120	-163
216.187	726
216.254	216
216.321	1224
216.388	666
216.455	810
216.522	652
216.589	575
216.656	1426
216.722	886
216.789	1750
216.856	1669
216.923	2342
216.990	1562
217.057	1174
217.124	941
217.191	220
217.258	1782
217.324	1957
217.391	2440
217.458	876
217.525	1228
217.592	991
217.659	492
217.725	853
217.792	851
217.859	1525
217.926	326
217.993	-59
218.059	509
218.126	547
218.193	498
218.260	-116
218.327	-85
218.393	105
218.460	-142
218.527	160
218.594	1417
218.660	1143
218.727	916
218.794	441
218.860	606
218.927	397
218.994	305
219.061	-98
219.127	614
219.194	468
219.261	420
219.327	306
219.394	859
219.461	-517
219.527	322
219.594	212
219.661	421
219.727	-174
219.794	768
219.860	-40
219.927	544
219.994	896
220.060	2498
220.127	1118
220.193	880
220.260	363
220.326	1217
220.393	2596
220.460	3306
220.526	2479
220.593	751
220.659	2284
220.726	936
220.792	2477
220.859	2227
220.925	3298
220.992	6168
221.058	4616
221.125	3672
221.191	2667
221.258	390
221.324	872
221.391	406
221.457	-59
221.524	612
221.590	871
221.657	2966
221.723	1180
221.789	1863
221.856	1679
221.922	175
221.989	793
222.055	11
222.121	-199
222.188	2391
222.254	827
222.321	139
222.387	-665
222.453	1115
222.520	146
222.586	-58
222.652	1144
222.719	-60
222.785	255
222.851	749
222.918	388
222.984	658
223.050	-156
223.116	-435
223.183	947
223.249	-378
223.315	588
223.382	285
223.448	949
223.514	-288
223.580	255
223.647	238
223.713	-665
223.779	78
223.845	135
223.911	944
223.978	-778
224.044	347
224.110	-266
224.176	542
224.242	360
224.309	-887
224.375	-91
224.441	671
224.507	520
224.573	-471
224.639	1044
224.705	268
224.772	158
224.838	-32
224.904	-88
224.970	372
225.036	-175
225.102	-29
225.168	990
225.234	877
225.300	290
225.366	515
225.432	795
225.499	310
225.565	409
225.631	382
225.697	-32
225.763	949
225.829	660
225.895	759
225.961	1270
226.027	1530
226.093	498
226.159	1748
226.225	1186
226.291	4714
226.357	7307
226.423	4636
226.489	2434
226.554	651
226.620	1699
226.686	590
226.752	2288
226.818	4431
226.884	9685
226.950	8768
227.016	2873
227.082	2259
227.148	1065
227.214	1360
227.279	1619
227.345	1453
227.411	770
227.477	610
227.543	2910
227.609	1594
227.674	1269
227.740	170
227.806	976
227.872	680
227.938	385
228.003	1588
228.069	404
228.135	102
228.201	-116
228.267	236
228.332	872
228.398	772
228.464	993
228.530	-358
228.595	770
228.661	-437
228.727	1055
228.792	1432
228.858	207
228.924	-357
228.990	2326
229.055	172
229.121	790
229.187	208
229.252	369
229.318	623
229.384	658
229.449	154
229.515	-1029
229.581	-497
229.646	1337
229.712	-260
229.777	983
229.843	684
229.909	662
229.974	1158
230.040	1167
230.105	834
230.171	244
230.236	922
230.302	1377
230.368	762
230.433	-279
230.499	889
230.564	2126
230.630	-112
230.695	44
230.761	915
230.826	-1183
230.892	1895
230.957	-309
231.023	-451
231.088	806
231.154	529
231.219	549
231.284	281
231.350	1629
231.415	319
231.481	822
231.546	454
231.612	161
231.677	425
231.742	-1434
231.808	1604
231.873	250
231.939	-1624
232.004	1973
232.069	1001
232.135	526
232.200	191
232.265	670
232.331	75
232.396	-339
232.461	586
232.527	-498
232.592	-464
232.657	435
232.723	747
232.788	319
232.853	958
232.918	266
232.984	633
233.049	-193
233.114	349
233.179	1143
233.245	1359
233.310	2488
233.375	252
233.440	40
233.506	-223
233.571	61
233.636	1036
233.701	54
233.766	1365
233.832	1289
233.897	822
233.962	-200
234.027	1399
234.092	912
234.157	569
234.222	230
234.288	983
234.353	3030
234.418	3242
234.483	1996
234.548	1677
234.613	889
234.678	792
234.743	232
234.808	3897
234.873	1436
234.938	1617
235.004	500
235.069	784
235.134	744
235.199	-88
235.264	562
235.329	358
235.394	998
235.459	1124
235.524	-49
235.589	779
235.654	282
235.719	-483
235.784	332
235.849	702
235.913	1778
235.978	2655
236.043	2246
236.108	636
236.173	284
236.238	1236
236.303	127
236.368	159
236.433	1790
236.498	1952
236.563	2204
236.627	3428
236.692	12135
236.757	9152
236.822	3525
236.887	3072
236.952	2200
237.017	1085
237.081	2417
237.146	1566
237.211	5598
237.276	10862
237.341	17886
237.405	9083
237.470	4125
237.535	3274
237.600	1522
237.664	1656
237.729	-46
237.794	1139
237.859	4963
237.923	2147
237.988	1016
238.053	2822
238.118	1574
238.182	4114
238.247	4454
238.312	1323
238.376	1861
238.441	-190
238.506	1668
238.570	-666
238.635	1632
238.700	1363
238.764	159
238.829	1811
238.893	1642
238.958	2264
239.023	1682
239.087	515
239.152	793
239.216	-29
239.281	754
239.346	1029
239.410	244
239.475	473
239.539	5064
239.604	3222
239.668	1659
239.733	821
239.797	1690
239.862	3492
239.926	3172
239.991	2139
240.055	455
240.120	-91
240.184	720
240.249	-25
240.313	592
240.378	403
240.442	2392
240.507	4863
240.571	124
240.635	1823
240.700	2634
240.764	1488
240.829	922
240.893	-885
240.957	1280
241.022	2518
241.086	5089
241.151	1413
241.215	1
241.279	1401
241.344	1734
241.408	1839
241.472	486
241.537	1809
241.601	1130
241.665	-312
241.730	532
241.794	1639
241.858	672
241.922	337
241.987	1182
242.051	133
242.115	370
242.179	1130
242.244	224
242.308	1107
242.372	1153
242.436	-16
242.501	907
242.565	967
242.629	632
242.693	824
242.757	110
242.822	696
242.886	872
242.950	1227
243.014	454
243.078	778
243.142	482
243.206	-11
243.271	1313
243.335	397
243.399	1488
243.463	4371
243.527	13368
243.591	4340
243.655	1420
243.719	49
243.783	1784
243.847	2536
243.911	3215
243.975	3666
244.040	1529
244.104	1957
244.168	104
244.232	1150
244.296	2039
244.360	1745
244.424	757
244.488	954
244.552	384
244.615	-791
244.679	880
244.743	537
244.807	86
244.871	1284
244.935	1022
244.999	-518
245.063	1014
245.127	893
245.191	2071
245.255	1610
245.319	1827
245.383	120
245.446	1434
245.510	568
245.574	1187
245.638	1481
245.702	-159
245.766	3065
245.829	2826
245.893	427
245.957	520
246.021	2142
246.085	567
246.149	1033
246.212	4602
246.276	4978
246.340	2464
246.404	1598
246.467	2033
246.531	1767
246.595	2094
246.659	2772
246.722	139
246.786	2007
246.850	2427
246.913	2089
246.977	502
247.041	1353
247.104	1014
247.168	1818
247.232	4996
247.295	6974
247.359	4292
247.423	1294
247.486	3389
247.550	2593
247.614	2019
247.677	2935
247.741	2058
247.804	760
247.868	1924
247.932	2827
247.995	7741
248.059	2743
248.122	1325
248.186	2343
248.249	3624
248.313	11866
248.376	12084
248.440	7858
248.503	2422
248.567	3046
248.630	3154
248.694	5716
248.757	7307
248.821	11440
248.884	8176
248.948	7279
249.011	9638
249.075	14058
249.138	12060
249.202	5221
249.265	2478
249.328	4401
249.392	2264
249.455	2715
249.519	1195
249.582	3050
249.645	4220
249.709	3921
249.772	1662
249.835	2456
249.899	1449
249.962	1952
250.025	1381
250.089	4482
250.152	7316
250.215	4162
250.279	2027
250.342	2972
250.405	2583
250.468	690
250.532	2644
250.595	4163
250.658	11669
250.721	21515
250.785	7398
250.848	4701
250.911	1771
250.974	2534
251.038	2912
251.101	7346
251.164	3747
251.227	5066
251.290	3251
251.354	5196
251.417	18798
251.480	17189
251.543	10827
251.606	33489
251.669	23860
251.732	9344
251.795	9436
251.859	10235
251.922	20757
251.985	12026
252.048	4890
252.111	4647
252.174	3284
252.237	7420
252.300	14955
252.363	15190
252.426	29628
252.489	12183
252.552	6960
252.615	3434
252.678	4660
252.741	10127
252.804	12569
252.867	28570
252.930	17700
252.993	9643
253.056	6418
253.119	3655
253.182	3220
253.245	4793
253.308	3914
253.371	3990
253.434	3764
253.497	3880
253.559	7643
253.622	4456
253.685	7185
253.748	8078
253.811	3047
253.874	4596
253.937	2977
254.000	3398
254.062	4980
254.125	7753
254.188	8422
254.251	6488
254.314	2632
254.376	5376
254.439	6699
254.502	5839
254.565	5390
254.628	10053
254.690	5794
254.753	3050
254.816	2630
254.878	2828
254.941	4648
255.004	5650
255.067	2882
255.129	1865
255.192	942
255.255	705
255.317	2010
255.380	1253
255.443	349
255.505	1452
255.568	149
255.631	670
255.693	1852
255.756	42
255.819	1514
255.881	519
255.944	325
256.006	906
256.069	214
256.132	146
256.194	1746
256.257	3936
256.319	2597
256.382	2576
256.444	1939
256.507	1305
256.569	661
256.632	775
256.694	1170
256.757	7235
256.819	19155
256.882	7358
256.944	2987
257.007	3261
257.069	2733
257.132	2479
257.194	1823
257.257	341
257.319	396
257.381	660
257.444	4584
257.506	22755
257.569	25855
257.631	12756
257.693	5964
257.756	3024
257.818	2164
257.880	1650
257.943	1606
258.005	1400
258.067	1734
258.130	878
258.192	1605
258.254	4262
258.317	2183
258.379	952
258.441	3456
258.503	4482
258.566	4417
258.628	7668
258.690	1286
258.753	2171
258.815	4246
258.877	1477
258.939	1564
259.001	1332
259.064	1638
259.126	611
259.188	2053
259.250	1572
259.312	1845
259.375	4936
259.437	2593
259.499	616
259.561	286
259.623	964
259.685	894
259.747	1319
259.809	4229
259.872	9229
259.934	14032
259.996	14552
260.058	3535
260.120	792
260.182	1187
260.244	1053
260.306	350
260.368	2448
260.430	460
260.492	3599
260.554	6214
260.616	3066
260.678	7365
260.740	10113
260.802	1812
260.864	2311
260.926	235
260.988	1345
261.050	1245
261.112	4313
261.174	12438
261.236	8827
261.298	2324
261.359	4137
261.421	6519
261.483	1122
261.545	1810
261.607	134
261.669	1335
261.731	2519
261.793	7052
261.854	2327
261.916	2599
261.978	1592
262.040	2035
262.102	1145
262.164	1541
262.225	1976
262.287	1293
262.349	4301
262.411	3109
262.472	1424
262.534	1916
262.596	5520
262.658	2654
262.719	943
262.781	2061
262.843	4988
262.904	2384
262.966	2223
263.028	1608
263.090	9059
263.151	23789
263.213	9606
263.275	5235
263.336	1970
263.398	2283
263.459	966
263.521	580
263.583	4295
263.644	3429
263.706	706
263.767	-354
263.829	1115
263.891	538
263.952	187
264.014	-127
264.075	1875
264.137	5416
264.198	3118
264.260	-332
264.321	610
264.383	3135
264.444	8403
264.506	2495
264.567	1002
264.629	3123
264.690	6509
264.752	2326
264.813	1615
264.875	681
264.936	1290
264.998	-330
265.059	464
265.120	442
265.182	1854
265.243	11585
265.305	10925
265.366	1925
265.427	1775
265.489	864
265.550	81
265.611	776
265.673	300
265.734	-216
265.795	1433
265.857	-426
265.918	1081
265.979	2163
266.040	18074
266.102	13951
266.163	4026
266.224	3679
266.286	1310
266.347	508
266.408	641
266.469	977
266.530	432
266.592	-510
266.653	2197
266.714	4928
266.775	2186
266.836	216
266.898	396
266.959	1028
267.020	2050
267.081	2088
267.142	263
267.203	-143
267.264	-341
267.326	1675
267.387	488
267.448	-281
267.509	1313
267.570	608
267.631	325
267.692	-445
267.753	678
267.814	514
267.875	1642
267.936	4516
267.997	2556
268.058	1879
268.119	862
268.180	554
268.241	386
268.302	387
268.363	446
268.424	641
268.485	1329
268.546	74
268.607	473
268.668	7
268.729	-367
268.790	47
268.851	402
268.912	2769
268.972	4710
269.033	1481
269.094	-140
269.155	1270
269.216	187
269.277	261
269.338	522
269.398	80
269.459	680
269.520	1635
269.581	2785
269.642	3456
269.702	1536
269.763	520
269.824	776
269.885	845
269.945	2840
270.006	717
270.067	247
270.128	-129
270.188	147
270.249	73
270.310	69
270.370	602
270.431	313
270.492	-259
270.553	210
270.613	2440
270.674	6642
270.734	1744
270.795	1007
270.856	1492
270.916	1257
270.977	891
271.038	613
271.098	1236
271.159	2044
271.219	2658
271.280	712
271.340	536
271.401	680
271.462	2766
271.522	1498
271.583	979
271.643	1926
271.704	700
271.764	1208
271.825	3007
271.885	13410
271.946	15434
272.006	5367
272.066	6635
272.127	12119
272.187	4307
272.248	2543
272.308	1795
272.369	6991
272.429	3920
272.489	3835
272.550	3576
272.610	4332
272.671	3113
272.731	3046
272.791	4493
272.852	2886
272.912	2876
272.972	1142
273.033	855
273.093	2569
273.153	3052
273.214	1282
273.274	1387
273.334	6834
273.394	13100
273.455	6269
273.515	5311
273.575	11950
273.635	5007
273.696	7198
273.756	12252
273.816	5730
273.876	3276
273.936	5486
273.997	9565
274.057	2508
274.117	2000
274.177	3239
274.237	16119
274.297	13033
274.358	9012
274.418	9891
274.478	8177
274.538	2153
274.598	1629
274.658	7616
274.718	10771
274.778	4838
274.838	1066
274.898	3932
274.958	14357
275.018	13307
275.078	7095
275.138	3063
275.198	1211
275.258	1534
275.318	1518
275.378	3984
275.438	4893
275.498	2448
275.558	5464
275.618	13219
275.678	8680
275.738	6098
275.798	3829
275.858	2409
275.918	1021
275.978	1057
276.038	1755
276.098	711
276.157	3025
276.217	10455
276.277	4284
276.337	2893
276.397	938
276.457	2458
276.517	973
276.576	145
276.636	590
276.696	1699
276.756	6224
276.815	4040
276.875	1169
276.935	1790
276.995	1755
277.055	1152
277.114	741
277.174	1719
277.234	7634
277.293	3180
277.353	939
277.413	1846
277.472	1141
277.532	1238
277.592	540
277.651	8046
277.711	15768
277.771	3972
277.830	18417
277.890	14601
277.950	8667
278.009	27882
278.069	10090
278.128	11516
278.188	17023
278.248	6368
278.307	18252
278.367	10411
278.426	2472
278.486	1606
278.545	1037
278.605	801
278.664	629
278.724	876
278.783	5044
278.843	12993
278.902	3167
278.962	1861
279.021	1973
279.081	2908
279.140	3210
279.199	2619
279.259	2744
279.318	3055
279.378	3876
279.437	5573
279.496	21922
279.556	73862
279.615	58469
279.675	17360
279.734	8439
279.793	11274
279.853	15367
279.912	5607
279.971	3586
280.031	3015
280.090	6238
280.149	9974
280.208	8710
280.268	51613
280.327	51987
280.386	12141
280.445	8908
280.505	7472
280.564	3059
280.623	2253
280.682	3844
280.742	7317
280.801	2034
280.860	734
280.919	1417
280.978	648
281.037	902
281.097	521
281.156	2082
281.215	880
281.274	1301
281.333	7682
281.392	5454
281.451	1626
281.510	54
281.569	671
281.628	824
281.688	311
281.747	1650
281.806	1015
281.865	-243
281.924	217
281.983	989
282.042	132
282.101	-570
282.160	400
282.219	535
282.278	884
282.337	5299
282.396	3006
282.454	793
282.513	1256
282.572	8659
282.631	4218
282.690	1243
282.749	131
282.808	2063
282.867	1021
282.926	1603
282.985	579
283.043	240
283.102	907
283.161	81
283.220	3103
283.279	8837
283.338	2963
283.396	1604
283.455	1013
283.514	1770
283.573	3190
283.631	1330
283.690	2147
283.749	1058
283.808	3839
283.866	4322
283.925	1179
283.984	1832
284.043	2264
284.101	2508
284.160	1872
284.219	2631
284.277	2988
284.336	3050
284.395	12254
284.453	9471
284.512	4499
284.570	5621
284.629	5164
284.688	5412
284.746	5824
284.805	6948
284.863	9998
284.922	12848
284.981	14883
285.039	20459
285.098	33061
285.156	59312
285.215	57237
285.273	58882
285.332	61588
285.390	39868
285.449	25890
285.507	16788
285.566	12130
285.624	9927
285.683	7197
285.741	6022
285.799	4893
285.858	4176
285.916	3853
285.975	2804
286.033	2769
286.091	1485
286.150	1428
286.208	1189
286.267	1477
286.325	2408
286.383	3179
286.442	2832
286.500	842
286.558	1386
286.616	1736
286.675	2184
286.733	1246
286.791	1579
286.850	2036
286.908	2440
286.966	4813
287.024	1003
287.083	420
287.141	326
287.199	775
287.257	2280
287.315	1193
287.374	549
287.432	4884
287.490	2675
287.548	1356
287.606	729
287.664	618
287.723	1900
287.781	1786
287.839	632
287.897	878
287.955	1259
288.013	1552
288.071	4334
288.129	23902
288.187	77147
288.245	30328
288.303	8606
288.361	5042
288.419	2830
288.477	1688
288.535	1349
288.593	339
288.651	831
288.709	668
288.767	459
288.825	637
288.883	568
288.941	49
288.999	555
289.057	-197
289.115	-349
289.173	360
289.231	674
289.289	838
289.346	851
289.404	413
289.462	2762
289.520	2742
289.578	277
289.636	-315
289.694	73
289.751	250
289.809	156
289.867	663
289.925	608
289.983	869
290.040	-173
290.098	300
290.156	337
290.214	1258
290.271	-537
290.329	-195
290.387	-225
290.444	229
290.502	-1276
290.560	-657
290.617	-54
290.675	-373
290.733	-1015
290.790	415
290.848	829
290.906	461
290.963	156
291.021	169
291.078	22
291.136	-318
291.194	4131
291.251	9505
291.309	1449
291.366	1082
291.424	-707
291.481	797
291.539	-124
291.596	532
291.654	-120
291.711	30
291.769	572
291.826	2236
291.884	1252
291.941	-195
291.999	685
292.056	703
292.114	979
292.171	114
292.228	568
292.286	502
292.343	1978
292.401	3416
292.458	1195
292.515	1057
292.573	1008
292.630	541
292.687	753
292.745	-50
292.802	691
292.859	5225
292.917	9470
292.974	5908
293.031	1269
293.089	430
293.146	-201
293.203	227
293.260	-70
293.318	513
293.375	1703
293.432	215
293.489	1118
293.546	-143
293.604	-281
293.661	4726
293.718	14338
293.775	7495
293.832	3087
293.889	2762
293.947	1983
294.004	946
294.061	855
294.118	2938
294.175	9905
294.232	12757
294.289	4023
294.346	2160
294.403	1270
294.460	1524
294.517	359
294.574	-108
294.631	1123
294.688	589
294.745	3250
294.802	15876
294.859	18345
294.916	6082
294.973	2906
295.030	2922
295.087	1672
295.144	1012
295.201	415
295.258	221
295.315	684
295.372	4973
295.429	10850
295.486	4370
295.542	2112
295.599	7563
295.656	14090
295.713	8503
295.770	9864
295.827	2558
295.883	1860
295.940	1942
295.997	3375
296.054	2585
296.111	987
296.167	1160
296.224	-453
296.281	403
296.338	121
296.394	248
296.451	98
296.508	4961
296.564	8683
296.621	6282
296.678	12078
296.734	17298
296.791	5904
296.848	2873
296.904	3019
296.961	9661
297.018	12656
297.074	8960
297.131	3042
297.187	2574
297.244	2422
297.301	11283
297.357	19396
297.414	6515
297.470	2801
297.527	1354
297.583	982
297.640	1379
297.696	290
297.753	440
297.809	968
297.866	-128
297.922	46
297.979	-85
298.035	29
298.092	1551
298.148	7260
298.204	6973
298.261	2596
298.317	5439
298.374	15170
298.430	8086
298.486	3357
298.543	2433
298.599	1545
298.656	2043
298.712	4599
298.768	11570
298.824	6644
298.881	2248
298.937	1013
298.993	942
299.050	1802
299.106	1708
299.162	1249
299.218	1171
299.275	892
299.331	1519
299.387	2856
299.443	13330
299.500	13870
299.556	5463
299.612	1998
299.668	2668
299.724	3007
299.780	3001
299.837	1654
299.893	2022
299.949	12865
300.005	13927
300.061	12442
300.117	20547
300.173	8458
300.229	3810
300.285	5575
300.341	7329
300.397	3512
300.453	1345
300.510	1159
300.566	1054
300.622	1318
300.678	6604
300.734	14908
300.790	11461
300.845	12335
300.901	8556
300.957	14273
301.013	10161
301.069	3273
301.125	1457
301.181	2875
301.237	2561
301.293	441
301.349	1560
301.405	-84
301.461	378
301.516	1323
301.572	991
301.628	3929
301.684	3122
301.740	5213
301.796	7844
301.851	5508
301.907	10089
301.963	8697
302.019	13043
302.074	37108
302.130	35086
302.186	16083
302.242	7094
302.297	3886
302.353	3870
302.409	8529
302.464	7240
302.520	5539
302.576	14465
302.631	16440
302.687	9761
302.743	3670
302.798	1351
302.854	1690
302.910	1287
302.965	1895
303.021	5049
303.076	5381
303.132	7128
303.187	8186
303.243	3969
303.299	1602
303.354	939
303.410	543
303.465	630
303.521	593
303.576	975
303.632	1164
303.687	3222
303.743	11748
303.798	10964
303.853	4089
303.909	1482
303.964	1700
304.020	3555
304.075	5364
304.130	4921
304.186	10073
304.241	10735
304.297	8267
304.352	3463
304.358	3270
304.407	1707
304.449	2108
304.463	2245
304.518	1475
304.539	1525
304.573	1596
304.629	1262
304.630	1287
304.684	2546
304.720	7040
304.739	9272
304.794	13851
304.811	11938
304.850	7293
304.902	3114
304.905	2850
304.960	1580
304.992	1668
305.015	1748
305.071	2103
305.083	1975
305.126	1402
305.173	501
305.181	375
305.236	636
305.264	748
305.292	829
305.347	1495
305.354	1534
305.402	1878
305.445	2606
305.457	2791
305.512	2810
305.535	2962
305.567	3174
305.622	2711
305.626	2818
305.678	5659
305.716	12354
305.733	14669
305.788	15161
305.807	13111
305.843	9780
305.897	12734
305.898	12761
305.953	11537
305.988	8276
306.008	6565
306.063	3298
306.078	2827
306.118	1706
306.168	1213
306.173	1196
306.228	1427
306.259	1101
306.283	838
306.338	1088
306.349	1139
306.393	1324
306.440	1700
306.448	1765
306.503	1366
306.530	1625
306.558	2577
306.613	7165
306.620	7693
306.668	11356
306.711	14996
306.723	15162
306.778	11648
306.801	8910
306.833	5970
306.888	3199
306.892	3085
306.943	2673
306.982	2308
306.997	2109
307.052	1242
307.072	1372
307.107	1844
307.162	2692
307.163	2700
307.217	4013
307.253	4961
307.272	5114
307.327	5568
307.343	5080
307.381	4211
307.434	4048
307.436	4167
307.491	8262
307.524	12686
307.546	14212
307.600	14195
307.614	12888
307.655	7835
307.704	3606
307.710	3481
307.765	4536
307.795	5767
307.819	6839
307.874	10850
307.885	10684
307.929	8044
307.975	5879
307.984	6037
308.038	8279
308.065	10240
308.093	18418
308.148	41143
308.156	46240
308.202	72340
308.246	85789
308.257	82705
308.312	44891
308.336	31297
308.366	24588
308.421	16102
308.426	15311
308.475	9942
308.517	6877
308.530	6430
308.585	5306
308.607	5074
308.639	5080
308.694	5255
308.697	5323
308.748	9389
308.787	14052
308.803	14384
308.857	11093
308.877	9699
308.912	8729
308.967	8773
308.967	8765
309.021	14095
309.058	19110
309.076	23766
309.130	39286
309.148	45102
309.185	68944
309.238	110503
309.239	110961
309.293	123538
309.328	118542
309.348	103067
309.402	53316
309.418	40541
309.457	29862
309.508	19536
309.511	19498
309.566	21332
309.598	23735
309.620	31808
309.674	55182
309.688	61069
309.729	55026
309.778	40700
309.783	39456
309.837	24326
309.868	16448
309.892	17754
309.946	23551
309.959	25447
310.001	31987
310.049	37376
310.055	36064
310.109	21293
310.139	12927
310.163	10251
310.218	6438
310.229	5656
310.272	4649
310.319	4017
310.326	3849
310.381	2663
310.409	2183
310.435	2392
310.489	2606
310.499	2684
310.543	2772
310.589	2715
310.598	2764
310.652	3230
310.679	3332
310.706	2751
310.760	1601
310.769	1451
310.814	1908
310.859	2201
310.868	2240
310.923	2447
310.948	2509
310.977	2673
311.031	3250
311.038	3300
311.085	3158
311.128	2891
311.139	2832
311.193	2663
311.218	2506
311.247	2586
311.301	2768
311.308	2785
311.356	2637
311.398	2458
311.410	2359
311.464	1858
311.488	1669
311.518	2161
311.572	2936
311.578	3019
311.626	4160
311.668	5196
311.680	5077
311.734	4434
311.758	4107
311.788	3875
311.842	3427
311.847	3382
311.896	4506
311.937	5437
311.950	5324
312.004	4778
312.027	4519
312.058	4063
312.112	3266
312.117	3183
312.165	2812
312.207	2498
312.297	3370
312.386	3159
312.476	4113
312.566	8527
312.656	3766
312.745	1840
312.835	3009
312.925	3305
313.015	2154
313.104	3074
313.194	2805
313.284	3115
313.374	5005
313.463	3506
313.553	3007
313.643	1929
313.732	1406
313.822	1713
313.912	3107
314.001	2947
314.091	3643
314.180	3468
314.270	5674
314.360	4631
314.449	4842
314.539	2173
314.628	2232
314.718	2457
314.808	3471
314.897	2331
314.987	2885
315.076	3673
315.166	5339
315.255	3637
315.345	5104
315.434	3923
315.524	4789
315.613	4460
315.703	7067
315.792	7116
315.881	14773
315.971	6285
316.060	8987
316.150	9587
316.239	8662
316.328	3672
316.418	3613
316.507	3165
316.597	4396
316.686	3851
316.775	4975
316.865	8629
316.954	3147
317.043	2164
317.133	3293
317.222	1794
317.311	2760
317.400	1856
317.490	4981
317.579	5582
317.668	2445
317.757	4957
317.847	10804
317.936	26418
318.025	16412
318.114	7550
318.203	5190
318.293	8031
318.382	14537
318.471	11631
318.560	14895
318.649	22942
318.738	4571
318.828	4855
318.917	5065
319.006	4893
319.095	13061
319.184	33573
319.273	20819
319.362	12715
319.451	3324
319.540	3414
319.629	11582
319.718	18990
319.807	5317
319.896	13395
319.985	41074
320.074	15862
320.163	2809
320.252	6239
320.341	5096
320.430	5127
320.519	9445
320.608	4609
320.697	3891
320.786	2772
320.875	5912
320.964	7466
321.053	13439
321.142	19118
321.230	18399
321.319	12532
321.408	32944
321.497	11305
321.586	13248
321.675	10386
321.764	10928
321.852	6841
321.941	18105
322.030	10071
322.119	11851
322.207	32897
322.296	15165
322.385	7014
322.474	11959
322.562	42049
322.651	16941
322.740	14159
322.829	18354
322.917	13417
323.006	10476
323.095	9944
323.183	5348
323.272	8977
323.361	15887
323.449	36752
323.538	12531
323.626	27424
323.715	14732
323.804	6193
323.892	23558
323.981	14853
324.069	4605
324.158	11856
324.246	10777
324.335	6483
324.424	12439
324.512	4210
324.601	5912
324.689	7640
324.778	12426
324.866	10108
324.954	3344
325.043	3448
325.131	6722
325.220	9275
325.308	11536
325.397	8216
325.485	6421
325.574	1557
325.662	2541
325.750	2258
325.839	3395
325.927	1899
326.015	4201
326.104	4166
326.192	5207
326.280	2000
326.369	2142
326.457	5017
326.545	10766
326.634	3653
326.722	2341
326.810	2416
326.898	2435
326.987	2708
327.075	9393
327.163	7067
327.251	3687
327.340	4638
327.428	5645
327.516	1515
327.604	2674
327.692	2213
327.781	2485
327.869	3728
327.957	3374
328.045	4371
328.133	1953
328.221	2317
328.309	2643
328.397	1986
328.485	4035
328.574	5469
328.662	21419
328.750	7768
328.838	2723
328.926	2325
329.014	1740
329.102	3182
329.190	9932
329.278	6581
329.366	1987
329.454	1652
329.542	2149
329.630	924
329.718	1849
329.806	3204
329.893	2610
329.981	1384
330.069	2570
330.157	7103
330.245	21465
330.333	11091
330.421	2409
330.509	5430
330.597	26376
330.684	15461
330.772	5059
330.860	3780
330.948	6607
331.036	3553
331.123	1488
331.211	1873
331.299	2004
331.387	5838
331.475	11251
331.562	3261
331.650	2104
331.738	2637
331.825	3195
331.913	1603
332.001	1903
332.089	2239
332.176	5248
332.264	11805
332.352	8537
332.439	2981
332.527	2762
332.614	2166
332.702	2952
332.790	2694
332.877	6717
332.965	14114
333.052	5539
333.140	6988
333.228	21740
333.315	4094
333.403	2519
333.490	7641
333.578	9509
333.665	30362
333.753	10779
333.840	2267
333.928	2721
334.015	7076
334.103	11236
334.190	36432
334.278	9801
334.365	4093
334.452	4276
334.540	2331
334.627	2872
334.715	3564
334.802	6868
334.889	38754
334.977	40832
335.064	7099
335.151	2825
335.239	3401
335.326	3458
335.413	18895
335.501	25780
335.588	4289
335.675	2551
335.762	3054
335.850	5880
335.937	4075
336.024	10804
336.111	45681
336.199	22652
336.286	4757
336.373	3199
336.460	1884
336.547	2618
336.635	3318
336.722	3284
336.809	1574
336.896	4983
336.983	12633
337.070	28404
337.157	38559
337.245	26256
337.332	18114
337.419	2752
337.506	1777
337.593	2629
337.680	7568
337.767	27616
337.854	8694
337.941	9287
338.028	11401
338.115	4642
338.202	4253
338.289	8103
338.376	28434
338.463	8984
338.550	14679
338.637	16709
338.724	5790
338.811	9068
338.898	2223
338.984	1443
339.071	2606
339.158	3674
339.245	12936
339.332	7756
339.419	6203
339.506	5986
339.593	1292
339.679	3210
339.766	2065
339.853	3860
339.940	9763
340.027	2557
340.113	2720
340.200	5371
340.287	2532
340.374	4624
340.460	9184
340.547	3620
340.634	5302
340.720	24492
340.807	13704
340.894	2310
340.980	2350
341.067	2030
341.154	3709
341.240	5613
341.327	14109
341.414	5465
341.500	5960
341.587	3656
341.674	3005
341.760	9725
341.847	11179
341.933	3117
342.020	1016
342.106	1771
342.193	2751
342.279	6875
342.366	5053
342.452	8731
342.539	3344
342.625	11201
342.712	26370
342.798	12001
342.885	3984
342.971	1237
343.058	1667
343.144	2166
343.230	2603
343.317	2879
343.403	2119
343.490	2050
343.576	1696
343.662	1766
343.749	2107
343.835	3049
343.921	4961
344.008	29811
344.094	64448
344.180	15138
344.267	6094
344.353	18787
344.439	19853
344.525	12549
344.612	5955
344.698	4036
344.784	2481
344.870	2714
344.957	2634
345.043	6477
345.129	3026
345.215	9365
345.301	5663
345.387	4124
345.474	1063
345.560	1766
345.646	1513
345.732	2376
345.818	3783
345.904	3863
345.990	3547
346.076	3082
346.162	5207
346.249	3526
346.335	1873
346.421	1848
346.507	7166
346.593	25976
346.679	6374
346.765	2768
346.851	2748
346.937	1871
347.023	2672
347.108	4288
347.194	2538
347.280	2841
347.366	2654
347.452	9084
347.538	30377
347.624	25040
347.710	20273
347.796	4237
347.882	1969
347.967	1644
348.053	2680
348.139	2076
348.225	1739
348.311	2926
348.397	1180
348.482	3782
348.568	4296
348.654	1955
348.740	2540
348.825	2132
348.911	5386
348.997	15221
349.083	28149
349.168	5256
349.254	3558
349.340	3963
349.425	2070
349.511	4029
349.597	3871
349.682	7483
349.768	22015
349.854	10034
349.939	2349
350.025	1758
350.110	1781
350.196	2727
350.282	1584
350.367	1858
350.453	3260
350.538	3316
350.624	3476
350.709	4131
350.795	1559
350.880	2816
350.966	3793
351.051	5091
351.137	2251
351.222	3325
351.308	8920
351.393	22992
351.479	7226
351.564	3890
351.649	2342
351.735	2172
351.820	1926
351.906	2690
351.991	2249
352.076	13883
352.162	22516
352.247	5144
352.332	3859
352.418	9259
352.503	9468
352.588	35086
352.673	30957
352.759	7391
352.844	3490
352.929	4825
353.014	5607
353.100	4067
353.185	6765
353.270	10974
353.355	11031
353.441	3049
353.526	2640
353.611	8793
353.696	11374
353.781	7365
353.866	2477
353.952	3598
354.037	8468
354.122	22004
354.207	19534
354.292	7048
354.377	2366
354.462	2812
354.547	4292
354.632	4132
354.717	4936
354.802	6533
354.887	3214
354.972	2484
355.057	2284
355.142	2192
355.227	3124
355.312	4673
355.397	13042
355.482	33321
355.567	15755
355.652	10384
355.737	11350
355.822	25233
355.907	21207
355.991	5030
356.076	2654
356.161	3129
356.246	2046
356.331	3501
356.416	5226
356.501	36097
356.585	39862
356.670	8044
356.755	5536
356.840	6233
356.924	29023
357.009	97391
357.094	42152
357.179	11258
357.263	7556
357.348	7252
357.433	7976
357.517	6907
357.602	4539
357.687	3933
357.771	7909
357.856	23467
357.941	13863
358.025	21215
358.110	84676
358.195	45562
358.279	7813
358.364	5846
358.448	20887
358.533	55875
358.617	42741
358.702	39086
358.787	15485
358.871	10284
358.956	8855
359.040	3758
359.125	2947
359.209	2581
359.294	10998
359.378	20820
359.462	9095
359.547	4804
359.631	3000
359.716	2587
359.800	2668
359.885	4779
359.969	3869
360.053	3602
360.138	2382
360.222	5231
360.306	9699
360.391	8601
360.475	13285
360.559	33788
360.644	24198
360.728	16508
360.812	21041
360.896	55146
360.981	28753
361.065	17211
361.149	5328
361.233	5302
361.318	3578
361.402	4877
361.486	5114
361.570	2313
361.654	4438
361.739	10436
361.823	37710
361.907	58579
361.991	13213
362.075	7827
362.159	19179
362.243	13952
362.327	10726
362.411	15756
362.495	7049
362.580	3766
362.664	2905
362.748	2327
362.832	3005
362.916	3709
363.000	18822
363.084	55054
363.168	68417
363.252	18786
363.336	6960
363.420	10664
363.503	26739
363.587	32923
363.671	7557
363.755	5470
363.839	9745
363.923	4352
364.007	9432
364.091	10772
364.175	8723
364.258	42004
364.342	32307
364.426	44283
364.510	24637
364.594	10757
364.677	11797
364.761	45887
364.845	35475
364.929	16602
365.013	14942
365.096	11609
365.180	13206
365.264	11234
365.347	41715
365.431	19450
365.515	5305
365.598	3892
365.682	3736
365.766	4266
365.849	6664
365.933	4036
366.017	5621
366.100	3065
366.184	2001
366.267	3289
366.351	2287
366.435	2747
366.518	1968
366.602	1623
366.685	3372
366.769	3420
366.852	5295
366.936	9999
367.019	7006
367.103	3479
367.186	7376
367.270	2799
367.353	1943
367.436	3588
367.520	2302
367.603	3886
367.687	5120
367.770	11689
367.853	6063
367.937	14646
368.020	23349
368.104	7167
368.187	8674
368.270	13173
368.353	11195
368.437	11419
368.520	17329
368.603	15167
368.687	18526
368.770	36814
368.853	10010
368.936	10259
369.020	10147
369.103	4308
369.186	2322
369.269	3031
369.352	7985
369.436	11686
369.519	6494
369.602	3054
369.685	4279
369.768	4545
369.851	3956
369.934	2729
370.018	2994
370.101	9793
370.184	9016
370.267	4974
370.350	8676
370.433	12233
370.516	23667
370.599	29398
370.682	10971
370.765	26452
370.848	27963
370.931	40679
371.014	18331
371.097	4723
371.180	4745
371.263	3803
371.346	2401
371.429	3600
371.511	2557
371.594	6522
371.677	10158
371.760	10407
371.843	9517
371.926	32850
372.009	69111
372.091	31565
372.174	19147
372.257	34534
372.340	17059
372.423	14373
372.505	15574
372.588	8224
372.671	15655
372.754	41453
372.836	25535
372.919	14141
373.002	27586
373.085	11793
373.167	9870
373.250	22826
373.332	35424
373.415	48370
373.498	95540
373.580	43819
373.663	42675
373.746	59987
373.828	17220
373.911	9563
373.993	7555
374.076	23842
374.159	23826
374.241	12997
374.324	37382
374.406	28396
374.489	26624
374.571	70980
374.654	34293
374.736	16687
374.819	42875
374.901	67011
374.983	70827
375.066	15693
375.148	5705
375.231	18999
375.313	39656
375.395	16680
375.478	4385
375.560	3652
375.643	5419
375.725	15337
375.807	54958
375.890	47575
375.972	18669
376.054	13159
376.136	14570
376.219	8327
376.301	16507
376.383	49251
376.465	23073
376.548	15782
376.630	17061
376.712	42733
376.794	22966
376.877	4233
376.959	2276
377.041	3893
377.123	5135
377.205	6614
377.287	2040
377.369	2531
377.452	2367
377.534	2845
377.616	3078
377.698	3037
377.780	1382
377.862	3544
377.944	3019
378.026	1267
378.108	2618
378.190	2574
378.272	1966
378.354	2358
378.436	1476
378.518	4297
378.600	12780
378.682	14347
378.764	26083
378.846	23540
378.928	7042
379.010	11139
379.091	7069
379.173	3035
379.255	1701
379.337	4124
379.419	12659
379.501	36923
379.583	16519
379.664	4705
379.746	11416
379.828	29472
379.910	36720
379.991	33126
380.073	6119
380.155	4211
380.237	3400
380.318	2890
380.400	2770
380.482	7468
380.564	12016
380.645	11849
380.727	11565
380.809	7517
380.890	4591
380.972	3532
381.053	3514
381.135	4992
381.217	10134
381.298	31509
381.380	16799
381.461	11887
381.543	42589
381.624	59934
381.706	13461
381.787	7479
381.869	8659
381.951	20436
382.032	68778
382.113	54166
382.195	13877
382.276	10661
382.358	17424
382.439	39718
382.521	45467
382.602	71078
382.684	38668
382.765	66672
382.846	99853
382.928	184452
383.009	111798
383.090	64564
383.172	197557
383.253	302340
383.334	113924
383.416	73772
383.497	44602
383.578	27891
383.659	53569
383.741	164102
383.822	366437
383.903	223520
383.984	74101
384.066	90440
384.147	60400
384.228	16430
384.309	12480
384.390	10481
384.471	7412
384.553	8672
384.634	10539
384.715	11195
384.796	6234
384.877	8180
384.958	25229
385.039	34449
385.120	14738
385.201	7296
385.282	7228
385.363	7714
385.444	6731
385.525	11639
385.606	28408
385.687	27062
385.768	7191
385.849	10058
385.930	34282
386.011	57366
386.092	17860
386.173	5538
386.254	3934
386.335	4587
386.416	4714
386.496	16926
386.577	29036
386.658	10592
386.739	6536
386.820	5208
386.901	3902
386.981	5464
387.062	2423
387.143	7119
387.224	25383
387.304	27794
387.385	10362
387.466	5296
387.547	6200
387.627	4411
387.708	9336
387.789	40796
387.869	49224
387.950	15023
388.031	2646
388.111	312
388.192	6216
388.273	10285
388.353	6337
388.434	4483
388.514	8702
388.595	33605
388.676	49442
388.756	30411
388.837	28319
388.917	19542
388.998	3239
389.078	3742
389.159	3185
389.239	1604
389.320	6560
389.400	4134
389.480	8764
389.561	22669
389.641	13513
389.722	5536
389.802	8780
389.883	11567
389.963	25957
390.043	18172
390.124	5229
390.204	10186
390.284	32985
390.365	22861
390.445	16961
390.525	38790
390.605	39402
390.686	17437
390.766	6776
390.846	3912
390.927	2203
391.007	2588
391.087	3260
391.167	3276
391.247	1576
391.328	5224
391.408	6405
391.488	5435
391.568	689
391.648	3947
391.728	7337
391.808	6799
391.888	7020
391.969	12976
392.049	21561
392.129	10683
392.209	9681
392.289	25206
392.369	15159
392.449	10645
392.529	7754
392.609	8089
392.689	7860
392.769	22907
392.849	23478
392.929	15330
393.009	32080
393.089	28147
393.169	22255
393.248	69532
393.328	248705
393.408	288697
393.488	86112
393.568	22759
393.648	11115
393.728	7214
393.807	5070
393.887	6496
393.967	4637
394.047	5826
394.127	7710
394.206	12587
394.286	39272
394.366	157379
394.446	181463
394.525	48824
394.605	11113
394.685	8827
394.764	16177
394.844	26758
394.924	21313
395.003	8193
395.083	6034
395.163	4387
395.242	4500
395.322	5345
395.402	1808
395.481	4921
395.561	10889
395.640	33074
395.720	29493
395.799	32003
395.879	27504
395.958	19113
396.038	57940
396.117	204122
396.197	240756
396.276	80655
396.356	24248
396.435	16051
396.515	11737
396.594	13812
396.673	23642
396.753	75907
396.832	233248
396.912	201047
396.991	53007
397.070	13952
397.150	7231
397.229	5194
397.308	7038
397.388	12757
397.467	7028
397.546	3665
397.625	612
397.705	5391
397.784	5359
397.863	2427
397.942	1873
398.022	1940
398.101	6994
398.180	26512
398.259	14212
398.338	5067
398.417	3083
398.497	2393
398.576	2598
398.655	1248
398.734	1490
398.813	1543
398.892	7612
398.971	27782
399.050	14462
399.129	1951
399.208	656
399.287	2042
399.366	361
399.445	1386
399.524	1542
399.603	738
399.682	4540
399.761	11052
399.840	29427
399.919	25302
399.998	2676
400.077	930
400.156	37
400.235	4062
400.313	459
400.392	2084
400.471	14631
400.550	27474
400.629	7246
400.708	2631
400.786	1441
400.865	5084
400.944	7256
401.023	5667
401.102	310
401.180	531
401.259	506
401.338	1338
401.416	2962
401.495	2589
401.574	2331
401.652	1547
401.731	3506
401.810	1516
401.888	1647
401.967	-151
402.046	875
402.124	3178
402.203	2057
402.281	2384
402.360	1614
402.438	8295
402.517	4455
402.596	2075
402.674	1549
402.753	1423
402.831	904
402.910	2596
402.988	7393
403.066	27265
403.145	18941
403.223	11030
403.302	23851
403.380	20892
403.459	19069
403.537	8398
403.615	2666
403.694	222
403.772	1099
403.850	752
403.929	4
404.007	1182
404.085	3662
404.164	3773
404.242	877
404.320	1916
404.398	2936
404.477	12001
404.555	53197
404.633	51468
404.711	7642
404.789	2754
404.868	2049
404.946	1278
405.024	712
405.102	452
405.180	625
405.258	112
405.336	1650
405.415	550
405.493	3373
405.571	4211
405.649	1100
405.727	108
405.805	1900
405.883	2588
405.961	1703
406.039	1639
406.117	477
406.195	3575
406.273	11945
406.351	48433
406.429	33343
406.507	4846
406.585	1181
406.663	3129
406.740	3226
406.818	2676
406.896	913
406.974	2485
407.052	3324
407.130	29272
407.208	44655
407.285	9554
407.363	780
407.441	1278
407.519	591
407.596	1915
407.674	3153
407.752	7728
407.830	9869
407.907	5751
407.985	1124
408.063	1161
408.141	-38
408.218	1928
408.296	936
408.373	2591
408.451	2712
408.529	2886
408.606	442
408.684	672
408.762	558
408.839	-688
408.917	150
408.994	651
409.072	88
409.149	406
409.227	1981
409.304	2588
409.382	1553
409.459	1752
409.537	3772
409.614	2439
409.692	774
409.769	1523
409.846	3461
409.924	5311
410.001	1639
410.079	914
410.156	1432
410.233	1003
410.311	-27
410.388	935
410.465	1200
410.543	941
410.620	578
410.697	1302
410.775	1830
410.852	-583
410.929	1872
411.006	3233
411.083	727
411.161	3214
411.238	3578
411.315	2147
411.392	886
411.469	2470
411.547	1960
411.624	-204
411.701	66
411.778	1912
411.855	4987
411.932	2729
412.009	589
412.086	1370
412.163	1119
412.240	221
412.317	1455
412.394	881
412.471	161
412.548	158
412.625	562
412.702	1132
412.779	3296
412.856	1875
412.933	-657
413.010	537
413.087	1460
413.164	14021
413.241	23919
413.318	5809
413.395	2300
413.471	4757
413.548	2047
413.625	1616
413.702	689
413.779	1168
413.855	344
413.932	-499
414.009	-1697
414.086	-115
414.162	456
414.239	2198
414.316	12535
414.393	33804
414.469	13232
414.546	886
414.623	-623
414.699	1418
414.776	793
414.853	745
414.929	12
415.006	732
415.082	629
415.159	943
415.236	466
415.312	853
415.389	3326
415.465	4810
415.542	2258
415.618	687
415.695	2551
415.771	1594
415.848	999
415.924	1066
416.000	-532
416.077	331
416.153	-1540
416.230	-988
416.306	-459
416.383	-863
416.459	-1
416.535	-189
416.612	-258
416.688	214
416.764	-386
416.841	-72
416.917	38
416.993	913
417.069	661
417.146	1571
417.222	3689
417.298	1272
417.374	487
417.451	1325
417.527	1098
417.603	2686
417.679	1188
417.755	1191
417.831	-1242
417.908	-207
417.984	-478
418.060	-188
418.136	3113
418.212	5761
418.288	781
418.364	914
418.440	267
418.516	2059
418.592	2736
418.668	7248
418.744	11425
418.820	8530
418.896	1254
418.972	-250
419.048	-24
419.124	5277
419.200	2680
419.276	364
419.352	-817
419.428	478
419.504	366
419.579	1828
419.655	151
419.731	1289
419.807	6718
419.883	12828
419.959	8533
420.034	2024
420.110	3276
420.186	19321
420.262	18120
420.337	2562
420.413	1164
420.489	637
420.565	702
420.640	368
420.716	1020
420.792	-946
420.867	1128
420.943	353
421.019	2912
421.094	2605
421.170	-328
421.245	-158
421.321	483
421.397	116
421.472	2048
421.548	4112
421.623	3936
421.699	1989
421.774	2194
421.850	1549
421.925	3810
422.001	4015
422.076	1997
422.152	2522
422.227	5652
422.302	6357
422.378	8589
422.453	16467
422.529	39980
422.604	110584
422.679	176614
422.755	133638
422.830	51797
422.905	19787
422.981	9328
423.056	6415
423.131	5454
423.207	2832
423.282	2806
423.357	7632
423.432	4956
423.508	4618
423.583	10599
423.658	9184
423.733	1482
423.808	2135
423.883	2601
423.959	2165
424.034	711
424.109	1558
424.184	-367
424.259	176
424.334	17
424.409	-207
424.484	69
424.559	1098
424.634	-18
424.709	1917
424.784	2077
424.859	1257
424.934	1985
425.009	15319
425.084	26020
425.159	10025
425.234	533
425.309	-89
425.384	4974
425.459	11251
425.534	3395
425.609	-144
425.683	-36
425.758	-14
425.833	582
425.908	1844
425.983	7735
426.058	27379
426.132	12249
426.207	1306
426.282	1673
426.357	1323
426.431	-159
426.506	320
426.581	394
426.655	803
426.730	157
426.805	97
426.879	604
426.954	634
427.029	3229
427.103	20029
427.178	46502
427.253	22933
427.327	2505
427.402	2576
427.476	9360
427.551	5939
427.625	-79
427.700	490
427.774	-227
427.849	992
427.923	-496
427.998	-213
428.072	247
428.147	3038
428.221	13795
428.296	38711
428.370	21773
428.444	2232
428.519	1809
428.593	4560
428.667	3530
428.742	5620
428.816	5166
428.890	21915
428.965	42716
429.039	15605
429.113	6385
429.188	2217
429.262	-69
429.336	3125
429.410	12332
429.485	7698
429.559	3544
429.633	2899
429.707	1019
429.781	3047
429.855	25116
429.930	45449
430.004	20663
430.078	24666
430.152	24562
430.226	42924
430.300	49768
430.374	7026
430.448	1586
430.522	7186
430.596	22322
430.670	17770
430.744	40770
430.818	66710
430.892	15160
430.966	1333
431.040	411
431.114	-726
431.188	-1017
431.262	-472
431.336	-1037
431.410	2682
431.484	7585
431.557	7399
431.631	-380
431.705	525
431.779	5229
431.853	30978
431.927	24480
432.000	2467
432.074	-200
432.148	-123
432.222	-828
432.295	-403
432.369	-348
432.443	937
432.516	15280
432.590	42892
432.664	18135
432.737	1621
432.811	-1194
432.885	-1316
432.958	-477
433.032	-776
433.106	-1357
433.179	-373
433.253	-1102
433.326	-655
433.400	-1504
433.473	-453
433.547	-1137
433.620	-609
433.694	1524
433.767	2310
433.841	-1295
433.914	226
433.988	-801
434.061	-272
434.134	-1641
434.208	-283
434.281	-1132
434.355	-1030
434.428	-384
434.501	-448
434.575	-1312
434.648	-603
434.721	-811
434.795	-1383
434.868	-1026
434.941	-1209
435.014	-1071
435.088	-876
435.161	580
435.234	3126
435.307	3299
435.381	864
435.454	-90
435.527	747
435.600	629
435.673	244
435.746	-317
435.819	-191
435.892	-1106
435.966	-116
436.039	-1305
436.112	-133
436.185	-1030
436.258	-1358
436.331	-2201
436.404	-922
436.477	-1369
436.550	-1127
436.623	-632
436.696	-1059
436.769	-963
436.842	-502
436.915	3
436.987	733
437.060	-590
437.133	-469
437.206	-1269
437.279	9
437.352	-1720
437.425	-679
437.498	230
437.570	2258
437.643	3588
437.716	182
437.789	-686
437.861	1000
437.934	4494
438.007	2193
438.080	-693
438.152	-23
438.225	1474
438.298	20127
438.370	59374
438.443	27615
438.516	5122
438.588	481
438.661	-726
438.734	-767
438.806	-438
438.879	338
438.951	261
439.024	2507
439.096	399
439.169	-825
439.241	-983
439.314	-379
439.386	-314
439.459	1381
439.531	1836
439.604	540
439.676	-715
439.749	-1520
439.821	-1061
439.893	-677
439.966	-1109
440.038	-452
440.110	395
440.183	-138
440.255	-1233
440.327	914
440.400	7965
440.472	38991
440.544	28590
440.617	2790
440.689	1573
440.761	2453
440.833	4092
440.905	3053
440.978	-953
441.050	-817
441.122	-413
441.194	-613
441.266	-1236
441.338	-281
441.411	1167
441.483	14657
441.555	24893
441.627	3990
441.699	460
441.771	386
441.843	-571
441.915	-390
441.987	-859
442.059	-543
442.131	-292
442.203	224
442.275	928
442.347	1646
442.419	2052
442.491	13855
442.563	40172
442.635	18492
442.706	8204
442.778	7865
442.850	637
442.922	-431
442.994	-88
443.066	1256
443.137	144
443.209	228
443.281	617
443.353	3590
443.425	17227
443.496	68879
443.568	73245
443.640	26585
443.711	3244
443.783	796
443.855	-513
443.926	-311
443.998	-588
444.070	694
444.141	60
444.213	1597
444.285	2971
444.356	1642
444.428	-23
444.499	-36
444.571	-1265
444.642	210
444.714	-593
444.785	2523
444.857	1327
444.928	3837
445.000	2039
445.071	3007
445.143	3087
445.214	1201
445.285	2595
445.357	12092
445.428	42218
445.500	107298
445.571	70494
445.642	37078
445.714	12005
445.785	8558
445.856	2415
445.928	3321
445.999	1718
446.070	1792
446.141	2369
446.213	2758
446.284	-413
446.355	-93
446.426	-67
446.497	-327
446.569	360
446.640	2383
446.711	2756
446.782	281
446.853	-228
446.924	202
446.995	-119
447.066	-116
447.138	1322
447.209	-7
447.280	-585
447.351	-239
447.422	-959
447.493	-305
447.564	518
447.635	1788
447.706	172
447.777	-171
447.847	-777
447.918	-953
447.989	-475
448.060	701
448.131	2395
448.202	2835
448.273	2969
448.344	1058
448.414	-743
448.485	385
448.556	-936
448.627	-715
448.698	-600
448.768	-467
448.839	-793
448.910	114
448.981	812
449.051	191
449.122	-965
449.193	-610
449.263	-829
449.334	-466
449.405	47
449.475	3638
449.546	2074
449.616	811
449.687	1084
449.758	167
449.828	-980
449.899	-180
449.969	-1250
450.040	113
450.110	-98
450.181	67
450.251	-1527
450.322	-248
450.392	-750
450.463	-235
450.533	-281
450.604	-545
450.674	-1105
450.744	-139
450.815	-874
450.885	-132
450.955	-807
451.026	-576
451.096	-958
451.166	37
451.237	686
451.307	5002
451.377	1507
451.447	-129
451.518	-975
451.588	-886
451.658	-644
451.728	552
451.799	4620
451.869	7083
451.939	601
452.009	-479
452.079	-1237
452.149	-530
452.219	96
452.289	5469
452.360	4021
452.430	618
452.500	-8
452.570	799
452.640	776
452.710	5775
452.780	9154
452.850	7963
452.920	7452
452.990	2038
453.060	249
453.129	1676
453.199	1233
453.269	6330
453.339	16670
453.409	27062
453.479	23717
453.549	37008
453.619	38698
453.688	15062
453.758	1401
453.828	-53
453.898	133
453.968	-271
454.037	61
454.087	159
454.107	195
454.168	-462
454.177	-571
454.247	-182
454.249	-182
454.316	-486
454.330	-388
454.386	-97
454.411	838
454.456	2321
454.492	3675
454.525	4883
454.574	2275
454.595	1138
454.655	-448
454.665	-718
454.734	222
454.736	265
454.804	1116
454.817	1966
454.873	5167
454.898	5821
454.943	6990
454.979	4035
455.013	1385
455.060	878
455.082	694
455.141	519
455.152	442
455.221	4207
455.222	4271
455.291	7034
455.303	6361
455.360	3342
455.384	3397
455.430	3264
455.465	3152
455.499	3069
455.546	4418
455.569	4876
455.627	3604
455.638	3436
455.707	142
455.708	149
455.777	-573
455.789	-538
455.846	-297
455.869	-171
455.916	55
455.950	108
455.985	99
456.031	-5
456.054	-69
456.112	-363
456.124	-412
456.193	-4
456.193	-14
456.262	-488
456.274	-286
456.332	677
456.355	791
456.401	966
456.436	593
456.470	180
456.516	-128
456.540	-230
456.597	-290
456.609	-363
456.678	-673
456.678	-682
456.747	343
456.759	210
456.817	-672
456.840	-751
456.886	-660
456.920	-523
456.955	-570
457.001	-88
457.024	235
457.082	551
457.093	561
457.162	1205
457.163	1213
457.232	777
457.243	764
457.301	460
457.324	57
457.370	-444
457.405	121
457.439	551
457.485	44
457.508	-57
457.566	551
457.577	646
457.646	1198
457.647	1214
457.715	2351
457.727	2481
457.784	3397
457.808	4487
457.853	5515
457.889	6544
457.922	7121
457.969	5111
457.991	5052
458.050	5876
458.060	5991
458.129	10323
458.130	10451
458.198	10545
458.211	9139
458.267	4475
458.292	2831
458.336	1438
458.372	2143
458.405	3451
458.453	4546
458.474	5356
458.533	10582
458.543	10884
458.611	17162
458.614	17178
458.680	11298
458.694	8754
458.749	2951
458.775	2180
458.818	1231
458.855	982
458.887	689
458.936	621
458.955	716
459.016	625
459.024	598
459.093	654
459.097	670
459.162	1036
459.177	1270
459.230	1999
459.257	2016
459.299	1746
459.338	1848
459.368	2097
459.418	1994
459.437	1832
459.499	1789
459.505	1763
459.574	797
459.579	776
459.643	1132
459.659	1124
459.711	952
459.740	1198
459.780	1361
459.820	1024
459.849	1028
459.900	1509
459.917	1664
459.981	1886
459.986	1824
460.054	1261
460.061	1225
460.123	2079
460.141	2250
460.191	2784
460.222	3436
460.260	3580
460.302	4066
460.328	4156
460.382	2815
460.397	2692
460.462	2576
460.465	2595
460.534	3146
460.543	3261
460.602	6336
460.623	7663
460.671	11791
460.703	15558
460.739	13368
460.783	9817
460.808	8880
460.864	2677
460.876	2144
460.944	1317
460.945	1296
461.013	1364
461.024	1237
461.081	1522
461.104	2140
461.150	1987
461.184	1164
461.218	1329
461.264	1789
461.286	1605
461.345	1105
461.355	1138
461.423	1821
461.425	1822
461.491	1324
461.505	1394
461.559	3515
461.585	4125
461.628	5325
461.665	7223
461.696	7654
461.745	9066
461.764	8482
461.825	3776
461.832	3650
461.901	2094
461.905	2101
461.969	1443
461.985	1235
462.037	2137
462.065	2579
462.105	2318
462.145	2290
462.173	3079
462.225	4291
462.241	4428
462.305	5753
462.310	5637
462.378	3876
462.385	3436
462.446	1724
462.465	1603
462.514	1884
462.545	2065
462.582	1962
462.625	1950
462.650	2034
462.705	1828
462.718	1779
462.785	1925
462.786	1943
462.854	2498
462.865	2638
462.922	2590
462.945	2694
462.990	2308
463.025	1725
463.058	1519
463.104	1357
463.126	1333
463.184	1090
463.194	1171
463.262	2059
463.264	2091
463.330	2700
463.344	2756
463.398	2753
463.424	2795
463.466	2336
463.504	1882
463.533	2151
463.583	2742
463.601	2734
463.663	2535
463.669	2569
463.737	3161
463.743	3186
463.805	5486
463.823	6245
463.873	8222
463.903	9426
463.940	9216
463.982	9408
464.008	8014
464.062	3711
464.076	3519
464.142	2869
464.144	2852
464.211	2222
464.221	2157
464.279	2566
464.301	2792
464.347	2695
464.381	2629
464.414	2986
464.461	3358
464.482	3398
464.540	3636
464.550	3606
464.617	3126
464.620	3111
464.685	4115
464.699	4301
464.753	4674
464.779	4882
464.820	4820
464.859	4819
464.888	4727
464.938	4583
464.956	4839
465.018	5411
465.023	5369
465.091	4666
465.098	4610
465.158	3686
465.177	3434
465.226	3983
465.257	4243
465.293	4105
465.336	3900
465.361	4559
465.416	6136
465.428	6332
465.495	7455
465.496	7486
465.563	10504
465.575	11067
465.631	12266
465.654	12863
465.698	8662
465.734	4774
465.765	4277
465.813	3441
465.833	3464
465.893	3931
465.900	3984
465.968	4258
465.972	4283
466.035	3313
466.052	3024
466.102	3142
466.131	3177
466.170	3639
466.210	4105
466.237	4071
466.290	4130
466.304	4216
466.369	4362
466.372	4362
466.439	4330
466.449	4292
466.506	5176
466.528	5526
466.573	7281
466.607	8562
466.641	11749
466.687	16239
466.708	17012
466.766	19132
466.775	17839
466.842	7875
466.845	7386
466.909	5300
466.925	4839
466.977	4989
467.004	5110
467.044	5673
467.083	6216
467.111	6629
467.163	7362
467.178	7370
467.242	7393
467.245	7374
467.312	6782
467.321	6698
467.379	5998
467.400	5729
467.446	6654
467.480	7311
467.559	6342
467.638	5488
467.717	5483
467.796	6837
467.875	6077
467.955	6439
468.034	10860
468.113	19527
468.192	24774
468.271	6450
468.350	6066
468.429	7824
468.508	8088
468.588	6959
468.667	5889
468.746	5293
468.825	5105
468.904	4294
468.983	5819
469.062	8408
469.141	8935
469.220	5062
469.299	5445
469.378	5559
469.456	7024
469.535	6786
469.614	5491
469.693	5923
469.772	8681
469.851	9761
469.930	7515
470.009	6477
470.088	5751
470.166	9067
470.245	12122
470.324	13562
470.403	7571
470.482	6684
470.560	5502
470.639	5014
470.718	6964
470.797	5722
470.875	6469
470.954	8048
471.033	7133
471.111	4549
471.190	4596
471.269	4576
471.347	4374
471.426	4786
471.505	6239
471.583	6411
471.662	5988
471.740	5979
471.819	4724
471.898	5217
471.976	5089
472.055	5110
472.133	6076
472.212	6713
472.290	6512
472.369	4562
472.447	4726
472.526	4761
472.604	5029
472.683	4799
472.761	4915
472.839	4935
472.918	4416
472.996	4756
473.075	4799
473.153	4963
473.231	4599
473.310	5340
473.388	4860
473.466	5887
473.545	6135
473.623	8330
473.701	6218
473.780	5245
473.858	3893
473.936	6259
474.014	5476
474.093	5409
474.171	6447
474.249	8974
474.327	5453
474.405	3784
474.484	4346
474.562	4319
474.640	3917
474.718	4970
474.796	3746
474.874	4920
474.952	3399
475.030	4196
475.108	4819
475.187	4771
475.265	4927
475.343	7755
475.421	6663
475.499	4203
475.577	5163
475.655	6396
475.733	10883
475.811	16053
475.889	14008
475.966	8193
476.044	4388
476.122	6252
476.200	7004
476.278	4653
476.356	3685
476.434	5295
476.512	5795
476.590	7518
476.667	6477
476.745	4105
476.823	5075
476.901	4325
476.979	3663
477.056	3845
477.134	4826
477.212	5233
477.290	4104
477.367	3680
477.445	4058
477.523	4213
477.601	3050
477.678	4291
477.756	5329
477.834	4689
477.911	3803
477.989	3754
478.066	4107
478.144	4780
478.222	5490
478.299	8584
478.377	5856
478.454	4207
478.532	2891
478.609	4289
478.687	3942
478.764	3749
478.842	4035
478.919	4755
478.997	3945
479.074	3601
479.152	3825
479.229	5634
479.307	2638
479.384	2838
479.461	3498
479.539	4144
479.616	3964
479.694	3590
479.771	4084
479.848	4486
479.926	4466
480.003	5920
480.080	3428
480.157	3664
480.235	2813
480.312	4062
480.389	3899
480.467	6027
480.544	7084
480.621	4308
480.698	3918
480.775	4285
480.853	4362
480.930	3822
481.007	4205
481.084	4822
481.161	4106
481.238	4429
481.315	3450
481.392	3371
481.470	3390
481.547	4203
481.624	3726
481.701	3747
481.778	3808
481.855	4881
481.932	5881
482.009	9185
482.086	5483
482.163	4229
482.240	6242
482.317	9972
482.393	6381
482.470	4214
482.547	4244
482.624	3319
482.701	3726
482.778	3105
482.855	3308
482.932	3021
483.009	2756
483.085	4336
483.162	4249
483.239	4452
483.316	3013
483.393	4714
483.469	3555
483.546	3514
483.623	3808
483.699	2316
483.776	3406
483.853	3969
483.930	6893
484.006	14222
484.083	24252
484.160	16139
484.236	24968
484.313	18775
484.389	12874
484.466	12844
484.543	10735
484.619	11196
484.696	13415
484.772	12143
484.849	12950
484.925	10583
485.002	10417
485.078	12998
485.155	10581
485.231	9960
485.308	9780
485.384	11444
485.461	13126
485.537	17014
485.614	18221
485.690	10481
485.766	8957
485.843	11757
485.919	14094
485.995	14348
486.072	8251
486.148	9573
486.224	8328
486.301	10005
486.377	10201
486.453	10447
486.530	11086
486.606	15281
486.682	15640
486.758	16823
486.835	16932
486.911	14568
486.987	23076
487.063	25824
487.139	29662
487.215	19931
487.292	11809
487.368	10502
487.444	11305
487.520	13919
487.596	12711
487.672	22908
487.748	47040
487.824	56452
487.900	15696
487.976	11349
488.052	10258
488.128	12958
488.204	9877
488.280	10179
488.356	11915
488.432	19064
488.508	24951
488.584	10493
488.660	8011
488.736	8857
488.812	10098
488.888	12556
488.964	16383
489.039	32315
489.115	44084
489.191	20753
489.267	9203
489.343	9552
489.418	7767
489.494	8108
489.570	6388
489.646	8892
489.722	7148
489.797	7995
489.873	12246
489.949	20752
490.024	14747
490.100	6726
490.176	8010
490.251	8559
490.327	11433
490.403	7247
490.478	6195
490.554	6822
490.629	7014
490.705	6886
490.781	7480
490.856	7053
490.932	7768
491.007	7491
491.083	6904
491.158	6816
491.234	9826
491.309	15806
491.385	14020
491.460	6188
491.536	8228
491.611	6287
491.686	7656
491.762	11681
491.837	21150
491.913	30865
491.988	43991
492.063	47402
492.139	11338
492.214	7702
492.289	5581
492.365	5898
492.440	6964
492.515	6078
492.590	6250
492.666	4982
492.741	7267
492.816	9535
492.891	5615
492.967	6235
493.042	4750
493.117	4923
493.192	5228
493.267	8468
493.342	13710
493.418	14074
493.493	5073
493.568	4562
493.643	5608
493.718	7231
493.793	9497
493.868	10538
493.943	6817
494.018	5981
494.093	4898
494.168	4926
494.243	3556
494.318	5473
494.393	5827
494.468	3886
494.543	5589
494.618	5683
494.693	3937
494.768	4687
494.842	4873
494.917	4855
494.992	5089
495.067	4037
495.142	3583
495.217	5245
495.292	5040
495.366	6353
495.441	5867
495.516	9733
495.591	14884
495.665	46839
495.740	88996
495.815	26148
495.890	5909
495.964	4730
496.039	7561
496.114	5351
496.188	6742
496.263	6665
496.338	4877
496.412	6607
496.487	7038
496.561	7423
496.636	7796
496.710	6271
496.785	6654
496.860	7651
496.934	6149
497.009	6743
497.083	5618
497.158	6424
497.232	6809
497.307	8347
497.381	7125
497.455	8005
497.530	9594
497.604	6643
497.679	7323
497.753	11065
497.827	11392
497.902	12045
497.976	17430
498.050	47580
498.125	144983
498.199	111603
498.273	17821
498.348	14074
498.422	10793
498.496	10876
498.570	9612
498.645	6468
498.719	6723
498.793	9326
498.867	14150
498.941	21858
499.016	64643
499.090	141501
499.164	33923
499.238	6173
499.312	6504
499.386	8640
499.460	6981
499.534	6315
499.609	8313
499.683	11663
499.757	11884
499.831	31756
499.905	100385
499.979	70674
500.053	11756
500.127	13004
500.201	8942
500.275	6926
500.349	6057
500.422	7945
500.496	12996
500.570	28590
500.644	62293
500.718	90888
500.792	14841
500.866	6075
500.940	6873
501.013	6600
501.087	6262
501.161	12592
501.235	15469
501.309	36395
501.382	87493
501.456	58648
501.530	15880
501.603	24489
501.677	7670
501.751	3772
501.825	7132
501.898	14123
501.972	31973
502.046	16274
502.119	6854
502.193	17680
502.266	33760
502.340	13947
502.413	16419
502.487	28483
502.561	13537
502.634	5576
502.708	5571
502.781	4766
502.855	3739
502.928	3696
503.002	3629
503.075	3600
503.149	3705
503.222	3927
503.295	3578
503.369	6091
503.442	8185
503.516	28112
503.589	55785
503.662	30081
503.736	12567
503.809	27620
503.882	21088
503.956	35330
504.029	28671
504.102	28258
504.175	31886
504.249	8526
504.322	5828
504.395	5384
504.468	3953
504.542	4564
504.615	2447
504.688	3778
504.761	2201
504.834	5415
504.907	6844
504.980	9791
505.053	5774
505.127	5063
505.200	8896
505.273	5399
505.346	2927
505.419	2774
505.492	3757
505.565	3216
505.638	2577
505.711	1833
505.784	1966
505.857	2554
505.930	4226
506.003	2209
506.076	4429
506.149	4225
506.221	4471
506.294	6984
506.367	16183
506.440	46459
506.513	18054
506.586	5229
506.659	3551
506.731	3886
506.804	3007
506.877	4750
506.950	3950
507.022	3909
507.095	3572
507.168	4956
507.241	4153
507.313	2487
507.386	2426
507.459	5858
507.531	3345
507.604	2818
507.677	3281
507.749	1504
507.822	6186
507.894	9788
507.967	11044
508.040	6333
508.112	5944
508.185	5675
508.257	4898
508.330	7643
508.402	3966
508.475	4618
508.547	5366
508.620	5003
508.692	6138
508.765	3941
508.837	3364
508.909	3870
508.982	3928
509.054	4958
509.127	3752
509.199	3777
509.271	3005
509.344	3294
509.416	3568
509.488	3784
509.560	4406
509.633	3908
509.705	4156
509.777	4500
509.849	6015
509.922	3254
509.994	2985
510.066	4443
510.138	3641
510.210	11042
510.283	8186
510.355	6960
510.427	6181
510.499	6507
510.571	4897
510.643	5219
510.715	9568
510.787	5908
510.859	5787
510.931	7313
511.003	8515
511.076	7870
511.148	4704
511.219	4231
511.291	7812
511.363	7319
511.435	4937
511.507	3587
511.579	4651
511.651	5319
511.723	3931
511.795	3590
511.867	4161
511.939	6050
512.010	8411
512.082	6730
512.154	3215
512.226	4985
512.298	9451
512.369	10770
512.441	8970
512.513	8030
512.585	6147
512.656	7190
512.728	6469
512.800	5111
512.871	5846
512.943	6424
513.015	3642
513.086	5784
513.158	5818
513.230	6179
513.301	8118
513.373	9820
513.444	4980
513.516	5428
513.588	5643
513.659	5794
513.731	6671
513.802	5889
513.874	14143
513.945	18058
514.016	5855
514.088	5418
514.159	4993
514.231	8807
514.302	9683
514.374	6599
514.445	6410
514.516	12860
514.588	7917
514.659	7213
514.730	9660
514.802	8780
514.873	4816
514.944	7975
515.016	6623
515.087	6819
515.158	8309
515.229	10499
515.301	4933
515.372	7711
515.443	4771
515.514	5946
515.585	4404
515.656	5566
515.728	5353
515.799	4709
515.870	5411
515.941	5887
516.012	5679
516.083	8908
516.154	8304
516.225	10814
516.296	10194
516.367	8784
516.438	9479
516.509	13138
516.580	26265
516.651	88340
516.722	233486
516.793	71691
516.864	15672
516.935	15741
517.006	20866
517.077	33662
517.148	89363
517.219	306706
517.289	339325
517.360	67364
517.431	17843
517.502	8145
517.573	9842
517.643	8688
517.714	10149
517.785	9980
517.856	8918
517.926	12189
517.997	14781
518.068	17317
518.138	28009
518.209	59302
518.280	228472
518.350	587073
518.421	150372
518.492	16968
518.562	10545
518.633	10815
518.703	9232
518.774	19703
518.845	42191
518.915	32778
518.986	11023
519.056	11699
519.127	19764
519.197	27694
519.268	53166
519.338	26623
519.408	9836
519.479	11895
519.549	7919
519.620	7508
519.690	4496
519.760	5798
519.831	5057
519.901	5935
519.971	5204
520.042	4425
520.112	5338
520.182	8560
520.253	6820
520.323	4675
520.393	6702
520.463	10663
520.534	6036
520.604	14319
520.674	7260
520.744	7460
520.814	14261
520.885	14632
520.955	20998
521.025	57962
521.095	16188
521.165	6003
521.235	4063
521.305	3500
521.375	4863
521.445	6282
521.515	6780
521.585	8371
521.655	5875
521.725	6293
521.795	6117
521.865	2708
521.935	7798
522.005	4204
522.075	4261
522.145	5328
522.215	3925
522.285	7427
522.355	8408
522.424	15311
522.494	10092
522.564	8676
522.634	20646
522.704	46728
522.774	12905
522.843	5189
522.913	4128
522.983	5616
523.053	4310
523.122	5405
523.192	8467
523.262	26900
523.331	17610
523.401	5578
523.471	4001
523.540	3916
523.610	2285
523.680	4353
523.749	3157
523.819	5453
523.888	3798
523.958	2813
524.027	4655
524.097	5099
524.166	3235
524.236	3367
524.305	5187
524.375	3658
524.444	2206
524.514	4886
524.583	3055
524.653	3892
524.722	5597
524.791	2959
524.861	4849
524.930	2234
524.999	3917
525.069	6119
525.138	4347
525.207	5079
525.277	4465
525.346	4197
525.415	4563
525.484	4705
525.554	4036
525.623	4260
525.692	4066
525.761	4349
525.830	5036
525.900	5288
525.969	8929
526.038	14618
526.107	31113
526.176	75765
526.245	47533
526.314	21433
526.383	44541
526.452	50856
526.522	98140
526.591	71381
526.660	22033
526.729	11787
526.797	19512
526.867	47543
526.935	164810
527.004	221209
527.073	80651
527.142	7422
527.211	4989
527.280	6568
527.349	5490
527.418	2517
527.487	4906
527.555	3221
527.624	2637
527.693	2171
527.762	4487
527.831	2621
527.899	3930
527.968	2562
528.037	2265
528.106	4661
528.174	8453
528.243	6318
528.312	10035
528.380	10067
528.449	1925
528.518	3588
528.586	986
528.655	3643
528.723	2772
528.792	2652
528.861	1644
528.929	1455
528.998	3706
529.066	2370
529.135	2700
529.203	2108
529.272	1576
529.340	2809
529.409	4111
529.477	1648
529.545	2590
529.614	5100
529.682	2541
529.751	4404
529.819	7048
529.887	3495
529.956	2881
530.024	4136
530.092	2121
530.161	4585
530.229	5370
530.297	2951
530.365	3785
530.434	2896
530.502	2112
530.570	3045
530.638	903
530.707	2963
530.775	3840
530.843	1716
530.911	2757
530.979	2007
531.047	1891
531.115	3624
531.183	2601
531.252	2901
531.320	2842
531.388	2041
531.456	3335
531.524	1037
531.592	3654
531.660	4791
531.728	1278
531.796	2251
531.864	3040
531.932	3201
532.000	2563
532.067	2563
532.135	2867
532.203	4628
532.271	3475
532.339	8958
532.407	18380
532.475	8768
532.542	4909
532.610	7046
532.678	11076
532.746	49269
532.814	85416
532.881	15989
532.949	3874
533.017	2104
533.084	2949
533.152	3559
533.220	4195
533.287	2356
533.355	2533
533.423	2840
533.490	2804
533.558	3440
533.625	2528
533.693	2708
533.761	2662
533.828	3970
533.896	2450
533.963	8370
534.031	8227
534.098	11953
534.166	5234
534.233	3463
534.300	3504
534.368	3552
534.435	2731
534.503	3709
534.570	3518
534.637	2644
534.705	4205
534.772	5680
534.840	10422
534.907	38984
534.974	34030
535.041	4944
535.109	3508
535.176	3751
535.243	3916
535.310	3677
535.378	1962
535.445	2759
535.512	3345
535.579	3522
535.646	2720
535.714	3281
535.781	5049
535.848	4457
535.915	4620
535.982	3122
536.049	3124
536.116	4506
536.183	2430
536.250	3541
536.317	3006
536.384	5426
536.451	6144
536.518	6707
536.585	3418
536.652	7354
536.719	8316
536.786	5716
536.853	5333
536.920	8958
536.987	12722
537.053	14609
537.120	53363
537.187	33869
537.254	4477
537.321	3232
537.388	5047
537.454	2806
537.521	3881
537.588	2973
537.654	5302
537.721	4710
537.788	6112
537.855	3675
537.921	4601
537.988	3112
538.055	4002
538.121	4521
538.188	4029
538.254	6817
538.321	11455
538.388	7119
538.454	4824
538.521	4123
538.587	3511
538.654	4060
538.720	3294
538.787	4850
538.853	4758
538.920	4616
538.986	5135
539.053	4253
539.119	4762
539.185	3440
539.252	5531
539.318	7600
539.385	6155
539.451	4725
539.517	6053
539.583	7897
539.650	17635
539.716	33396
539.782	8476
539.849	3129
539.915	4969
539.981	3593
540.047	5274
540.114	4823
540.180	5705
540.246	4152
540.312	6998
540.378	13225
540.444	13241
540.510	17902
540.576	39044
540.643	10110
540.709	2810
540.775	5225
540.841	3379
540.907	6637
540.973	7853
541.039	7909
541.105	7716
541.171	5308
541.237	3989
541.303	5769
541.369	7141
541.435	8140
541.500	10727
541.566	5599
541.632	4104
541.698	4175
541.764	4873
541.830	4093
541.896	3115
541.961	4671
542.027	4153
542.093	4590
542.159	3930
542.224	5038
542.290	7487
542.356	11130
542.421	13318
542.487	6405
542.553	4565
542.618	4958
542.684	5528
542.750	4568
542.815	7559
542.881	12652
542.947	37018
543.012	21233
543.078	4004
543.143	4041
543.209	5176
543.274	4874
543.340	7540
543.405	15629
543.471	19064
543.536	6324
543.602	4821
543.667	3414
543.732	4861
543.798	3949
543.863	4756
543.928	3627
543.994	3231
544.059	4163
544.124	4785
544.190	5342
544.255	5159
544.320	4887
544.386	4626
544.451	7455
544.516	7742
544.581	9858
544.646	24453
544.712	30627
544.777	6135
544.842	6022
544.907	5424
544.972	4871
545.037	6036
545.102	5613
545.168	5833
545.233	7733
545.298	6604
545.363	7661
545.428	9222
545.493	17532
545.558	28312
545.623	9660
545.688	6220
545.753	7085
545.818	5722
545.883	6625
545.947	5141
546.012	5841
546.077	5962
546.142	6774
546.207	5533
546.272	9236
546.337	8575
546.401	7335
546.466	7078
546.531	5552
546.596	7790
546.661	8038
546.725	7915
546.790	7537
546.855	8209
546.919	7317
546.984	8547
547.049	9129
547.113	10632
547.178	9282
547.243	12230
547.307	13692
547.372	15518
547.436	14700
547.501	14675
547.565	15968
547.630	15386
547.695	15567
547.759	15855
547.823	13731
547.888	13958
547.952	13704
548.017	14983
548.081	16457
548.146	17409
548.210	16842
548.274	16151
548.339	15699
548.403	14962
548.468	13889
548.532	13897
548.596	13746
548.660	13937
548.725	16393
548.789	16872
548.853	17075
548.917	16047
548.982	16309
549.046	14404
549.110	12119
549.174	13001
549.238	14664
549.303	15331
549.367	16956
549.431	15518
549.495	15372
549.559	14461
549.623	18292
549.687	19668
549.751	22759
549.815	21936
549.879	21635
549.943	19822
550.007	22035
550.071	21206
550.135	22487
550.199	18710
550.263	18549
550.327	19602
550.391	19818
550.455	19275
550.519	21113
550.582	23230
550.646	28271
550.710	27116
550.774	23542
550.838	24420
550.901	24412
550.965	27521
551.029	28189
551.093	30064
551.156	32913
551.220	42128
551.284	47706
551.347	32523
551.411	38728
551.475	35387
551.538	27702
551.602	24449
551.666	23124
551.729	20347
551.793	23295
551.856	21842
551.920	20632
551.983	20916
552.047	20681
552.110	22547
552.174	21289
552.237	22373
552.301	21487
552.364	20401
552.428	19882
552.491	20188
552.554	22335
552.618	21197
552.681	23427
552.745	23084
552.808	34099
552.871	36769
552.934	24650
552.998	21757
553.061	20924
553.124	20753
553.187	20707
553.251	19860
553.314	20496
553.377	21111
553.440	23666
553.503	27575
553.567	28988
553.630	22722
553.693	21971
553.756	22542
553.819	22502
553.882	21489
553.945	21427
554.008	22265
554.071	21968
554.134	22289
554.197	20999
554.260	20790
554.323	21821
554.386	21946
554.449	22950
554.512	22097
554.575	21317
554.638	21984
554.701	20208
554.764	20006
554.827	20749
554.889	19529
554.952	18466
555.015	18514
555.078	17929
555.141	18814
555.203	18423
555.266	19260
555.329	18182
555.391	17087
555.454	18194
555.517	16704
555.580	16333
555.642	14764
555.705	16289
555.768	16255
555.830	15879
555.893	15008
555.955	15172
556.018	15358
556.080	14324
556.143	14345
556.206	14740
556.268	14145
556.330	15267
556.393	14131
556.455	13767
556.518	15336
556.580	14996
556.643	12097
556.705	12705
556.767	11660
556.830	13595
556.892	12878
556.955	16399
557.017	12924
557.079	12226
557.142	11956
557.204	12500
557.266	19195
557.328	15098
557.391	10499
557.453	9529
557.515	10155
557.577	11513
557.639	11687
557.701	10029
557.764	8353
557.826	10457
557.888	11217
557.950	11276
558.012	11900
558.074	16260
558.136	31506
558.198	56465
558.260	18189
558.322	10242
558.384	11549
558.446	13273
558.508	14231
558.570	17941
558.632	28891
558.694	40397
558.756	50497
558.818	141965
558.880	257115
558.942	64027
559.003	57796
559.065	22979
559.127	12780
559.189	14487
559.251	18574
559.312	29242
559.374	68395
559.436	177190
559.498	59386
559.559	13064
559.621	14149
559.683	20657
559.744	33186
559.806	94347
559.868	102633
559.929	19983
559.991	16476
560.052	26639
560.114	59016
560.176	33017
560.237	38036
560.299	48071
560.360	10889
560.422	7787
560.483	7613
560.545	7312
560.606	6803
560.667	6171
560.729	7072
560.790	7639
560.852	7448
560.913	6578
560.974	6585
561.036	7216
561.097	7282
561.158	7395
561.220	7778
561.281	7002
561.342	7727
561.403	10165
561.465	11087
561.526	22796
561.587	23233
561.648	7292
561.709	6158
561.771	7418
561.832	5680
561.893	7052
561.954	6874
562.015	6761
562.076	6674
562.137	6825
562.198	7469
562.259	7297
562.320	6794
562.381	8529
562.442	10484
562.503	8307
562.564	7160
562.625	6099
562.686	6370
562.747	7780
562.808	7135
562.869	6976
562.930	7954
562.991	7228
563.051	6486
563.112	7470
563.173	6878
563.234	6625
563.294	7032
563.355	7054
563.416	7484
563.477	5794
563.537	6512
563.598	7252
563.659	6917
563.720	6413
563.780	6975
563.841	7636
563.901	6735
563.962	7668
564.023	6147
564.083	7235
564.144	6312
564.204	6603
564.265	7180
564.325	8090
564.386	10344
564.446	10225
564.507	6256
564.567	6204
564.628	6812
564.688	7227
564.749	6971
564.809	8021
564.869	7830
564.930	7711
564.990	7503
565.050	7068
565.111	6705
565.171	6920
565.231	7136
565.292	7758
565.352	5381
565.412	6925
565.472	6798
565.532	6685
565.593	6255
565.653	6297
565.713	6917
565.773	7812
565.833	8934
565.893	10649
565.953	6443
566.013	6472
566.074	7089
566.134	8862
566.194	11401
566.254	11109
566.314	7804
566.374	7905
566.434	7930
566.494	6844
566.554	6862
566.614	7570
566.673	7497
566.733	7776
566.793	7828
566.853	7139
566.913	7868
566.973	8260
567.033	8450
567.092	7408
567.152	7697
567.212	7901
567.272	7651
567.331	9053
567.391	8368
567.451	8094
567.511	9787
567.570	10541
567.630	6894
567.690	7445
567.749	8255
567.809	7929
567.868	8359
567.928	9531
567.988	9723
568.047	10063
568.107	10948
568.166	16549
568.226	22370
568.285	28159
568.345	18969
568.404	14731
568.464	13181
568.523	12690
568.582	13889
568.642	17165
568.701	21181
568.761	32328
568.820	47554
568.879	35928
568.939	22984
568.998	17533
569.057	12564
569.116	11258
569.176	9826
569.235	9635
569.294	8840
569.353	7571
569.413	7767
569.472	7927
569.531	7307
569.590	7510
569.649	7638
569.708	7556
569.767	7786
569.827	9276
569.886	7908
569.945	7261
570.004	7307
570.063	7704
570.122	7633
570.181	8114
570.240	8060
570.299	9196
570.358	8830
570.417	6767
570.475	7151
570.534	8216
570.593	7976
570.652	7582
570.711	7986
570.770	7180
570.829	7784
570.887	8656
570.946	8927
571.005	7152
571.064	7872
571.122	8745
571.181	7516
571.240	6838
571.299	6535
571.357	7857
571.416	7610
571.475	7862
571.533	8744
571.592	8498
571.650	7280
571.709	6982
571.768	8365
571.826	7611
571.885	5755
571.943	6870
572.002	6862
572.060	7067
572.119	6984
572.177	6495
572.236	6925
572.294	6777
572.352	6720
572.411	7459
572.469	6476
572.528	6851
572.586	6764
572.644	8416
572.703	8964
572.761	7284
572.819	6029
572.877	6795
572.936	6306
572.994	7657
573.052	6481
573.110	7020
573.169	6979
573.227	6032
573.285	5953
573.343	6583
573.401	6684
573.459	6184
573.517	5934
573.576	6740
573.634	6393
573.692	6751
573.750	6973
573.808	6390
573.866	5903
573.924	7737
573.982	7479
574.040	6025
574.098	6131
574.155	6500
574.213	5356
574.271	5429
574.329	6494
574.387	6051
574.445	5620
574.503	5798
574.560	5133
574.618	5501
574.676	5254
574.734	6524
574.792	5725
574.849	6251
574.907	5991
574.965	5652
575.022	5863
575.080	5784
575.138	6810
575.195	6983
575.253	5547
575.311	7195
575.368	6664
575.426	5520
575.483	6063
575.541	5659
575.598	5414
575.656	6858
575.713	5603
575.771	5853
575.828	5378
575.886	5980
575.943	6324
576.001	6212
576.058	6104
576.115	6562
576.173	6857
576.230	8112
576.287	8222
576.345	7228
576.402	5720
576.459	6421
576.517	6241
576.574	7408
576.631	5861
576.688	6704
576.746	6210
576.803	6286
576.860	6530
576.917	6694
576.974	5722
577.031	6560
577.089	5842
577.146	5994
577.203	6135
577.260	6517
577.317	6260
577.374	7289
577.431	7079
577.488	6479
577.545	5760
577.602	6226
577.659	6480
577.716	6258
577.773	6043
577.830	5781
577.886	6220
577.943	5602
578.000	5722
578.057	7028
578.114	5818
578.171	6079
578.227	5866
578.284	5447
578.341	5924
578.398	5603
578.454	6703
578.511	6918
578.568	9034
578.625	7197
578.681	6140
578.738	6394
578.794	7171
578.851	7826
578.908	6517
578.964	7977
579.021	7567
579.077	7552
579.134	6322
579.190	7396
579.247	7133
579.303	7231
579.360	5336
579.416	6048
579.473	6480
579.529	5892
579.586	6271
579.642	7214
579.698	6956
579.755	7221
579.811	6285
579.867	6837
579.924	5626
579.980	5447
580.036	6956
580.093	6689
580.149	6091
580.205	7005
580.261	6847
580.317	6956
580.374	7019
580.430	7982
580.486	6961
580.542	6550
580.598	6832
580.619	7261
580.654	8002
580.692	7256
580.710	6878
580.765	7267
580.767	7272
580.823	7054
580.838	7192
580.879	7529
580.911	7691
580.935	7804
580.984	7427
580.991	7370
581.047	8370
581.057	8219
581.103	7540
581.130	7632
581.159	7689
581.203	7854
581.215	7897
581.270	6838
581.276	6921
581.326	7629
581.349	7692
581.382	7760
581.422	8514
581.438	8822
581.494	7981
581.494	7985
581.550	7552
581.567	7951
581.606	8801
581.640	8593
581.661	8425
581.713	8986
581.717	9030
581.773	8671
581.786	8707
581.829	8776
581.859	8671
581.885	8598
581.932	9024
581.940	9085
581.996	9752
582.004	9610
582.052	8620
582.077	8633
582.107	8755
582.150	9306
582.163	9445
582.219	10298
582.223	10271
582.274	9810
582.296	10035
582.330	10460
582.368	9698
582.386	9288
582.441	9798
582.441	9791
582.497	10660
582.514	10391
582.552	9928
582.587	9786
582.608	9617
582.659	9924
582.663	9945
582.719	11143
582.732	11234
582.774	11545
582.805	11276
582.830	11018
582.877	11499
582.885	11583
582.941	10921
582.950	11017
582.996	11354
583.023	11622
583.052	11959
583.095	11651
583.107	11552
583.162	12321
583.168	12277
583.218	12012
583.240	12124
583.273	12340
583.313	12705
583.328	12841
583.384	12688
583.385	12707
583.439	12891
583.458	12934
583.494	13094
583.531	12587
583.549	12443
583.603	13241
583.605	13252
583.660	12636
583.676	12758
583.715	13379
583.748	13701
583.770	13984
583.820	13931
583.825	13883
583.881	14134
583.893	14022
583.936	13959
583.965	13563
583.991	13203
584.038	13827
584.046	13979
584.101	14800
584.110	14689
584.156	13976
584.183	14549
584.211	15330
584.255	15410
584.266	15320
584.321	15195
584.328	15145
584.376	15595
584.400	15926
584.431	16207
584.472	16288
584.486	16318
584.541	16474
584.545	16459
584.596	16387
584.617	16464
584.651	17022
584.689	17703
584.706	17821
584.761	17552
584.762	17531
584.816	18414
584.834	18743
584.871	19086
584.906	18961
584.926	19001
584.978	19886
584.980	19955
585.035	20319
585.051	20572
585.090	21342
585.123	21689
585.145	21857
585.195	22047
585.200	22171
585.254	23271
585.267	23677
585.309	24822
585.340	25321
585.364	25775
585.412	28004
585.419	28374
585.473	31006
585.484	31546
585.528	35886
585.556	39588
585.583	47938
585.628	64827
585.637	72328
585.692	134350
585.700	142788
585.747	166765
585.772	150842
585.801	97937
585.845	42956
585.856	39321
585.910	31274
585.917	30262
585.965	29116
585.989	28622
586.019	28770
586.061	29181
586.074	29298
586.128	28966
586.133	28944
586.183	30148
586.205	30370
586.237	30239
586.277	30045
586.292	30278
586.346	30968
586.349	30946
586.401	31832
586.421	31980
586.455	32406
586.493	33075
586.509	33861
586.564	36303
586.565	36337
586.618	42769
586.637	43035
586.672	40611
586.709	38797
586.727	38671
586.781	38663
586.781	38758
586.835	38768
586.853	38641
586.889	38103
586.925	37524
586.944	38053
586.996	39108
586.998	39235
587.052	40664
587.068	40970
587.106	42061
587.140	42537
587.161	42845
587.212	43305
587.215	43509
587.269	45120
587.284	45499
587.323	46528
587.356	47269
587.377	48093
587.427	49496
587.431	49741
587.485	52014
587.499	52183
587.539	53326
587.571	54308
587.593	55442
587.643	57162
587.648	57429
587.702	58981
587.715	59156
587.755	61765
587.786	63641
587.810	64873
587.858	66210
587.864	66886
587.917	72780
587.930	73780
587.971	77486
588.001	80279
588.025	83117
588.073	87699
588.079	88807
588.133	97408
588.145	98834
588.187	106077
588.217	111348
588.241	117253
588.288	127697
588.295	129965
588.348	147113
588.360	150352
588.402	166617
588.431	178006
588.456	190802
588.503	214795
588.510	220606
588.564	265103
588.575	274207
588.617	325918
588.646	362509
588.671	415754
588.718	518282
588.725	545042
588.778	750889
588.789	793254
588.832	1025183
588.861	1183532
588.886	1242550
588.932	1324541
588.939	1317821
588.993	1192808
589.004	1167445
589.047	1263973
589.075	1300368
589.100	1161810
589.147	900288
589.154	874390
589.207	664683
589.218	621329
589.261	570053
589.290	535543
589.314	555031
589.361	593662
589.368	616601
589.421	799636
589.433	838694
589.475	1068483
589.504	1227501
589.528	1253680
589.576	1255353
589.582	1255684
589.635	1208231
589.647	1188921
589.689	925255
589.718	741112
589.742	632890
589.790	419184
589.795	409715
589.849	311451
589.861	288110
589.902	251195
589.932	222257
589.955	207926
590.004	176210
590.009	175184
590.062	157514
590.075	152677
590.115	143185
590.146	135171
590.168	132260
590.218	123818
590.222	123777
590.275	117883
590.289	115644
590.328	110464
590.360	106085
590.381	105169
590.431	101186
590.435	101338
590.488	97380
590.503	95951
590.541	94874
590.574	93294
590.594	92687
590.645	89866
590.647	90131
590.700	87650
590.716	86551
590.753	86183
590.787	85453
590.806	85533
590.859	84196
590.859	84497
590.912	82350
590.930	81391
590.965	81808
591.001	81467
591.018	82023
591.071	82727
591.072	82396
591.124	82564
591.143	82057
591.177	82060
591.214	81477
591.230	82145
591.283	83217
591.285	82917
591.336	82519
591.356	81849
591.389	81746
591.427	80888
591.442	80340
591.495	76961
591.498	76400
591.547	76598
591.569	76211
591.600	76448
591.640	75980
591.653	76416
591.706	77007
591.711	76738
591.759	76724
591.782	76251
591.811	77397
591.853	78285
591.864	78676
591.917	78890
591.924	78589
591.969	78801
591.995	78417
592.022	78724
592.066	78316
592.075	78662
592.127	78720
592.137	78409
592.180	79160
592.208	79052
592.233	78690
592.279	77059
592.285	77393
592.338	77429
592.350	77108
592.390	76660
592.421	75760
592.443	76722
592.491	77772
592.495	78046
592.548	77217
592.562	76660
592.600	77118
592.633	76897
592.653	77148
592.704	76502
592.705	76918
592.775	75478
592.846	76003
592.916	77311
592.987	79108
593.058	76150
593.128	73308
593.199	73854
593.270	74472
593.341	73958
593.411	73461
593.482	76296
593.553	74191
593.623	74198
593.694	74268
593.764	74296
593.835	75222
593.906	72513
593.976	72797
594.047	75650
594.117	76400
594.188	76589
594.258	73332
594.329	72844
594.399	73900
594.470	74179
594.540	75023
594.611	74601
594.681	74048
594.751	72366
594.822	75589
594.892	76488
594.963	76700
595.033	77904
595.103	78628
595.174	77937
595.244	82881
595.314	85285
595.384	78731
595.455	77989
595.525	79702
595.595	81054
595.665	81552
595.736	78688
595.806	79487
595.876	80200
595.946	81140
596.016	82539
596.087	83370
596.157	83613
596.227	83930
596.297	86719
596.367	89137
596.437	91202
596.507	93257
596.577	95419
596.647	91547
596.717	94585
596.787	94014
596.857	94361
596.927	94349
596.997	93586
597.067	94512
597.137	95941
597.207	97610
597.277	98548
597.347	95612
597.417	95872
597.487	98401
597.557	98828
597.626	99131
597.696	99229
597.766	100008
597.836	99413
597.906	91163
597.975	89144
598.045	89749
598.115	91588
598.185	95316
598.254	103646
598.324	108786
598.394	110812
598.464	107591
598.533	102690
598.603	99858
598.672	98556
598.742	98875
598.812	98696
598.881	98258
598.951	98454
599.020	98006
599.090	100884
599.159	104062
599.229	102462
599.299	97071
599.368	101096
599.437	99755
599.507	93008
599.576	89775
599.646	91765
599.715	90767
599.785	90073
599.854	88795
599.924	88160
599.993	87210
600.062	88340
600.132	88173
600.201	92699
600.270	102616
600.340	107900
600.409	103497
600.478	103575
600.547	102829
600.617	98410
600.686	86605
600.755	82314
600.824	80476
600.894	77468
600.963	76806
601.032	74767
601.101	74602
601.170	73662
601.239	72834
601.308	74182
601.378	73993
601.447	71995
601.516	72230
601.585	75507
601.654	78294
601.723	74249
601.792	73405
601.861	75341
601.930	80523
601.999	83377
602.068	78052
602.137	82515
602.206	81141
602.275	80771
602.343	85663
602.412	85459
602.481	80183
602.550	79059
602.619	80007
602.688	80720
602.756	82630
602.825	82584
602.894	82616
602.963	84337
603.032	83803
603.100	84550
603.169	83786
603.238	84041
603.307	83635
603.375	85915
603.444	86477
603.513	87676
603.581	87608
603.650	89086
603.719	85297
603.787	87619
603.856	89499
603.924	91972
603.993	95955
604.061	94322
604.130	99335
604.198	101227
604.267	103350
604.335	102999
604.404	102067
604.472	104935
604.541	104406
604.609	104552
604.678	106448
604.746	107968
604.815	106794
604.883	108833
604.951	109873
605.020	111015
605.088	111658
605.156	111515
605.225	114416
605.293	112715
605.361	115680
605.429	117127
605.498	117679
605.566	121281
605.634	124274
605.702	127892
605.771	130593
605.839	131564
605.907	127859
605.975	125999
606.043	123422
606.111	123119
606.180	123226
606.248	121894
606.316	120929
606.384	122349
606.452	125536
606.520	135331
606.588	129754
606.656	125794
606.724	124056
606.792	119489
606.860	107258
606.928	99759
606.996	95701
607.064	94519
607.132	98408
607.200	102581
607.267	105851
607.335	107020
607.403	107704
607.471	106786
607.539	103265
607.607	104112
607.674	93932
607.742	94280
607.810	95161
607.878	93081
607.946	94753
608.013	99012
608.081	100784
608.149	102218
608.216	104034
608.284	107767
608.352	105879
608.419	104901
608.487	108147
608.555	104683
608.622	104518
608.690	109606
608.757	119003
608.825	121874
608.893	121064
608.960	118343
609.028	116236
609.095	114970
609.163	111069
609.230	102717
609.298	95420
609.365	98317
609.432	106470
609.500	115315
609.567	129168
609.635	145559
609.702	151105
609.769	144571
609.837	119348
609.904	103477
609.971	105915
610.039	119228
610.106	146406
610.173	246391
610.241	537455
610.308	552182
610.375	351461
610.442	143022
610.509	112593
610.577	109022
610.644	110865
610.711	111119
610.778	114409
610.845	117196
610.912	122758
610.980	123197
611.047	124186
611.114	123417
611.181	118165
611.248	117897
611.315	122576
611.382	124284
611.449	128381
611.516	132114
611.583	129672
611.650	130336
611.717	131252
611.784	133152
611.851	138143
611.918	143351
611.984	159234
612.051	204143
612.118	356262
612.185	796416
612.252	529976
612.319	181665
612.386	159016
612.452	149260
612.519	146199
612.586	144403
612.653	146061
612.719	151159
612.786	146006
612.853	135589
612.919	132283
612.986	135178
613.053	127261
613.120	121711
613.186	117061
613.253	119674
613.319	118322
613.386	119027
613.453	120573
613.519	128350
613.586	132812
613.652	152356
613.719	140042
613.785	133967
613.852	123723
613.918	121974
613.985	122351
614.051	128249
614.118	130396
614.184	126138
614.250	121118
614.317	123524
614.383	121007
614.449	124324
614.516	123875
614.582	124590
614.648	122114
614.715	121537
614.781	120558
614.847	119770
614.914	119094
614.980	117854
615.046	115858
615.112	120057
615.179	119313
615.245	122311
615.311	124832
615.377	136300
615.443	135877
615.509	125802
615.575	127613
615.642	125313
615.708	129564
615.774	133522
615.840	139406
615.906	147640
615.972	174042
616.038	253461
616.104	441691
616.170	920734
616.236	802211
616.302	232758
616.368	184062
616.434	148562
616.500	142231
616.565	149997
616.631	174800
616.697	149913
616.763	153130
616.829	200985
616.895	317953
616.961	305392
617.026	158298
617.092	129102
617.158	125783
617.224	125901
617.289	119434
617.355	113516
617.421	112891
617.487	113679
617.552	109858
617.618	107820
617.684	107697
617.749	110955
617.815	104439
617.880	103099
617.946	105300
618.012	109293
618.077	112645
618.143	106632
618.208	108356
618.274	113427
618.339	117399
618.405	101268
618.470	99792
618.536	101669
618.601	99838
618.667	96263
618.732	92975
618.798	91317
618.863	91975
618.928	91719
618.994	94533
619.059	95957
619.124	112005
619.190	99177
619.255	90740
619.320	90616
619.386	90270
619.451	89574
619.516	87239
619.581	88774
619.647	91540
619.712	92380
619.777	88250
619.842	89844
619.907	89446
619.972	93330
620.038	91381
620.103	88035
620.168	87837
620.233	89553
620.298	88495
620.363	90650
620.428	92303
620.493	93382
620.558	93407
620.623	94932
620.688	94702
620.753	92773
620.818	96690
620.883	95828
620.948	96364
621.013	95082
621.078	94933
621.143	92111
621.207	96603
621.272	96336
621.337	95951
621.402	93356
621.467	97816
621.532	96953
621.596	95502
621.661	93624
621.726	91469
621.791	94461
621.855	98595
621.920	98145
621.985	94270
622.049	96525
622.114	96387
622.179	97484
622.243	99421
622.308	100288
622.373	103214
622.437	103056
622.502	101320
622.566	99001
622.631	96868
622.695	101059
622.760	100105
622.824	100299
622.889	103241
622.953	105750
623.018	125777
623.082	124922
623.147	105455
623.211	104969
623.276	104496
623.340	99172
623.404	97642
623.469	96704
623.533	96683
623.597	95298
623.662	95739
623.726	91503
623.790	88279
623.854	87617
623.919	86953
623.983	87701
624.047	90209
624.111	88471
624.176	91089
624.240	92339
624.304	97619
624.368	90301
624.432	89275
624.496	93379
624.560	98556
624.625	100840
624.689	94525
624.753	96591
624.817	93318
624.881	91656
624.945	85410
625.009	85254
625.073	86918
625.137	91426
625.201	102352
625.265	102728
625.329	88659
625.393	91472
625.456	89939
625.520	89152
625.584	93071
625.648	96404
625.712	100375
625.776	120426
625.839	121071
625.903	86822
625.967	76518
626.031	88567
626.095	104509
626.158	84567
626.222	71321
626.286	69191
626.349	67928
626.413	66818
626.477	68677
626.540	66272
626.604	63167
626.668	65772
626.731	63010
626.795	63618
626.858	63868
626.922	62723
626.986	63982
627.049	61467
627.113	63156
627.176	62865
627.240	60298
627.303	59543
627.366	60265
627.430	61998
627.493	60738
627.557	60483
627.620	61325
627.684	61124
627.747	61098
627.810	58273
627.874	55391
627.937	53824
628.000	56872
628.064	56709
628.127	49771
628.190	52535
628.253	51041
628.317	50245
628.380	48003
628.443	46995
628.506	48524
628.569	47299
628.632	44520
628.696	45875
628.759	44023
628.822	44098
628.885	42826
628.948	43712
629.011	43650
629.074	42760
629.137	42446
629.200	42172
629.263	43236
629.326	41228
629.389	41450
629.452	41750
629.515	39858
629.578	40001
629.641	40963
629.704	42928
629.767	43609
629.830	40826
629.892	39876
629.955	40812
630.018	42588
630.081	43667
630.144	49131
630.207	42980
630.269	42586
630.332	39531
630.395	39129
630.458	39348
630.520	36853
630.583	38676
630.646	38441
630.708	36814
630.771	37919
630.834	38050
630.896	38095
630.959	37697
631.021	36342
631.084	37108
631.146	37199
631.209	37859
631.272	35301
631.334	36189
631.397	36503
631.459	36475
631.522	38648
631.584	37346
631.646	37850
631.709	40520
631.771	43834
631.834	38878
631.896	38329
631.958	35569
632.021	35986
632.083	34337
632.145	35916
632.208	35263
632.270	37158
632.332	34058
632.395	33577
632.457	36149
632.519	34619
632.581	35467
632.643	33552
632.706	34646
632.768	32097
632.830	34652
632.892	33500
632.954	33913
633.016	33624
633.078	33934
633.141	34091
633.203	32368
633.265	34154
633.327	32881
633.389	33043
633.451	35418
633.513	39622
633.575	36991
633.637	37418
633.698	37714
633.760	33849
633.822	34723
633.884	34508
633.946	34274
634.008	33106
634.070	34417
634.132	34863
634.193	35936
634.255	36405
634.317	35658
634.379	37905
634.441	34540
634.502	33595
634.564	33002
634.626	31471
634.687	31200
634.749	31062
634.811	31466
634.873	29296
634.934	30628
634.996	31439
635.057	31424
635.119	30759
635.181	31563
635.242	31107
635.304	29767
635.365	33128
635.427	30183
635.488	32202
635.550	29760
635.611	30231
635.673	27787
635.734	32434
635.796	32347
635.857	34332
635.918	32315
635.980	34234
636.041	34793
636.102	35223
636.164	35487
636.225	35421
636.286	32162
636.348	32020
636.409	30842
636.470	29110
636.531	29622
636.593	29140
636.654	28864
636.715	28214
636.776	29000
636.838	27726
636.899	28084
636.960	26727
637.021	26297
637.082	27311
637.143	26142
637.204	25772
637.265	26117
637.326	26786
637.387	27065
637.448	26569
637.509	27593
637.570	27545
637.631	26795
637.692	25784
637.753	24479
637.814	26997
637.875	26086
637.936	26167
637.997	26524
638.058	26199
638.119	26164
638.179	25429
638.240	25076
638.301	25294
638.362	24475
638.423	24222
638.483	25859
638.544	23002
638.605	24574
638.666	23185
638.726	24937
638.787	24523
638.848	23369
638.908	24803
638.969	23328
639.030	23706
639.090	23262
639.151	23697
639.211	26524
639.272	29411
639.332	41267
639.393	28150
639.453	24049
639.514	23460
639.574	23269
639.635	22059
639.695	23514
639.756	23139
639.816	24219
639.877	25768
639.937	36314
639.997	41973
640.058	24619
640.118	21952
640.178	22152
640.239	21553
640.299	21889
640.359	21372
640.420	21999
640.480	23414
640.540	24164
640.600	23542
640.661	24184
640.721	22337
640.781	27310
640.841	21340
640.901	22365
640.961	22139
641.021	22750
641.082	25899
641.142	31290
641.202	24557
641.262	20597
641.322	21045
641.382	20165
641.442	21675
641.502	20181
641.562	21431
641.622	20357
641.682	21489
641.742	22396
641.802	21898
641.861	22378
641.921	21846
641.981	23070
642.041	22808
642.101	26400
642.161	20655
642.221	19498
642.280	19064
642.340	18342
642.400	19653
642.460	22149
642.519	19718
642.579	21054
642.639	21422
642.698	18188
642.758	22077
642.818	20724
642.877	19815
642.937	21090
642.997	23739
643.056	31869
643.116	21186
643.175	21747
643.235	21913
643.294	20508
643.354	21593
643.414	21790
643.473	22712
643.532	25264
643.592	28045
643.651	39475
643.711	61556
643.770	108209
643.830	245773
643.889	530301
643.948	137728
644.008	33670
644.067	25354
644.126	22174
644.186	20986
644.245	20067
644.304	17880
644.363	20042
644.423	17723
644.482	19140
644.541	18601
644.600	18000
644.659	21471
644.719	22757
644.778	28277
644.837	40037
644.896	72180
644.955	157971
645.014	60931
645.073	23278
645.132	19477
645.191	19691
645.250	18870
645.309	20231
645.368	20086
645.427	22000
645.486	27065
645.545	41413
645.604	21199
645.663	18596
645.722	17493
645.781	20076
645.840	19270
645.898	21541
645.957	27158
646.016	34428
646.075	56432
646.134	101788
646.192	258144
646.251	396328
646.310	67701
646.369	25606
646.427	23721
646.486	19362
646.545	18119
646.603	17748
646.662	17386
646.721	17422
646.779	16277
646.838	16661
646.896	18778
646.955	20981
647.014	27637
647.072	42407
647.131	101079
647.189	54848
647.248	16423
647.306	16426
647.365	15796
647.423	13704
647.481	16713
647.540	13456
647.598	16048
647.657	14778
647.715	15222
647.773	14333
647.832	15468
647.890	13603
647.948	14157
648.007	14881
648.065	13160
648.123	13597
648.181	15411
648.240	13826
648.298	13645
648.356	13183
648.414	14679
648.472	13393
648.531	14035
648.589	13781
648.647	13245
648.705	12373
648.763	14342
648.821	13948
648.879	12957
648.937	14801
648.995	15653
649.053	16811
649.111	21309
649.169	30131
649.227	47335
649.285	88051
649.343	249654
649.401	131130
649.459	48425
649.516	32850
649.574	17017
649.632	18272
649.690	18510
649.748	18102
649.806	19687
649.863	31488
649.921	72639
649.979	51242
650.037	15356
650.094	11745
650.152	13123
650.210	11775
650.268	13434
650.325	12158
650.383	13167
650.440	10688
650.498	12277
650.556	11138
650.613	10984
650.671	11767
650.728	11501
650.786	12012
650.843	12474
650.901	10489
650.958	12377
651.016	11355
651.073	10448
651.131	10368
651.188	9736
651.246	11289
651.303	9193
651.360	11002
651.418	10306
651.475	10785
651.532	10400
651.590	9975
651.647	9929
651.704	10524
651.762	10012
651.819	11055
651.876	9703
651.933	9970
651.990	10880
652.048	8448
652.105	9590
652.162	10192
652.219	9174
652.276	10181
652.333	10508
652.390	9157
652.448	11376
652.505	9271
652.562	9682
652.619	9530
652.676	10664
652.733	11906
652.790	9775
652.847	8593
652.904	10149
652.961	9454
653.017	9124
653.074	10924
653.131	10590
653.188	9002
653.245	9520
653.302	9037
653.359	9681
653.415	9802
653.472	8941
653.529	10161
653.586	8941
653.642	8933
653.699	9954
653.756	9965
653.813	9246
653.869	10584
653.926	8948
653.983	9244
654.039	9636
654.096	9829
654.152	9962
654.209	8589
654.266	9828
654.322	8827
654.379	9755
654.435	9692
654.492	10055
654.548	11817
654.605	15194
654.661	11808
654.717	9163
654.774	9032
654.830	9018
654.887	9044
654.943	9316
655.000	9130
655.056	9068
655.112	9300
655.168	8820
655.225	9674
655.281	10089
655.337	10063
655.394	11017
655.450	10955
655.506	10328
655.562	11617
655.618	11553
655.675	8126
655.731	8715
655.787	7968
655.843	9737
655.899	8469
655.955	9461
656.011	8504
656.067	7237
656.123	8903
656.179	8919
656.235	9858
656.291	7607
656.347	10010
656.403	8769
656.459	8878
656.515	8514
656.571	9663
656.627	10146
656.683	9432
656.739	9956
656.795	9398
656.850	9537
656.906	10016
656.962	9629
657.018	8391
657.074	9028
657.129	10922
657.185	12062
657.241	16667
657.297	12939
657.352	9616
657.408	9246
657.464	10537
657.519	9291
657.575	7731
657.630	9056
657.686	9425
657.742	7747
657.797	7416
657.853	7135
657.908	9938
657.964	8440
658.019	8892
658.075	8758
658.130	9154
658.186	7990
658.241	8658
658.297	8089
658.352	8737
658.407	8828
658.463	8159
658.518	8920
658.573	8682
658.629	7932
658.684	8212
658.739	8554
658.795	8307
658.850	9178
658.905	7246
658.960	8767
659.016	6848
659.071	8889
659.126	9277
659.181	9851
659.236	14503
659.291	15289
659.346	9822
659.401	9595
659.457	9326
659.512	8148
659.567	9885
659.622	8447
659.677	8152
659.732	7372
659.787	8416
659.842	8792
659.897	9312
659.952	8809
660.007	7975
660.061	8385
660.116	7514
660.171	7183
660.226	8026
660.281	8534
660.336	7802
660.391	8566
660.445	7796
660.500	8923
660.555	8261
660.610	7563
660.664	8477
660.719	8237
660.774	8144
660.828	9082
660.883	9268
660.938	8688
660.992	7231
661.047	8987
661.101	7486
661.156	7276
661.211	7681
661.265	7658
661.320	8015
661.374	8495
661.429	7639
661.483	8327
661.538	7473
661.592	7781
661.647	8200
661.701	7920
661.755	8311
661.810	8464
661.864	7688
661.919	8037
661.973	8651
662.027	7088
662.081	7537
662.136	7577
662.190	8445
662.244	7834
662.299	8262
662.353	8458
662.407	7446
662.461	8439
662.515	9167
662.569	7431
662.624	9981
662.678	7365
662.732	7448
662.786	7409
662.840	8061
662.894	7076
662.948	6920
663.002	7101
663.056	7312
663.110	7455
663.164	7215
663.218	7755
663.272	7936
663.326	8117
663.380	7785
663.434	8234
663.488	6783
663.542	6912
663.595	8158
663.649	7338
663.703	7661
663.757	7488
663.811	7138
663.864	7013
663.918	7749
663.972	7089
664.026	7036
664.079	7657
664.133	7319
664.187	7955
664.240	7236
664.294	7116
664.348	7918
664.401	7222
664.455	7189
664.508	6533
664.562	7050
664.615	8025
664.669	6934
664.722	7172
664.776	6380
664.829	7242
664.883	7073
664.936	7529
664.990	7580
665.043	7577
665.097	7609
665.150	8676
665.203	7461
665.257	7479
665.310	8380
665.363	6576
665.417	7997
665.470	7442
665.523	7171
665.576	7611
665.630	7441
665.683	7732
665.736	7002
665.789	7401
665.842	6945
665.895	7507
665.949	7277
666.002	7679
666.055	7997
666.108	8746
666.161	7258
666.214	7807
666.267	7800
666.320	9227
666.373	7292
666.426	7629
666.479	7924
666.532	8564
666.585	7532
666.638	7753
666.691	6829
666.744	8467
666.796	6971
666.849	7786
666.902	8651
666.955	7809
667.008	6627
667.060	6454
667.113	6938
667.166	7525
667.219	7230
667.271	7658
667.324	7341
667.377	7903
667.430	6996
667.482	7836
667.535	7307
667.587	8336
667.640	7941
667.693	8759
667.745	12975
667.798	13544
667.850	8695
667.903	7244
667.955	7332
668.008	7290
668.060	8268
668.113	8173
668.165	7583
668.218	7856
668.270	7931
668.322	7335
668.375	7186
668.427	7347
668.479	7292
668.532	7490
668.584	7020
668.636	7428
668.689	7816
668.741	6713
668.793	7827
668.845	7541
668.898	6937
668.950	7398
669.002	8292
669.054	7180
669.106	7744
669.158	8690
669.211	6942
669.263	7640
669.315	7999
669.367	7727
669.419	7720
669.471	8649
669.523	8134
669.575	10847
669.627	9217
669.679	7187
669.731	7953
669.783	8819
669.835	9406
669.886	8622
669.938	10057
669.990	10340
670.042	8772
670.094	10728
670.146	11035
670.197	12982
670.249	15638
670.301	17915
670.353	23950
670.404	30657
670.456	41869
670.508	65520
670.560	104388
670.611	168625
670.663	287339
670.715	548206
670.766	658424
670.818	353182
670.869	111238
670.921	54563
670.972	36787
671.024	26564
671.075	20760
671.127	16873
671.178	14964
671.230	14360
671.281	12911
671.333	12027
671.384	10664
671.436	10945
671.487	11834
671.538	12276
671.590	14442
671.641	18751
671.692	27405
671.744	49001
671.795	31217
671.846	13637
671.897	9691
671.949	8518
672.000	7996
672.051	7364
672.102	8629
672.153	7187
672.204	7081
672.256	6575
672.307	7220
672.358	7949
672.409	7212
672.460	6862
672.511	6648
672.562	7019
672.613	6681
672.664	6963
672.715	6595
672.766	6780
672.817	6005
672.868	5870
672.919	6234
672.970	5559
673.021	5860
673.071	5174
673.122	5591
673.173	6632
673.224	5289
673.275	6608
673.326	5497
673.376	5869
673.427	6477
673.478	5297
673.528	6565
673.579	6217
673.630	6507
673.680	7072
673.731	5039
673.782	5318
673.832	5818
673.883	5388
673.934	5146
673.984	5874
674.035	5054
674.085	6141
674.136	5554
674.186	6043
674.237	5954
674.287	7367
674.338	6177
674.388	6342
674.438	5867
674.489	5251
674.539	5569
674.589	5465
674.640	5492
674.690	5317
674.740	5952
674.791	5932
674.841	5156
674.891	5850
674.942	5746
674.992	5512
675.042	5190
675.092	5181
675.142	4850
675.193	4904
675.243	4908
675.293	5464
675.343	5861
675.393	5382
675.443	5942
675.493	5931
675.543	5290
675.593	5619
675.643	5159
675.693	5727
675.743	4625
675.793	4729
675.843	4007
675.893	5543
675.943	5927
675.993	4731
676.043	5142
676.093	6021
676.142	4290
676.192	4958
676.242	5592
676.292	5099
676.341	5317
676.391	4535
676.441	4685
676.491	5059
676.540	4740
676.590	5651
676.640	4628
676.689	4232
676.739	4922
676.789	4718
676.838	4876
676.888	4977
676.937	4922
676.987	4307
677.037	4960
677.086	4033
677.136	4997
677.185	4075
677.235	3831
677.284	4835
677.333	3447
677.383	4122
677.432	4001
677.482	4316
677.531	4748
677.580	4823
677.630	4711
677.679	4051
677.728	4041
677.778	4785
677.827	4555
677.876	3899
677.925	3758
677.975	4424
678.024	4366
678.073	4264
678.122	4733
678.171	5284
678.220	4062
678.269	4828
678.319	4180
678.368	4467
678.417	4832
678.466	3836
678.515	5036
678.564	4702
678.613	4354
678.662	4711
678.711	4253
678.760	4098
678.809	4056
678.857	4085
678.906	3894
678.955	3735
679.004	4317
679.053	4466
679.102	4081
679.151	3587
679.199	3541
679.248	3809
679.297	3946
679.346	3706
679.394	4324
679.443	3878
679.492	4256
679.540	3965
679.589	4373
679.638	4059
679.686	4098
679.735	5024
679.784	4151
679.832	3729
679.881	3799
679.929	3923
679.978	3808
680.026	3368
680.075	3786
680.123	3601
680.172	4288
680.220	4259
680.268	3919
680.317	3771
680.365	3193
680.414	3854
680.462	3717
680.510	4273
680.559	3556
680.607	3902
680.655	4127
680.703	3924
680.752	3757
680.800	3196
680.848	3520
680.896	3332
680.945	3847
680.993	3617
681.041	3319
681.089	3182
681.137	2707
681.185	3506
681.233	3890
681.258	3621
681.281	3303
681.329	3380
681.377	2954
681.380	3076
681.425	4088
681.473	4530
681.502	4534
681.521	4422
681.569	5740
681.617	4500
681.624	4571
681.665	4572
681.713	5582
681.745	5220
681.761	4950
681.809	5080
681.857	6222
681.867	6007
681.904	4989
681.952	5448
681.989	5139
682.000	4974
682.048	5917
682.096	5579
682.111	5560
682.143	5321
682.191	5954
682.233	6480
682.239	6490
682.286	6077
682.334	6028
682.354	6114
682.382	6107
682.430	7212
682.476	6565
682.477	6496
682.525	6591
682.572	6761
682.598	6647
682.620	6466
682.667	7668
682.715	7454
682.720	7563
682.763	7943
682.810	7913
682.841	8028
682.857	8001
682.905	7294
682.952	8493
682.963	8477
683.000	8248
683.047	7568
683.085	9359
683.095	9779
683.142	8723
683.190	8127
683.206	8417
683.237	8779
683.284	9566
683.328	8484
683.332	8346
683.379	8647
683.426	9542
683.449	9431
683.473	9262
683.521	9972
683.568	10313
683.571	10350
683.615	10138
683.662	10366
683.693	10477
683.709	10470
683.757	10021
683.804	10631
683.814	10684
683.851	10615
683.898	10647
683.936	10829
683.945	10857
683.992	11494
684.039	11272
684.057	11586
684.086	11939
684.133	11791
684.179	11576
684.180	11529
684.227	12356
684.274	12350
684.300	12766
684.321	13028
684.368	12387
684.415	12827
684.422	12918
684.462	13090
684.509	12213
684.543	11979
684.556	11873
684.603	12654
684.649	12480
684.665	12756
684.696	13285
684.743	12799
684.786	13476
684.790	13499
684.837	12922
684.883	13831
684.908	13853
684.930	13945
684.977	14734
685.023	14462
685.029	14592
685.070	14857
685.117	14827
685.150	14442
685.164	14386
685.210	15419
685.257	15740
685.272	16001
685.303	16263
685.350	15675
685.393	15367
685.396	15338
685.443	16760
685.490	16919
685.514	16989
685.536	16744
685.583	16490
685.629	15728
685.636	15774
685.675	16112
685.722	16195
685.757	16365
685.768	16415
685.815	15665
685.861	16848
685.878	16721
685.908	16516
685.954	16526
686.000	17076
686.000	17068
686.047	17383
686.093	17211
686.121	17765
686.139	18147
686.185	18048
686.232	17766
686.242	17816
686.278	17627
686.324	18561
686.363	18117
686.370	18036
686.416	17794
686.463	17830
686.484	17652
686.509	17513
686.555	17480
686.601	17888
686.606	17864
686.647	17682
686.693	17891
686.727	18146
686.739	18165
686.785	17854
686.831	17905
686.848	18085
686.877	18566
686.923	18732
686.969	18932
686.969	18929
687.015	19404
687.061	19117
687.090	18888
687.107	18746
687.153	19353
687.199	18958
687.211	19100
687.245	19552
687.291	19525
687.332	19612
687.336	19638
687.382	19792
687.428	19936
687.453	20208
687.474	20281
687.520	20207
687.565	20016
687.574	19963
687.611	19856
687.657	20035
687.695	20449
687.702	20564
687.748	21051
687.794	21042
687.816	20896
687.839	20492
687.885	21108
687.931	20550
687.937	20499
687.976	20775
688.022	20781
688.058	21611
688.067	21799
688.113	21140
688.158	22180
688.179	22196
688.204	22064
688.249	22317
688.295	21961
688.300	21948
688.340	22257
688.386	22550
688.421	22613
688.431	22596
688.477	21951
688.522	22846
688.542	22845
688.567	22861
688.613	22552
688.658	22398
688.663	22334
688.703	22120
688.749	22643
688.784	23118
688.794	23266
688.839	23399
688.884	23107
688.905	23099
688.930	23033
688.975	22849
689.020	23408
689.026	23341
689.065	23313
689.110	23268
689.146	23642
689.155	23657
689.201	23517
689.246	23181
689.267	23139
689.291	23396
689.336	23343
689.381	23579
689.388	23578
689.426	23563
689.471	23922
689.509	23701
689.516	23733
689.561	24000
689.606	24270
689.630	24527
689.651	24551
689.696	23914
689.741	24107
689.750	23951
689.785	23720
689.830	23570
689.871	23415
689.875	23432
689.920	24220
689.965	24006
689.992	23931
690.010	23936
690.054	24480
690.099	23940
690.112	24115
690.144	24729
690.189	24799
690.233	24895
690.233	24925
690.278	24272
690.323	24381
690.354	24057
690.367	24147
690.412	24244
690.457	24927
690.474	25037
690.501	24910
690.546	24580
690.590	24673
690.595	24558
690.635	24407
690.680	24773
690.716	25067
690.724	25103
690.769	25417
690.813	25257
690.836	24992
690.857	25157
690.902	25904
690.946	26376
690.957	26513
690.991	27212
691.035	27995
691.077	28557
691.080	28599
691.124	29003
691.168	29108
691.198	28713
691.213	28367
691.257	28184
691.301	26991
691.318	26861
691.346	27069
691.390	26947
691.434	26666
691.439	26642
691.478	27091
691.522	27008
691.559	27312
691.567	27461
691.611	28276
691.655	28417
691.680	28418
691.699	28286
691.743	28164
691.787	28059
691.800	28032
691.831	28447
691.875	28878
691.919	28904
691.921	28868
691.964	29181
692.008	29508
692.041	29419
692.052	29415
692.096	29525
692.139	29438
692.162	29353
692.183	29332
692.227	29394
692.271	29064
692.282	28950
692.315	28887
692.359	28873
692.402	29010
692.403	29065
692.447	29138
692.490	29462
692.523	29410
692.534	29493
692.578	29686
692.622	29991
692.643	29972
692.666	29797
692.709	29768
692.753	29600
692.763	29385
692.797	29314
692.840	29857
692.884	30018
692.884	30075
692.928	29921
692.971	29744
693.004	29694
693.015	29772
693.059	29934
693.102	29587
693.124	29463
693.146	29534
693.189	29791
693.233	29913
693.245	29931
693.276	30479
693.320	30784
693.363	31248
693.365	31199
693.407	31068
693.450	31193
693.485	30740
693.493	30690
693.537	30739
693.580	30813
693.605	30512
693.624	30797
693.667	31515
693.710	32224
693.725	32403
693.753	33544
693.797	35193
693.840	37303
693.845	37408
693.883	36620
693.926	35754
693.966	35163
693.970	35128
694.013	33606
694.056	32133
694.086	31202
694.099	31350
694.142	31633
694.185	31799
694.206	31850
694.229	32078
694.272	32418
694.315	32569
694.326	32559
694.358	32823
694.401	32974
694.444	33468
694.446	33401
694.487	33642
694.530	33863
694.566	34176
694.573	34115
694.616	33098
694.659	31998
694.686	31316
694.702	31333
694.745	31222
694.787	31031
694.806	30913
694.830	31242
694.873	31385
694.916	31875
694.926	31924
694.959	32014
695.002	31700
695.044	31707
695.046	31639
695.087	32311
695.130	32584
695.166	33005
695.172	33148
695.215	33351
695.258	33760
695.286	33824
695.301	33707
695.343	33239
695.386	32823
695.406	32540
695.428	32735
695.471	33002
695.514	32893
695.526	32939
695.556	33678
695.599	34464
695.641	34976
695.646	34974
695.684	34914
695.726	34858
695.766	34620
695.769	34684
695.811	34329
695.854	34102
695.886	33847
695.896	33954
695.938	34107
695.981	34170
696.005	34085
696.023	34352
696.065	34926
696.108	35548
696.125	35662
696.150	35806
696.192	35894
696.235	36081
696.245	36040
696.277	35986
696.319	35785
696.361	35574
696.365	35464
696.404	35444
696.446	35442
696.485	35322
696.488	35436
696.530	35741
696.572	36047
696.604	36337
696.614	36355
696.656	35788
696.698	35469
696.724	35006
696.740	35030
696.783	35059
696.825	35211
696.844	35061
696.867	35188
696.909	35402
696.951	35640
696.964	35624
696.992	35672
697.034	35592
697.076	35532
697.083	35425
697.118	35710
697.160	35960
697.202	36217
697.203	36132
697.244	35922
697.286	35749
697.323	35390
697.327	35510
697.369	35865
697.411	36151
697.442	36239
697.453	36364
697.494	36590
697.536	36784
697.562	36859
697.578	37024
697.620	37062
697.661	37203
697.682	37181
697.703	37620
697.744	38306
697.786	38953
697.801	39106
697.828	39635
697.869	40251
697.911	40868
697.921	40909
697.952	39777
697.994	38208
698.035	36619
698.040	36337
698.077	36528
698.118	36567
698.160	36632
698.160	36538
698.201	36460
698.243	36225
698.279	35971
698.284	36104
698.325	36458
698.367	36779
698.399	36978
698.408	37157
698.449	37477
698.491	37841
698.518	37979
698.532	38163
698.573	38416
698.614	38688
698.638	38724
698.656	38794
698.697	38737
698.738	38676
698.757	38550
698.779	38829
698.820	39158
698.862	39491
698.877	39513
698.903	39736
698.944	39912
698.985	40102
698.996	40049
699.026	39863
699.067	39459
699.116	38877
699.235	38240
699.354	38070
699.474	37827
699.593	39900
699.713	39054
699.832	38407
699.951	38441
700.070	38598
700.190	36777
700.309	37033
700.428	36850
700.547	37016
700.667	36776
700.786	36875
700.905	35981
701.024	37349
701.143	35517
701.262	35627
701.381	35798
701.500	37113
701.619	37075
701.738	36489
701.857	36355
701.976	34962
702.095	34898
702.214	35622
702.333	36852
702.452	36504
702.571	34747
702.690	35066
702.809	34934
702.928	34386
703.047	34364
703.165	35199
703.284	33671
703.403	33919
703.522	33599
703.640	33173
703.759	34506
703.878	35656
703.997	33491
704.115	33284
704.234	32498
704.353	32401
704.471	32070
704.590	31933
704.708	30937
704.827	31535
704.946	30740
705.064	31762
705.183	30917
705.301	34156
705.420	39504
705.538	38125
705.656	34126
705.775	33023
705.893	36233
706.012	38121
706.130	35136
706.249	35202
706.367	34415
706.485	35447
706.604	33302
706.722	35298
706.840	36116
706.958	35688
707.077	34822
707.195	33405
707.313	32966
707.431	32145
707.549	32927
707.668	32043
707.786	31666
707.904	31332
708.022	32252
708.140	32550
708.258	31284
708.376	33233
708.494	32342
708.612	33685
708.730	39321
708.848	38849
708.966	37128
709.084	36611
709.202	34470
709.320	35603
709.438	34487
709.556	34960
709.674	33582
709.791	34857
709.909	34466
710.027	33809
710.145	32390
710.263	33603
710.380	32731
710.498	32853
710.616	32519
710.733	31706
710.851	31796
710.969	32445
711.086	32116
711.204	32061
711.322	31710
711.439	31985
711.557	31139
711.674	31528
711.792	30861
711.909	30389
712.027	30156
712.144	30970
712.262	31085
712.379	31028
712.497	37818
712.614	38689
712.732	35067
712.849	33903
712.966	34228
713.084	38103
713.201	35388
713.318	35713
713.436	34159
713.553	34222
713.670	33696
713.787	35251
713.905	34355
714.022	34447
714.139	32958
714.256	35990
714.373	36864
714.490	45026
714.608	70820
714.725	232923
714.842	284936
714.959	42820
715.076	34052
715.193	32628
715.310	31957
715.427	31667
715.544	29651
715.661	31398
715.778	30265
715.895	32677
716.011	32004
716.128	31710
716.245	30635
716.362	33002
716.479	32701
716.596	30059
716.713	30059
716.829	29385
716.946	29153
717.063	28246
717.180	28224
717.296	28621
717.413	28858
717.530	28226
717.646	27857
717.763	27778
717.880	25775
717.996	27585
718.113	27771
718.229	26605
718.346	26050
718.462	26854
718.579	29092
718.695	39395
718.812	31652
718.928	27666
719.045	26383
719.161	26306
719.277	25075
719.394	25366
719.510	26026
719.626	26351
719.743	28695
719.859	29820
719.975	35308
720.092	76828
720.208	172768
720.324	40920
720.440	26173
720.557	27708
720.673	33255
720.789	34484
720.905	41083
721.021	30079
721.137	24781
721.253	24943
721.369	23486
721.486	24086
721.602	26352
721.718	24426
721.834	22853
721.950	24557
722.066	23258
722.181	23292
722.297	23827
722.413	23236
722.529	22897
722.645	22909
722.761	21866
722.877	22510
722.993	21763
723.108	23036
723.224	21099
723.340	21919
723.456	21927
723.571	22022
723.687	21087
723.803	21844
723.918	22223
724.034	20971
724.150	21493
724.265	22366
724.381	26047
724.497	29001
724.612	20606
724.728	20051
724.843	20682
724.959	21302
725.074	24487
725.190	26868
725.305	20128
725.421	20791
725.536	19506
725.651	20132
725.767	18717
725.882	19742
725.997	19829
726.113	20819
726.228	18074
726.343	19445
726.459	18661
726.574	19424
726.689	17655
726.804	18469
726.920	19330
727.035	19330
727.150	19330
727.265	18264
727.380	19199
727.495	19240
727.610	17846
727.725	18830
727.841	18836
727.956	19206
728.071	19926
728.186	18514
728.301	17062
728.416	17996
728.531	18063
728.645	18174
728.760	18126
728.875	18314
728.990	17516
729.105	18650
729.220	18502
729.335	18692
729.449	18156
729.564	17385
729.679	16993
729.794	17818
729.908	17853
730.023	17896
730.138	16850
730.253	17081
730.367	16998
730.482	17440
730.596	17374
730.711	18336
730.826	17252
730.940	17734
731.055	17143
731.169	16896
731.284	16708
731.398	17037
731.513	16624
731.627	16862
731.742	17324
731.856	18360
731.970	18170
732.085	18467
732.199	19341
732.313	21514
732.428	33556
732.542	85463
732.656	63182
732.771	21898
732.885	18630
732.999	18688
733.113	19727
733.227	18704
733.342	18028
733.456	17720
733.570	16563
733.684	17764
733.798	17846
733.912	17206
734.026	17728
734.140	16970
734.254	17147
734.368	20064
734.482	21190
734.596	16885
734.710	17211
734.824	17654
734.938	16723
735.052	16764
735.166	16658
735.280	17390
735.393	16539
735.507	16908
735.621	17843
735.735	19038
735.849	16838
735.962	16291
736.076	15869
736.190	15646
736.303	16618
736.417	19061
736.531	15312
736.644	16952
736.758	14139
736.872	15600
736.985	15710
737.099	15678
737.212	14401
737.326	15838
737.439	15276
737.553	15407
737.666	15164
737.780	14373
737.893	14833
738.007	14394
738.120	14813
738.233	14279
738.347	15230
738.460	14764
738.573	15367
738.687	15112
738.800	15839
738.913	16640
739.026	14666
739.140	14502
739.253	14088
739.366	15130
739.479	14530
739.592	13643
739.705	14545
739.818	14100
739.932	13712
740.045	15016
740.158	14070
740.271	14021
740.384	14290
740.497	13944
740.610	14252
740.723	13114
740.836	14270
740.949	13589
741.062	15576
741.174	15412
741.287	13461
741.400	14005
741.513	13700
741.626	13853
741.739	12966
741.851	13644
741.964	13942
742.077	13957
742.189	13219
742.302	13312
742.415	12949
742.527	13355
742.640	13094
742.753	13303
742.865	13248
742.978	13660
743.090	12153
743.203	13842
743.316	12778
743.428	12619
743.541	12900
743.653	12328
743.766	12482
743.878	13063
743.990	12456
744.103	14328
744.215	13107
744.327	12756
744.440	14185
744.552	17341
744.664	13337
744.777	12692
744.889	12002
745.001	12642
745.113	11118
745.226	11464
745.338	11915
745.450	11354
745.562	12554
745.674	11376
745.786	12534
745.898	11518
746.010	11968
746.122	11824
746.234	12777
746.347	12391
746.459	11006
746.570	11798
746.682	12252
746.794	12584
746.906	11339
747.018	11224
747.130	11379
747.242	11807
747.354	10977
747.466	12711
747.577	10932
747.689	12160
747.801	11541
747.913	11114
748.024	11578
748.136	11071
748.248	11370
748.359	11416
748.471	10938
748.583	11324
748.694	10437
748.806	11185
748.918	11080
749.029	11025
749.141	11409
749.252	12054
749.364	11425
749.475	16166
749.587	13069
749.698	11218
749.809	10737
749.921	11256
750.032	11145
750.144	11019
750.255	10498
750.366	10498
750.478	9912
750.589	11186
750.700	10892
750.811	11306
750.923	11989
751.034	17312
751.145	17675
751.256	10771
751.367	9946
751.479	10470
751.590	10300
751.701	10426
751.812	9862
751.923	9925
752.034	9945
752.145	9819
752.256	9521
752.367	10113
752.478	10257
752.589	9762
752.700	9922
752.811	10729
752.922	10161
753.032	11084
753.143	11884
753.254	9674
753.365	10631
753.476	9398
753.586	9215
753.697	9912
753.808	9754
753.919	9213
754.029	8991
754.140	9198
754.251	9826
754.361	9515
754.472	9233
754.582	9889
754.693	9202
754.804	10350
754.914	9624
755.025	8973
755.135	8979
755.246	9426
755.356	8765
755.466	9678
755.577	8963
755.687	10127
755.798	9293
755.908	8978
756.018	8445
756.129	9487
756.239	8944
756.349	9160
756.460	8447
756.570	9816
756.680	8881
756.790	9986
756.900	10099
757.011	8763
757.121	8903
757.231	8191
757.341	9115
757.451	8705
757.561	8797
757.671	8758
757.781	9518
757.891	9223
758.001	9803
758.111	9552
758.221	9367
758.331	9959
758.441	9456
758.551	11292
758.661	10764
758.771	9523
758.880	9514
758.990	9570
759.100	8259
759.210	8821
759.320	9139
759.429	8206
759.539	8739
759.649	9090
759.758	8554
759.868	9440
759.978	8966
760.087	10241
760.197	9749
760.307	9232
760.416	8907
760.526	8624
760.635	8816
760.745	8694
760.854	8566
760.964	9269
761.073	9393
761.182	9195
761.292	9166
761.401	9590
761.511	9318
761.620	8947
761.729	8835
761.839	9771
761.948	8582
762.057	9111
762.166	8528
762.276	7721
762.385	9092
762.494	9141
762.603	8819
762.712	8576
762.822	8776
762.931	8835
763.040	7510
763.149	8009
763.258	8214
763.367	10093
763.476	8479
763.585	8567
763.694	8303
763.803	9191
763.912	9491
764.021	9059
764.130	8917
764.238	9395
764.347	8587
764.456	8946
764.565	9105
764.674	9333
764.783	8501
764.891	9479
765.000	9980
765.109	10444
765.217	9871
765.326	11400
765.435	11514
765.543	12209
765.652	12803
765.761	14811
765.869	17642
765.978	23573
766.086	36264
766.195	65314
766.303	157374
766.412	449500
766.520	450770
766.629	128886
766.737	46428
766.846	28907
766.954	20644
767.062	18644
767.171	15099
767.279	13396
767.387	11429
767.496	12199
767.604	10828
767.712	10908
767.820	11080
767.928	10308
768.037	9727
768.145	11613
768.253	10007
768.361	9918
768.469	9981
768.577	9866
768.685	10373
768.793	10590
768.901	11228
769.009	11398
769.117	10154
769.225	12103
769.333	14048
769.441	19140
769.549	30000
769.657	58976
769.765	179447
769.873	421094
769.981	176008
770.088	40263
770.196	21683
770.304	16656
770.412	14175
770.519	13619
770.627	10973
770.735	10917
770.842	10102
770.950	10309
771.058	10633
771.165	9761
771.273	8946
771.380	9809
771.488	9654
771.595	10299
771.703	9178
771.810	9822
771.918	9423
772.025	10256
772.133	10057
772.240	10214
772.348	11140
772.455	10844
772.562	9111
772.670	10214
772.777	10650
772.884	9776
772.991	9625
773.099	9330
773.206	9401
773.313	9340
773.420	8806
773.528	8687
773.635	9151
773.742	10260
773.849	8819
773.956	8507
774.063	8961
774.170	8498
774.277	9082
774.384	8322
774.491	9033
774.598	9921
774.705	9984
774.812	10585
774.919	9629
775.026	10698
775.133	9234
775.239	9217
775.346	8317
775.453	9344
775.560	8425
775.667	8853
775.773	8518
775.880	9554
775.987	9103
776.093	9354
776.200	9380
776.307	8618
776.413	8251
776.520	8021
776.627	8263
776.733	7857
776.840	7039
776.946	9573
777.053	8764
777.159	8580
777.266	7268
777.372	9082
777.478	8175
777.585	9242
777.691	8163
777.798	8340
777.904	8832
778.010	10076
778.117	9686
778.223	8155
778.329	8012
778.435	7976
778.542	8480
778.648	8559
778.754	8115
778.860	8921
778.966	7639
779.072	7702
779.178	8178
779.284	8242
779.391	7633
779.497	7093
779.603	8869
779.708	7938
779.815	9011
779.920	12886
780.026	21999
780.132	9593
780.238	7742
780.344	6871
780.450	7884
780.556	7631
780.661	7792
780.767	8596
780.873	7619
780.979	7685
781.085	6929
781.190	7081
781.296	6686
781.402	6851
781.507	6857
781.613	7129
781.719	6935
781.824	7769
781.930	8035
782.035	7625
782.141	8416
782.246	7619
782.352	7121
782.457	6888
782.563	6606
782.668	7656
782.773	7931
782.879	7019
782.984	7413
783.090	8520
783.195	9800
783.300	8281
783.405	6933
783.511	6926
783.616	7763
783.721	7666
783.826	6250
783.932	7361
784.037	7316
784.142	7186
784.247	6860
784.352	7578
784.457	6589
784.562	6038
784.667	6578
784.772	8378
784.877	6369
784.982	6363
785.087	6707
785.192	7773
785.297	6559
785.402	6187
785.507	7069
785.611	6662
785.716	6559
785.821	6768
785.926	6240
786.031	6179
786.135	6222
786.240	6828
786.345	5564
786.450	6802
786.554	6141
786.659	6004
786.763	5215
786.868	7578
786.973	6824
787.077	6847
787.182	6743
787.286	6243
787.391	6769
787.495	6750
787.600	5682
787.704	6314
787.809	6980
787.913	6639
788.017	6578
788.122	7133
788.226	5770
788.330	5736
788.435	4990
788.539	7134
788.643	5583
788.747	6736
788.852	6357
788.956	5972
789.060	6027
789.164	6049
789.268	5036
789.372	6444
789.476	6295
789.580	5559
789.684	5566
789.788	7105
789.892	5169
789.996	5975
790.100	6186
790.204	6301
790.308	6310
790.412	6305
790.516	5379
790.620	5680
790.724	6209
790.828	5978
790.931	4887
791.035	6612
791.139	5071
791.242	5551
791.346	6461
791.450	7278
791.554	6000
791.657	4949
791.761	6512
791.864	6739
791.968	5562
792.072	5992
792.175	5814
792.279	5389
792.382	5883
792.486	6140
792.589	4911
792.693	5401
792.796	4022
792.899	6394
793.003	5306
793.106	4789
793.209	5717
793.313	6819
793.416	3817
793.519	6304
793.623	7207
793.726	9193
793.829	6361
793.932	5674
794.035	4846
794.138	6523
794.242	5187
794.345	5290
794.448	6765
794.551	7319
794.654	10449
794.757	12146
794.860	6676
794.963	6696
795.066	5164
795.169	5773
795.272	4651
795.375	5219
795.477	4417
795.580	5849
795.683	4754
795.786	4995
795.889	3590
795.991	5526
796.094	5585
796.197	4643
796.300	5887
796.402	4796
796.505	4543
796.608	5010
796.710	4518
796.813	5098
796.915	4013
797.018	5837
797.120	4947
797.223	3713
797.326	6302
797.428	4159
797.530	4299
797.633	5357
797.735	6136
797.838	4934
797.940	6009
798.042	5146
798.145	4427
798.247	5748
798.349	3778
798.452	4803
798.554	4661
798.656	4417
798.758	6138
798.860	4479
798.962	4460
799.065	4545
799.167	4011
799.269	4971
799.371	5867
799.473	5300
799.575	4971
799.677	4838
799.779	6368
799.881	6251
799.983	5743
800.085	5135
800.187	4752
800.289	4648
800.390	3985
800.492	4519
800.594	5084
800.696	4332
800.798	4153
800.899	4613
801.001	4383
801.103	4402
801.205	4241
801.306	5051
801.408	3824
801.509	3545
801.611	4394
801.713	5025
801.814	3828
801.916	4875
802.017	4070
802.119	3896
802.220	4243
802.322	3723
802.423	6019
802.525	4021
802.626	4264
802.727	5601
802.829	5090
802.930	2621
803.031	6252
803.133	4789
803.234	4227
803.335	4723
803.436	3702
803.538	4290
803.639	2936
803.740	5048
803.841	3887
803.942	4353
804.043	4347
804.144	3849
804.245	4181
804.346	3538
804.447	4190
804.548	5079
804.649	6627
804.750	4608
804.851	3637
804.952	4188
805.053	3883
805.154	3491
805.255	4459
805.355	4495
805.456	3716
805.557	3655
805.658	2857
805.758	4537
805.859	3203
805.960	4624
806.061	3581
806.161	3751
806.262	3957
806.362	3720
806.463	3584
806.564	4011
806.664	3717
806.765	4376
806.865	4939
806.966	4210
807.066	3398
807.166	4403
807.267	4151
807.367	4268
807.468	4293
807.568	3312
807.668	3869
807.769	4510
807.869	3564
807.969	4059
808.069	4436
808.170	4371
808.270	3966
808.370	4748
808.470	4847
808.570	3911
808.670	3841
808.770	4386
808.870	3399
808.970	4268
809.070	3456
809.170	3551
809.271	4176
809.370	4696
809.470	4075
809.570	3562
809.670	3416
809.770	3867
809.870	4013
809.970	3785
810.070	3042
810.169	4584
810.269	2564
810.369	5285
810.469	3733
810.568	4066
810.668	2696
810.768	4145
810.867	4003
810.967	3681
811.066	3518
811.166	4727
811.265	4244
811.365	3908
811.464	3264
811.564	3888
811.663	4644
811.763	3190
811.862	3368
811.962	4746
812.061	3855
812.160	3101
812.260	4401
812.359	5711
812.458	8271
812.557	20503
812.657	31377
812.756	9808
812.855	4773
812.954	4148
813.053	4011
813.153	4207
813.252	3049
813.351	4950
813.450	3945
813.549	3332
813.648	3813
813.747	2738
813.846	3910
813.945	4310
814.044	3434
814.143	3328
814.242	3493
814.341	3077
814.439	4305
814.538	4942
814.637	3178
814.736	3436
814.835	4288
814.933	3215
815.032	4152
815.131	4123
815.229	4457
815.328	5368
815.427	4095
815.525	5397
815.624	4240
815.722	4491
815.821	4589
815.919	5509
816.018	4640
816.116	5369
816.215	5010
816.313	5338
816.412	5373
816.510	5893
816.609	6481
816.707	5497
816.805	5749
816.904	5405
817.002	6448
817.100	6909
817.198	6556
817.296	5899
817.395	6588
817.493	7720
817.591	6944
817.689	8368
817.787	10220
817.885	15360
817.983	22420
818.081	45749
818.179	103467
818.277	256480
818.375	231017
818.473	62556
818.571	23572
818.669	16673
818.767	16135
818.865	15272
818.963	16974
819.061	24450
819.158	39791
819.256	80394
819.354	176007
819.452	365277
819.549	257679
819.647	78768
819.745	32659
819.842	20422
819.940	14220
820.038	11262
820.135	9846
820.233	9651
820.330	7329
820.428	7000
820.525	7180
820.623	5983
820.720	5308
820.818	5970
820.915	6089
821.012	5790
821.110	4549
821.207	6359
821.304	3855
821.402	4820
821.499	6219
821.596	4764
821.693	5231
821.791	5799
821.888	5698
821.985	9799
822.082	7560
822.179	4983
822.276	4052
822.373	4371
822.470	3371
822.567	5232
822.664	3277
822.761	4762
822.858	3810
822.955	4778
823.052	4604
823.149	3838
823.246	4935
823.343	3754
823.440	4671
823.536	4269
823.633	3934
823.730	3945
823.827	3745
823.923	4316
824.020	4126
824.117	4092
824.213	4273
824.310	4535
824.407	3207
824.503	3919
824.600	4442
824.696	3802
824.793	5112
824.889	3717
824.986	3584
825.082	3259
825.179	3576
825.275	4116
825.371	3479
825.468	5280
825.564	2167
825.660	3714
825.757	4284
825.853	4252
825.949	2324
826.045	3180
826.142	3025
826.238	3783
826.334	3843
826.430	3305
826.526	4089
826.622	3406
826.718	3311
826.814	4223
826.910	4001
827.006	3343
827.102	2388
827.198	4413
827.294	3105
827.390	3908
827.486	3862
827.582	2570
827.678	2593
827.774	4507
827.869	3070
827.965	4503
828.061	2988
828.157	3432
828.252	4127
828.348	3195
828.444	3879
828.539	2578
828.635	3828
828.731	4015
828.826	2726
828.922	3968
829.017	2809
829.113	4066
829.208	2889
829.304	2960
829.399	4478
829.495	3340
829.590	2953
829.685	3495
829.781	4749
829.876	3413
829.971	2864
830.066	3278
830.162	2819
830.257	3504
830.352	2626
830.447	3931
830.543	2715
830.638	2593
830.733	4101
830.828	2722
830.923	3778
831.018	2248
831.113	3652
831.208	1884
831.303	3175
831.398	3299
831.493	2546
831.588	4205
831.683	2019
831.778	2615
831.873	2891
831.967	3452
832.062	2321
832.157	2729
832.252	2938
832.346	2800
832.441	4282
832.536	4784
832.631	9583
832.725	8725
832.820	3460
832.914	2697
833.009	2961
833.104	3961
833.198	4126
833.293	3286
833.387	3863
833.482	3161
833.576	2908
833.670	3242
833.765	3078
833.859	2977
833.954	3492
834.048	3505
834.142	3188
834.237	2216
834.331	3032
834.425	2997
834.519	2399
834.613	3366
834.708	2891
834.802	2845
834.896	2116
834.990	3540
835.084	2974
835.178	2747
835.272	2799
835.366	3351
835.460	2838
835.554	3167
835.648	2492
835.742	2429
835.836	2851
835.930	1821
836.024	3082
836.117	3415
836.211	3099
836.305	3312
836.399	3083
836.493	2745
836.586	3731
836.680	1042
836.774	2422
836.867	3204
836.961	1946
837.055	2675
837.148	2659
837.242	2681
837.335	2463
837.429	3067
837.522	2633
837.616	4014
837.709	4321
837.803	2833
837.896	2992
837.989	3035
838.083	3491
838.176	4704
838.269	2416
838.363	3490
838.456	2640
838.549	4452
838.642	5251
838.735	10573
838.829	5645
838.922	2643
839.015	2604
839.108	2741
839.201	3241
839.294	3021
839.387	2516
839.480	2454
839.573	3068
839.666	2353
839.759	2542
839.852	1890
839.945	2202
840.038	2710
840.131	2708
840.223	2456
840.316	2421
840.409	2661
840.502	1498
840.594	2796
840.687	985
840.780	1727
840.873	2273
840.965	2272
841.058	2409
841.150	4260
841.243	2430
841.336	3089
841.428	2527
841.521	2333
841.613	1763
841.706	3083
841.798	1860
841.890	2644
841.983	2539
842.075	3324
842.167	2870
842.260	2842
842.352	2807
842.444	2521
842.537	3072
842.629	4783
842.721	3050
842.813	2679
842.905	2019
842.997	2707
843.090	2974
843.182	3671
843.274	2840
843.366	5784
843.458	9199
843.550	7883
843.642	2768
843.734	2858
843.826	2311
843.918	3819
844.009	2388
844.101	2328
844.193	2602
844.285	2481
844.377	1989
844.469	3477
844.560	1824
844.652	1364
844.744	2505
844.835	2675
844.927	2708
845.019	3185
845.110	2803
845.202	2430
845.293	2753
845.385	1940
845.476	2348
845.568	2945
845.659	2314
845.751	3469
845.842	1542
845.934	2095
846.025	1880
846.116	1763
846.208	1715
846.299	2373
846.390	2177
846.482	2225
846.573	3211
846.664	3591
846.755	3788
846.846	4819
846.937	1728
847.029	3098
847.120	2494
847.211	1482
847.302	2956
847.393	1891
847.484	2596
847.575	1842
847.666	2058
847.757	2281
847.847	2195
847.938	3265
848.029	1777
848.120	3379
848.211	2302
848.302	2441
848.392	1784
848.483	1926
848.574	1924
848.664	2216
848.755	2445
848.846	2932
848.936	1267
849.027	3070
849.118	1949
849.208	2102
849.299	2504
849.389	3489
849.480	4046
849.570	5410
849.661	7203
849.751	13011
849.841	6813
849.932	2703
850.022	1484
850.112	1920
850.203	2011
850.293	2076
850.383	2131
850.474	1546
850.564	2009
850.654	2134
850.744	1557
850.834	2794
850.924	2183
851.014	1859
851.104	1519
851.194	2573
851.284	1658
851.374	3416
851.464	2308
851.554	2320
851.644	1514
851.734	2337
851.824	2233
851.914	2024
852.004	2777
852.094	1839
852.183	1614
852.273	2386
852.363	1727
852.452	1711
852.542	995
852.632	1031
852.721	2047
852.811	1659
852.901	2063
852.990	2328
853.080	1683
853.169	2462
853.259	1849
853.348	2037
853.438	2241
853.527	2278
853.617	2266
853.706	4149
853.795	6449
853.885	13652
853.974	23288
854.063	39866
854.152	71468
854.242	28977
854.331	6180
854.420	3149
854.509	2207
854.598	2856
854.687	2348
854.777	2472
854.866	1636
854.955	2485
855.044	2024
855.133	1585
855.222	1571
855.311	2426
855.400	2035
855.488	2925
855.577	1747
855.666	1694
855.755	2459
855.844	1736
855.933	1693
856.021	1871
856.110	1978
856.199	1583
856.288	1234
856.376	1653
856.465	1424
856.554	2236
856.642	1969
856.731	1545
856.819	2502
856.908	1263
856.996	1888
857.085	2217
857.173	1756
857.262	1738
857.350	1274
857.438	1468
857.527	1995
857.615	1443
857.703	1916
857.792	2137
857.880	2039
857.968	2418
858.056	1474
858.145	1474
858.233	1965
858.321	2327
858.409	2277
858.497	1476
858.585	1676
858.673	2245
858.761	1804
858.849	1264
858.937	2223
859.025	1609
859.113	1767
859.201	1676
859.289	2157
859.377	1276
859.465	1939
859.552	1987
859.640	1048
859.728	1828
859.816	2134
859.903	2592
859.991	1697
860.079	2051
860.166	2085
860.254	1011
860.342	2717
860.429	1805
860.517	1061
860.604	1940
860.692	1174
860.779	2060
860.867	2122
860.954	2195
861.042	1855
861.129	2655
861.216	1984
861.304	1337
861.391	1999
861.478	2206
861.565	2074
861.653	2043
861.740	623
861.827	1892
861.914	1553
862.001	1357
862.089	1801
862.176	1992
862.263	1888
862.350	1818
862.437	1464
862.524	1719
862.611	1133
862.698	2165
862.785	1940
862.871	1361
862.958	1277
863.045	1873
863.132	1257
863.219	1680
863.306	502
863.392	2478
863.479	2261
863.566	1588
863.652	1867
863.739	2368
863.826	1784
863.912	1746
863.999	1467
864.086	2591
864.172	1941
864.259	1615
864.345	1756
864.432	2351
864.518	1647
864.604	1905
864.691	1241
864.777	2238
864.863	1798
864.950	2453
865.036	2044
865.122	3725
865.209	4031
865.295	2865
865.381	3181
865.467	2526
865.553	3521
865.639	3803
865.726	5060
865.812	8083
865.898	14419
865.984	19423
866.070	33683
866.156	42028
866.242	11945
866.328	4900
866.414	2958
866.499	3283
866.585	3072
866.671	3079
866.757	2353
866.843	3450
866.928	2258
867.014	2417
867.100	3842
867.186	3599
867.271	2790
867.357	3937
867.442	3158
867.528	3584
867.614	1928
867.699	2930
867.785	2766
867.870	1683
867.956	2152
868.041	2803
868.127	3126
868.212	2721
868.297	2648
868.383	3118
868.468	3582
868.553	5611
868.639	6550
868.724	10436
868.809	10981
868.894	4596
868.979	2572
869.065	2863
869.150	1427
869.235	2321
869.320	2607
869.405	2304
869.490	2257
869.575	2424
869.660	2102
869.745	2593
869.830	1924
869.915	2297
870.000	1883
870.085	1457
870.169	2477
870.254	3164
870.339	1779
870.424	1839
870.509	2306
870.593	3042
870.678	2250
870.763	2356
870.847	2640
870.932	2198
871.016	1495
871.101	1315
871.186	2454
871.270	2589
871.355	1338
871.439	2483
871.523	1956
871.608	2028
871.692	1322
871.777	2743
871.861	2172
871.945	1625
872.030	1928
872.114	1505
872.198	1796
872.282	1972
872.367	1440
872.451	1693
872.535	2127
872.619	1730
872.703	1920
872.787	2156
872.871	2225
872.955	2027
873.039	1576
873.123	1156
873.207	2667
873.291	2013
873.375	1237
873.459	2232
873.543	1049
873.627	1819
873.711	650
873.794	1891
873.878	1263
873.962	2315
874.045	1009
874.129	1746
874.137	1708
874.213	1329
874.245	1198
874.296	986
874.352	702
874.380	560
874.460	1597
874.464	1639
874.547	1476
874.568	1520
874.631	1627
874.676	1535
874.714	1477
874.784	1718
874.798	1763
874.881	3081
874.892	2819
874.965	1057
874.999	1511
875.048	2093
875.107	1486
875.131	1256
875.215	1377
875.215	1377
875.298	1221
875.323	1142
875.381	1048
875.430	1542
875.465	1860
875.538	1512
875.548	1469
875.631	1985
875.646	1721
875.714	374
875.753	652
875.798	1036
875.861	1153
875.881	1170
875.964	1496
875.968	1496
876.047	1597
876.076	1828
876.130	2182
876.183	1605
876.213	1311
876.291	2356
876.296	2421
876.379	892
876.398	912
876.462	1069
876.506	945
876.545	785
876.613	1381
876.628	1511
876.711	1623
876.721	1595
876.794	1481
876.828	1274
876.877	944
876.935	1393
876.960	1555
877.043	1371
877.043	1372
877.125	1569
877.150	1874
877.208	2655
877.258	1982
877.291	1528
877.365	1212
877.374	1166
877.456	1080
877.472	1070
877.539	1088
877.579	1124
877.622	1120
877.687	1572
877.704	1701
877.787	810
877.794	837
877.869	1138
877.901	1185
877.952	1211
878.008	1112
878.034	1093
878.115	1983
878.117	1999
878.199	1220
878.222	1187
878.282	1188
878.329	1344
878.364	1330
878.437	1830
878.447	1929
878.529	469
878.544	604
878.611	1021
878.651	750
878.694	545
878.758	862
878.776	925
878.858	1569
878.865	1504
878.941	682
878.972	534
879.023	458
879.078	968
879.105	1189
879.185	1668
879.187	1675
879.269	1128
879.292	1185
879.351	1396
879.399	892
879.433	398
879.506	738
879.516	800
879.598	843
879.613	822
879.680	808
879.720	1094
879.762	1236
879.827	451
879.844	341
879.926	990
879.933	985
880.007	627
880.040	494
880.089	426
880.147	1414
880.171	1785
880.253	3113
880.254	3124
880.335	4487
880.360	5065
880.417	6152
880.467	8284
880.499	10034
880.574	13230
880.580	13257
880.662	4003
880.680	3088
880.744	977
880.787	838
880.825	788
880.893	764
880.907	809
880.989	1003
881.000	994
881.070	690
881.106	630
881.152	533
881.213	773
881.233	897
881.315	856
881.319	865
881.396	935
881.426	830
881.478	632
881.532	774
881.559	836
881.639	728
881.641	725
881.722	953
881.745	949
881.803	1079
881.852	1065
881.885	874
881.958	714
881.966	741
882.047	1359
882.064	1399
882.129	1309
882.171	1375
882.210	1524
882.277	2015
882.291	2101
882.372	1376
882.383	1315
882.454	802
882.489	727
882.535	709
882.596	1027
882.616	1115
882.697	797
882.702	780
882.778	280
882.808	242
882.859	566
882.914	944
882.940	954
883.020	752
883.021	753
883.102	1006
883.127	1096
883.183	944
883.233	697
883.264	622
883.339	760
883.345	772
883.426	619
883.445	720
883.507	988
883.551	778
883.587	727
883.657	1193
883.668	1160
883.749	501
883.763	401
883.830	311
883.869	249
883.910	388
883.975	632
883.991	544
884.072	-194
884.081	-205
884.152	567
884.187	850
884.233	838
884.292	781
884.314	703
884.394	3
884.398	-1
884.475	310
884.504	277
884.555	265
884.610	510
884.636	443
884.716	-37
884.716	-38
884.797	208
884.821	175
884.877	501
884.927	1014
884.958	950
885.033	583
885.038	574
885.118	338
885.139	305
885.199	210
885.244	399
885.279	477
885.350	109
885.359	109
885.439	514
885.456	461
885.520	369
885.561	769
885.600	845
885.667	676
885.680	713
885.760	678
885.773	716
885.840	654
885.878	775
885.920	793
885.984	343
886.000	264
886.080	204
886.089	160
886.160	-263
886.195	-227
886.240	127
886.300	363
886.320	376
886.400	640
886.406	637
886.480	480
886.511	561
886.560	408
886.616	-24
886.640	133
886.720	912
886.722	924
886.800	213
886.827	103
886.879	382
886.932	549
886.959	508
887.038	241
887.039	238
887.119	105
887.143	142
887.198	330
887.248	440
887.278	448
887.354	327
887.358	329
887.437	549
887.459	604
887.517	543
887.564	502
887.596	590
887.669	779
887.676	742
887.755	276
887.774	166
887.835	283
887.880	407
887.914	67
887.985	-801
887.994	-733
888.073	200
888.090	369
888.153	490
888.195	522
888.232	554
888.300	715
888.311	718
888.391	663
888.405	673
888.470	272
888.510	-22
888.549	129
888.615	444
888.628	404
888.708	209
888.720	169
888.787	11
888.825	-61
888.866	-138
888.930	-254
888.945	-70
889.024	919
889.035	1060
889.103	527
889.140	208
889.182	195
889.245	234
889.261	254
889.340	301
889.349	315
889.419	122
889.454	15
889.498	-31
889.559	-79
889.577	44
889.656	613
889.664	674
889.735	493
889.768	410
889.814	339
889.873	251
889.978	-324
890.083	808
890.187	792
890.292	1500
890.397	-299
890.501	0
890.606	-195
890.710	592
890.815	-98
890.919	-654
891.024	768
891.128	812
891.233	1039
891.337	199
891.442	-272
891.546	373
891.650	-292
891.755	704
891.859	1006
891.963	791
892.068	12
892.172	-542
892.276	-330
892.380	948
892.484	1061
892.589	-51
892.693	355
892.797	-17
892.901	45
893.005	860
893.109	42
893.213	194
893.317	1030
893.421	-7
893.525	119
893.629	194
893.733	-490
893.837	-531
893.941	-271
894.045	1173
894.148	-113
894.252	704
894.356	-50
894.460	887
894.564	597
894.667	-161
894.771	-117
894.875	-110
894.978	293
895.082	-309
895.186	-302
895.289	708
895.393	91
895.496	356
895.600	436
895.703	-158
895.807	-227
895.910	-33
896.014	157
896.117	865
896.221	-119
896.324	88
896.427	622
896.531	306
896.634	203
896.737	-151
896.840	453
896.944	-144
897.047	188
897.150	450
897.253	198
897.356	591
897.460	-190
897.563	-420
897.666	546
897.769	833
897.872	-94
897.975	-442
898.078	105
898.181	172
898.284	309
898.387	-99
898.490	270
898.593	246
898.695	-33
898.798	-336
898.901	51
899.004	208
899.107	-15
899.209	-322
899.312	-297
899.415	826
899.518	664
899.620	68
899.723	134
899.826	109
899.928	929
900.031	-134
900.133	-88
900.236	57
900.338	-68
900.441	-35
900.543	-375
900.646	353
900.748	-18
900.851	222
900.953	734
901.055	81
901.158	239
901.260	180
901.362	751
901.465	84
901.567	-1
901.669	-136
901.771	-56
901.873	74
901.976	-808
902.078	518
902.180	-307
902.282	-959
902.384	-697
902.486	201
902.588	16
902.690	248
902.792	-42
902.894	1236
902.996	-61
903.098	-64
903.200	323
903.302	442
903.404	-371
903.505	-15
903.607	-74
903.709	562
903.811	-301
903.913	182
904.014	12
904.116	-832
904.218	-748
904.319	263
904.421	-217
904.523	-138
904.624	881
904.726	757
904.827	-403
904.929	-870
905.030	-571
905.132	-133
905.233	589
905.335	133
905.436	123
905.537	-180
905.639	73
905.740	97
905.841	-226
905.943	-120
906.044	-124
906.145	-127
906.247	-14
906.348	98
906.449	-354
906.550	614
906.651	117
906.752	1069
906.854	256
906.955	121
907.056	-351
907.157	570
907.258	184
907.359	-417
907.460	-269
907.561	93
907.662	-252
907.762	-482
907.863	-1094
907.964	493
908.065	674
908.166	-104
908.267	-617
908.367	-106
908.468	-174
908.569	485
908.670	-343
908.770	-229
908.871	-159
908.971	374
909.072	276
909.173	-341
909.273	134
909.374	-689
909.474	-439
909.575	61
909.675	-653
909.776	-360
909.876	93
909.977	152
910.077	187
910.177	-460
910.278	-892
910.378	479
910.478	-280
910.579	195
910.679	442
910.779	237
910.879	-465
910.980	86
911.080	-774
911.180	-134
911.280	-467
911.380	271
911.480	-1104
911.580	-366
911.680	-370
911.780	-196
911.880	138
911.980	-58
912.080	-102
912.180	-578
912.280	-207
912.380	502
912.480	-494
912.580	461
912.679	-862
912.779	504
912.879	-359
912.979	-280
913.078	-574
913.178	-505
913.278	-57
913.377	10
913.477	-197
913.577	-104
913.676	302
913.776	136
913.875	165
913.975	357
914.074	14
914.174	383
914.273	-886
914.373	423
914.472	101
914.572	-377
914.671	-756
914.770	-235
914.870	234
914.969	-421
915.068	-508
915.167	-357
915.267	-38
915.366	337
915.465	-403
915.564	771
915.663	506
915.763	-286
915.862	158
915.961	-138
916.060	-707
916.159	-270
916.258	-504
916.357	-419
916.456	121
916.555	-110
916.654	-460
916.752	-36
916.851	319
916.950	133
917.049	-563
917.148	-626
917.247	561
917.345	-734
917.444	-393
917.543	-146
917.642	-1200
917.740	-228
917.839	-351
917.937	362
918.036	-17
918.135	-551
918.233	-481
918.332	-229
918.430	-840
918.529	-157
918.627	-615
918.726	369
918.824	-269
918.923	-396
919.021	-149
919.119	260
919.218	-651
919.316	134
919.414	-120
919.512	-74
919.611	353
919.709	-66
919.807	-48
919.905	-690
920.003	-649
920.102	67
920.200	-145
920.298	377
920.396	-211
920.494	575
920.592	-165
920.690	-301
920.788	-390
920.886	394
920.984	-436
921.082	-494
921.180	694
921.277	70
921.375	-61
921.473	150
921.571	342
921.669	-668
921.766	-865
921.864	413
921.962	94
922.060	476
922.157	-145
922.255	204
922.352	-347
922.450	103
922.548	58
922.645	-135
922.743	-944
922.840	675
922.938	831
923.035	994
923.133	237
923.230	-167
923.327	232
923.425	773
923.522	803
923.619	513
923.717	506
923.814	604
923.911	-45
924.008	934
924.106	744
924.203	-112
924.300	778
924.397	201
924.494	-143
924.591	-361
924.688	-450
924.786	345
924.883	25
924.979	234
925.077	-104
925.173	231
925.270	178
925.367	-591
925.464	240
925.561	675
925.658	622
925.755	614
925.852	63
925.948	1322
926.045	568
926.142	11
926.239	-24
926.335	368
926.432	600
926.529	56
926.625	213
926.722	388
926.818	-355
926.915	191
927.011	-268
927.108	431
927.204	771
927.301	-311
927.397	-188
927.494	606
927.590	633
927.687	-206
927.783	585
927.879	-211
927.976	-598
928.072	387
928.168	-564
928.264	-247
928.361	196
928.457	303
928.553	117
928.649	-531
928.745	359
928.841	-281
928.937	385
929.033	47
929.129	-640
929.225	-399
929.321	228
929.417	-318
929.513	-437
929.609	-150
929.705	144
929.801	47
929.897	-897
929.993	615
930.089	182
930.184	-589
930.280	653
930.376	592
930.471	-405
930.567	-74
930.663	164
930.758	-474
930.854	-596
930.950	-925
931.045	-102
931.141	613
931.236	-43
931.332	-157
931.427	-541
931.523	-517
931.618	-4
931.714	375
931.809	-178
931.905	-157
932.000	-363
932.095	-722
932.191	-145
932.286	149
932.381	128
932.476	-705
932.572	-156
932.667	172
932.762	-438
932.857	-32
932.952	-554
933.047	-94
933.142	132
933.237	332
933.332	-624
933.427	756
933.522	-622
933.617	-321
933.712	3
933.807	401
933.902	-1023
933.997	564
934.092	-244
934.187	601
934.282	-356
934.376	-5
934.471	-438
934.566	-359
934.661	-941
934.755	-557
934.850	-377
934.945	215
935.039	-624
935.134	-549
935.228	-916
935.323	571
935.417	-806
935.512	-823
935.606	168
935.701	-418
935.795	83
935.890	-348
935.984	-526
936.079	-646
936.173	-711
936.267	-477
936.362	-1138
936.456	-1028
936.550	19
936.644	-852
936.738	-570
936.833	-322
936.927	366
937.021	-399
937.115	-373
937.209	-997
937.303	317
937.397	-502
937.491	-873
937.585	-794
937.679	-605
937.773	-223
937.867	-428
937.961	-443
938.055	-352
938.149	232
938.243	-343
938.337	-114
938.430	-440
938.524	-256
938.618	-292
938.712	-85
938.805	-356
938.899	-524
938.993	-498
939.086	-312
939.180	-695
939.274	468
939.367	-534
939.461	100
939.554	-1306
939.648	-450
939.741	-531
939.835	159
939.928	-928
940.022	-65
940.115	-445
940.208	-87
940.302	-194
940.395	-435
940.488	-804
940.582	-776
940.675	-292
940.768	-626
940.861	-174
940.954	-111
941.048	-1403
941.141	57
941.234	-1329
941.327	-425
941.420	-328
941.513	-56
941.606	-1504
941.699	-61
941.792	-885
941.885	-16
941.978	-496
942.071	137
942.164	-320
942.257	-798
942.349	371
942.442	301
942.535	-925
942.628	945
942.721	-713
942.813	-563
942.906	-732
942.999	352
943.091	-1185
943.184	-328
943.277	-936
943.369	349
943.462	-321
943.554	-190
943.647	-881
943.739	-344
943.832	-889
943.924	-957
944.017	407
944.109	-579
944.201	-870
944.294	-697
944.386	-356
944.478	-904
944.571	-641
944.663	-1081
944.755	-492
944.847	399
944.940	-507
945.032	-596
945.124	-694
945.216	471
945.308	-750
945.400	-491
945.492	-189
945.584	25
945.676	-1156
945.768	-650
945.860	581
945.952	-217
946.044	-673
946.136	-633
946.228	-1037
946.320	-683
946.412	-299
946.503	-189
946.595	292
946.687	-564
946.779	-1044
946.870	-499
946.962	-968
947.054	515
947.145	-497
947.237	-855
947.329	-934
947.420	-990
947.512	-904
947.603	-1764
947.695	-629
947.786	-806
947.878	-264
947.969	-520
948.061	-1015
948.152	-827
948.243	-112
948.335	99
948.426	-1398
948.517	59
948.609	-619
948.700	-536
948.791	-751
948.882	370
948.973	-690
949.065	-1314
949.156	-414
949.247	-862
949.338	-285
949.429	-1416
949.520	-1113
949.611	-1305
949.702	-51
949.793	-575
949.884	-860
949.975	-796
950.066	-247
950.157	-238
950.247	-1174
950.338	-857
950.429	-1633
950.520	-382
950.611	-678
950.701	-1025
950.792	-1160
950.883	8
950.973	-48
951.064	-444
951.155	-636
951.245	-507
951.336	-1231
951.427	-905
951.517	-3
951.608	-871
951.698	-873
951.788	-351
951.879	-599
951.969	-1062
952.060	-862
952.150	-33
952.240	-610
952.331	-1875
952.421	-573
952.511	-697
952.602	-13
952.692	-567
952.782	-1760
952.872	-575
952.962	-1031
953.052	-1401
953.143	-704
953.233	-6
953.323	-703
953.413	-1234
953.503	-1836
953.593	-317
953.683	-1250
953.773	-1085
953.863	56
953.953	-1410
954.042	-495
954.132	-1335
954.222	-326
954.312	-1058
954.402	-1284
954.492	-432
954.581	-1070
954.671	-1069
954.761	-1055
954.850	291
954.940	-616
955.030	-406
955.119	-1813
955.209	-632
955.298	-1028
955.388	-641
955.477	-410
955.567	-443
955.656	-438
955.746	-340
955.835	-1159
955.925	-1117
956.014	-532
956.103	-766
956.193	534
956.282	-634
956.371	-871
956.461	-697
956.550	-1394
956.639	-390
956.728	-303
956.817	-590
956.906	-377
956.995	600
957.085	-1566
957.174	-511
957.263	-288
957.352	-343
957.441	-1276
957.530	-478
957.619	-919
957.708	-723
957.796	-508
957.885	-636
957.974	-1228
958.063	256
958.152	-1515
958.241	-715
958.329	-431
958.418	-800
958.507	-1234
958.596	-134
958.684	-1270
958.773	-263
958.861	-1055
958.950	-500
959.039	-514
959.127	-471
959.216	-102
959.304	-1016
959.393	-323
959.481	-421
959.570	-1314
959.658	-1210
959.746	-942
959.835	-466
959.923	-315
960.011	-1195
960.100	-331
960.188	-408
960.276	-1321
960.365	-990
960.453	259
960.541	-1482
960.629	-1248
960.717	-886
960.805	-1379
960.893	-525
960.981	-1609
961.069	-951
961.158	-1092
961.245	-671
961.333	-862
961.421	-724
961.509	-1002
961.597	-1336
961.685	-1221
961.773	-701
961.861	-1159
961.949	-598
962.036	-841
962.124	-458
962.212	-1296
962.299	-1258
962.387	-1129
962.475	-1270
962.562	-1838
962.650	-834
962.738	-527
962.825	-1056
962.913	-759
963.000	-927
963.088	-971
963.175	-869
963.263	-859
963.350	-811
963.438	-1597
963.525	-179
963.612	-175
963.700	-214
963.787	1879
963.874	232
963.962	-374
964.049	-1022
964.136	-860
964.223	-698
964.310	-1165
964.398	-547
964.485	-1282
964.572	-118
964.659	-959
964.746	-971
964.833	-665
964.920	-545
965.007	-655
965.094	-563
965.181	-960
965.268	-769
965.355	-1522
965.441	-999
965.528	-1198
965.615	-20
965.702	-958
965.789	-828
965.875	-1128
965.962	-538
966.049	-1754
966.136	-1085
966.222	-719
966.309	-1104
966.395	-1470
966.482	-854
966.569	-1110
966.655	-142
966.742	-1127
966.828	-927
966.915	-1004
967.001	-53
967.087	-1791
967.174	-401
967.260	79
967.347	-406
967.433	-849
967.519	1143
967.605	459
967.692	-827
967.778	-820
967.864	-1349
967.950	-730
968.036	-1098
968.123	-897
968.209	-659
968.295	-1885
968.381	-84
968.467	-536
968.553	-1535
968.639	-203
968.725	-668
968.811	-1026
968.897	-101
968.983	-782
969.069	-1080
969.154	-890
969.240	-760
969.326	-1554
969.412	-1249
969.497	-839
969.583	-1019
969.669	-589
969.755	125
969.840	-963
969.926	-909
970.012	-890
970.097	-444
970.183	-1267
970.268	-1110
970.354	-1041
970.439	-511
970.525	561
970.610	-925
970.696	-1121
970.781	-295
970.866	-1430
970.952	-881
971.037	-1155
971.122	-961
971.208	-828
971.293	-1110
971.378	-2053
971.463	-1000
971.549	-446
971.634	-565
971.719	-1516
971.804	-1239
971.889	-577
971.974	-782
972.059	-1484
972.144	-585
972.229	-1411
972.314	-1223
972.399	-929
972.484	-1739
972.569	-1030
972.654	-2361
972.739	625
972.824	-1047
972.908	-558
972.993	-1626
973.078	-1141
973.163	-562
973.247	-1196
973.332	-2471
973.417	-704
973.501	-1333
973.586	-670
973.671	-798
973.755	-1344
973.840	-1061
973.924	-855
974.009	-1121
974.093	-1891
974.178	-74
974.262	-230
974.346	-439
974.431	-795
974.515	-769
974.600	-1516
974.684	94
974.768	-1711
974.852	-214
974.937	-2010
975.021	-239
975.105	-970
975.189	-1451
975.273	-762
975.358	-1808
975.442	-2299
975.526	-85
975.610	-2289
975.694	-1338
975.778	-1421
975.862	-188
975.946	-2638
976.030	-222
976.114	-1461
976.198	-849
976.281	-1417
976.365	-478
976.449	-1109
976.533	-404
976.617	-1614
976.700	-1721
976.784	-1622
976.868	-1809
976.951	-808
977.035	-1304
977.119	-1313
977.202	-1325
977.286	-1372
977.369	-1158
977.453	-913
977.536	-1376
977.620	-1528
977.703	-1018
977.787	-1742
977.870	360
977.953	-967
978.037	-1850
978.120	-569
978.203	-990
978.287	-1342
978.370	-1482
978.453	-2086
978.536	-1333
978.620	-348
978.703	-1216
978.786	-1445
978.869	-1003
978.952	-1834
979.035	-74
979.118	-884
979.201	-1212
979.284	-1670
979.367	-1371
979.450	-1144
979.533	-2056
979.616	-2032
979.699	-1307
979.782	-1009
979.865	-1233
979.948	-1843
980.030	-1662
980.113	-1824
980.196	-1576
980.279	-1316
980.361	-1812
980.444	-988
980.526	-1447
980.609	-1910
980.692	-1138
980.774	-1130
980.857	-1936
980.939	93
981.022	-995
981.104	-1950
981.187	-1678
981.269	-738
981.352	-1119
981.434	-1849
981.516	-2008
981.599	-559
981.681	-36
981.763	-652
981.846	-572
981.928	-993
982.010	-1192
982.092	-1724
982.174	-689
982.256	-1980
982.339	-1252
982.421	-1324
982.503	-1317
982.585	-1891
982.667	-943
982.749	-1791
982.831	-1140
982.913	-1746
982.995	-630
983.077	-1687
983.158	-1320
983.240	-2667
983.322	-509
983.404	-1536
983.486	-2218
983.568	-1584
983.649	-1466
983.731	-711
983.813	-1739
983.894	-1334
983.976	-1569
984.058	-2246
984.139	-2259
984.221	-1585
984.302	-1272
984.384	-1139
984.465	-1726
984.547	-1072
984.628	-1344
984.710	-1207
984.791	-1058
984.872	-1087
984.954	-1541
985.035	-1093
985.116	-1833
985.198	-1946
985.279	-428
985.360	-2697
985.441	-1109
985.522	-1791
985.604	-1708
985.685	-2708
985.766	-751
985.847	-267
985.928	-1364
986.009	-1810
986.090	-1901
986.171	-1920
986.252	-1998
986.333	-1898
986.414	-1918
986.495	-1753
986.576	-1599
986.656	-823
986.737	-1727
986.818	-1417
986.899	-1459
986.980	-1465
987.060	-626
987.141	-1200
987.222	-1120
987.302	-1655
987.383	-1856
987.464	-1413
987.544	-1279
987.625	-1933
987.705	-1333
987.786	-1371
987.866	-1741
987.947	-1768
988.027	-1199
988.108	-1525
988.188	-1131
988.268	-1335
988.349	-976
988.429	-1173
988.509	-1185
988.589	-1390
988.670	-1889
988.750	-936
988.830	-1494
988.910	-1659
988.990	-1864
989.070	-979
989.151	-2015
989.231	-2247
989.311	-1637
989.391	-1501
989.471	-1609
989.551	-2196
989.631	-1939
989.711	-1299
989.791	-1693
989.870	-2396
989.950	-668
990.030	-2012
990.110	-944
990.190	-1738
990.269	-1463
990.349	-1694
990.429	-1535
990.509	-1131
990.588	-1323
990.668	-1074
990.747	-1095
990.827	-1753
990.907	-249
990.986	-903
991.066	-319
991.145	-1566
991.225	-1269
991.304	-1913
991.383	-1227
991.463	-1756
991.542	-1302
991.622	-1247
991.701	-1492
991.780	-1293
991.859	-2303
991.939	-1362
992.018	-2130
992.097	-1816
992.176	-882
992.256	-1692
992.335	-1412
992.414	-813
992.493	-1659
992.572	-1954
992.651	-1248
992.730	-2158
992.809	-1369
992.888	-1637
992.967	-1657
993.046	-1728
993.125	-1910
993.203	-1873
993.282	-1860
993.361	-1502
993.440	-1601
993.519	-2649
993.597	-1855
993.676	-2386
993.755	-898
993.834	-1981
993.912	-1113
993.991	-582
994.069	-2423
994.148	-1337
994.226	-2144
994.305	-1574
994.384	-1644
994.462	-1091
994.540	-2546
994.619	-1047
994.697	-1372
994.776	-2335
994.854	-844
994.932	-1718
995.011	-1703
995.089	-2130
995.167	-1875
995.245	-1387
995.324	-2550
995.402	-993
995.480	-1532
995.558	-1652
995.636	-2748
995.714	-2044
995.792	-1047
995.870	-2568
995.948	-1757
996.026	-1383
996.104	-2612
996.182	-1013
996.260	-1751
996.338	-1783
996.416	-2654
996.494	-2021
996.572	-1036
996.649	-1618
996.727	-2635
996.805	-1754
996.883	-1830
996.960	-1892
997.038	-1689
997.116	-1332
997.193	-2588
997.271	-2384
997.348	-1596
997.426	-2162
997.504	-1760
997.581	-1362
997.658	-1550
997.736	-1906
997.813	-2305
997.891	-1070
997.968	-2313
998.046	-1779
998.123	-1642
998.200	-1656
998.277	-2180
998.355	-1236
998.432	-2255
998.509	-1954
998.586	-697
998.663	-1241
998.741	-1488
998.818	-1638
998.895	-2283
998.972	-1527
999.049	-2191
999.126	-1896
999.203	-883
999.280	-1366
999.357	-1501
999.434	-1652
999.511	-2002
999.587	-1200
999.664	-2410
999.741	-2272
999.818	-1127
999.895	-1891
999.971	-2656
1000.048	-1964
1000.125	-1780
1000.202	-1958
1000.278	-1172
1000.355	-2184
1000.431	-1557
1000.508	-2095
1000.584	-321
1000.661	-1143
1000.738	-2110
1000.814	-2521
1000.890	-1593
1000.967	-2197
1001.043	-1550
1001.120	-2725
1001.196	-1961
1001.272	-1725
1001.349	-2473
1001.425	-1176
1001.501	-2142
1001.577	-2859
1001.654	-1485
1001.730	-2295
1001.806	-2116
1001.882	-1844
1001.958	-1499
1002.034	-1184
1002.110	-1478
1002.186	-1575
1002.262	-1544
1002.338	-2708
1002.414	-1680
1002.490	-2446
1002.566	-2725
1002.642	-2277
1002.718	-872
1002.794	-1746
1002.870	-1163
1002.945	-1331
1003.021	-1443
1003.097	-1705
1003.173	-1292
1003.248	-2270
1003.324	-1846
1003.400	-1501
1003.475	-2214
1003.551	-1619
1003.626	-2125
1003.702	-1910
1003.777	-1863
1003.853	-2438
1003.928	-1901
1004.004	-2272
1004.079	-1060
1004.155	-2144
1004.230	-2802
1004.305	-1569
1004.381	-2351
1004.456	-2265
1004.531	-1391
1004.607	-1481
1004.682	-1922
1004.757	-1786
1004.832	-2462
1004.907	-2157
1004.982	-1884
1005.057	-1221
1005.133	-1847
1005.208	-1779
1005.283	-1699
1005.358	-1898
1005.433	-1415
1005.508	-1763
1005.583	-2590
1005.657	-2073
1005.732	-1871
1005.807	-2123
1005.882	-1703
1005.957	-2039
1006.032	-1266
1006.106	-1661
1006.181	-1925
1006.256	-1118
1006.331	-2530
1006.405	-1937
1006.480	-1856
1006.554	-1913
1006.629	-1517
1006.704	-2193
1006.778	-1529
1006.853	-1771
1006.927	-2253
1007.002	-2015
1007.076	-1271
1007.150	-1230
1007.225	-2493
1007.299	-1556
1007.373	-2077
1007.448	-2019
1007.522	-1385
1007.596	-1786
1007.671	-2802
1007.745	-1142
1007.819	-2089
1007.893	-2210
1007.967	-2162
1008.041	-2722
1008.115	-489
1008.190	-2451
1008.264	-749
1008.338	-2841
1008.412	-1853
1008.486	-1688
1008.560	-1861
1008.633	-2946
1008.707	-2649
1008.781	-1695
1008.855	-2483
1008.929	-2117
1009.003	-1892
1009.076	-2664
1009.150	-1476
1009.224	-1901
1009.298	-1938
1009.371	-1235
1009.445	-1370
1009.519	-2268
1009.592	-2895
1009.666	-3113
1009.739	-1990
1009.813	-2663
1009.886	-1556
1009.960	-3316
1010.033	-2303
1010.107	-1317
1010.180	-2277
1010.253	-1487
1010.327	-2696
1010.400	-1762
1010.473	-3088
1010.547	-1706
1010.620	-1938
1010.693	-2531
1010.766	-2970
1010.840	-1853
1010.913	-1853
1010.986	-2885
1011.059	-2382
1011.132	-2438
1011.205	-1057
1011.278	-2305
1011.351	-2381
1011.424	-2020
1011.497	-2150
1011.570	-2754
1011.643	-1179
1011.716	-2155
1011.789	-2264
1011.862	-1704
1011.934	-1912
1012.007	-2855
1012.080	-2094
1012.153	-2270
1012.225	-975
1012.298	-2359
1012.371	-2413
1012.443	-1887
1012.516	-2503
1012.588	-2571
1012.661	-1376
1012.733	-3093
1012.806	-1513
1012.879	-2147
1012.951	-2664
1013.023	-2431
1013.096	-1604
1013.168	-2645
1013.241	-590
1013.313	-2165
1013.385	-1769
1013.458	-2797
1013.530	-816
1013.602	-2805
1013.674	-1871
1013.746	-2974
1013.819	-2191
1013.891	-1909
1013.963	-2688
1014.035	-2294
1014.107	-2453
1014.179	-2038
1014.251	-2364
1014.323	-2166
1014.395	-2713
1014.467	-2037
1014.539	-2626
1014.611	-2444
1014.683	-1684
1014.754	-1615
1014.826	-2464
1014.898	-1501
1014.970	-2655
1015.042	-1439
1015.113	-1754
1015.185	-1542
1015.257	-3417
1015.328	-1658
1015.400	-2563
1015.471	-2616
1015.543	-3273
1015.615	-2333
1015.686	-1621
1015.757	-1968
1015.829	-1717
1015.901	-1817
1015.972	-1880
1016.043	-2581
1016.115	-2161
1016.186	-2219
1016.257	-2888
1016.328	-1911
1016.400	-1935
1016.471	-3165
1016.542	-2167
1016.613	-1867
1016.685	-2378
1016.756	-1911
1016.827	-2299
1016.898	-3138
1016.969	-1284
1017.040	-1871
1017.111	-1842
1017.182	-2648
1017.253	-1906
1017.324	-2533
1017.395	-2591
1017.466	-1672
1017.537	-2247
1017.608	-2154
1017.678	-2237
1017.749	-2171
1017.820	-2142
1017.891	-2120
1017.961	-2137
1018.032	-3097
1018.103	-2515
1018.173	-2502
1018.244	-2360
1018.315	-2074
1018.385	-1421
1018.456	-1746
1018.526	-2320
1018.597	-1892
1018.667	-1663
1018.738	-2620
1018.808	-1872
1018.878	-2745
1018.949	-1564
1019.019	-2580
1019.089	-2143
1019.160	-2187
1019.230	-2790
1019.300	-2098
1019.371	-2827
1019.441	-2081
1019.511	-1923
1019.581	-2025
1019.651	-2554
1019.721	-2109
1019.791	-2072
1019.861	-2449
1019.931	-2048
1020.001	-2106
1020.071	-1409
1020.141	-2203
1020.211	-2560
1020.281	-2492
1020.351	-2245
1020.421	-2224
1020.491	-1665
1020.560	-2114
1020.630	-2149
1020.700	-2419
1020.770	-2723
1020.839	-2347
1020.909	-2315
1020.979	-2637
1021.048	-2362
1021.118	-2370
1021.187	-2168
1021.257	-2440
1021.326	-1910
1021.396	-2797
1021.465	-1496
1021.535	-1488
1021.604	-1933
1021.674	-2499
1021.743	-1891
1021.812	-2347
1021.882	-2063
1021.951	-1746
1022.020	-1920
1022.089	-1805
1022.159	-3032
1022.228	-2050
1022.297	-2956
1022.366	-2882
1022.435	-2135
1022.504	-2036
1022.573	-2172
1022.642	-2905
1022.711	-2030
1022.781	-3122
1022.849	-1805
1022.918	-2507
1022.987	-1683
1023.056	-1868
1023.125	-1699
1023.194	-2409
1023.263	-1718
1023.331	-1464
1023.400	-2331
1023.469	-3213
1023.538	-1748
1023.606	-1986
1023.675	-1225
1023.744	-2286
1023.812	-2310
1023.881	-1924
1023.949	-2158
1024.018	-2622
1024.086	-1615
1024.155	-2014
1024.223	-2427
1024.292	-2528
1024.360	-2767
1024.429	-2279
1024.497	-1342
1024.565	-2359
1024.634	-2045
1024.702	-2410
1024.770	-1813
1024.838	-2909
1024.907	-1689
1024.975	-2707
1025.043	-1851
1025.111	-1953
1025.179	-2211
1025.247	-2412
1025.315	-2775
1025.383	-2375
1025.451	-2545
1025.519	-1628
1025.587	-2006
1025.655	-2196
1025.723	-1600
1025.791	-2379
1025.859	-1978
1025.927	-1892
1025.995	-1899
1026.062	-2348
1026.130	-1761
1026.198	-2002
1026.266	-2153
1026.333	-1980
1026.401	-1112
1026.469	-2498
1026.536	-2875
1026.604	-1684
1026.671	-2637
1026.739	-2301
1026.806	-2841
1026.874	-2200
1026.941	-1832
1027.009	-2831
1027.076	-2590
1027.144	-1637
1027.211	-2663
1027.278	-2497
1027.345	-2189
1027.413	-2240
1027.480	-1853
1027.547	-2986
1027.614	-1804
1027.682	-2605
1027.749	-3150
1027.816	-2311
1027.883	-1411
1027.950	-1859
1028.017	-2614
1028.084	-1636
1028.151	-2910
1028.218	-2202
1028.285	-1616
1028.352	-2181
1028.419	-2474
1028.486	-2162
1028.553	-2559
1028.619	-2161
1028.686	-2425
1028.753	-2785
1028.820	-2249
1028.886	-2467
1028.953	-2169
1029.020	-2931
1029.086	-1991
1029.153	-2338
1029.220	-2327
1029.286	-1881
1029.353	-2397
1029.419	-2081
1029.486	-1824
1029.552	-2719
1029.619	-2186
1029.685	-2748
1029.751	-2011
1029.818	-1507
1029.884	-1609
1029.951	-1546
1030.017	-1725
1030.083	-1639
1030.149	-2040
1030.216	-2772
1030.282	-2291
1030.348	-2840
1030.414	-3123
1030.480	-2666
1030.546	-1927
1030.612	-1815
1030.678	-2417
1030.744	-2166
1030.810	-2088
1030.876	-2256
1030.942	-1478
1031.008	-2710
1031.074	-2514
1031.140	-1892
1031.206	-2067
1031.272	-2853
1031.337	-1966
1031.403	-1561
1031.469	-2199
1031.534	-2226
1031.600	-1461
1031.666	-1857
1031.731	-2821
1031.797	-2404
1031.863	-2528
1031.928	-3229
1031.994	-2668
1032.059	-2308
1032.125	-2274
1032.190	-2139
1032.256	-1684
1032.321	-3023
1032.386	-2871
1032.452	-2058
1032.517	-2151
1032.582	-2674
1032.647	-2576
1032.713	-2705
1032.778	-1745
1032.843	-2378
1032.908	-2503
1032.974	-2576
1033.039	-2275
1033.104	-1728
1033.169	-1860
1033.234	-2709
1033.299	-1520
1033.364	-2208
1033.429	-2079
1033.494	-2386
1033.559	-2788
1033.624	-2529
1033.688	-2413
1033.753	-2405
1033.818	-2581
1033.883	-1960
1033.948	-1875
1034.013	-3287
1034.077	-2761
1034.142	-2800
1034.207	-1996
1034.271	-1814
1034.336	-1005
1034.400	-1811
1034.465	-2456
1034.530	-2143
1034.594	-2577
1034.658	-2618
1034.723	-2767
1034.787	-2528
1034.852	-2229
1034.916	-2896
1034.981	-2765
1035.045	-2546
1035.109	-2148
1035.173	-1867
1035.238	-2335
1035.302	-1583
1035.366	-2787
1035.430	-2334
1035.495	-2392
1035.559	-2455
1035.623	-2684
1035.687	-2269
1035.751	-2664
1035.815	-2569
1035.879	-2267
1035.943	-2992
1036.007	-2355
1036.071	-2002
1036.135	-2903
1036.198	-1799
1036.262	-2460
1036.326	-2269
1036.390	-3194
1036.454	-2473
1036.517	-1307
1036.581	-1848
1036.645	-2600
1036.709	-2565
1036.772	-2291
1036.836	-3103
1036.900	-2186
1036.963	-3158
1037.026	-2193
1037.090	-2289
1037.154	-2446
1037.217	-1979
1037.280	-2979
1037.344	-2714
1037.407	-2635
1037.471	-3137
1037.534	-1992
1037.597	-2778
1037.661	-2071
1037.724	-2456
1037.787	-2378
1037.850	-2563
1037.913	-2905
1037.977	-2696
1038.040	-2286
1038.103	-1896
1038.166	-2150
1038.229	-2955
1038.292	-2500
1038.355	-2037
1038.418	-2069
1038.481	-2393
1038.544	-2693
1038.607	-3094
1038.670	-2599
1038.732	-2244
1038.795	-2497
1038.858	-2740
1038.921	-2091
1038.984	-2715
1039.046	-2767
1039.109	-3120
1039.172	-2231
1039.234	-2940
1039.297	-2898
1039.360	-2850
1039.422	-2412
1039.485	-2259
1039.547	-2167
1039.610	-2623
1039.672	-2927
1039.734	-3067
1039.797	-2081
1039.859	-2385
1039.922	-3027
1039.984	-2729
1040.046	-2101
1040.109	-3341
1040.171	-3242
1040.233	-3045
1040.295	-2294
1040.358	-2408
1040.420	-2564
1040.482	-3545
1040.544	-3025
1040.606	-2139
1040.668	-1899
1040.730	-2581
1040.792	-1781
1040.854	-3369
1040.916	-2612
1040.978	-3131
1041.040	-1103
1041.102	-2256
1041.164	-2589
1041.225	-2812
1041.287	-2907
1041.349	-2812
1041.411	-1857
1041.472	-2684
1041.534	-2432
1041.596	-2904
1041.657	-2234
1041.719	-2608
1041.781	-2750
1041.842	-2665
1041.904	-2218
1041.965	-2331
1042.027	-2319
1042.088	-2278
1042.150	-2657
1042.211	-3030
1042.272	-2092
1042.334	-3370
1042.395	-2867
1042.456	-2364
1042.518	-2559
1042.579	-1817
1042.640	-3000
1042.701	-2241
1042.763	-2336
1042.824	-1995
1042.885	-2543
1042.946	-2497
1043.007	-1917
1043.068	-3156
1043.129	-2175
1043.190	-2751
1043.251	-3025
1043.312	-2937
1043.373	-2567
1043.434	-2656
1043.495	-1569
1043.556	-2423
1043.616	-2177
1043.677	-2501
1043.738	-1836
1043.799	-2108
1043.859	-2076
1043.920	-3496
1043.981	-2713
1044.041	-1948
1044.102	-2992
1044.162	-2551
1044.223	-2769
1044.284	-2833
1044.344	-1915
1044.405	-2831
1044.465	-2371
1044.525	-2926
1044.586	-2014
1044.646	-2636
1044.707	-1829
1044.767	-2455
1044.827	-2231
1044.887	-2342
1044.948	-1382
1045.008	-2108
1045.068	-1730
1045.128	-1837
1045.188	-2726
1045.249	-1654
1045.309	-2590
1045.369	-2078
1045.429	-2223
1045.489	-2476
1045.549	-1922
1045.609	-2031
1045.669	-1683
1045.729	-2864
1045.789	-1653
1045.848	-2607
1045.908	-2466
1045.968	-2055
1046.028	-2012
1046.088	-2147
1046.147	-2728
1046.207	-1859
1046.267	-1750
1046.326	-1407
1046.386	-2343
1046.446	-2129
1046.505	-1743
1046.565	-1190
1046.624	-1834
1046.684	-1306
1046.743	-1130
1046.803	-1266
1046.862	-899
1046.922	0
