'Start Wavelength	183.907
'End Wavelength	1046.922
'Gate Delay	5.000
'Gate Width (ms)	1.050
'Laser Output Level	0.000
'X Position	0.000
'Y Position	0.000
'Z Position	0.000
'Grid Point Number	1.000
'Shot Number	100.000
183.907	179.000
183.977	-146.000
184.047	-641
184.116	1072
184.186	-651
184.256	143
184.325	-497
184.395	-100
184.465	377
184.534	156
184.604	-106
184.674	470
184.743	-876
184.813	556
184.883	122
184.952	756
185.022	-251
185.092	-36
185.161	316
185.231	338
185.301	-269
185.370	512
185.440	-309
185.509	65
185.579	-1107
185.649	-615
185.718	-45
185.788	514
185.857	-659
185.927	47
185.996	-54
186.066	477
186.136	-36
186.205	959
186.275	-334
186.344	554
186.414	-94
186.483	380
186.553	545
186.622	848
186.692	188
186.761	439
186.831	-79
186.900	1166
186.970	61
187.039	540
187.109	771
187.178	388
187.248	6
187.317	483
187.387	258
187.456	636
187.526	92
187.595	1040
187.664	33
187.734	1155
187.803	-15
187.873	928
187.942	739
188.012	552
188.081	281
188.150	-42
188.220	-58
188.289	1290
188.358	1039
188.428	744
188.497	80
188.567	527
188.636	-39
188.705	-251
188.775	-394
188.844	-444
188.913	958
188.983	252
189.052	499
189.121	616
189.191	203
189.260	751
189.329	235
189.399	1083
189.468	340
189.537	323
189.606	-263
189.676	931
189.745	-182
189.814	697
189.883	547
189.953	244
190.022	268
190.091	3432
190.161	3615
190.230	1193
190.299	37
190.368	-9
190.437	487
190.507	808
190.576	-91
190.645	524
190.714	179
190.783	168
190.853	649
190.922	904
190.991	623
191.060	1022
191.129	-540
191.198	475
191.268	-319
191.337	594
191.406	126
191.475	848
191.544	-75
191.613	667
191.682	155
191.752	-121
191.821	-113
191.890	816
191.959	374
192.028	-125
192.097	216
192.166	405
192.235	-137
192.304	661
192.373	-203
192.442	607
192.511	-47
192.580	-163
192.650	310
192.719	1018
192.788	-141
192.857	626
192.926	-293
192.995	887
193.064	273
193.133	693
193.202	1395
193.271	1148
193.340	400
193.409	1391
193.478	967
193.547	1230
193.615	1578
193.684	1897
193.753	802
193.822	1261
193.891	-128
193.960	1110
194.029	-114
194.098	820
194.167	-183
194.236	1889
194.305	-312
194.374	240
194.443	85
194.512	922
194.580	343
194.649	1184
194.718	714
194.787	589
194.856	-443
194.925	346
194.994	151
195.062	1134
195.131	523
195.200	828
195.269	1150
195.338	1545
195.407	233
195.475	-198
195.544	801
195.613	742
195.682	983
195.751	1125
195.819	1168
195.888	975
195.957	1378
196.026	1484
196.094	1533
196.163	1141
196.232	786
196.301	952
196.369	-145
196.438	1034
196.507	516
196.576	913
196.644	379
196.713	477
196.782	128
196.850	276
196.919	645
196.988	1308
197.056	-428
197.125	473
197.194	423
197.262	328
197.331	-398
197.400	652
197.468	191
197.537	572
197.606	1238
197.674	1465
197.743	3456
197.812	1773
197.880	3238
197.949	2248
198.017	3284
198.086	2006
198.155	1305
198.223	1673
198.292	4131
198.360	1057
198.429	172
198.497	1138
198.566	2394
198.635	4828
198.703	1043
198.772	1634
198.840	4145
198.909	5221
198.977	359
199.046	1184
199.114	994
199.183	732
199.251	86
199.320	1105
199.388	613
199.457	1026
199.525	-165
199.594	950
199.662	593
199.731	1303
199.799	773
199.867	1582
199.936	1109
200.004	741
200.073	291
200.141	866
200.210	179
200.278	326
200.346	91
200.415	986
200.483	261
200.552	1155
200.620	269
200.688	75
200.757	866
200.825	347
200.893	-39
200.962	602
201.030	256
201.098	953
201.167	507
201.235	730
201.303	385
201.372	1655
201.440	900
201.508	1782
201.577	681
201.645	979
201.713	88
201.781	1039
201.850	2569
201.918	1387
201.986	1069
202.055	846
202.123	385
202.191	850
202.259	295
202.327	1018
202.396	86
202.464	1302
202.532	1997
202.600	7714
202.669	3419
202.737	1750
202.805	306
202.873	724
202.941	774
203.009	1019
203.078	-250
203.146	465
203.214	818
203.282	1062
203.350	710
203.418	981
203.487	422
203.555	1129
203.623	752
203.691	1233
203.759	-251
203.827	859
203.895	470
203.963	1075
204.031	965
204.099	1372
204.168	373
204.236	1119
204.304	924
204.372	1955
204.440	928
204.508	399
204.576	246
204.644	773
204.712	657
204.780	764
204.848	819
204.916	789
204.984	-192
205.052	1235
205.120	393
205.188	597
205.256	468
205.324	1029
205.392	-15
205.460	-98
205.528	1126
205.596	1862
205.664	552
205.732	682
205.799	4900
205.867	8698
205.935	839
206.003	2133
206.071	437
206.139	1201
206.207	1422
206.275	938
206.343	132
206.411	1182
206.478	910
206.546	1794
206.614	1156
206.682	1723
206.750	449
206.818	1902
206.885	1538
206.953	388
207.021	1301
207.089	623
207.157	-42
207.225	1106
207.292	18
207.360	704
207.428	875
207.496	645
207.563	-153
207.631	804
207.699	629
207.767	851
207.834	433
207.902	606
207.970	528
208.038	1802
208.105	876
208.173	719
208.241	1703
208.309	1116
208.376	1435
208.444	3635
208.512	639
208.579	639
208.647	1892
208.715	2685
208.782	847
208.850	1602
208.918	807
208.985	795
209.053	1329
209.120	1233
209.188	1058
209.256	1366
209.323	627
209.391	1759
209.459	1879
209.526	2375
209.594	138
209.661	1233
209.729	1053
209.796	618
209.864	1070
209.932	868
209.999	1843
210.067	1976
210.134	1213
210.202	1400
210.269	2070
210.337	2650
210.404	150
210.472	1976
210.539	1257
210.607	1608
210.674	1703
210.742	835
210.809	1328
210.877	1725
210.944	2019
211.012	1764
211.079	2457
211.146	1854
211.214	1668
211.281	2910
211.349	1937
211.416	2555
211.484	1925
211.551	1404
211.618	1065
211.686	1415
211.753	1488
211.821	2837
211.888	828
211.955	1592
212.023	1483
212.090	2344
212.157	2007
212.225	1614
212.292	3664
212.359	8998
212.427	25904
212.494	11352
212.561	3352
212.629	2497
212.696	2264
212.763	2119
212.831	1081
212.898	2957
212.965	981
213.032	1921
213.100	986
213.167	2258
213.234	1900
213.301	1696
213.369	1491
213.436	1544
213.503	1284
213.570	2252
213.638	2415
213.705	1477
213.772	800
213.839	2107
213.906	3028
213.973	2906
214.041	1690
214.108	1561
214.175	1522
214.242	1721
214.309	1916
214.376	1621
214.444	1230
214.511	1994
214.578	1833
214.645	2739
214.712	2461
214.779	2688
214.846	973
214.913	2894
214.980	2068
215.048	3251
215.115	3173
215.182	3419
215.249	1812
215.316	2112
215.383	1873
215.450	2716
215.517	1553
215.584	1991
215.651	966
215.718	2081
215.785	2333
215.852	2015
215.919	2697
215.986	2434
216.053	1956
216.120	1287
216.187	2169
216.254	2223
216.321	1844
216.388	2411
216.455	2136
216.522	2804
216.589	2239
216.656	6311
216.722	4941
216.789	3319
216.856	2294
216.923	3052
216.990	2599
217.057	2166
217.124	2348
217.191	3018
217.258	3220
217.324	4467
217.391	4236
217.458	3229
217.525	1685
217.592	2364
217.659	1349
217.725	2857
217.792	3857
217.859	4806
217.926	1147
217.993	1666
218.059	1850
218.126	2185
218.193	1367
218.260	1586
218.327	1077
218.393	1683
218.460	1416
218.527	1604
218.594	2142
218.660	4995
218.727	5422
218.794	2521
218.860	1860
218.927	1615
218.994	1272
219.061	1856
219.127	2162
219.194	4710
219.261	1687
219.327	1639
219.394	1046
219.461	1031
219.527	1558
219.594	3250
219.661	2145
219.727	930
219.794	2070
219.860	1642
219.927	1848
219.994	3963
220.060	6811
220.127	4093
220.193	3154
220.260	2347
220.326	2611
220.393	4737
220.460	6623
220.526	4406
220.593	2295
220.659	4150
220.726	3481
220.792	12019
220.859	8220
220.925	9010
220.992	12595
221.058	14832
221.125	16192
221.191	11840
221.258	4280
221.324	3639
221.391	3142
221.457	2079
221.524	2313
221.590	3627
221.657	15601
221.723	10502
221.789	9350
221.856	9483
221.922	4426
221.989	3177
222.055	2504
222.121	943
222.188	3229
222.254	2890
222.321	1522
222.387	887
222.453	1260
222.520	1912
222.586	618
222.652	1741
222.719	706
222.785	2647
222.851	1346
222.918	1389
222.984	704
223.050	2231
223.116	302
223.183	1905
223.249	327
223.315	1226
223.382	1194
223.448	1345
223.514	471
223.580	1471
223.647	152
223.713	1436
223.779	869
223.845	1094
223.911	1240
223.978	964
224.044	927
224.110	1141
224.176	920
224.242	2019
224.309	-47
224.375	1941
224.441	1439
224.507	1025
224.573	271
224.639	2099
224.705	588
224.772	1470
224.838	507
224.904	2344
224.970	1187
225.036	1231
225.102	837
225.168	1941
225.234	1638
225.300	1590
225.366	1980
225.432	1707
225.499	957
225.565	2331
225.631	2166
225.697	2292
225.763	1392
225.829	2705
225.895	2622
225.961	5438
226.027	4542
226.093	2940
226.159	3391
226.225	4589
226.291	10564
226.357	20144
226.423	9621
226.489	6072
226.554	3741
226.620	3820
226.686	4195
226.752	7911
226.818	9575
226.884	26557
226.950	23421
227.016	8923
227.082	5275
227.148	4555
227.214	4705
227.279	3319
227.345	1250
227.411	2732
227.477	2843
227.543	8280
227.609	9245
227.674	4453
227.740	2266
227.806	3041
227.872	2060
227.938	3112
228.003	4543
228.069	2611
228.135	1149
228.201	2330
228.267	1535
228.332	2042
228.398	2400
228.464	2790
228.530	1400
228.595	1826
228.661	742
228.727	4190
228.792	3691
228.858	1875
228.924	840
228.990	4584
229.055	1951
229.121	3926
229.187	1626
229.252	2380
229.318	1341
229.384	2072
229.449	2660
229.515	1135
229.581	49
229.646	2751
229.712	2394
229.777	7115
229.843	7238
229.909	6121
229.974	4426
230.040	4848
230.105	2458
230.171	4292
230.236	3851
230.302	8251
230.368	5818
230.433	2793
230.499	3332
230.564	3562
230.630	2182
230.695	2691
230.761	2555
230.826	1664
230.892	4310
230.957	2706
231.023	1393
231.088	2967
231.154	2119
231.219	3530
231.284	3429
231.350	5387
231.415	1393
231.481	2830
231.546	1433
231.612	1732
231.677	1109
231.742	915
231.808	2984
231.873	1956
231.939	561
232.004	5984
232.069	5283
232.135	2215
232.200	2107
232.265	2196
232.331	1247
232.396	1659
232.461	547
232.527	1493
232.592	1277
232.657	2311
232.723	6120
232.788	4930
232.853	2235
232.918	2049
232.984	944
233.049	2025
233.114	6075
233.179	6548
233.245	9088
233.310	12187
233.375	2278
233.440	2556
233.506	1981
233.571	1928
233.636	2545
233.701	2187
233.766	6190
233.832	9912
233.897	3163
233.962	2626
234.027	4340
234.092	4424
234.157	2557
234.222	2327
234.288	5642
234.353	22373
234.418	19932
234.483	10130
234.548	6650
234.613	4414
234.678	3635
234.743	4578
234.808	23782
234.873	14022
234.938	5358
235.004	3662
235.069	3031
235.134	4052
235.199	3218
235.264	3565
235.329	1514
235.394	3238
235.459	5464
235.524	3739
235.589	3141
235.654	2569
235.719	1208
235.784	3214
235.849	3147
235.913	11996
235.978	13549
236.043	15870
236.108	4729
236.173	5040
236.238	5536
236.303	3669
236.368	2578
236.433	7710
236.498	15251
236.563	7514
236.627	8368
236.692	36048
236.757	27160
236.822	12522
236.887	9831
236.952	6875
237.017	5363
237.081	7331
237.146	6505
237.211	13327
237.276	32154
237.341	64534
237.405	30699
237.470	12259
237.535	10147
237.600	6335
237.664	4556
237.729	3620
237.794	3812
237.859	9196
237.923	9460
237.988	6048
238.053	9844
238.118	11337
238.182	29022
238.247	28326
238.312	12645
238.376	8555
238.441	5981
238.506	6938
238.570	3066
238.635	4336
238.700	2867
238.764	3747
238.829	13882
238.893	18249
238.958	6491
239.023	6098
239.087	2891
239.152	4903
239.216	2719
239.281	3642
239.346	3140
239.410	3068
239.475	4642
239.539	29473
239.604	24210
239.668	7040
239.733	4104
239.797	5703
239.862	14971
239.926	26159
239.991	9433
240.055	4819
240.120	2859
240.184	4045
240.249	2414
240.313	3012
240.378	4146
240.442	16790
240.507	29930
240.571	9136
240.635	13369
240.700	17905
240.764	5055
240.829	3357
240.893	1504
240.957	4567
241.022	15580
241.086	31600
241.151	14045
241.215	4353
241.279	6897
241.344	15355
241.408	6124
241.472	4102
241.537	4438
241.601	4548
241.665	2793
241.730	3887
241.794	4293
241.858	2918
241.922	3154
241.987	3574
242.051	2199
242.115	2525
242.179	2661
242.244	3242
242.308	3153
242.372	4722
242.436	5339
242.501	4624
242.565	2576
242.629	2743
242.693	3285
242.757	2474
242.822	3261
242.886	5025
242.950	4249
243.014	4984
243.078	5297
243.142	4843
243.206	4021
243.271	5915
243.335	3487
243.399	6277
243.463	27091
243.527	81615
243.591	25541
243.655	9701
243.719	4358
243.783	5849
243.847	9389
243.911	13733
243.975	14492
244.040	10110
244.104	5915
244.168	3476
244.232	6702
244.296	10904
244.360	11467
244.424	6775
244.488	5788
244.552	6124
244.615	3143
244.679	4784
244.743	4268
244.807	5776
244.871	3818
244.935	4076
244.999	2654
245.063	3996
245.127	4581
245.191	8372
245.255	8170
245.319	6249
245.383	5247
245.446	5959
245.510	2388
245.574	4086
245.638	4144
245.702	3623
245.766	12487
245.829	7917
245.893	5406
245.957	4077
246.021	4784
246.085	5682
246.149	6104
246.212	16457
246.276	23630
246.340	10326
246.404	7228
246.467	7206
246.531	11283
246.595	8828
246.659	6808
246.722	5542
246.786	7327
246.850	8959
246.913	11187
246.977	5695
247.041	5083
247.104	6595
247.168	5433
247.232	14831
247.295	32305
247.359	15756
247.423	6367
247.486	13766
247.550	8765
247.614	5591
247.677	7894
247.741	5600
247.804	4651
247.868	6770
247.932	12625
247.995	30096
248.059	11780
248.122	5335
248.186	7393
248.249	12387
248.313	48321
248.376	51014
248.440	31576
248.503	11072
248.567	9566
248.630	13978
248.694	18984
248.757	22457
248.821	52308
248.884	29105
248.948	25431
249.011	38482
249.075	60208
249.138	51443
249.202	19500
249.265	13402
249.328	21971
249.392	13873
249.455	9632
249.519	7004
249.582	9829
249.645	16843
249.709	11778
249.772	8033
249.835	7193
249.899	11913
249.962	7828
250.025	6684
250.089	17694
250.152	26477
250.215	12572
250.279	9721
250.342	9954
250.405	10040
250.468	8759
250.532	11142
250.595	16342
250.658	71212
250.721	120480
250.785	40457
250.848	20350
250.911	11641
250.974	9830
251.038	14643
251.101	31226
251.164	17982
251.227	17352
251.290	15177
251.354	20649
251.417	100227
251.480	97285
251.543	58563
251.606	187288
251.669	136381
251.732	46433
251.795	43886
251.859	44430
251.922	116914
251.985	65934
252.048	22753
252.111	16214
252.174	15765
252.237	25818
252.300	61985
252.363	68361
252.426	150543
252.489	61733
252.552	31704
252.615	20335
252.678	20741
252.741	45259
252.804	63733
252.867	153310
252.930	86738
252.993	45323
253.056	25202
253.119	17970
253.182	14166
253.245	25889
253.308	19833
253.371	19362
253.434	19007
253.497	15492
253.559	30679
253.622	20697
253.685	27727
253.748	26222
253.811	12965
253.874	19448
253.937	19143
254.000	12014
254.062	20164
254.125	31057
254.188	25746
254.251	22621
254.314	11971
254.376	21348
254.439	23408
254.502	19024
254.565	21205
254.628	35009
254.690	22049
254.753	11880
254.816	10108
254.878	11069
254.941	23733
255.004	24338
255.067	11087
255.129	10215
255.192	6456
255.255	5069
255.317	7681
255.380	4401
255.443	4440
255.505	3680
255.568	4998
255.631	4411
255.693	5532
255.756	3994
255.819	4975
255.881	3907
255.944	4169
256.006	4239
256.069	5117
256.132	4039
256.194	7139
256.257	27640
256.319	19563
256.382	17198
256.444	8262
256.507	5476
256.569	5496
256.632	5034
256.694	10436
256.757	17917
256.819	52291
256.882	20143
256.944	9123
257.007	7427
257.069	9502
257.132	6228
257.194	6268
257.257	4949
257.319	5033
257.381	4944
257.444	13764
257.506	61504
257.569	69728
257.631	51853
257.693	25528
257.756	11353
257.818	12232
257.880	5723
257.943	6308
258.005	4486
258.067	4716
258.130	4915
258.192	7299
258.254	17433
258.317	9990
258.379	6738
258.441	18393
258.503	18175
258.566	30187
258.628	41311
258.690	10571
258.753	7786
258.815	13769
258.877	7921
258.939	5844
259.001	4883
259.064	5216
259.126	7799
259.188	13485
259.250	7957
259.312	9811
259.375	32398
259.437	18789
259.499	6661
259.561	6439
259.623	6415
259.685	5605
259.747	5455
259.809	28228
259.872	54555
259.934	79951
259.996	63400
260.058	15442
260.120	6871
260.182	5976
260.244	5060
260.306	4616
260.368	5144
260.430	4475
260.492	8723
260.554	24312
260.616	23287
260.678	36638
260.740	57233
260.802	14562
260.864	8820
260.926	6903
260.988	7174
261.050	6748
261.112	10944
261.174	47899
261.236	45084
261.298	12928
261.359	24076
261.421	36585
261.483	9892
261.545	6888
261.607	4382
261.669	6369
261.731	14296
261.793	37329
261.854	14065
261.916	8312
261.978	5404
262.040	6517
262.102	6151
262.164	14939
262.225	11292
262.287	6626
262.349	14674
262.411	13222
262.472	6551
262.534	16733
262.596	37566
262.658	12230
262.719	5227
262.781	9825
262.843	35844
262.904	15884
262.966	9695
263.028	11113
263.090	57532
263.151	149225
263.213	44914
263.275	18736
263.336	9171
263.398	6660
263.459	4743
263.521	5455
263.583	13909
263.644	10395
263.706	5019
263.767	3558
263.829	3845
263.891	3069
263.952	2704
264.014	2921
264.075	3204
264.137	9137
264.198	6312
264.260	2739
264.321	3054
264.383	8655
264.444	16230
264.506	5990
264.567	3873
264.629	6364
264.690	9538
264.752	6678
264.813	4247
264.875	3470
264.936	3233
264.998	2884
265.059	2780
265.120	2985
265.182	4810
265.243	23354
265.305	22432
265.366	6946
265.427	3429
265.489	4435
265.550	1735
265.611	4303
265.673	3601
265.734	2917
265.795	2641
265.857	3668
265.918	2600
265.979	6566
266.040	40744
266.102	32877
266.163	9561
266.224	8588
266.286	5229
266.347	4389
266.408	3888
266.469	6610
266.530	4868
266.592	4036
266.653	9361
266.714	15370
266.775	5475
266.836	4167
266.898	3607
266.959	5864
267.020	4454
267.081	4904
267.142	3866
267.203	5149
267.264	3749
267.326	6045
267.387	4562
267.448	3235
267.509	3319
267.570	3880
267.631	2812
267.692	4364
267.753	7350
267.814	4193
267.875	8465
267.936	19734
267.997	7053
268.058	5762
268.119	3817
268.180	4502
268.241	2501
268.302	2699
268.363	2421
268.424	4957
268.485	4004
268.546	3407
268.607	1655
268.668	2455
268.729	2669
268.790	3622
268.851	3364
268.912	10996
268.972	13491
269.033	8029
269.094	3710
269.155	3701
269.216	2635
269.277	4974
269.338	3116
269.398	2611
269.459	4165
269.520	5751
269.581	7683
269.642	9226
269.702	6519
269.763	5528
269.824	3283
269.885	6444
269.945	8488
270.006	4197
270.067	2520
270.128	3527
270.188	3981
270.249	4197
270.310	2613
270.370	4301
270.431	3818
270.492	2270
270.553	3218
270.613	9118
270.674	18835
270.734	8008
270.795	4579
270.856	6217
270.916	6144
270.977	4435
271.038	5670
271.098	5071
271.159	8761
271.219	10249
271.280	3710
271.340	3770
271.401	5378
271.462	20609
271.522	8450
271.583	4649
271.643	5094
271.704	4814
271.764	5047
271.825	12967
271.885	42947
271.946	61558
272.006	18487
272.066	25970
272.127	47729
272.187	15540
272.248	8180
272.308	8682
272.369	34725
272.429	19333
272.489	14284
272.550	13527
272.610	14279
272.671	11793
272.731	13161
272.791	25449
272.852	10758
272.912	9649
272.972	5337
273.033	6062
273.093	11440
273.153	9977
273.214	6977
273.274	7649
273.334	24002
273.394	51993
273.455	21713
273.515	20499
273.575	44618
273.635	19617
273.696	29011
273.756	54689
273.816	22856
273.876	14272
273.936	34832
273.997	64863
274.057	15856
274.117	10884
274.177	12407
274.237	57944
274.297	54706
274.358	48192
274.418	42265
274.478	30600
274.538	11697
274.598	10637
274.658	52313
274.718	70414
274.778	25476
274.838	12635
274.898	27593
274.958	95398
275.018	60756
275.078	35281
275.138	14995
275.198	9985
275.258	6833
275.318	10955
275.378	16200
275.438	15372
275.498	10998
275.558	39582
275.618	80750
275.678	41135
275.738	21297
275.798	16360
275.858	7911
275.918	5706
275.978	7145
276.038	7545
276.098	4621
276.157	11634
276.217	34881
276.277	18228
276.337	10787
276.397	7838
276.457	9287
276.517	6823
276.576	5456
276.636	6602
276.696	11891
276.756	23559
276.815	17501
276.875	9426
276.935	11098
276.995	10531
277.055	6903
277.114	6886
277.174	8370
277.234	27633
277.293	13797
277.353	9012
277.413	5885
277.472	7483
277.532	7528
277.592	9397
277.651	39051
277.711	78655
277.771	24079
277.830	82556
277.890	65672
277.950	47233
278.009	136090
278.069	50959
278.128	55113
278.188	79301
278.248	31493
278.307	87816
278.367	53513
278.426	17922
278.486	10905
278.545	10016
278.605	7765
278.664	8578
278.724	8954
278.783	23080
278.843	57340
278.902	20588
278.962	13392
279.021	15797
279.081	44652
279.140	41533
279.199	20499
279.259	19542
279.318	20364
279.378	26365
279.437	45174
279.496	149977
279.556	458131
279.615	401855
279.675	129832
279.734	67575
279.793	98329
279.853	134139
279.912	45957
279.971	28771
280.031	23528
280.090	38375
280.149	63150
280.208	70426
280.268	321476
280.327	343421
280.386	99806
280.445	55129
280.505	42036
280.564	22714
280.623	17175
280.682	21252
280.742	30568
280.801	13765
280.860	9941
280.919	9571
280.978	9283
281.037	9749
281.097	8404
281.156	9995
281.215	8230
281.274	9208
281.333	36875
281.392	29438
281.451	9401
281.510	8004
281.569	7085
281.628	7329
281.688	6070
281.747	7041
281.806	6147
281.865	6518
281.924	5184
281.983	6712
282.042	4696
282.101	5922
282.160	4879
282.219	5785
282.278	6028
282.337	19106
282.396	14475
282.454	6980
282.513	7717
282.572	28114
282.631	17160
282.690	7886
282.749	5663
282.808	7745
282.867	7489
282.926	7754
282.985	4734
283.043	5198
283.102	5732
283.161	7912
283.220	16613
283.279	35707
283.338	12314
283.396	7716
283.455	6931
283.514	7971
283.573	18526
283.631	14289
283.690	7792
283.749	8066
283.808	13713
283.866	16677
283.925	7808
283.984	8549
284.043	10019
284.101	11363
284.160	9125
284.219	10919
284.277	11039
284.336	20633
284.395	45236
284.453	38972
284.512	17041
284.570	21439
284.629	19772
284.688	22055
284.746	25168
284.805	29503
284.863	39184
284.922	48476
284.981	56257
285.039	76992
285.098	125306
285.156	265881
285.215	378186
285.273	370514
285.332	288362
285.390	166031
285.449	100692
285.507	68482
285.566	49546
285.624	39984
285.683	29245
285.741	25381
285.799	20498
285.858	19225
285.916	18278
285.975	15062
286.033	12047
286.091	11969
286.150	10327
286.208	10778
286.267	12768
286.325	11604
286.383	13800
286.442	12188
286.500	9292
286.558	10372
286.616	7555
286.675	11483
286.733	10086
286.791	10020
286.850	8181
286.908	10762
286.966	17093
287.024	9007
287.083	6946
287.141	6242
287.199	7207
287.257	9766
287.315	7556
287.374	8267
287.432	16301
287.490	12695
287.548	7865
287.606	8121
287.664	7842
287.723	9424
287.781	11460
287.839	8528
287.897	9315
287.955	10737
288.013	13410
288.071	30877
288.129	147534
288.187	428318
288.245	189525
288.303	62552
288.361	33366
288.419	21705
288.477	15410
288.535	11946
288.593	8174
288.651	7380
288.709	6507
288.767	7043
288.825	6388
288.883	6540
288.941	8317
288.999	7545
289.057	4729
289.115	4972
289.173	5451
289.231	5937
289.289	5952
289.346	6574
289.404	5921
289.462	11292
289.520	9894
289.578	5784
289.636	3620
289.694	4146
289.751	3954
289.809	3508
289.867	3863
289.925	5922
289.983	6847
290.040	3525
290.098	3186
290.156	5267
290.214	6246
290.271	4063
290.329	3427
290.387	3379
290.444	2928
290.502	2932
290.560	3160
290.617	3739
290.675	4224
290.733	4420
290.790	4466
290.848	4285
290.906	5448
290.963	4612
291.021	4040
291.078	3884
291.136	4833
291.194	12062
291.251	27753
291.309	9392
291.366	3928
291.424	4156
291.481	4379
291.539	5827
291.596	7220
291.654	4415
291.711	2563
291.769	4047
291.826	10179
291.884	7557
291.941	3374
291.999	4196
292.056	3999
292.114	4887
292.171	3658
292.228	4382
292.286	4697
292.343	11418
292.401	13107
292.458	9352
292.515	5677
292.573	7575
292.630	7106
292.687	7857
292.745	4619
292.802	5785
292.859	18212
292.917	41464
292.974	22146
293.031	8541
293.089	5592
293.146	4554
293.203	3711
293.260	4019
293.318	6526
293.375	7577
293.432	5362
293.489	4461
293.546	3396
293.604	8404
293.661	33959
293.718	69553
293.775	29599
293.832	17216
293.889	15640
293.947	17094
294.004	10850
294.061	8439
294.118	15587
294.175	30479
294.232	30449
294.289	15385
294.346	7938
294.403	7774
294.460	8640
294.517	7211
294.574	4840
294.631	4542
294.688	4745
294.745	15109
294.802	59999
294.859	51664
294.916	25142
294.973	18823
295.030	11971
295.087	10079
295.144	6901
295.201	5939
295.258	4670
295.315	6055
295.372	25381
295.429	50629
295.486	20630
295.542	9604
295.599	15339
295.656	25025
295.713	25613
295.770	43163
295.827	17272
295.883	8000
295.940	6558
295.997	13127
296.054	11487
296.111	6577
296.167	5193
296.224	4228
296.281	3653
296.338	3787
296.394	3262
296.451	5694
296.508	18305
296.564	35892
296.621	20736
296.678	49097
296.734	69127
296.791	27313
296.848	12760
296.904	12527
296.961	28463
297.018	54782
297.074	38835
297.131	18005
297.187	10929
297.244	13553
297.301	54069
297.357	97533
297.414	34136
297.470	15401
297.527	8732
297.583	9164
297.640	7748
297.696	6377
297.753	3942
297.809	4124
297.866	3472
297.922	4776
297.979	4375
298.035	5057
298.092	10113
298.148	32374
298.204	29232
298.261	13070
298.317	21336
298.374	61662
298.430	36803
298.486	20534
298.543	16144
298.599	19200
298.656	24867
298.712	28916
298.768	58641
298.824	44156
298.881	17065
298.937	10885
298.993	7020
299.050	8788
299.106	7629
299.162	6964
299.218	7991
299.275	6793
299.331	4883
299.387	13985
299.443	57881
299.500	65489
299.556	30060
299.612	14458
299.668	13777
299.724	19656
299.780	20128
299.837	10781
299.893	15171
299.949	53880
300.005	59453
300.061	51339
300.117	84863
300.173	42436
300.229	20092
300.285	23239
300.341	23272
300.397	14852
300.453	8105
300.510	9580
300.566	8497
300.622	10778
300.678	34502
300.734	60974
300.790	53947
300.845	60805
300.901	40656
300.957	57182
301.013	41550
301.069	18006
301.125	11555
301.181	13398
301.237	10464
301.293	8552
301.349	7811
301.405	9685
301.461	13555
301.516	25274
301.572	18632
301.628	17682
301.684	15120
301.740	28834
301.796	45747
301.851	29491
301.907	38102
301.963	34517
302.019	57047
302.074	165247
302.130	162020
302.186	87007
302.242	36355
302.297	20026
302.353	18045
302.409	37542
302.464	34132
302.520	26743
302.576	60229
302.631	68657
302.687	37343
302.743	17949
302.798	9133
302.854	6291
302.910	7356
302.965	10322
303.021	21097
303.076	20697
303.132	23842
303.187	27728
303.243	15012
303.299	8307
303.354	6101
303.410	5728
303.465	6194
303.521	5546
303.576	5366
303.632	6093
303.687	17198
303.743	56258
303.798	45031
303.853	18989
303.909	10380
303.964	8504
304.020	13270
304.075	19282
304.130	18713
304.186	31465
304.241	30876
304.297	25601
304.352	13904
304.358	13432
304.407	9613
304.449	8867
304.463	8621
304.518	8676
304.539	7915
304.573	6720
304.629	6935
304.630	7018
304.684	11244
304.720	30159
304.739	39619
304.794	56865
304.811	48737
304.850	29307
304.902	13635
304.905	12641
304.960	9413
304.992	8410
305.015	7702
305.071	9520
305.083	9148
305.126	7682
305.173	5863
305.181	5587
305.236	4684
305.264	5114
305.292	5604
305.347	7918
305.354	8510
305.402	12093
305.445	10797
305.457	10434
305.512	11426
305.535	10803
305.567	9960
305.622	9075
305.626	9451
305.678	18470
305.716	44003
305.733	53411
305.788	60103
305.807	51840
305.843	38008
305.897	52397
305.898	52538
305.953	49428
305.988	33106
306.008	24346
306.063	14484
306.078	12754
306.118	8869
306.168	6954
306.173	6785
306.228	5610
306.259	4917
306.283	4397
306.338	4660
306.349	4807
306.393	5446
306.440	5488
306.448	5509
306.503	6318
306.530	6538
306.558	8069
306.613	17981
306.620	19606
306.668	30605
306.711	47645
306.723	50444
306.778	39157
306.801	30215
306.833	20100
306.888	9841
306.892	9487
306.943	6632
306.982	5444
306.997	5005
307.052	5589
307.072	5364
307.107	5520
307.162	7303
307.163	7337
307.217	10908
307.253	13432
307.272	13942
307.327	14222
307.343	13371
307.381	11705
307.434	10223
307.436	10482
307.491	22324
307.524	34457
307.546	38276
307.600	39527
307.614	35396
307.655	22342
307.704	11480
307.710	10899
307.765	10683
307.795	13969
307.819	17307
307.874	26405
307.885	26557
307.929	20637
307.975	13140
307.984	12891
308.038	15581
308.065	18549
308.093	32912
308.148	78565
308.156	91491
308.202	159048
308.246	190479
308.257	186524
308.312	99024
308.336	69879
308.366	53834
308.421	35554
308.426	34131
308.475	22089
308.517	15254
308.530	13721
308.585	11627
308.607	11188
308.639	11421
308.694	12626
308.697	12863
308.748	24181
308.787	36557
308.803	36829
308.857	27480
308.877	23367
308.912	19984
308.967	18618
308.967	18658
309.021	26362
309.058	34562
309.076	42020
309.130	71440
309.148	82352
309.185	141973
309.238	257352
309.239	258109
309.293	298947
309.328	274813
309.348	238859
309.402	116890
309.418	87043
309.457	60354
309.508	40749
309.511	40146
309.566	41843
309.598	47725
309.620	59664
309.674	104764
309.688	115799
309.729	111839
309.778	83938
309.783	81470
309.837	52185
309.868	38718
309.892	38542
309.946	46868
309.959	51190
310.001	63928
310.049	72960
310.055	70618
310.109	42594
310.139	27057
310.163	21518
310.218	13968
310.229	12876
310.272	10094
310.319	7913
310.326	7602
310.381	6235
310.409	5644
310.435	5385
310.489	5249
310.499	5288
310.543	5663
310.589	5935
310.598	5770
310.652	5292
310.679	4794
310.706	4279
310.760	3316
310.769	3204
310.814	2991
310.859	2915
310.868	2960
310.923	3168
310.948	3428
310.977	4008
311.031	5090
311.038	5273
311.085	4764
311.128	3832
311.139	3722
311.193	3585
311.218	3376
311.247	3254
311.301	3351
311.308	3363
311.356	3054
311.398	2823
311.410	2823
311.464	2825
311.488	2831
311.518	2734
311.572	2621
311.578	2635
311.626	4408
311.668	5934
311.680	5881
311.734	5539
311.758	5378
311.788	5109
311.842	4719
311.847	4692
311.896	5840
311.937	6875
311.950	6817
312.004	6598
312.027	6498
312.058	5591
312.112	4010
312.117	3866
312.165	3313
312.207	2875
312.297	3672
312.386	3549
312.476	4272
312.566	10111
312.656	3351
312.745	2109
312.835	2355
312.925	3630
313.015	3988
313.104	4015
313.194	3644
313.284	3056
313.374	4988
313.463	4323
313.553	2341
313.643	2360
313.732	2118
313.822	2097
313.912	2810
314.001	4011
314.091	3420
314.180	4083
314.270	4946
314.360	5869
314.449	4071
314.539	2532
314.628	3366
314.718	2830
314.808	5170
314.897	3036
314.987	3229
315.076	4975
315.166	6126
315.255	6209
315.345	5599
315.434	6202
315.524	5119
315.613	6537
315.703	10635
315.792	25481
315.881	92818
315.971	25612
316.060	12155
316.150	17008
316.239	17441
316.328	5880
316.418	2832
316.507	3619
316.597	4625
316.686	4574
316.775	8802
316.865	18883
316.954	3333
317.043	2842
317.133	3124
317.222	2719
317.311	2404
317.400	2399
317.490	5542
317.579	6823
317.668	6117
317.757	15051
317.847	50139
317.936	162148
318.025	44260
318.114	27629
318.203	12209
318.293	9604
318.382	18036
318.471	14581
318.560	18305
318.649	29961
318.738	6589
318.828	5453
318.917	5511
319.006	7073
319.095	21687
319.184	40569
319.273	25340
319.362	13448
319.451	4273
319.540	4540
319.629	12578
319.718	20040
319.807	6018
319.896	16164
319.985	54371
320.074	18267
320.163	4585
320.252	10713
320.341	5479
320.430	4717
320.519	9387
320.608	5344
320.697	3482
320.786	4063
320.875	6270
320.964	9135
321.053	14180
321.142	21749
321.230	20949
321.319	17008
321.408	35782
321.497	14197
321.586	14032
321.675	17706
321.764	14576
321.852	9401
321.941	19831
322.030	10914
322.119	13853
322.207	40197
322.296	24302
322.385	10665
322.474	17300
322.562	49366
322.651	20181
322.740	18077
322.829	25370
322.917	25176
323.006	14359
323.095	11058
323.183	6730
323.272	11775
323.361	27487
323.449	86089
323.538	24238
323.626	58853
323.715	31199
323.804	11954
323.892	52667
323.981	23913
324.069	7252
324.158	28091
324.246	23052
324.335	7247
324.424	13201
324.512	4393
324.601	6740
324.689	24248
324.778	43908
324.866	19902
324.954	4560
325.043	3717
325.131	10988
325.220	20305
325.308	22267
325.397	16022
325.485	8477
325.574	2709
325.662	1830
325.750	2545
325.839	2792
325.927	2233
326.015	4048
326.104	8233
326.192	11129
326.280	3244
326.369	1912
326.457	5206
326.545	10399
326.634	3770
326.722	2161
326.810	2969
326.898	2206
326.987	2710
327.075	9402
327.163	10800
327.251	5038
327.340	15385
327.428	22756
327.516	2667
327.604	3022
327.692	3573
327.781	4589
327.869	7758
327.957	4493
328.045	4234
328.133	2146
328.221	4355
328.309	2803
328.397	2566
328.485	3251
328.574	6355
328.662	25593
328.750	12609
328.838	4224
328.926	1998
329.014	2287
329.102	3405
329.190	10434
329.278	6740
329.366	1618
329.454	1348
329.542	653
329.630	1054
329.718	1624
329.806	2931
329.893	2122
329.981	1586
330.069	2046
330.157	10383
330.245	36067
330.333	15545
330.421	2836
330.509	5687
330.597	29691
330.684	16395
330.772	3601
330.860	5772
330.948	6680
331.036	2916
331.123	992
331.211	1680
331.299	1773
331.387	5697
331.475	11403
331.562	3901
331.650	2286
331.738	3057
331.825	4104
331.913	1509
332.001	1063
332.089	3196
332.176	7183
332.264	25448
332.352	17035
332.439	4341
332.527	2390
332.614	2338
332.702	4238
332.790	2436
332.877	11183
332.965	26682
333.052	7244
333.140	9773
333.228	27141
333.315	4838
333.403	3267
333.490	14819
333.578	15205
333.665	36763
333.753	11643
333.840	2164
333.928	3608
334.015	14375
334.103	20990
334.190	66196
334.278	13645
334.365	7295
334.452	6438
334.540	2804
334.627	4721
334.715	6649
334.802	15457
334.889	106527
334.977	102302
335.064	13389
335.151	4089
335.239	4355
335.326	4942
335.413	26971
335.501	35013
335.588	3743
335.675	3924
335.762	3540
335.850	6895
335.937	6381
336.024	22444
336.111	106865
336.199	43596
336.286	7860
336.373	3478
336.460	2428
336.547	2342
336.635	3838
336.722	3163
336.809	2905
336.896	4815
336.983	14399
337.070	36060
337.157	57274
337.245	62367
337.332	41417
337.419	3530
337.506	2398
337.593	1963
337.680	9706
337.767	29918
337.854	7998
337.941	10326
338.028	19391
338.115	5219
338.202	4961
338.289	14693
338.376	62855
338.463	15390
338.550	16603
338.637	18115
338.724	9308
338.811	17323
338.898	2319
338.984	1131
339.071	3132
339.158	4320
339.245	13340
339.332	7758
339.419	11890
339.506	9518
339.593	649
339.679	1776
339.766	892
339.853	3470
339.940	9252
340.027	2653
340.113	2662
340.200	4276
340.287	3131
340.374	3973
340.460	8279
340.547	2624
340.634	6889
340.720	30984
340.807	16001
340.894	3229
340.980	2968
341.067	1347
341.154	3420
341.240	6052
341.327	14073
341.414	5272
341.500	5596
341.587	2400
341.674	1815
341.760	8347
341.847	11149
341.933	2181
342.020	403
342.106	1062
342.193	2095
342.279	6815
342.366	4910
342.452	8203
342.539	3473
342.625	12339
342.712	32470
342.798	12074
342.885	4107
342.971	556
343.058	1076
343.144	2164
343.230	1449
343.317	3434
343.403	2245
343.490	1299
343.576	1050
343.662	1951
343.749	2034
343.835	3866
343.921	8443
344.008	76149
344.094	174779
344.180	32234
344.267	9279
344.353	43048
344.439	42651
344.525	13871
344.612	5152
344.698	3819
344.784	2907
344.870	1666
344.957	2215
345.043	5033
345.129	2490
345.215	8342
345.301	4568
345.387	3026
345.474	1261
345.560	1058
345.646	1768
345.732	1640
345.818	3775
345.904	3167
345.990	3100
346.076	3503
346.162	8495
346.249	3279
346.335	1280
346.421	3176
346.507	16901
346.593	66810
346.679	11637
346.765	2966
346.851	2183
346.937	1812
347.023	1781
347.108	3595
347.194	2232
347.280	2362
347.366	4280
347.452	18568
347.538	81469
347.624	51651
347.710	38190
347.796	5035
347.882	2341
347.967	1542
348.053	1575
348.139	1585
348.225	1602
348.311	1517
348.397	1415
348.482	2798
348.568	3342
348.654	917
348.740	4206
348.825	3199
348.911	6016
348.997	35796
349.083	73713
349.168	8669
349.254	2576
349.340	3398
349.425	1540
349.511	3251
349.597	3487
349.682	9580
349.768	39073
349.854	16634
349.939	1523
350.025	680
350.110	1493
350.196	1448
350.282	327
350.367	1112
350.453	5114
350.538	4440
350.624	2551
350.709	2883
350.795	1108
350.880	1476
350.966	2285
351.051	5305
351.137	3287
351.222	2491
351.308	10624
351.393	31313
351.479	8016
351.564	2614
351.649	2077
351.735	1015
351.820	1198
351.906	1593
351.991	3196
352.076	20269
352.162	29862
352.247	4895
352.332	3657
352.418	8271
352.503	10958
352.588	45071
352.673	35219
352.759	6683
352.844	2361
352.929	3303
353.014	4876
353.100	2534
353.185	7292
353.270	11368
353.355	10102
353.441	2038
353.526	3311
353.611	9867
353.696	10707
353.781	5756
353.866	1646
353.952	2683
354.037	9042
354.122	21615
354.207	19563
354.292	5725
354.377	2316
354.462	1644
354.547	3471
354.632	2717
354.717	4479
354.802	8178
354.887	2810
354.972	1493
355.057	590
355.142	46
355.227	3177
355.312	6052
355.397	13324
355.482	36125
355.567	16048
355.652	11203
355.737	12882
355.822	45640
355.907	37375
355.991	5117
356.076	1109
356.161	1535
356.246	2090
356.331	1885
356.416	10883
356.501	87107
356.585	89540
356.670	8907
356.755	6222
356.840	8172
356.924	54701
357.009	208210
357.094	72277
357.179	11446
357.263	7913
357.348	7740
357.433	7103
357.517	5981
357.602	5314
357.687	4792
357.771	15569
357.856	65407
357.941	33214
358.025	41002
358.110	195358
358.195	84734
358.279	8323
358.364	6313
358.448	28386
358.533	82124
358.617	57448
358.702	57658
358.787	19253
358.871	10158
358.956	8316
359.040	1955
359.125	1930
359.209	5557
359.294	31472
359.378	53940
359.462	12933
359.547	4601
359.631	2455
359.716	1517
359.800	2461
359.885	4297
359.969	2664
360.053	2046
360.138	1634
360.222	4301
360.306	9931
360.391	9151
360.475	30694
360.559	61974
360.644	33412
360.728	22024
360.812	45979
360.896	131144
360.981	44549
361.065	18467
361.149	4720
361.233	5294
361.318	4199
361.402	5073
361.486	4808
361.570	2816
361.654	4049
361.739	15084
361.823	81238
361.907	134341
361.991	20084
362.075	8577
362.159	20742
362.243	15049
362.327	13554
362.411	22323
362.495	10468
362.580	4534
362.664	3282
362.748	1744
362.832	3876
362.916	6594
363.000	33055
363.084	112893
363.168	156721
363.252	30991
363.336	8441
363.420	10647
363.503	35477
363.587	43148
363.671	7601
363.755	4548
363.839	10081
363.923	3713
364.007	10722
364.091	12405
364.175	14840
364.258	61491
364.342	50686
364.426	76634
364.510	41810
364.594	14392
364.677	22021
364.761	111670
364.845	79232
364.929	18253
365.013	14420
365.096	11094
365.180	14311
365.264	15446
365.347	60159
365.431	24775
365.515	5115
365.598	3109
365.682	3266
365.766	3268
365.849	4421
365.933	3676
366.017	5132
366.100	1561
366.184	226
366.267	2450
366.351	1714
366.435	440
366.518	1752
366.602	1662
366.685	2111
366.769	2904
366.852	4601
366.936	10044
367.019	6895
367.103	2592
367.186	5586
367.270	2262
367.353	884
367.436	2438
367.520	2338
367.603	3335
367.687	4805
367.770	11614
367.853	8547
367.937	27252
368.020	48959
368.104	10190
368.187	8900
368.270	12048
368.353	9831
368.437	15700
368.520	39020
368.603	22938
368.687	30968
368.770	62987
368.853	13736
368.936	10091
369.020	8591
369.103	3259
369.186	1705
369.269	1630
369.352	7241
369.436	10511
369.519	5952
369.602	1544
369.685	4075
369.768	3043
369.851	3084
369.934	1177
370.018	3339
370.101	8745
370.184	8368
370.267	4258
370.350	8679
370.433	15421
370.516	57785
370.599	89065
370.682	25931
370.765	28461
370.848	39665
370.931	77829
371.014	27863
371.097	3735
371.180	3421
371.263	1936
371.346	19
371.429	1991
371.511	2133
371.594	5591
371.677	8837
371.760	9030
371.843	10415
371.926	61003
372.009	149824
372.091	45759
372.174	29207
372.257	76875
372.340	30454
372.423	13358
372.505	13451
372.588	7560
372.671	23025
372.754	77022
372.836	38309
372.919	15542
373.002	29819
373.085	11149
373.167	11357
373.250	30626
373.332	74502
373.415	102572
373.498	213847
373.580	79111
373.663	122795
373.746	165178
373.828	29497
373.911	10834
373.993	8945
374.076	28589
374.159	30226
374.241	18617
374.324	59957
374.406	43588
374.489	60356
374.571	176439
374.654	72330
374.736	31387
374.819	107384
374.901	154452
374.983	165046
375.066	25131
375.148	6128
375.231	24971
375.313	48434
375.395	17577
375.478	4606
375.560	3773
375.643	6675
375.725	30541
375.807	137246
375.890	107784
375.972	37153
376.054	18764
376.136	30541
376.219	14764
376.301	37418
376.383	120434
376.465	46569
376.548	21633
376.630	31662
376.712	95260
376.794	45360
376.877	4469
376.959	2239
377.041	2415
377.123	4092
377.205	5449
377.287	732
377.369	1465
377.452	2605
377.534	1727
377.616	2020
377.698	2023
377.780	1489
377.862	2784
377.944	3220
378.026	1473
378.108	1561
378.190	1049
378.272	2652
378.354	1293
378.436	1309
378.518	3683
378.600	12530
378.682	14955
378.764	40262
378.846	33751
378.928	7294
379.010	9656
379.091	6344
379.173	2747
379.255	2003
379.337	4853
379.419	20478
379.501	60108
379.583	25013
379.664	5178
379.746	12742
379.828	38594
379.910	55062
379.991	51241
380.073	8180
380.155	4056
380.237	3557
380.318	2207
380.400	3020
380.482	8392
380.564	14096
380.645	12751
380.727	11798
380.809	6894
380.890	4396
380.972	3369
381.053	3464
381.135	5483
381.217	13388
381.298	41397
381.380	20745
381.461	18962
381.543	93707
381.624	122325
381.706	20729
381.787	8181
381.869	10791
381.951	43316
382.032	165123
382.113	105527
382.195	18049
382.276	13313
382.358	30588
382.439	86563
382.521	103601
382.602	163936
382.684	74428
382.765	121525
382.846	163835
382.928	279379
383.009	160356
383.090	97803
383.172	366387
383.253	580514
383.334	185779
383.416	144590
383.497	81032
383.578	37238
383.659	77983
383.741	306247
383.822	784711
383.903	421742
383.984	113300
384.066	159822
384.147	101024
384.228	21662
384.309	14681
384.390	11760
384.471	7998
384.553	8446
384.634	11744
384.715	13243
384.796	6406
384.877	9868
384.958	38249
385.039	47646
385.120	15787
385.201	6675
385.282	8119
385.363	8523
385.444	8372
385.525	18063
385.606	65488
385.687	60495
385.768	11594
385.849	14305
385.930	70479
386.011	127726
386.092	33290
386.173	6498
386.254	3927
386.335	4621
386.416	5369
386.496	22675
386.577	39383
386.658	12694
386.739	6105
386.820	5286
386.901	4132
386.981	5448
387.062	3692
387.143	9588
387.224	39622
387.304	38924
387.385	11830
387.466	5921
387.547	7782
387.627	7497
387.708	16295
387.789	73348
387.869	97154
387.950	26595
388.031	3122
388.111	1313
388.192	6250
388.273	10586
388.353	7047
388.434	5241
388.514	16409
388.595	78865
388.676	101025
388.756	41899
388.837	34613
388.917	22736
388.998	2769
389.078	3726
389.159	3581
389.239	1873
389.320	7021
389.400	4991
389.480	14755
389.561	42376
389.641	22222
389.722	6058
389.802	9203
389.883	18551
389.963	53272
390.043	35286
390.124	8313
390.204	13901
390.284	43806
390.365	29994
390.445	28145
390.525	91448
390.605	87675
390.686	23475
390.766	7385
390.846	5335
390.927	2514
391.007	2530
391.087	4172
391.167	4436
391.247	2613
391.328	6519
391.408	7740
391.488	6461
391.568	1638
391.648	5333
391.728	8317
391.808	8119
391.888	9701
391.969	23245
392.049	38231
392.129	15883
392.209	18627
392.289	50932
392.369	28932
392.449	14856
392.529	12024
392.609	11836
392.689	17740
392.769	52267
392.849	49050
392.929	32084
393.009	71736
393.089	70511
393.169	75101
393.248	249432
393.328	785542
393.408	856611
393.488	261427
393.568	66453
393.648	31965
393.728	19162
393.807	12855
393.887	11270
393.967	9127
394.047	9839
394.127	10136
394.206	16187
394.286	56569
394.366	257986
394.446	286481
394.525	55303
394.605	11201
394.685	10290
394.764	18262
394.844	31299
394.924	24158
395.003	9910
395.083	6712
395.163	6178
395.242	5456
395.322	6229
395.402	3471
395.481	7203
395.561	13633
395.640	39371
395.720	37624
395.799	40084
395.879	32693
395.958	19762
396.038	78087
396.117	335294
396.197	382287
396.276	88456
396.356	25544
396.435	20521
396.515	19840
396.594	27740
396.673	65235
396.753	257430
396.832	710835
396.912	560440
396.991	128195
397.070	33179
397.150	17158
397.229	12191
397.308	15471
397.388	24898
397.467	12414
397.546	5453
397.625	3023
397.705	8426
397.784	6314
397.863	3161
397.942	2788
398.022	3271
398.101	10177
398.180	31118
398.259	16379
398.338	5894
398.417	4823
398.497	2380
398.576	3273
398.655	1571
398.734	2120
398.813	1719
398.892	9563
398.971	33452
399.050	18125
399.129	2630
399.208	2004
399.287	1808
399.366	816
399.445	1484
399.524	1848
399.603	974
399.682	5099
399.761	12981
399.840	38897
399.919	31954
399.998	3765
400.077	103
400.156	334
400.235	3497
400.313	396
400.392	2208
400.471	19141
400.550	32916
400.629	8251
400.708	3104
400.786	1451
400.865	4937
400.944	5589
401.023	4625
401.102	413
401.180	526
401.259	769
401.338	740
401.416	2852
401.495	2255
401.574	1908
401.652	609
401.731	2113
401.810	1308
401.888	1043
401.967	24
402.046	1964
402.124	1786
402.203	2443
402.281	2634
402.360	2516
402.438	8127
402.517	3894
402.596	1248
402.674	1132
402.753	800
402.831	1437
402.910	2417
402.988	13951
403.066	51941
403.145	32925
403.223	15458
403.302	39693
403.380	31987
403.459	29549
403.537	10836
403.615	3555
403.694	-533
403.772	1041
403.850	261
403.929	628
404.007	40
404.085	5551
404.164	5560
404.242	1645
404.320	1700
404.398	5068
404.477	23732
404.555	118924
404.633	109997
404.711	14096
404.789	2390
404.868	1965
404.946	611
405.024	95
405.102	1040
405.180	-70
405.258	-117
405.336	1593
405.415	128
405.493	3354
405.571	4620
405.649	914
405.727	109
405.805	2999
405.883	1732
405.961	2982
406.039	1391
406.117	175
406.195	4473
406.273	25245
406.351	95743
406.429	59839
406.507	5650
406.585	659
406.663	2213
406.740	3680
406.818	1699
406.896	1132
406.974	1476
407.052	6456
407.130	53848
407.208	80376
407.285	15993
407.363	889
407.441	1105
407.519	698
407.596	1454
407.674	9686
407.752	32784
407.830	30956
407.907	7547
407.985	1495
408.063	1104
408.141	-795
408.218	1621
408.296	1569
408.373	1550
408.451	2127
408.529	2446
408.606	-482
408.684	670
408.762	90
408.839	-372
408.917	-459
408.994	-569
409.072	-506
409.149	509
409.227	2832
409.304	4359
409.382	2670
409.459	3630
409.537	6401
409.614	4229
409.692	2524
409.769	2294
409.846	6379
409.924	8948
410.001	2382
410.079	2565
410.156	1603
410.233	973
410.311	549
410.388	175
410.465	1635
410.543	678
410.620	1352
410.697	1405
410.775	2003
410.852	734
410.929	2290
411.006	3153
411.083	1450
411.161	3222
411.238	4619
411.315	1881
411.392	-109
411.469	2277
411.547	2087
411.624	-538
411.701	883
411.778	828
411.855	5302
411.932	1721
412.009	-189
412.086	812
412.163	1111
412.240	645
412.317	1654
412.394	1530
412.471	-112
412.548	436
412.625	1150
412.702	954
412.779	2901
412.856	2348
412.933	-633
413.010	509
413.087	2534
413.164	17040
413.241	26237
413.318	5863
413.395	2663
413.471	4887
413.548	1873
413.625	698
413.702	248
413.779	780
413.855	-635
413.932	-1408
414.009	-1397
414.086	-413
414.162	288
414.239	2780
414.316	16453
414.393	42278
414.469	15526
414.546	1300
414.623	-284
414.699	-442
414.776	995
414.853	17
414.929	1639
415.006	43
415.082	76
415.159	-32
415.236	207
415.312	1433
415.389	2774
415.465	4713
415.542	2250
415.618	-84
415.695	3420
415.771	700
415.848	799
415.924	1093
416.000	-717
416.077	922
416.153	-1337
416.230	-1427
416.306	-303
416.383	-106
416.459	-146
416.535	-323
416.612	300
416.688	330
416.764	844
416.841	173
416.917	227
416.993	177
417.069	-13
417.146	1104
417.222	2412
417.298	1290
417.374	-570
417.451	822
417.527	1118
417.603	2221
417.679	1322
417.755	87
417.831	-1069
417.908	-200
417.984	-534
418.060	73
418.136	4388
418.212	6168
418.288	1419
418.364	498
418.440	-182
418.516	2835
418.592	1384
418.668	6643
418.744	11531
418.820	7997
418.896	1076
418.972	-337
419.048	119
419.124	5164
419.200	2833
419.276	635
419.352	-675
419.428	-7
419.504	459
419.579	1378
419.655	522
419.731	1160
419.807	7179
419.883	14660
419.959	10087
420.034	2742
420.110	6105
420.186	24586
420.262	22083
420.337	2919
420.413	1209
420.489	687
420.565	814
420.640	540
420.716	965
420.792	-1250
420.867	1491
420.943	-112
421.019	2880
421.094	2486
421.170	691
421.245	59
421.321	368
421.397	779
421.472	5992
421.548	17024
421.623	13080
421.699	3355
421.774	3208
421.850	2083
421.925	4810
422.001	4722
422.076	4662
422.152	4844
422.227	8374
422.302	11341
422.378	15955
422.453	31886
422.529	80848
422.604	223667
422.679	355863
422.755	240535
422.830	87946
422.905	32187
422.981	16891
423.056	10884
423.131	8234
423.207	6108
423.282	5582
423.357	9047
423.432	6513
423.508	6411
423.583	12458
423.658	9834
423.733	2688
423.808	3378
423.883	4233
423.959	4113
424.034	3130
424.109	2362
424.184	742
424.259	656
424.334	252
424.409	31
424.484	520
424.559	1524
424.634	1327
424.709	2384
424.784	3720
424.859	1611
424.934	3815
425.009	17445
425.084	29912
425.159	11389
425.234	1888
425.309	2401
425.384	20034
425.459	35230
425.534	9196
425.609	1001
425.683	-59
425.758	-11
425.833	426
425.908	2460
425.983	10281
426.058	31535
426.132	13685
426.207	1134
426.282	2373
426.357	918
426.431	547
426.506	384
426.581	660
426.655	1071
426.730	804
426.805	162
426.879	1072
426.954	1143
427.029	5270
427.103	33242
427.178	84684
427.253	40125
427.327	4366
427.402	9603
427.476	30322
427.551	17215
427.625	1369
427.700	1027
427.774	-230
427.849	821
427.923	-495
427.998	-155
428.072	634
428.147	4961
428.221	26661
428.296	80096
428.370	45207
428.444	4364
428.519	2554
428.593	5429
428.667	4741
428.742	5380
428.816	10780
428.890	48819
428.965	95671
429.039	33639
429.113	8972
429.188	3453
429.262	1221
429.336	3567
429.410	13522
429.485	9422
429.559	4873
429.633	3343
429.707	1326
429.781	7986
429.855	45915
429.930	76610
430.004	31407
430.078	31437
430.152	39833
430.226	105740
430.300	112858
430.374	18378
430.448	4362
430.522	9924
430.596	30826
430.670	28793
430.744	91896
430.818	141196
430.892	30405
430.966	2633
431.040	582
431.114	-799
431.188	-771
431.262	365
431.336	-577
431.410	2533
431.484	8485
431.557	6470
431.631	-38
431.705	1548
431.779	16026
431.853	72425
431.927	54934
432.000	6743
432.074	429
432.148	18
432.222	-215
432.295	-769
432.369	671
432.443	2974
432.516	30467
432.590	87095
432.664	34541
432.737	2140
432.811	-423
432.885	-727
432.958	-459
433.032	-960
433.106	-865
433.179	-827
433.253	-602
433.326	-1197
433.400	-1921
433.473	-499
433.547	-1247
433.620	-455
433.694	2219
433.767	2840
433.841	505
433.914	26
433.988	442
434.061	-25
434.134	-943
434.208	-964
434.281	-472
434.355	-595
434.428	623
434.501	348
434.575	-520
434.648	-363
434.721	-1401
434.795	-1116
434.868	-1113
434.941	-1078
435.014	-901
435.088	709
435.161	3967
435.234	7314
435.307	5261
435.381	2149
435.454	1839
435.527	3117
435.600	4015
435.673	2096
435.746	378
435.819	154
435.892	716
435.966	-68
436.039	-120
436.112	-192
436.185	-388
436.258	-308
436.331	-1558
436.404	-968
436.477	-733
436.550	-577
436.623	-912
436.696	-1050
436.769	-502
436.842	-681
436.915	-1365
436.987	16
437.060	-256
437.133	120
437.206	-919
437.279	-117
437.352	-814
437.425	9
437.498	-309
437.570	1578
437.643	2759
437.716	-24
437.789	-1087
437.861	1638
437.934	7457
438.007	3800
438.080	94
438.152	639
438.225	5477
438.298	46913
438.370	137746
438.443	60985
438.516	10322
438.588	1220
438.661	-948
438.734	-851
438.806	146
438.879	627
438.951	1223
439.024	2178
439.096	397
439.169	-1028
439.241	-669
439.314	-489
439.386	112
439.459	2145
439.531	4166
439.604	645
439.676	-447
439.749	-894
439.821	-1426
439.893	-401
439.966	-212
440.038	1176
440.110	682
440.183	232
440.255	-1048
440.327	1927
440.400	17263
440.472	75777
440.544	58287
440.617	6470
440.689	2675
440.761	3655
440.833	6818
440.905	4316
440.978	-169
441.050	-352
441.122	-244
441.194	-481
441.266	-977
441.338	-154
441.411	2746
441.483	20642
441.555	36143
441.627	8026
441.699	1566
441.771	1336
441.843	619
441.915	-349
441.987	-524
442.059	-161
442.131	1419
442.203	1701
442.275	2643
442.347	3548
442.419	6443
442.491	37805
442.563	102369
442.635	53550
442.706	14071
442.778	10380
442.850	1916
442.922	-6
442.994	1222
443.066	2497
443.137	1800
443.209	1988
443.281	4131
443.353	10543
443.425	50126
443.496	180177
443.568	198153
443.640	82128
443.711	15099
443.783	3493
443.855	2087
443.926	2223
443.998	1079
444.070	1824
444.141	1470
444.213	3255
444.285	4997
444.356	3815
444.428	3077
444.499	723
444.571	373
444.642	275
444.714	863
444.785	3992
444.857	3087
444.928	5899
445.000	3815
445.071	4074
445.143	7179
445.214	6772
445.285	9573
445.357	30378
445.428	114968
445.500	278470
445.571	194159
445.642	107735
445.714	36920
445.785	17422
445.856	6420
445.928	5925
445.999	5013
446.070	3074
446.141	3207
446.213	5508
446.284	1895
446.355	1715
446.426	701
446.497	1434
446.569	676
446.640	3781
446.711	4979
446.782	1299
446.853	1792
446.924	2641
446.995	1395
447.066	939
447.138	1180
447.209	709
447.280	-1233
447.351	-521
447.422	-1336
447.493	123
447.564	1716
447.635	3100
447.706	1799
447.777	-349
447.847	-910
447.918	-1294
447.989	460
448.060	1329
448.131	4178
448.202	4496
448.273	3764
448.344	1353
448.414	-232
448.485	566
448.556	-305
448.627	-903
448.698	-102
448.768	-814
448.839	-735
448.910	595
448.981	1844
449.051	572
449.122	-1188
449.193	-592
449.263	-1083
449.334	-615
449.405	923
449.475	4417
449.546	3872
449.616	2173
449.687	2909
449.758	1276
449.828	-514
449.899	-1059
449.969	-361
450.040	-278
450.110	787
450.181	2169
450.251	-191
450.322	-433
450.392	-231
450.463	-957
450.533	-1251
450.604	-451
450.674	-1060
450.744	490
450.815	-228
450.885	-81
450.955	-434
451.026	-732
451.096	140
451.166	-64
451.237	873
451.307	6314
451.377	2630
451.447	-214
451.518	-408
451.588	536
451.658	-641
451.728	1036
451.799	5098
451.869	8298
451.939	699
452.009	-28
452.079	-519
452.149	-338
452.219	784
452.289	6445
452.360	6892
452.430	671
452.500	521
452.570	1914
452.640	5638
452.710	13914
452.780	19874
452.850	15540
452.920	14883
452.990	5407
453.060	2225
453.129	2420
453.199	3006
453.269	9176
453.339	26129
453.409	43127
453.479	32332
453.549	49962
453.619	52260
453.688	25033
453.758	2621
453.828	534
453.898	-431
453.968	-243
454.037	321
454.087	200
454.107	129
454.168	-4
454.177	-47
454.247	-856
454.249	-804
454.316	-192
454.330	-108
454.386	55
454.411	1143
454.456	2712
454.492	4957
454.525	6919
454.574	4516
454.595	3471
454.655	1225
454.665	857
454.734	1596
454.736	1669
454.804	2505
454.817	3577
454.873	7233
454.898	8333
454.943	10249
454.979	7389
455.013	4883
455.060	2510
455.082	1523
455.141	1436
455.152	1336
455.221	5456
455.222	5583
455.291	9478
455.303	8822
455.360	6295
455.384	6380
455.430	6580
455.465	6411
455.499	5936
455.546	6679
455.569	6755
455.627	6203
455.638	6156
455.707	1435
455.708	1449
455.777	491
455.789	505
455.846	267
455.869	198
455.916	229
455.950	687
455.985	978
456.031	593
456.054	406
456.112	1504
456.124	1725
456.193	1101
456.193	1075
456.262	536
456.274	834
456.332	2068
456.355	2175
456.401	2176
456.436	1766
456.470	1408
456.516	886
456.540	605
456.597	667
456.609	622
456.678	688
456.678	667
456.747	603
456.759	560
456.817	434
456.840	612
456.886	915
456.920	1392
456.955	1940
457.001	1903
457.024	1957
457.082	2856
457.093	2936
457.162	4542
457.163	4577
457.232	4748
457.243	4393
457.301	3004
457.324	2381
457.370	1701
457.405	1801
457.439	1843
457.485	2425
457.508	2803
457.566	3839
457.577	4324
457.646	7191
457.647	7275
457.715	17037
457.727	19131
457.784	31997
457.808	39355
457.853	42718
457.889	46992
457.922	46341
457.969	35931
457.991	39521
458.050	50225
458.060	52247
458.129	80480
458.130	81485
458.198	60238
458.211	52312
458.267	34155
458.292	24229
458.336	18892
458.372	19332
458.405	28187
458.453	44571
458.474	55668
458.533	92983
458.543	93450
458.611	113524
458.614	114168
458.680	64433
458.694	48280
458.749	25164
458.775	17491
458.818	9536
458.855	7495
458.887	6061
458.936	4642
458.955	4321
459.016	4671
459.024	4751
459.093	5707
459.097	5756
459.162	5766
459.177	5713
459.230	5907
459.257	6224
459.299	6155
459.338	6222
459.368	6559
459.418	7064
459.437	6592
459.499	4480
459.505	4414
459.574	3968
459.579	3974
459.643	4180
459.659	4134
459.711	4009
459.740	4284
459.780	4699
459.820	4832
459.849	4825
459.900	5232
459.917	5539
459.981	6234
459.986	6277
460.054	7707
460.061	7861
460.123	6985
460.141	6558
460.191	7268
460.222	7702
460.260	7724
460.302	8639
460.328	8186
460.382	6451
460.397	6500
460.462	5506
460.465	5553
460.534	8227
460.543	8578
460.602	16653
460.623	19916
460.671	29008
460.703	37253
460.739	31735
460.783	23486
460.808	21678
460.864	8173
460.876	6752
460.944	4492
460.945	4467
461.013	5377
461.024	5425
461.081	5801
461.104	6321
461.150	5940
461.184	5266
461.218	5842
461.264	6416
461.286	6115
461.345	5748
461.355	5755
461.423	6090
461.425	6072
461.491	6767
461.505	7174
461.559	12141
461.585	14486
461.628	16309
461.665	18132
461.696	17864
461.745	18252
461.764	16374
461.825	7831
461.832	7939
461.901	7428
461.905	7538
461.969	5614
461.985	5181
462.037	5805
462.065	6012
462.105	6046
462.145	6168
462.173	7735
462.225	10885
462.241	11215
462.305	13187
462.310	12928
462.378	8550
462.385	7877
462.446	7594
462.465	7643
462.514	8031
462.545	8645
462.582	8483
462.625	8369
462.650	7504
462.705	5455
462.718	5500
462.785	4813
462.786	4832
462.854	6553
462.865	6853
462.922	7603
462.945	7940
462.990	6976
463.025	5937
463.058	5482
463.104	4856
463.126	4919
463.184	5292
463.194	5369
463.262	5735
463.264	5761
463.330	6089
463.344	6067
463.398	6076
463.424	5955
463.466	5842
463.504	6031
463.533	6234
463.583	6282
463.601	6678
463.663	8249
463.669	8416
463.737	10198
463.743	10374
463.805	13049
463.823	13773
463.873	17699
463.903	20145
463.940	19170
463.982	18402
464.008	15441
464.062	8268
464.076	8153
464.142	6772
464.144	6748
464.211	6145
464.221	6138
464.279	7459
464.301	7895
464.347	8125
464.381	8342
464.414	10324
464.461	13097
464.482	15136
464.540	20335
464.550	20833
464.617	24832
464.620	24933
464.685	14848
464.699	12413
464.753	12408
464.779	12379
464.820	12073
464.859	11856
464.888	11347
464.938	10529
464.956	11130
465.018	13349
465.023	13600
465.091	16531
465.098	16817
465.158	18642
465.177	19198
465.226	15674
465.257	13391
465.293	12324
465.336	10566
465.361	11777
465.416	14777
465.428	14955
465.495	16072
465.496	16131
465.563	21074
465.575	21872
465.631	22156
465.654	22494
465.698	15405
465.734	8964
465.765	8624
465.813	7888
465.833	7791
465.893	8048
465.900	8051
465.968	7899
465.972	7872
466.035	9087
466.052	9395
466.102	8751
466.131	8362
466.170	9158
466.210	9935
466.237	9986
466.290	9982
466.304	10058
466.369	10358
466.372	10402
466.439	11096
466.449	11164
466.506	13197
466.528	13971
466.573	17729
466.607	20468
466.641	26526
466.687	34892
466.708	35950
466.766	38795
466.775	36310
466.842	17126
466.845	16178
466.909	13256
466.925	12569
466.977	12053
467.004	11827
467.044	11689
467.083	11491
467.111	12939
467.163	15614
467.178	15673
467.242	15746
467.245	15773
467.312	15663
467.321	15616
467.379	14366
467.400	13869
467.446	14578
467.480	15039
467.559	12651
467.638	13751
467.717	13987
467.796	17050
467.875	18139
467.955	16054
468.034	21865
468.113	37837
468.192	45945
468.271	20196
468.350	24880
468.429	32710
468.508	33537
468.588	20802
468.667	14716
468.746	14930
468.825	12698
468.904	13279
468.983	15441
469.062	20092
469.141	19804
469.220	11959
469.299	12009
469.378	12987
469.456	14510
469.535	13565
469.614	13210
469.693	15523
469.772	18959
469.851	23336
469.930	16923
470.009	19353
470.088	23759
470.166	42357
470.245	75563
470.324	89606
470.403	47904
470.482	26743
470.560	20594
470.639	19807
470.718	22495
470.797	18688
470.875	16671
470.954	20002
471.033	17563
471.111	10809
471.190	10211
471.269	11010
471.347	10263
471.426	11455
471.505	12404
471.583	13052
471.662	11956
471.740	11424
471.819	13463
471.898	11730
471.976	11416
472.055	10727
472.133	11339
472.212	14650
472.290	13228
472.369	10189
472.447	10348
472.526	10266
472.604	11312
472.683	14363
472.761	13985
472.839	12402
472.918	12123
472.996	13075
473.075	13744
473.153	11882
473.231	9916
473.310	13609
473.388	12599
473.466	12810
473.545	16071
473.623	23484
473.701	21618
473.780	12958
473.858	11209
473.936	13392
474.014	12959
474.093	14610
474.171	15800
474.249	19580
474.327	13643
474.405	11843
474.484	11181
474.562	12574
474.640	10120
474.718	11364
474.796	10942
474.874	9973
474.952	8843
475.030	9945
475.108	11289
475.187	12826
475.265	17734
475.343	29071
475.421	27662
475.499	12295
475.577	15679
475.655	15866
475.733	22187
475.811	33089
475.889	28588
475.966	18795
476.044	13387
476.122	21815
476.200	28279
476.278	15525
476.356	10907
476.434	13349
476.512	18588
476.590	26427
476.667	17449
476.745	10023
476.823	11274
476.901	9833
476.979	10133
477.056	9708
477.134	10188
477.212	11035
477.290	9578
477.367	9184
477.445	8508
477.523	9036
477.601	9994
477.678	9708
477.756	9752
477.834	10119
477.911	9542
477.989	9320
478.066	9002
478.144	12740
478.222	20661
478.299	39210
478.377	23810
478.454	10071
478.532	9085
478.609	11326
478.687	11018
478.764	10860
478.842	12469
478.919	15346
478.997	11064
479.074	9658
479.152	9933
479.229	12836
479.307	7168
479.384	8102
479.461	7870
479.539	8843
479.616	9216
479.694	9332
479.771	9217
479.848	10724
479.926	11317
480.003	13466
480.080	10936
480.157	9204
480.235	8945
480.312	8770
480.389	10253
480.467	12921
480.544	14373
480.621	10710
480.698	11448
480.775	12531
480.853	9797
480.930	9170
481.007	9522
481.084	10141
481.161	9694
481.238	9935
481.315	8352
481.392	8648
481.470	9238
481.547	9302
481.624	8185
481.701	8909
481.778	9474
481.855	11069
481.932	14171
482.009	20572
482.086	15141
482.163	16494
482.240	30689
482.317	53731
482.393	27101
482.470	11288
482.547	10901
482.624	10936
482.701	11483
482.778	11028
482.855	10142
482.932	12271
483.009	10055
483.085	14170
483.162	16059
483.239	16440
483.316	13875
483.393	13083
483.469	11372
483.546	11802
483.623	10630
483.699	9968
483.776	9796
483.853	12041
483.930	16121
484.006	30480
484.083	43529
484.160	26813
484.236	36750
484.313	28057
484.389	21945
484.466	22515
484.543	21926
484.619	26672
484.696	28449
484.772	24260
484.849	21872
484.925	20159
485.002	18939
485.078	21360
485.155	19344
485.231	16951
485.308	16489
485.384	18690
485.461	22432
485.537	32831
485.614	31731
485.690	17844
485.766	17388
485.843	23256
485.919	36396
485.995	31984
486.072	16366
486.148	17383
486.224	16403
486.301	18031
486.377	20280
486.453	21470
486.530	19498
486.606	24284
486.682	25445
486.758	28926
486.835	31243
486.911	29656
486.987	51953
487.063	77398
487.139	98733
487.215	59248
487.292	26179
487.368	24596
487.444	30953
487.520	45215
487.596	56222
487.672	140416
487.748	378478
487.824	452909
487.900	99411
487.976	38077
488.052	31915
488.128	35705
488.204	24249
488.280	20536
488.356	24311
488.432	38620
488.508	49501
488.584	24177
488.660	22503
488.736	20665
488.812	21739
488.888	30275
488.964	48351
489.039	115591
489.115	150319
489.191	60878
489.267	17974
489.343	16541
489.418	13915
489.494	13975
489.570	12153
489.646	16195
489.722	13724
489.797	15266
489.873	22980
489.949	38711
490.024	26564
490.100	13857
490.176	15987
490.251	23892
490.327	30167
490.403	15376
490.478	13708
490.554	12608
490.629	13134
490.705	11938
490.781	14092
490.856	14763
490.932	17507
491.007	18598
491.083	15275
491.158	13821
491.234	17572
491.309	30888
491.385	24715
491.460	13195
491.536	15211
491.611	14163
491.686	19284
491.762	32463
491.837	72760
491.913	110402
491.988	160964
492.063	162449
492.139	31740
492.214	24239
492.289	13296
492.365	13690
492.440	14922
492.515	13739
492.590	11969
492.666	11684
492.741	15936
492.816	18412
492.891	10974
492.967	11871
493.042	10140
493.117	10471
493.192	11027
493.267	15836
493.342	21945
493.418	21096
493.493	11883
493.568	11976
493.643	12193
493.718	15061
493.793	23286
493.868	28323
493.943	16611
494.018	12274
494.093	10867
494.168	11749
494.243	11783
494.318	9616
494.393	10025
494.468	10817
494.543	11300
494.618	15143
494.693	10092
494.768	10485
494.842	10640
494.917	11732
494.992	12314
495.067	10549
495.142	10583
495.217	12621
495.292	12317
495.366	14632
495.441	18566
495.516	24550
495.591	51678
495.665	178436
495.740	335882
495.815	78508
495.890	14355
495.964	10753
496.039	14410
496.114	13042
496.188	14148
496.263	13258
496.338	10915
496.412	12859
496.487	16111
496.561	21564
496.636	17645
496.710	13419
496.785	14535
496.860	14421
496.934	13512
497.009	14061
497.083	13217
497.158	14143
497.232	16060
497.307	18376
497.381	16896
497.455	17562
497.530	18115
497.604	14297
497.679	15678
497.753	23247
497.827	27089
497.902	24302
497.976	36139
498.050	101713
498.125	301719
498.199	216923
498.273	46862
498.348	37762
498.422	29841
498.496	30790
498.570	26457
498.645	15932
498.719	14754
498.793	20027
498.867	29185
498.941	44821
499.016	135111
499.090	273386
499.164	59723
499.238	14207
499.312	14834
499.386	20558
499.460	16850
499.534	17040
499.609	20308
499.683	21996
499.757	24129
499.831	64978
499.905	190219
499.979	122967
500.053	25040
500.127	33504
500.201	28645
500.275	16497
500.349	15318
500.422	20148
500.496	37941
500.570	81137
500.644	131240
500.718	163615
500.792	26420
500.866	12814
500.940	14458
501.013	12555
501.087	15327
501.161	32646
501.235	33702
501.309	68516
501.382	153803
501.456	100866
501.530	31379
501.603	41096
501.677	14816
501.751	10857
501.825	15748
501.898	25995
501.972	56404
502.046	25079
502.119	14482
502.193	36031
502.266	58732
502.340	23502
502.413	31087
502.487	48902
502.561	24351
502.634	12349
502.708	15127
502.781	12074
502.855	10081
502.928	7651
503.002	7351
503.075	8250
503.149	8433
503.222	8141
503.295	8590
503.369	11094
503.442	17286
503.516	52889
503.589	99479
503.662	52487
503.736	26307
503.809	55369
503.882	46571
503.956	80178
504.029	101156
504.102	203980
504.175	221595
504.249	57826
504.322	26793
504.395	16911
504.468	11782
504.542	10584
504.615	7775
504.688	9297
504.761	7970
504.834	13146
504.907	17994
504.980	26375
505.053	11867
505.127	16033
505.200	15467
505.273	9877
505.346	7576
505.419	6976
505.492	6962
505.565	5637
505.638	6423
505.711	5999
505.784	5341
505.857	5198
505.930	7313
506.003	5182
506.076	7258
506.149	7523
506.221	7618
506.294	12249
506.367	29808
506.440	77541
506.513	31405
506.586	10667
506.659	7763
506.731	8765
506.804	12282
506.877	16098
506.950	8155
507.022	8697
507.095	7609
507.168	10785
507.241	9611
507.313	7637
507.386	10152
507.459	16465
507.531	8150
507.604	6657
507.677	7412
507.749	6240
507.822	12506
507.894	21405
507.967	18343
508.040	9733
508.112	11198
508.185	10281
508.257	10140
508.330	17406
508.402	8521
508.475	8207
508.547	9012
508.620	9359
508.692	12591
508.765	8216
508.837	6064
508.909	7800
508.982	7519
509.054	9802
509.127	7597
509.199	7107
509.271	5721
509.344	6014
509.416	5953
509.488	7287
509.560	7809
509.633	9685
509.705	10265
509.777	10228
509.849	16731
509.922	8784
509.994	5602
510.066	7075
510.138	6746
510.210	15078
510.283	11556
510.355	10406
510.427	9407
510.499	9255
510.571	9271
510.643	10852
510.715	20327
510.787	14116
510.859	10805
510.931	13063
511.003	19566
511.076	13258
511.148	6437
511.219	8094
511.291	11868
511.363	11297
511.435	7256
511.507	6673
511.579	6974
511.651	8838
511.723	7340
511.795	7052
511.867	7845
511.939	10014
512.010	16269
512.082	12669
512.154	7563
512.226	9181
512.298	15326
512.369	20339
512.441	16267
512.513	17880
512.585	10852
512.656	12955
512.728	12678
512.800	9526
512.871	9856
512.943	10072
513.015	7868
513.086	10875
513.158	12867
513.230	13414
513.301	23229
513.373	24038
513.444	11487
513.516	9522
513.588	10427
513.659	13548
513.731	17173
513.802	16296
513.874	43539
513.945	58308
514.016	13876
514.088	10646
514.159	12429
514.231	19034
514.302	17788
514.374	13380
514.445	12115
514.516	21182
514.588	12586
514.659	12263
514.730	18141
514.802	17832
514.873	11356
514.944	13959
515.016	12743
515.087	15315
515.158	16303
515.229	17845
515.301	11297
515.372	14025
515.443	9753
515.514	11283
515.585	9126
515.656	11957
515.728	12171
515.799	10882
515.870	13274
515.941	15001
516.012	14433
516.083	21690
516.154	24386
516.225	33848
516.296	32135
516.367	31926
516.438	43969
516.509	69804
516.580	150887
516.651	547589
516.722	1336918
516.793	297572
516.864	65034
516.935	66752
517.006	93584
517.077	174922
517.148	509847
517.219	1850618
517.289	1750226
517.360	213248
517.431	59177
517.502	36102
517.573	32869
517.643	31024
517.714	32301
517.785	36229
517.856	39399
517.926	49970
517.997	61723
518.068	92879
518.138	156113
518.209	361502
518.280	1349150
518.350	2996362
518.421	746685
518.492	101932
518.562	60684
518.633	58368
518.703	71425
518.774	147918
518.845	333322
518.915	223983
518.986	60081
519.056	44640
519.127	64839
519.197	82059
519.268	103007
519.338	46632
519.408	23197
519.479	34923
519.549	22440
519.620	17444
519.690	12365
519.760	12445
519.831	13857
519.901	13650
519.971	12713
520.042	12826
520.112	15103
520.182	22877
520.253	25279
520.323	34048
520.393	107856
520.463	140504
520.534	127423
520.604	217752
520.674	47688
520.744	87798
520.814	300775
520.885	116685
520.955	41184
521.025	91534
521.095	25578
521.165	12397
521.235	10640
521.305	8985
521.375	9937
521.445	14065
521.515	17226
521.585	21681
521.655	15501
521.725	15530
521.795	11001
521.865	7817
521.935	11775
522.005	9559
522.075	7207
522.145	9930
522.215	8992
522.285	13861
522.355	17725
522.424	29991
522.494	23888
522.564	24313
522.634	65357
522.704	140773
522.774	30462
522.843	11435
522.913	12358
522.983	16613
523.053	10901
523.122	14990
523.192	28980
523.262	93098
523.331	54600
523.401	11938
523.471	8525
523.540	9888
523.610	6874
523.680	7839
523.749	7465
523.819	10262
523.888	8669
523.958	7289
524.027	8489
524.097	9276
524.166	8272
524.236	10635
524.305	10989
524.375	8290
524.444	5975
524.514	10047
524.583	7118
524.653	10410
524.722	14795
524.791	8801
524.861	9680
524.930	7746
524.999	9859
525.069	13582
525.138	9190
525.207	10692
525.277	10257
525.346	10756
525.415	11440
525.484	13072
525.554	13755
525.623	14467
525.692	14847
525.761	17618
525.830	21799
525.900	31402
525.969	56544
526.038	108484
526.107	279002
526.176	619579
526.245	351958
526.314	142623
526.383	370414
526.452	400023
526.522	754038
526.591	438938
526.660	96856
526.729	60129
526.797	89185
526.867	221004
526.935	731128
527.004	1344705
527.073	444783
527.142	41425
527.211	21977
527.280	24149
527.349	20590
527.418	12109
527.487	14402
527.555	13059
527.624	10100
527.693	8543
527.762	9362
527.831	8053
527.899	8323
527.968	8665
528.037	6885
528.106	13622
528.174	23073
528.243	15837
528.312	26239
528.380	27198
528.449	7213
528.518	8312
528.586	4711
528.655	6935
528.723	5612
528.792	6512
528.861	5557
528.929	4212
528.998	6391
529.066	6375
529.135	5153
529.203	5161
529.272	4783
529.340	6743
529.409	7666
529.477	6799
529.545	8708
529.614	17207
529.682	18348
529.751	17984
529.819	26755
529.887	9999
529.956	6256
530.024	7973
530.092	6693
530.161	10692
530.229	16256
530.297	6795
530.365	7684
530.434	6196
530.502	4195
530.570	5252
530.638	4015
530.707	7090
530.775	7488
530.843	4964
530.911	5129
530.979	6522
531.047	5749
531.115	6175
531.183	4961
531.252	7280
531.320	5170
531.388	5119
531.456	6016
531.524	4456
531.592	5778
531.660	9204
531.728	5139
531.796	5856
531.864	6418
531.932	6704
532.000	6042
532.067	7040
532.135	8575
532.203	11581
532.271	12050
532.339	28633
532.407	64463
532.475	25104
532.542	13445
532.610	19456
532.678	36361
532.746	151179
532.814	234371
532.881	42384
532.949	11958
533.017	9716
533.084	7251
533.152	7062
533.220	7819
533.287	9596
533.355	7320
533.423	7715
533.490	6114
533.558	6980
533.625	7785
533.693	8223
533.761	7734
533.828	9614
533.896	8802
533.963	22974
534.031	25684
534.098	35737
534.166	13089
534.233	9552
534.300	11597
534.368	11425
534.435	11605
534.503	19005
534.570	33311
534.637	18530
534.705	21487
534.772	39603
534.840	89316
534.907	326926
534.974	235776
535.041	20388
535.109	13418
535.176	9715
535.243	10458
535.310	11583
535.378	8725
535.445	9580
535.512	9048
535.579	9791
535.646	8009
535.714	9548
535.781	11692
535.848	11070
535.915	10113
535.982	9140
536.049	8570
536.116	11517
536.183	9478
536.250	11072
536.317	11430
536.384	15767
536.451	22695
536.518	20980
536.585	14132
536.652	21327
536.719	27956
536.786	19341
536.853	15882
536.920	27996
536.987	41703
537.053	45484
537.120	151891
537.187	76046
537.254	11779
537.321	10845
537.388	12127
537.454	9996
537.521	10550
537.588	10258
537.654	13014
537.721	13634
537.788	12827
537.855	11189
537.921	12069
537.988	10850
538.055	11097
538.121	12074
538.188	13664
538.254	24763
538.321	42203
538.388	20474
538.454	12236
538.521	12798
538.587	11125
538.654	11311
538.720	9769
538.787	12296
538.853	11931
538.920	13617
538.986	11867
539.053	10915
539.119	13278
539.185	13420
539.252	18027
539.318	23149
539.385	15851
539.451	13699
539.517	15616
539.583	20565
539.650	50070
539.716	84008
539.782	18965
539.849	12740
539.915	13491
539.981	14539
540.047	16981
540.114	13599
540.180	16011
540.246	16003
540.312	24666
540.378	46098
540.444	38227
540.510	56076
540.576	101061
540.643	22099
540.709	11508
540.775	13435
540.841	15117
540.907	28960
540.973	51979
541.039	27884
541.105	22603
541.171	14536
541.237	12496
541.303	14432
541.369	18307
541.435	24448
541.500	36615
541.566	18918
541.632	10864
541.698	11758
541.764	12251
541.830	11495
541.896	10802
541.961	12062
542.027	12967
542.093	13722
542.159	14720
542.224	15906
542.290	23154
542.356	37900
542.421	34926
542.487	16427
542.553	12583
542.618	12797
542.684	12196
542.750	14749
542.815	19589
542.881	34726
542.947	101239
543.012	45089
543.078	11298
543.143	11559
543.209	13307
543.274	14063
543.340	17852
543.405	44289
543.471	44500
543.536	13418
543.602	12030
543.667	10809
543.732	12384
543.798	11420
543.863	11630
543.928	10739
543.994	9191
544.059	11403
544.124	11013
544.190	11338
544.255	12498
544.320	13942
544.386	13940
544.451	21060
544.516	22788
544.581	27886
544.646	71074
544.712	70565
544.777	16705
544.842	14154
544.907	13099
544.972	12750
545.037	13457
545.102	13775
545.168	14240
545.233	15368
545.298	16555
545.363	18671
545.428	23479
545.493	46015
545.558	71382
545.623	22401
545.688	13561
545.753	14851
545.818	14880
545.883	16558
545.947	15700
546.012	17722
546.077	17404
546.142	18823
546.207	21017
546.272	26062
546.337	24208
546.401	20843
546.466	20369
546.531	19876
546.596	24054
546.661	23817
546.725	24478
546.790	24395
546.855	27273
546.919	28264
546.984	32085
547.049	35170
547.113	40134
547.178	42541
547.243	48365
547.307	58323
547.372	62861
547.436	62358
547.501	65030
547.565	68113
547.630	65891
547.695	64226
547.759	62699
547.823	60456
547.888	61309
547.952	64000
548.017	66293
548.081	68894
548.146	70820
548.210	70771
548.274	73058
548.339	71222
548.403	63506
548.468	60931
548.532	60400
548.596	61258
548.660	63187
548.725	72005
548.789	77362
548.853	72199
548.917	66565
548.982	67974
549.046	59765
549.110	54346
549.174	57964
549.238	66671
549.303	70493
549.367	71077
549.431	67731
549.495	64955
549.559	65726
549.623	80858
549.687	84678
549.751	91278
549.815	100043
549.879	97865
549.943	91876
550.007	98966
550.071	95608
550.135	90141
550.199	81152
550.263	79950
550.327	76824
550.391	81952
550.455	88788
550.519	93597
550.582	101106
550.646	120962
550.710	117181
550.774	110629
550.838	111050
550.901	117266
550.965	123435
551.029	132455
551.093	143537
551.156	162276
551.220	201935
551.284	217215
551.347	147318
551.411	137907
551.475	128523
551.538	118905
551.602	107130
551.666	103180
551.729	94245
551.793	93770
551.856	91934
551.920	89675
551.983	91048
552.047	89582
552.110	89962
552.174	92047
552.237	91872
552.301	85549
552.364	82816
552.428	81357
552.491	85587
552.554	87863
552.618	89936
552.681	99462
552.745	106774
552.808	165182
552.871	181826
552.934	112623
552.998	88745
553.061	85805
553.124	78888
553.187	79050
553.251	82536
553.314	81132
553.377	81652
553.440	88672
553.503	92765
553.567	91231
553.630	87826
553.693	85687
553.756	85973
553.819	83707
553.882	79548
553.945	81539
554.008	79751
554.071	81433
554.134	80641
554.197	75782
554.260	75168
554.323	78065
554.386	77269
554.449	81981
554.512	79811
554.575	77069
554.638	76357
554.701	75228
554.764	73542
554.827	70984
554.889	68439
554.952	64089
555.015	63768
555.078	65644
555.141	65200
555.203	64325
555.266	63579
555.329	65512
555.391	61752
555.454	62187
555.517	59744
555.580	57773
555.642	54017
555.705	53714
555.768	53855
555.830	50835
555.893	48900
555.955	48718
556.018	47850
556.080	46941
556.143	48951
556.206	49305
556.268	48245
556.330	47929
556.393	46322
556.455	45579
556.518	47461
556.580	45715
556.643	40323
556.705	39690
556.767	39209
556.830	40478
556.892	42248
556.955	51343
557.017	40546
557.079	38956
557.142	38306
557.204	42594
557.266	59290
557.328	44253
557.391	31255
557.453	31863
557.515	33303
557.577	36903
557.639	34716
557.701	32710
557.764	30939
557.826	34218
557.888	37328
557.950	42475
558.012	52610
558.074	81041
558.136	202082
558.198	334587
558.260	72782
558.322	39466
558.384	40846
558.446	46274
558.508	54787
558.570	74448
558.632	117736
558.694	174601
558.756	283775
558.818	834337
558.880	1304046
558.942	335980
559.003	362947
559.065	109385
559.127	59502
559.189	66776
559.251	93182
559.312	164036
559.374	422596
559.436	994231
559.498	271103
559.559	62705
559.621	66963
559.683	100102
559.744	186457
559.806	589664
559.868	541049
559.929	83138
559.991	79292
560.052	158110
560.114	372935
560.176	167477
560.237	243673
560.299	260129
560.360	37544
560.422	21231
560.483	19306
560.545	18059
560.606	16841
560.667	16818
560.729	14938
560.790	15543
560.852	14783
560.913	15203
560.974	14260
561.036	15649
561.097	14796
561.158	15505
561.220	14803
561.281	15097
561.342	16224
561.403	20141
561.465	26801
561.526	59873
561.587	53589
561.648	15760
561.709	13543
561.771	13052
561.832	12619
561.893	12985
561.954	12298
562.015	12056
562.076	11805
562.137	12408
562.198	13079
562.259	13471
562.320	13553
562.381	15614
562.442	20901
562.503	15843
562.564	12168
562.625	12555
562.686	12435
562.747	14974
562.808	11706
562.869	11489
562.930	12480
562.991	11213
563.051	11262
563.112	11561
563.173	11027
563.234	11080
563.294	11292
563.355	12065
563.416	12012
563.477	11622
563.537	11809
563.598	12292
563.659	11539
563.720	11799
563.780	11900
563.841	12450
563.901	10870
563.962	10812
564.023	10900
564.083	11398
564.144	11283
564.204	10268
564.265	10808
564.325	12331
564.386	18611
564.446	13931
564.507	9992
564.567	10436
564.628	9535
564.688	10872
564.749	9636
564.809	11964
564.869	11686
564.930	11124
564.990	10233
565.050	9590
565.111	10298
565.171	10319
565.231	9533
565.292	11534
565.352	9334
565.412	11048
565.472	10845
565.532	11656
565.593	10500
565.653	10838
565.713	11039
565.773	13667
565.833	15745
565.893	18265
565.953	10518
566.013	10104
566.074	10518
566.134	13263
566.194	16836
566.254	17116
566.314	11209
566.374	10452
566.434	10026
566.494	9790
566.554	10333
566.614	11140
566.673	10465
566.733	11611
566.793	11009
566.853	11722
566.913	10982
566.973	11457
567.033	13125
567.092	13387
567.152	13563
567.212	12890
567.272	10997
567.331	12549
567.391	12287
567.451	13557
567.511	14130
567.570	13404
567.630	11774
567.690	11912
567.749	11214
567.809	11907
567.868	12403
567.928	13218
567.988	13583
568.047	15586
568.107	17057
568.166	22185
568.226	32315
568.285	40508
568.345	29225
568.404	24393
568.464	21214
568.523	20905
568.582	21952
568.642	25848
568.701	30983
568.761	44952
568.820	65585
568.879	51873
568.939	36559
568.998	26886
569.057	19970
569.116	18349
569.176	15415
569.235	15114
569.294	13666
569.353	13405
569.413	11497
569.472	12160
569.531	10291
569.590	11299
569.649	10164
569.708	11048
569.767	12448
569.827	16462
569.886	10923
569.945	10868
570.004	11460
570.063	11684
570.122	11745
570.181	12470
570.240	11703
570.299	12777
570.358	13771
570.417	10442
570.475	10191
570.534	11828
570.593	11901
570.652	12300
570.711	12859
570.770	11850
570.829	12594
570.887	14056
570.946	13658
571.005	12231
571.064	13251
571.122	17724
571.181	13119
571.240	10206
571.299	10372
571.357	10069
571.416	9523
571.475	11288
571.533	10935
571.592	10156
571.650	10625
571.709	10617
571.768	12112
571.826	11637
571.885	9389
571.943	9747
572.002	9291
572.060	9265
572.119	9076
572.177	8987
572.236	8854
572.294	9227
572.352	10225
572.411	9746
572.469	8820
572.528	9487
572.586	9326
572.644	11888
572.703	13887
572.761	10310
572.819	8398
572.877	8435
572.936	6873
572.994	8342
573.052	7522
573.110	9476
573.169	9656
573.227	8783
573.285	8424
573.343	8862
573.401	9005
573.459	8734
573.517	8415
573.576	10123
573.634	9446
573.692	8458
573.750	8587
573.808	8046
573.866	7844
573.924	10078
573.982	9556
574.040	8532
574.098	7804
574.155	7888
574.213	8009
574.271	9314
574.329	10191
574.387	7729
574.445	7800
574.503	7681
574.560	7130
574.618	8250
574.676	7392
574.734	8108
574.792	7957
574.849	7596
574.907	5930
574.965	6293
575.022	7118
575.080	7342
575.138	7830
575.195	8913
575.253	7688
575.311	8910
575.368	6756
575.426	6888
575.483	7703
575.541	7158
575.598	5985
575.656	7908
575.713	7422
575.771	7210
575.828	6643
575.886	6946
575.943	7535
576.001	6554
576.058	6585
576.115	7372
576.173	7438
576.230	10484
576.287	11380
576.345	8674
576.402	7473
576.459	7673
576.517	6788
576.574	7860
576.631	6993
576.688	7046
576.746	6165
576.803	7120
576.860	5801
576.917	6809
576.974	6330
577.031	6675
577.089	6787
577.146	6104
577.203	6305
577.260	7727
577.317	6847
577.374	7415
577.431	6564
577.488	7635
577.545	6138
577.602	8314
577.659	5727
577.716	6687
577.773	5194
577.830	6157
577.886	6546
577.943	6448
578.000	6063
578.057	7411
578.114	6633
578.171	7246
578.227	6364
578.284	6792
578.341	7386
578.398	8022
578.454	7662
578.511	8636
578.568	9087
578.625	7614
578.681	6509
578.738	6844
578.794	6941
578.851	7726
578.908	6744
578.964	7871
579.021	8782
579.077	8582
579.134	7693
579.190	6386
579.247	6408
579.303	7557
579.360	6153
579.416	6861
579.473	6285
579.529	5791
579.586	5774
579.642	7512
579.698	5804
579.755	7602
579.811	6899
579.867	6902
579.924	5761
579.980	6221
580.036	6795
580.093	6847
580.149	6714
580.205	7224
580.261	6470
580.317	7396
580.374	6842
580.430	9242
580.486	7880
580.542	7980
580.598	6977
580.619	7231
580.654	7678
580.692	6837
580.710	6437
580.765	7201
580.767	7230
580.823	7821
580.838	7578
580.879	6977
580.911	6978
580.935	6988
580.984	7146
580.991	7178
581.047	6713
581.057	6647
581.103	6368
581.130	6867
581.159	7413
581.203	7065
581.215	6977
581.270	6718
581.276	6758
581.326	7228
581.349	6873
581.382	6337
581.422	6870
581.438	7091
581.494	6554
581.494	6551
581.550	6738
581.567	6875
581.606	7209
581.640	7396
581.661	7484
581.713	7365
581.717	7365
581.773	7044
581.786	7150
581.829	7534
581.859	7099
581.885	6734
581.932	6446
581.940	6383
581.996	7513
582.004	7466
582.052	7281
582.077	7191
582.107	7067
582.150	6446
582.163	6298
582.219	6766
582.223	6797
582.274	7090
582.296	7151
582.330	7290
582.368	6886
582.386	6715
582.441	6901
582.441	6902
582.497	6272
582.514	6348
582.552	6773
582.587	6886
582.608	6836
582.659	7212
582.663	7257
582.719	6523
582.732	6680
582.774	7253
582.805	7436
582.830	7433
582.877	7283
582.885	7304
582.941	6494
582.950	6613
582.996	6989
583.023	6906
583.052	7054
583.095	7275
583.107	7249
583.162	7036
583.168	7003
583.218	6843
583.240	6710
583.273	6574
583.313	7324
583.328	7588
583.384	7046
583.385	7035
583.439	6551
583.458	6656
583.494	6975
583.531	6935
583.549	6878
583.603	6889
583.605	6896
583.660	7375
583.676	7258
583.715	6792
583.748	6778
583.770	6889
583.820	7449
583.825	7461
583.881	7319
583.893	7108
583.936	6713
583.965	7043
583.991	7237
584.038	6804
584.046	6737
584.101	7726
584.110	7664
584.156	7304
584.183	7519
584.211	7771
584.255	7341
584.266	7217
584.321	7153
584.328	7142
584.376	7062
584.400	7590
584.431	8439
584.472	7683
584.486	7334
584.541	8456
584.545	8398
584.596	7503
584.617	7894
584.651	8797
584.689	8586
584.706	8241
584.761	8762
584.762	8759
584.816	9087
584.834	9390
584.871	9574
584.906	9566
584.926	9674
584.978	10285
584.980	10310
585.035	10611
585.051	10849
585.090	11155
585.123	11536
585.145	12083
585.195	13499
585.200	13654
585.254	15648
585.267	16644
585.309	19269
585.340	20871
585.364	22415
585.412	27975
585.419	28810
585.473	38775
585.484	41986
585.528	56073
585.556	69005
585.583	87610
585.628	135823
585.637	150543
585.692	328089
585.700	346285
585.747	409903
585.772	309158
585.801	154837
585.845	52352
585.856	39165
585.910	22384
585.917	20848
585.965	16871
585.989	15936
586.019	15097
586.061	13978
586.074	13860
586.128	14372
586.133	14378
586.183	14273
586.205	14239
586.237	13980
586.277	13282
586.292	13091
586.346	13324
586.349	13341
586.401	13685
586.421	13768
586.455	13833
586.493	14450
586.509	15228
586.564	17289
586.565	17410
586.618	23603
586.637	23743
586.672	21179
586.709	20252
586.727	20188
586.781	19143
586.781	19131
586.835	15571
586.853	14938
586.889	14157
586.925	13676
586.944	13557
586.996	13459
586.998	13465
587.052	14354
587.068	14446
587.106	14883
587.140	15149
587.161	15068
587.212	15053
587.215	15096
587.269	15878
587.284	16148
587.323	16295
587.356	16561
587.377	16779
587.427	16939
587.431	16957
587.485	17564
587.499	17654
587.539	18490
587.571	19229
587.593	19516
587.643	19985
587.648	20107
587.702	21915
587.715	22268
587.755	22500
587.786	22938
587.810	23614
587.858	24217
587.864	24366
587.917	26959
587.930	27433
587.971	28878
588.001	30282
588.025	31666
588.073	33599
588.079	33921
588.133	37526
588.145	38346
588.187	41653
588.217	43977
588.241	46896
588.288	53240
588.295	54076
588.348	61907
588.360	63447
588.402	71535
588.431	78150
588.456	84198
588.503	96635
588.510	98856
588.564	119712
588.575	124822
588.617	148552
588.646	168425
588.671	193016
588.718	248349
588.725	262163
588.778	382389
588.789	412126
588.832	629136
588.861	799318
588.886	1003685
588.932	1404021
588.939	1423199
588.993	1418576
589.004	1398144
589.047	1059032
589.075	818476
589.100	632010
589.147	350698
589.154	335876
589.207	248381
589.218	232691
589.261	219502
589.290	215312
589.314	227578
589.361	259202
589.368	272841
589.421	399373
589.433	431303
589.475	691153
589.504	899659
589.528	1063503
589.576	1313878
589.582	1284118
589.635	873672
589.647	785311
589.689	456855
589.718	258823
589.742	209400
589.790	125068
589.795	121556
589.849	92590
589.861	86255
589.902	75057
589.932	66630
589.955	61500
590.004	51018
590.009	50399
590.062	44548
590.075	42918
590.115	39934
590.146	37980
590.168	37044
590.218	34522
590.222	34364
590.275	32270
590.289	31704
590.328	30800
590.360	30038
590.381	29347
590.431	27602
590.435	27537
590.488	26324
590.503	25952
590.541	25597
590.574	25300
590.594	24965
590.645	23982
590.647	23979
590.700	23780
590.716	23701
590.753	23310
590.787	22815
590.806	22576
590.859	22137
590.859	22137
590.912	21811
590.930	21664
590.965	22304
591.001	23121
591.018	22944
591.071	22099
591.072	22080
591.124	21547
591.143	21402
591.177	21520
591.214	21589
591.230	21838
591.283	22612
591.285	22632
591.336	22588
591.356	22585
591.389	22836
591.427	22958
591.442	22381
591.495	20172
591.498	20011
591.547	19872
591.569	19851
591.600	19925
591.640	19895
591.653	19926
591.706	20165
591.711	20184
591.759	20471
591.782	20573
591.811	21056
591.853	21889
591.864	21736
591.917	20706
591.924	20587
591.969	20260
591.995	19970
592.022	19932
592.066	19972
592.075	20205
592.127	21585
592.137	21860
592.180	22660
592.208	23118
592.233	22433
592.279	21132
592.285	21088
592.338	20748
592.350	20679
592.390	20755
592.421	20786
592.443	20905
592.491	21239
592.495	21254
592.548	21478
592.562	21545
592.600	20549
592.633	19702
592.653	20161
592.704	21278
592.705	21408
592.775	21895
592.846	20991
592.916	22427
592.987	23912
593.058	23044
593.128	21209
593.199	21674
593.270	20722
593.341	20499
593.411	22804
593.482	23272
593.553	22576
593.623	21449
593.694	23609
593.764	23201
593.835	23454
593.906	22660
593.976	23928
594.047	23650
594.117	26446
594.188	26519
594.258	25565
594.329	24579
594.399	25545
594.470	26579
594.540	26269
594.611	27048
594.681	26450
594.751	27111
594.822	28460
594.892	28873
594.963	30436
595.033	29419
595.103	30641
595.174	31148
595.244	35469
595.314	38946
595.384	32471
595.455	32014
595.525	33853
595.595	34461
595.665	35092
595.736	33652
595.806	35191
595.876	34306
595.946	34628
596.016	35527
596.087	36468
596.157	36718
596.227	37781
596.297	38697
596.367	40870
596.437	44318
596.507	46849
596.577	48294
596.647	45074
596.717	45349
596.787	46850
596.857	46114
596.927	46875
596.997	46696
597.067	46613
597.137	48063
597.207	48944
597.277	48266
597.347	46922
597.417	45537
597.487	46884
597.557	46221
597.626	48984
597.696	49901
597.766	50054
597.836	49706
597.906	45118
597.975	42864
598.045	42834
598.115	44833
598.185	47760
598.254	52887
598.324	58124
598.394	59947
598.464	58238
598.533	55299
598.603	52273
598.672	50283
598.742	51792
598.812	50966
598.881	53307
598.951	52018
599.020	53252
599.090	54530
599.159	55631
599.229	53246
599.299	51965
599.368	53469
599.437	53329
599.507	49669
599.576	47496
599.646	46990
599.715	47224
599.785	46382
599.854	45255
599.924	45682
599.993	44993
600.062	43654
600.132	46038
600.201	47076
600.270	56163
600.340	58588
600.409	57232
600.478	56623
600.547	58752
600.617	52924
600.686	43541
600.755	39293
600.824	39005
600.894	36549
600.963	36271
601.032	35847
601.101	35309
601.170	33922
601.239	33317
601.308	33797
601.378	34289
601.447	31677
601.516	33341
601.585	34216
601.654	35178
601.723	33424
601.792	34103
601.861	35125
601.930	36966
601.999	39373
602.068	37934
602.137	39825
602.206	40104
602.275	38896
602.343	42651
602.412	42375
602.481	39310
602.550	39133
602.619	39992
602.688	41918
602.756	40540
602.825	40517
602.894	41559
602.963	41575
603.032	43150
603.100	43390
603.169	43623
603.238	42742
603.307	44259
603.375	43292
603.444	45136
603.513	45993
603.581	45905
603.650	46560
603.719	45997
603.787	47553
603.856	49264
603.924	50230
603.993	51768
604.061	52959
604.130	55831
604.198	56499
604.267	57727
604.335	56684
604.404	58331
604.472	59990
604.541	60595
604.609	61868
604.678	61076
604.746	59733
604.815	63405
604.883	64462
604.951	63276
605.020	64599
605.088	66615
605.156	67357
605.225	68624
605.293	68063
605.361	69868
605.429	69010
605.498	71603
605.566	73604
605.634	77261
605.702	78604
605.771	82324
605.839	82046
605.907	79888
605.975	78470
606.043	75557
606.111	77604
606.180	75742
606.248	73945
606.316	75347
606.384	74559
606.452	77837
606.520	83281
606.588	82091
606.656	79786
606.724	77423
606.792	73669
606.860	66935
606.928	59973
606.996	58962
607.064	56831
607.132	58933
607.200	62200
607.267	65958
607.335	65762
607.403	67926
607.471	64423
607.539	62469
607.607	62959
607.674	57200
607.742	57073
607.810	57329
607.878	57878
607.946	57874
608.013	59639
608.081	61138
608.149	62414
608.216	63514
608.284	66071
608.352	67495
608.419	65803
608.487	66309
608.555	63603
608.622	64860
608.690	68517
608.757	76795
608.825	77692
608.893	76646
608.960	72726
609.028	72223
609.095	70922
609.163	68473
609.230	60941
609.298	56758
609.365	58733
609.432	63363
609.500	68917
609.567	79422
609.635	90927
609.702	96069
609.769	92106
609.837	73349
609.904	62638
609.971	65716
610.039	75341
610.106	100643
610.173	194867
610.241	461178
610.308	286487
610.375	126287
610.442	72304
610.509	64889
610.577	65311
610.644	65175
610.711	66749
610.778	68684
610.845	70735
610.912	74938
610.980	77464
611.047	78381
611.114	76637
611.181	75842
611.248	73523
611.315	79106
611.382	79914
611.449	82940
611.516	84383
611.583	83099
611.650	84232
611.717	86125
611.784	87641
611.851	92426
611.918	101231
611.984	121040
612.051	177045
612.118	368219
612.185	927879
612.252	541133
612.319	135215
612.386	110573
612.452	101455
612.519	95336
612.586	95970
612.653	96878
612.719	99131
612.786	94981
612.853	88441
612.919	85165
612.986	85688
613.053	81893
613.120	76055
613.186	74264
613.253	76055
613.319	75352
613.386	75883
613.453	78121
613.519	80584
613.586	82146
613.652	90824
613.719	84460
613.785	82499
613.852	78224
613.918	76367
613.985	77619
614.051	81296
614.118	85821
614.184	82408
614.250	76957
614.317	79802
614.383	77376
614.449	79044
614.516	78868
614.582	79831
614.648	76850
614.715	75665
614.781	74533
614.847	75252
614.914	75834
614.980	73269
615.046	74397
615.112	74816
615.179	76114
615.245	77794
615.311	77950
615.377	84922
615.443	86470
615.509	79817
615.575	82958
615.642	80044
615.708	84037
615.774	89860
615.840	97158
615.906	108326
615.972	139020
616.038	222458
616.104	464978
616.170	1114358
616.236	897390
616.302	194789
616.368	143417
616.434	105563
616.500	98793
616.565	109341
616.631	134205
616.697	107972
616.763	115168
616.829	170901
616.895	307632
616.961	278984
617.026	114754
617.092	84047
617.158	79992
617.224	77985
617.289	74670
617.355	69354
617.421	68618
617.487	68817
617.552	65312
617.618	64767
617.684	64846
617.749	67074
617.815	64371
617.880	60606
617.946	60492
618.012	63657
618.077	63296
618.143	61254
618.208	61743
618.274	66169
618.339	67078
618.405	54847
618.470	56501
618.536	55278
618.601	55740
618.667	51818
618.732	50185
618.798	49441
618.863	48587
618.928	47384
618.994	49712
619.059	51874
619.124	58577
619.190	51549
619.255	47822
619.320	47891
619.386	48960
619.451	46377
619.516	46674
619.581	47541
619.647	48034
619.712	47504
619.777	46880
619.842	47161
619.907	48760
619.972	48867
620.038	47793
620.103	46590
620.168	46253
620.233	47780
620.298	47947
620.363	47986
620.428	48889
620.493	50022
620.558	50747
620.623	51658
620.688	52026
620.753	51465
620.818	51471
620.883	51280
620.948	51809
621.013	51412
621.078	50509
621.143	50161
621.207	54125
621.272	52202
621.337	51422
621.402	51164
621.467	52750
621.532	52841
621.596	51844
621.661	48866
621.726	48401
621.791	48404
621.855	50271
621.920	49418
621.985	49307
622.049	52122
622.114	50528
622.179	49477
622.243	52087
622.308	53507
622.373	55740
622.437	53590
622.502	50847
622.566	49663
622.631	48889
622.695	51354
622.760	50557
622.824	50664
622.889	51264
622.953	52178
623.018	63216
623.082	63881
623.147	53968
623.211	52823
623.276	53207
623.340	49664
623.404	48475
623.469	48544
623.533	49904
623.597	48403
623.662	48447
623.726	44588
623.790	42865
623.854	41066
623.919	42500
623.983	42396
624.047	44043
624.111	42656
624.176	45082
624.240	45594
624.304	47916
624.368	43290
624.432	44146
624.496	46302
624.560	49420
624.625	50986
624.689	48800
624.753	48321
624.817	47296
624.881	45352
624.945	42362
625.009	40713
625.073	41871
625.137	43215
625.201	50014
625.265	49476
625.329	42590
625.393	43884
625.456	44663
625.520	45381
625.584	46696
625.648	48234
625.712	54310
625.776	69987
625.839	71858
625.903	46249
625.967	37690
626.031	44281
626.095	57974
626.158	41986
626.222	33452
626.286	30489
626.349	29229
626.413	27148
626.477	30231
626.540	28568
626.604	27161
626.668	28188
626.731	27105
626.795	26623
626.858	27887
626.922	26812
626.986	26716
627.049	25076
627.113	28083
627.176	26324
627.240	26158
627.303	24872
627.366	25505
627.430	26412
627.493	26173
627.557	24391
627.620	26777
627.684	27224
627.747	27045
627.810	23333
627.874	23402
627.937	21354
628.000	25517
628.064	21970
628.127	19241
628.190	20391
628.253	20309
628.317	19136
628.380	18317
628.443	18302
628.506	17899
628.569	16973
628.632	15982
628.696	16206
628.759	16607
628.822	14181
628.885	15367
628.948	15827
629.011	15787
629.074	15422
629.137	15906
629.200	14309
629.263	14988
629.326	12968
629.389	13876
629.452	14113
629.515	14185
629.578	13689
629.641	14617
629.704	13526
629.767	13932
629.830	14000
629.892	12981
629.955	12161
630.018	15412
630.081	15202
630.144	17748
630.207	13512
630.269	15151
630.332	12691
630.395	11618
630.458	12478
630.520	11651
630.583	12595
630.646	12180
630.708	12125
630.771	11315
630.834	12640
630.896	12121
630.959	12008
631.021	12144
631.084	11534
631.146	13069
631.209	13398
631.272	12271
631.334	12222
631.397	12874
631.459	12454
631.522	13621
631.584	12955
631.646	15165
631.709	15450
631.771	18804
631.834	15738
631.896	14714
631.958	12092
632.021	13196
632.083	10767
632.145	12418
632.208	11677
632.270	13174
632.332	10654
632.395	10894
632.457	12066
632.519	10553
632.581	12117
632.643	10803
632.706	11738
632.768	9910
632.830	10428
632.892	11353
632.954	10920
633.016	11963
633.078	10760
633.141	12113
633.203	9996
633.265	11636
633.327	10855
633.389	11182
633.451	13418
633.513	14098
633.575	13652
633.637	13951
633.698	12349
633.760	12349
633.822	12013
633.884	13243
633.946	12944
634.008	12779
634.070	13746
634.132	14297
634.193	15570
634.255	18381
634.317	17253
634.379	18681
634.441	14712
634.502	14207
634.564	12736
634.626	13392
634.687	12185
634.749	11116
634.811	11673
634.873	10537
634.934	10495
634.996	11253
635.057	9850
635.119	10121
635.181	9929
635.242	11650
635.304	9818
635.365	13122
635.427	10346
635.488	10969
635.550	10232
635.611	11239
635.673	9395
635.734	12589
635.796	12136
635.857	15296
635.918	13628
635.980	16912
636.041	16663
636.102	19794
636.164	18120
636.225	18992
636.286	13848
636.348	14080
636.409	12288
636.470	11044
636.531	10097
636.593	10228
636.654	10912
636.715	10337
636.776	9911
636.838	9009
636.899	9719
636.960	9141
637.021	8249
637.082	9505
637.143	9096
637.204	8663
637.265	8352
637.326	9294
637.387	8618
637.448	7848
637.509	8667
637.570	8609
637.631	8541
637.692	7102
637.753	6957
637.814	8244
637.875	8032
637.936	8904
637.997	7271
638.058	9250
638.119	8368
638.179	8433
638.240	7131
638.301	7982
638.362	6871
638.423	8074
638.483	8354
638.544	6936
638.605	7928
638.666	7546
638.726	7634
638.787	8622
638.848	6942
638.908	7383
638.969	7416
639.030	7811
639.090	6849
639.151	7519
639.211	8555
639.272	10529
639.332	15956
639.393	10210
639.453	6899
639.514	8326
639.574	8214
639.635	6560
639.695	7543
639.756	6677
639.816	7851
639.877	9917
639.937	14483
639.997	19164
640.058	7207
640.118	7262
640.178	7469
640.239	5987
640.299	6047
640.359	6747
640.420	7477
640.480	8265
640.540	9689
640.600	9110
640.661	8872
640.721	7791
640.781	10717
640.841	7114
640.901	8075
640.961	8415
641.021	8946
641.082	9547
641.142	11628
641.202	9146
641.262	5005
641.322	7465
641.382	5823
641.442	6557
641.502	6086
641.562	8058
641.622	5648
641.682	7484
641.742	8207
641.802	7424
641.861	6809
641.921	7479
641.981	8562
642.041	7582
642.101	8230
642.161	6186
642.221	5217
642.280	5826
642.340	5401
642.400	5422
642.460	6390
642.519	6112
642.579	5759
642.639	7575
642.698	4320
642.758	8500
642.818	6380
642.877	5935
642.937	7326
642.997	8198
643.056	10740
643.116	7116
643.175	7528
643.235	6694
643.294	7215
643.354	8651
643.414	9364
643.473	11164
643.532	14720
643.592	22154
643.651	36700
643.711	66315
643.770	131991
643.830	324251
643.889	716406
643.948	157951
644.008	24655
644.067	14585
644.126	11088
644.186	9033
644.245	9507
644.304	7276
644.363	8818
644.423	6740
644.482	6367
644.541	8004
644.600	6182
644.659	10197
644.719	11801
644.778	19247
644.837	33702
644.896	71772
644.955	170239
645.014	53451
645.073	10620
645.132	7945
645.191	7612
645.250	7898
645.309	8745
645.368	8317
645.427	11574
645.486	17518
645.545	32181
645.604	10172
645.663	7980
645.722	7625
645.781	8066
645.840	10250
645.898	12081
645.957	20978
646.016	32500
646.075	60977
646.134	121964
646.192	332833
646.251	500955
646.310	68275
646.369	17451
646.427	13832
646.486	9076
646.545	9324
646.603	6769
646.662	7599
646.721	6449
646.779	6837
646.838	6479
646.896	9550
646.955	12541
647.014	19500
647.072	37051
647.131	107214
647.189	50073
647.248	8244
647.306	5997
647.365	5920
647.423	2947
647.481	6247
647.540	3595
647.598	4277
647.657	3511
647.715	4479
647.773	4088
647.832	5833
647.890	2974
647.948	3549
648.007	3978
648.065	3806
648.123	3523
648.181	5921
648.240	4565
648.298	2979
648.356	4002
648.414	4495
648.472	3316
648.531	4279
648.589	3644
648.647	3297
648.705	3780
648.763	3744
648.821	3960
648.879	4052
648.937	5573
648.995	6838
649.053	8478
649.111	15530
649.169	26404
649.227	47881
649.285	99472
649.343	300398
649.401	141359
649.459	27253
649.516	16008
649.574	7626
649.632	9448
649.690	10188
649.748	9712
649.806	13061
649.863	25212
649.921	73187
649.979	47348
650.037	6956
650.094	2788
650.152	3854
650.210	2890
650.268	4378
650.325	2845
650.383	4575
650.440	1927
650.498	3077
650.556	2945
650.613	2344
650.671	2843
650.728	3067
650.786	2763
650.843	3977
650.901	2090
650.958	2914
651.016	2179
651.073	1917
651.131	2457
651.188	1831
651.246	2164
651.303	1584
651.360	2018
651.418	1920
651.475	1547
651.532	2040
651.590	1364
651.647	1109
651.704	1736
651.762	2454
651.819	2331
651.876	2035
651.933	1767
651.990	2470
652.048	728
652.105	1612
652.162	1814
652.219	1315
652.276	1813
652.333	2525
652.390	406
652.448	1802
652.505	1206
652.562	2209
652.619	2134
652.676	2366
652.733	2614
652.790	1964
652.847	671
652.904	2098
652.961	419
653.017	572
653.074	1933
653.131	2075
653.188	990
653.245	2007
653.302	1916
653.359	1799
653.415	1569
653.472	943
653.529	1070
653.586	1077
653.642	1364
653.699	1869
653.756	1174
653.813	1077
653.869	1547
653.926	1584
653.983	846
654.039	2420
654.096	1100
654.152	2790
654.209	1290
654.266	1919
654.322	616
654.379	1532
654.435	1831
654.492	1732
654.548	2944
654.605	4163
654.661	3749
654.717	2049
654.774	2040
654.830	1829
654.887	1628
654.943	1595
655.000	1572
655.056	2117
655.112	1951
655.168	648
655.225	1354
655.281	2183
655.337	2353
655.394	3330
655.450	2871
655.506	2777
655.562	2481
655.618	2988
655.675	-17
655.731	2132
655.787	1039
655.843	2280
655.899	880
655.955	2359
656.011	1764
656.067	1443
656.123	2496
656.179	2423
656.235	3781
656.291	1015
656.347	2975
656.403	1556
656.459	2184
656.515	2116
656.571	1604
656.627	1850
656.683	591
656.739	1386
656.795	2162
656.850	2219
656.906	2457
656.962	2927
657.018	1774
657.074	2341
657.129	2313
657.185	4092
657.241	8197
657.297	5383
657.352	1664
657.408	443
657.464	1997
657.519	1161
657.575	505
657.630	1997
657.686	278
657.742	713
657.797	275
657.853	372
657.908	2418
657.964	350
658.019	1193
658.075	1624
658.130	992
658.186	-27
658.241	938
658.297	1148
658.352	-65
658.407	1624
658.463	937
658.518	1480
658.573	397
658.629	1176
658.684	539
658.739	1289
658.795	557
658.850	1286
658.905	340
658.960	1018
659.016	825
659.071	484
659.126	1146
659.181	1373
659.236	4210
659.291	5070
659.346	1389
659.401	1588
659.457	1511
659.512	486
659.567	1787
659.622	1782
659.677	690
659.732	337
659.787	690
659.842	1019
659.897	1356
659.952	1172
660.007	598
660.061	1521
660.116	-158
660.171	1043
660.226	1016
660.281	1512
660.336	-67
660.391	1982
660.445	-271
660.500	1280
660.555	607
660.610	768
660.664	1000
660.719	371
660.774	762
660.828	1065
660.883	753
660.938	2084
660.992	-425
661.047	735
661.101	706
661.156	1080
661.211	-658
661.265	503
661.320	469
661.374	1241
661.429	-16
661.483	1534
661.538	77
661.592	802
661.647	904
661.701	1007
661.755	-236
661.810	1771
661.864	207
661.919	342
661.973	881
662.027	547
662.081	-169
662.136	412
662.190	1049
662.244	1660
662.299	497
662.353	1451
662.407	-510
662.461	883
662.515	302
662.569	457
662.624	1048
662.678	-107
662.732	-81
662.786	442
662.840	709
662.894	820
662.948	263
663.002	1257
663.056	1035
663.110	736
663.164	711
663.218	1342
663.272	1180
663.326	1325
663.380	1191
663.434	1775
663.488	-280
663.542	1090
663.595	131
663.649	902
663.703	738
663.757	731
663.811	706
663.864	101
663.918	583
663.972	1094
664.026	1015
664.079	739
664.133	1036
664.187	1008
664.240	-296
664.294	-45
664.348	653
664.401	799
664.455	379
664.508	772
664.562	634
664.615	1387
664.669	-286
664.722	1321
664.776	-33
664.829	1034
664.883	383
664.936	696
664.990	-331
665.043	1075
665.097	-129
665.150	1884
665.203	167
665.257	654
665.310	239
665.363	1423
665.417	944
665.470	867
665.523	310
665.576	1185
665.630	285
665.683	1139
665.736	762
665.789	756
665.842	131
665.895	1371
665.949	643
666.002	1556
666.055	281
666.108	1007
666.161	974
666.214	2464
666.267	666
666.320	1579
666.373	1257
666.426	815
666.479	568
666.532	784
666.585	1147
666.638	2056
666.691	1026
666.744	2135
666.796	531
666.849	1421
666.902	1548
666.955	945
667.008	605
667.060	1243
667.113	642
667.166	721
667.219	623
667.271	1038
667.324	51
667.377	1263
667.430	722
667.482	1081
667.535	250
667.587	1603
667.640	1194
667.693	2363
667.745	4017
667.798	4804
667.850	1537
667.903	1164
667.955	1144
668.008	643
668.060	1060
668.113	1174
668.165	883
668.218	791
668.270	1156
668.322	1112
668.375	81
668.427	1470
668.479	257
668.532	786
668.584	1123
668.636	904
668.689	564
668.741	1317
668.793	666
668.845	995
668.898	975
668.950	864
669.002	15
669.054	641
669.106	561
669.158	1278
669.211	641
669.263	940
669.315	1611
669.367	1849
669.419	537
669.471	2147
669.523	1617
669.575	2512
669.627	1772
669.679	995
669.731	1662
669.783	1793
669.835	1335
669.886	1364
669.938	1603
669.990	1797
670.042	1199
670.094	2148
670.146	855
670.197	2126
670.249	3570
670.301	4617
670.353	6875
670.404	10743
670.456	14858
670.508	25848
670.560	44218
670.611	78584
670.663	138311
670.715	341981
670.766	552914
670.818	163828
670.869	25167
670.921	12837
670.972	8891
671.024	6330
671.075	4057
671.127	3852
671.178	2688
671.230	3883
671.281	2361
671.333	2851
671.384	2427
671.436	4084
671.487	4550
671.538	5631
671.590	8344
671.641	14131
671.692	26622
671.744	53872
671.795	32032
671.846	8411
671.897	3359
671.949	2271
672.000	2605
672.051	1561
672.102	1782
672.153	733
672.204	159
672.256	1929
672.307	689
672.358	1106
672.409	1090
672.460	217
672.511	1
672.562	53
672.613	502
672.664	396
672.715	647
672.766	1159
672.817	332
672.868	1710
672.919	400
672.970	813
673.021	136
673.071	669
673.122	393
673.173	-458
673.224	444
673.275	434
673.326	139
673.376	265
673.427	3
673.478	493
673.528	964
673.579	1058
673.630	-528
673.680	723
673.731	550
673.782	741
673.832	779
673.883	315
673.934	-279
673.984	1163
674.035	-194
674.085	907
674.136	3
674.186	803
674.237	533
674.287	1502
674.338	364
674.388	399
674.438	318
674.489	1921
674.539	-36
674.589	524
674.640	396
674.690	1063
674.740	-964
674.791	1171
674.841	63
674.891	1251
674.942	191
674.992	439
675.042	-513
675.092	720
675.142	-562
675.193	476
675.243	95
675.293	1407
675.343	-119
675.393	365
675.443	516
675.493	438
675.543	-613
675.593	159
675.643	228
675.693	888
675.743	464
675.793	725
675.843	-767
675.893	579
675.943	77
675.993	575
676.043	99
676.093	1066
676.142	-633
676.192	249
676.242	-242
676.292	-627
676.341	-430
676.391	-333
676.441	-92
676.491	784
676.540	-476
676.590	605
676.640	-19
676.689	573
676.739	-955
676.789	513
676.838	-412
676.888	169
676.937	-298
676.987	-51
677.037	543
677.086	-84
677.136	91
677.185	-213
677.235	-137
677.284	44
677.333	-37
677.383	-124
677.432	58
677.482	651
677.531	-558
677.580	-494
677.630	-466
677.679	333
677.728	-712
677.778	623
677.827	-809
677.876	-450
677.925	-522
677.975	80
678.024	-528
678.073	-87
678.122	161
678.171	1124
678.220	59
678.269	380
678.319	444
678.368	725
678.417	407
678.466	715
678.515	257
678.564	-52
678.613	-285
678.662	250
678.711	-594
678.760	-491
678.809	-527
678.857	769
678.906	221
678.955	278
679.004	770
679.053	-203
679.102	-387
679.151	-269
679.199	-836
679.248	-390
679.297	61
679.346	-677
679.394	-363
679.443	2
679.492	-6
679.540	153
679.589	-253
679.638	309
679.686	-55
679.735	387
679.784	-407
679.832	-98
679.881	-546
679.929	-113
679.978	-869
680.026	729
680.075	-498
680.123	-98
680.172	-210
680.220	-493
680.268	-174
680.317	-741
680.365	-591
680.414	11
680.462	-652
680.510	-615
680.559	-874
680.607	-756
680.655	400
680.703	-421
680.752	-513
680.800	-6
680.848	-261
680.896	-229
680.945	-1312
680.993	88
681.041	-132
681.089	-49
681.137	-658
681.185	-493
681.233	-918
681.258	-391
681.281	88
681.329	-180
681.377	-765
681.380	-702
681.425	134
681.473	-357
681.502	-189
681.521	-114
681.569	430
681.617	12
681.624	60
681.665	223
681.713	496
681.745	977
681.761	1184
681.809	414
681.857	387
681.867	386
681.904	313
681.952	321
681.989	-154
682.000	-325
682.048	662
682.096	325
682.111	239
682.143	-12
682.191	360
682.233	1244
682.239	1360
682.286	-112
682.334	219
682.354	247
682.382	261
682.430	1241
682.476	335
682.477	298
682.525	1158
682.572	-20
682.598	502
682.620	938
682.667	82
682.715	1496
682.720	1449
682.763	837
682.810	1288
682.841	1172
682.857	1060
682.905	679
682.952	784
682.963	922
683.000	1390
683.047	586
683.085	2009
683.095	2375
683.142	1740
683.190	1320
683.206	962
683.237	282
683.284	2066
683.328	1231
683.332	1140
683.379	1693
683.426	1032
683.449	1098
683.473	1198
683.521	801
683.568	2019
683.571	1989
683.615	1364
683.662	1930
683.693	1213
683.709	792
683.757	2055
683.804	1912
683.814	2000
683.851	2230
683.898	1414
683.936	1672
683.945	1739
683.992	1898
684.039	1861
684.057	2030
684.086	2228
684.133	2035
684.179	2014
684.180	2000
684.227	2305
684.274	2108
684.300	2236
684.321	2314
684.368	2403
684.415	2587
684.422	2504
684.462	1796
684.509	2205
684.543	2112
684.556	2104
684.603	1349
684.649	2439
684.665	2385
684.696	2291
684.743	1914
684.786	1847
684.790	1832
684.837	2716
684.883	3062
684.908	2941
684.930	2792
684.977	3218
685.023	2454
685.029	2540
685.070	3023
685.117	2522
685.150	2705
685.164	2840
685.210	2826
685.257	4040
685.272	3794
685.303	3126
685.350	3907
685.393	3553
685.396	3532
685.443	3936
685.490	4211
685.514	4379
685.536	4298
685.583	3162
685.629	3554
685.636	3461
685.675	3074
685.722	3815
685.757	3044
685.768	2788
685.815	3269
685.861	3338
685.878	3547
685.908	3885
685.954	3314
686.000	4056
686.000	4066
686.047	4248
686.093	4258
686.121	4305
686.139	4226
686.185	4819
686.232	4214
686.242	4262
686.278	4279
686.324	3661
686.363	3713
686.370	3747
686.416	2952
686.463	4064
686.484	3628
686.509	3132
686.555	3165
686.601	3770
686.606	3809
686.647	4174
686.693	3402
686.727	3219
686.739	3156
686.785	3797
686.831	3752
686.848	3744
686.877	3698
686.923	2974
686.969	3635
686.969	3638
687.015	4077
687.061	3982
687.090	4284
687.107	4369
687.153	4403
687.199	4042
687.211	3790
687.245	3343
687.291	4506
687.332	4523
687.336	4507
687.382	4798
687.428	4530
687.453	4459
687.474	4313
687.520	4125
687.565	4546
687.574	4267
687.611	3479
687.657	4271
687.695	4222
687.702	4249
687.748	5240
687.794	5237
687.816	5484
687.839	5307
687.885	4729
687.931	4648
687.937	4514
687.976	4367
688.022	4749
688.058	5273
688.067	5351
688.113	5194
688.158	4902
688.179	5110
688.204	5303
688.249	5048
688.295	5221
688.300	5164
688.340	4947
688.386	5526
688.421	4972
688.431	4797
688.477	5271
688.522	4948
688.542	5136
688.567	5528
688.613	5448
688.658	5927
688.663	5897
688.703	5470
688.749	5508
688.784	5529
688.794	5516
688.839	5046
688.884	4822
688.905	4886
688.930	5034
688.975	5034
689.020	5098
689.026	5014
689.065	4689
689.110	5150
689.146	5305
689.155	5288
689.201	5482
689.246	5332
689.267	5240
689.291	5311
689.336	5012
689.381	5605
689.388	5496
689.426	4752
689.471	5053
689.509	5088
689.516	5134
689.561	5678
689.606	5092
689.630	5383
689.651	5644
689.696	5191
689.741	5419
689.750	5545
689.785	6006
689.830	6029
689.871	5636
689.875	5598
689.920	5904
689.965	5485
689.992	5398
690.010	5330
690.054	5392
690.099	5352
690.112	5286
690.144	5393
690.189	5442
690.233	5388
690.233	5397
690.278	5790
690.323	6249
690.354	5985
690.367	5823
690.412	6060
690.457	5339
690.474	5377
690.501	5585
690.546	5744
690.590	5580
690.595	5539
690.635	5232
690.680	5342
690.716	5208
690.724	5204
690.769	5378
690.813	5933
690.836	5833
690.857	5860
690.902	6059
690.946	6428
690.957	6485
690.991	6776
691.035	7033
691.077	7302
691.080	7312
691.124	7373
691.168	7326
691.198	6989
691.213	6795
691.257	7375
691.301	6675
691.318	6604
691.346	6619
691.390	6466
691.434	6821
691.439	6753
691.478	6386
691.522	7316
691.559	6711
691.567	6637
691.611	7225
691.655	7138
691.680	7213
691.699	7092
691.743	6912
691.787	6794
691.800	6694
691.831	6920
691.875	7052
691.919	7391
691.921	7378
691.964	6953
692.008	6938
692.041	6742
692.052	6818
692.096	7011
692.139	7410
692.162	7362
692.183	7170
692.227	7005
692.271	7086
692.282	7088
692.315	7421
692.359	7388
692.402	7944
692.403	7963
692.447	7727
692.490	7492
692.523	7618
692.534	7736
692.578	7767
692.622	7812
692.643	7982
692.666	7991
692.709	7330
692.753	7154
692.763	7051
692.797	6949
692.840	7080
692.884	6817
692.884	6834
692.928	6787
692.971	7374
693.004	7509
693.015	7487
693.059	7364
693.102	7337
693.124	7309
693.146	7374
693.189	7172
693.233	7077
693.245	7139
693.276	7630
693.320	7850
693.363	8268
693.365	8245
693.407	7804
693.450	8116
693.485	7961
693.493	7949
693.537	7953
693.580	7782
693.605	7732
693.624	7707
693.667	7515
693.710	7739
693.725	7702
693.753	8331
693.797	9200
693.840	10015
693.845	10107
693.883	9902
693.926	9262
693.966	9273
693.970	9269
694.013	8574
694.056	8063
694.086	7534
694.099	7577
694.142	7850
694.185	7921
694.206	8054
694.229	8173
694.272	8205
694.315	8331
694.326	8262
694.358	8565
694.401	9361
694.444	9953
694.446	9952
694.487	9808
694.530	9841
694.566	9650
694.573	9548
694.616	8775
694.659	8246
694.686	7762
694.702	7748
694.745	7970
694.787	7676
694.806	7683
694.830	7772
694.873	7575
694.916	7690
694.926	7666
694.959	7974
695.002	8499
695.044	8712
695.046	8714
695.087	8844
695.130	8488
695.166	8470
695.172	8488
695.215	8222
695.258	8015
695.286	7864
695.301	7964
695.343	8272
695.386	8480
695.406	8626
695.428	8788
695.471	8818
695.514	9153
695.526	9126
695.556	9264
695.599	9756
695.641	9842
695.646	9863
695.684	9865
695.726	9772
695.766	9649
695.769	9649
695.811	8944
695.854	8824
695.886	8416
695.896	8400
695.938	8365
695.981	8071
696.005	8108
696.023	8570
696.065	9275
696.108	10344
696.125	10625
696.150	10446
696.192	10299
696.235	10059
696.245	9987
696.277	9809
696.319	9385
696.361	9034
696.365	8984
696.404	9242
696.446	9511
696.485	9633
696.488	9676
696.530	9963
696.572	10172
696.604	10341
696.614	10402
696.656	10468
696.698	10752
696.724	10737
696.740	10578
696.783	10239
696.825	9850
696.844	9647
696.867	9841
696.909	10178
696.951	10408
696.964	10468
696.992	10290
697.034	10013
697.076	9684
697.083	9602
697.118	9945
697.160	10363
697.202	10800
697.203	10777
697.244	10630
697.286	10675
697.323	10447
697.327	10478
697.369	10723
697.411	10838
697.442	10868
697.453	10950
697.494	11084
697.536	11437
697.562	11520
697.578	11575
697.620	11650
697.661	11798
697.682	11802
697.703	12236
697.744	13057
697.786	14045
697.801	14253
697.828	14315
697.869	14519
697.911	14646
697.921	14662
697.952	13928
697.994	12827
698.035	11776
698.040	11608
698.077	11516
698.118	11414
698.160	11251
698.160	11217
698.201	11371
698.243	11430
698.279	11477
698.284	11505
698.325	11430
698.367	11428
698.399	11319
698.408	11400
698.449	11646
698.491	11899
698.518	12046
698.532	12121
698.573	12214
698.614	12357
698.638	12381
698.656	12511
698.697	12747
698.738	12952
698.757	13036
698.779	12899
698.820	12537
698.862	12174
698.877	12008
698.903	12200
698.944	12450
698.985	12694
698.996	12729
699.026	12546
699.067	12241
699.116	11847
699.235	12705
699.354	11548
699.474	11705
699.593	12764
699.713	12985
699.832	12252
699.951	13365
700.070	12781
700.190	11998
700.309	11251
700.428	12076
700.547	12077
700.667	11259
700.786	11547
700.905	11706
701.024	11831
701.143	11194
701.262	10712
701.381	11389
701.500	12400
701.619	13126
701.738	11589
701.857	11236
701.976	10948
702.095	10883
702.214	11698
702.333	13096
702.452	11160
702.571	10418
702.690	10299
702.809	10455
702.928	10353
703.047	10628
703.165	10172
703.284	10887
703.403	10570
703.522	10870
703.640	11539
703.759	11962
703.878	13227
703.997	9419
704.115	9853
704.234	10019
704.353	9615
704.471	9319
704.590	9495
704.708	9449
704.827	9383
704.946	9245
705.064	9600
705.183	9049
705.301	9734
705.420	11086
705.538	10428
705.656	9146
705.775	9268
705.893	10071
706.012	10247
706.130	10185
706.249	10095
706.367	10175
706.485	10128
706.604	9469
706.722	9286
706.840	12337
706.958	12109
707.077	9603
707.195	8477
707.313	10251
707.431	8855
707.549	9291
707.668	8718
707.786	9683
707.904	8356
708.022	8539
708.140	8762
708.258	8289
708.376	9155
708.494	9392
708.612	9676
708.730	11864
708.848	11345
708.966	11079
709.084	11276
709.202	10375
709.320	9622
709.438	9628
709.556	10107
709.674	9172
709.791	9865
709.909	8745
710.027	9071
710.145	8809
710.263	8318
710.380	9353
710.498	9436
710.616	8676
710.733	8454
710.851	9394
710.969	10429
711.086	8719
711.204	9136
711.322	8710
711.439	8392
711.557	9900
711.674	8853
711.792	8447
711.909	9444
712.027	8307
712.144	8061
712.262	8185
712.379	9178
712.497	11295
712.614	11494
712.732	10535
712.849	9750
712.966	11259
713.084	14378
713.201	10595
713.318	9764
713.436	9791
713.553	10316
713.670	11218
713.787	11591
713.905	11226
714.022	10458
714.139	10511
714.256	15252
714.373	20106
714.490	37283
714.608	100865
714.725	460917
714.842	514302
714.959	34408
715.076	15169
715.193	12374
715.310	11320
715.427	8670
715.544	9050
715.661	9562
715.778	8668
715.895	9182
716.011	10160
716.128	9434
716.245	9949
716.362	12395
716.479	12067
716.596	8951
716.713	8919
716.829	8385
716.946	7959
717.063	8129
717.180	7882
717.296	7972
717.413	8624
717.530	8028
717.646	7265
717.763	8139
717.880	7309
717.996	7378
718.113	8459
718.229	7379
718.346	7163
718.462	8533
718.579	11031
718.695	21527
718.812	12286
718.928	9160
719.045	8158
719.161	7293
719.277	7101
719.394	7761
719.510	8135
719.626	8091
719.743	11114
719.859	15022
719.975	30116
720.092	127861
720.208	320194
720.324	35958
720.440	10502
720.557	10674
720.673	15893
720.789	16143
720.905	23500
721.021	10285
721.137	7697
721.253	5881
721.369	6390
721.486	7682
721.602	8874
721.718	7216
721.834	5284
721.950	7442
722.066	5841
722.181	6019
722.297	6074
722.413	7414
722.529	6206
722.645	6192
722.761	6283
722.877	5407
722.993	5648
723.108	7747
723.224	6380
723.340	6240
723.456	5879
723.571	6233
723.687	5291
723.803	6052
723.918	6080
724.034	5760
724.150	5762
724.265	6135
724.381	10109
724.497	12827
724.612	5050
724.728	4672
724.843	5105
724.959	5666
725.074	10274
725.190	11457
725.305	6204
725.421	5644
725.536	4753
725.651	4627
725.767	4986
725.882	5683
725.997	5091
726.113	5604
726.228	4576
726.343	4224
726.459	4690
726.574	4470
726.689	4415
726.804	5030
726.920	4740
727.035	4572
727.150	4626
727.265	4724
727.380	5435
727.495	5457
727.610	5167
727.725	4265
727.841	4923
727.956	4865
728.071	6455
728.186	4556
728.301	4079
728.416	4731
728.531	4421
728.645	4783
728.760	5216
728.875	6200
728.990	5575
729.105	5069
729.220	4950
729.335	5805
729.449	4853
729.564	4736
729.679	4239
729.794	4585
729.908	5030
730.023	4590
730.138	4830
730.253	4503
730.367	4665
730.482	4111
730.596	4167
730.711	5052
730.826	5223
730.940	5829
731.055	4804
731.169	5299
731.284	4204
731.398	5362
731.513	5409
731.627	4872
731.742	5943
731.856	7551
731.970	6439
732.085	8367
732.199	10745
732.313	19319
732.428	50633
732.542	169592
732.656	105336
732.771	15448
732.885	9152
732.999	7970
733.113	7177
733.227	7084
733.342	6049
733.456	6561
733.570	5957
733.684	5545
733.798	6112
733.912	5485
734.026	4961
734.140	5999
734.254	5822
734.368	8467
734.482	9248
734.596	5095
734.710	5877
734.824	5623
734.938	5471
735.052	5556
735.166	5610
735.280	7158
735.393	5603
735.507	6329
735.621	6426
735.735	8727
735.849	6262
735.962	4681
736.076	5504
736.190	4537
736.303	5940
736.417	7345
736.531	4743
736.644	5608
736.758	4090
736.872	4575
736.985	5148
737.099	4700
737.212	4277
737.326	4272
737.439	4495
737.553	4920
737.666	4940
737.780	4494
737.893	4512
738.007	4384
738.120	5147
738.233	4849
738.347	5176
738.460	4116
738.573	5148
738.687	4542
738.800	4892
738.913	7028
739.026	4793
739.140	4955
739.253	4332
739.366	4507
739.479	4423
739.592	4805
739.705	3821
739.818	5237
739.932	5072
740.045	5792
740.158	4449
740.271	4322
740.384	5267
740.497	4475
740.610	4910
740.723	5034
740.836	5249
740.949	5426
741.062	7752
741.174	5805
741.287	3789
741.400	4513
741.513	4500
741.626	5674
741.739	4555
741.851	4343
741.964	3967
742.077	4434
742.189	4911
742.302	5923
742.415	5254
742.527	3914
742.640	4141
742.753	3945
742.865	2700
742.978	3449
743.090	3839
743.203	4070
743.316	3813
743.428	3377
743.541	3477
743.653	2973
743.766	3786
743.878	3590
743.990	3200
744.103	5344
744.215	5115
744.327	4470
744.440	5342
744.552	8726
744.664	4211
744.777	4031
744.889	3393
745.001	3930
745.113	2599
745.226	2742
745.338	3257
745.450	3087
745.562	2969
745.674	3483
745.786	2913
745.898	3265
746.010	3054
746.122	3913
746.234	4826
746.347	3612
746.459	3472
746.570	2669
746.682	3990
746.794	5537
746.906	3861
747.018	2138
747.130	2888
747.242	2600
747.354	2910
747.466	4522
747.577	3455
747.689	3514
747.801	3350
747.913	3645
748.024	2626
748.136	2741
748.248	1977
748.359	3481
748.471	2774
748.583	2853
748.694	3342
748.806	3461
748.918	3594
749.029	2972
749.141	3483
749.252	3636
749.364	3615
749.475	8671
749.587	4878
749.698	2514
749.809	2627
749.921	1929
750.032	3638
750.144	2093
750.255	1435
750.366	1497
750.478	2157
750.589	2870
750.700	2391
750.811	3662
750.923	4730
751.034	9921
751.145	11824
751.256	2216
751.367	3054
751.479	2883
751.590	1695
751.701	2513
751.812	1770
751.923	2197
752.034	2627
752.145	2224
752.256	1815
752.367	1670
752.478	2301
752.589	2347
752.700	2723
752.811	2562
752.922	1971
753.032	2232
753.143	2479
753.254	1196
753.365	2857
753.476	2343
753.586	1839
753.697	2243
753.808	2504
753.919	1712
754.029	1764
754.140	1616
754.251	2360
754.361	2211
754.472	2297
754.582	2095
754.693	2265
754.804	1632
754.914	1652
755.025	1991
755.135	1238
755.246	2498
755.356	1597
755.466	2750
755.577	1802
755.687	2508
755.798	1708
755.908	1901
756.018	1816
756.129	2247
756.239	2446
756.349	2616
756.460	2148
756.570	2399
756.680	1229
756.790	2420
756.900	2464
757.011	2210
757.121	1641
757.231	1526
757.341	1836
757.451	1405
757.561	1115
757.671	1677
757.781	1335
757.891	2045
758.001	2183
758.111	1890
758.221	2267
758.331	2706
758.441	3691
758.551	5220
758.661	4668
758.771	2829
758.880	1616
758.990	2808
759.100	2506
759.210	1839
759.320	1698
759.429	2664
759.539	2300
759.649	2623
759.758	3179
759.868	4603
759.978	2662
760.087	3628
760.197	3959
760.307	3445
760.416	2977
760.526	2736
760.635	3601
760.745	3030
760.854	3622
760.964	4500
761.073	4067
761.182	3041
761.292	2583
761.401	2469
761.511	2142
761.620	2118
761.729	1911
761.839	1649
761.948	3088
762.057	2658
762.166	2046
762.276	1652
762.385	3314
762.494	2374
762.603	1899
762.712	1870
762.822	1886
762.931	2172
763.040	1483
763.149	2030
763.258	1517
763.367	1574
763.476	2364
763.585	1398
763.694	1900
763.803	2045
763.912	1650
764.021	2548
764.130	1849
764.238	1682
764.347	1699
764.456	2504
764.565	2176
764.674	1735
764.783	1597
764.891	1475
765.000	3104
765.109	2603
765.217	2071
765.326	3176
765.435	3952
765.543	3365
765.652	3768
765.761	4786
765.869	5913
765.978	8466
766.086	14849
766.195	27176
766.303	77289
766.412	273041
766.520	253347
766.629	40985
766.737	12896
766.846	7530
766.954	5347
767.062	5211
767.171	3958
767.279	3950
767.387	2818
767.496	2801
767.604	2831
767.712	3203
767.820	2588
767.928	2907
768.037	2753
768.145	2995
768.253	3307
768.361	1603
768.469	2446
768.577	2086
768.685	2966
768.793	2675
768.901	2378
769.009	2633
769.117	2506
769.225	3148
769.333	3991
769.441	6256
769.549	10967
769.657	26548
769.765	95180
769.873	253082
769.981	71620
770.088	10872
770.196	6178
770.304	4959
770.412	3777
770.519	3150
770.627	2019
770.735	1957
770.842	2780
770.950	3250
771.058	3420
771.165	2170
771.273	2301
771.380	2642
771.488	3362
771.595	3071
771.703	2693
771.810	3329
771.918	2672
772.025	2548
772.133	3059
772.240	3294
772.348	4089
772.455	3571
772.562	2519
772.670	2808
772.777	3664
772.884	3913
772.991	3027
773.099	2545
773.206	3495
773.313	3232
773.420	3028
773.528	2511
773.635	2846
773.742	3445
773.849	3393
773.956	2319
774.063	2664
774.170	2228
774.277	3526
774.384	2890
774.491	2085
774.598	3125
774.705	3232
774.812	3881
774.919	3646
775.026	3450
775.133	2138
775.239	2991
775.346	2748
775.453	1888
775.560	2581
775.667	2610
775.773	2852
775.880	3219
775.987	1875
776.093	2646
776.200	3149
776.307	2498
776.413	3256
776.520	2514
776.627	3202
776.733	2365
776.840	1378
776.946	4200
777.053	4689
777.159	8085
777.266	5082
777.372	8061
777.478	6920
777.585	4940
777.691	2633
777.798	2489
777.904	2717
778.010	3805
778.117	3735
778.223	1589
778.329	2122
778.435	1383
778.542	2939
778.648	2180
778.754	1927
778.860	1954
778.966	1959
779.072	1210
779.178	2725
779.284	2247
779.391	1491
779.497	1604
779.603	3383
779.708	1713
779.815	2554
779.920	3533
780.026	5603
780.132	2656
780.238	1332
780.344	2297
780.450	2605
780.556	945
780.661	1376
780.767	2041
780.873	2629
780.979	1585
781.085	1675
781.190	1906
781.296	1100
781.402	3080
781.507	1330
781.613	2233
781.719	948
781.824	2058
781.930	2501
782.035	1971
782.141	1947
782.246	1573
782.352	1905
782.457	1545
782.563	1672
782.668	1669
782.773	1378
782.879	1496
782.984	2010
783.090	2707
783.195	4635
783.300	3448
783.405	2375
783.511	2298
783.616	2304
783.721	2004
783.826	1899
783.932	2092
784.037	1779
784.142	2211
784.247	1457
784.352	1494
784.457	1848
784.562	1905
784.667	1287
784.772	1261
784.877	1146
784.982	1617
785.087	1604
785.192	2459
785.297	982
785.402	1802
785.507	1330
785.611	2095
785.716	1835
785.821	1024
785.926	1059
786.031	1150
786.135	892
786.240	1185
786.345	44
786.450	1189
786.554	1378
786.659	1432
786.763	92
786.868	657
786.973	1740
787.077	936
787.182	1478
787.286	1655
787.391	1490
787.495	990
787.600	1442
787.704	553
787.809	950
787.913	900
788.017	1424
788.122	1291
788.226	1169
788.330	602
788.435	1159
788.539	2467
788.643	891
788.747	368
788.852	1256
788.956	1479
789.060	1820
789.164	1342
789.268	341
789.372	1645
789.476	572
789.580	870
789.684	801
789.788	1267
789.892	1440
789.996	1748
790.100	433
790.204	563
790.308	694
790.412	736
790.516	1632
790.620	609
790.724	1311
790.828	227
790.931	100
791.035	1430
791.139	936
791.242	417
791.346	1887
791.450	1109
791.554	617
791.657	-152
791.761	1891
791.864	1752
791.968	1445
792.072	756
792.175	1291
792.279	384
792.382	1881
792.486	1252
792.589	899
792.693	1420
792.796	-366
792.899	1568
793.003	1526
793.106	-192
793.209	1254
793.313	2688
793.416	22
793.519	2128
793.623	2936
793.726	4658
793.829	1683
793.932	2074
794.035	285
794.138	1742
794.242	2016
794.345	852
794.448	1936
794.551	2876
794.654	3936
794.757	3294
794.860	1936
794.963	1408
795.066	209
795.169	1342
795.272	643
795.375	791
795.477	539
795.580	1375
795.683	-467
795.786	693
795.889	359
795.991	1521
796.094	1806
796.197	219
796.300	1228
796.402	706
796.505	81
796.608	836
796.710	809
796.813	1063
796.915	373
797.018	923
797.120	1023
797.223	-463
797.326	1334
797.428	27
797.530	902
797.633	425
797.735	1624
797.838	585
797.940	1851
798.042	75
798.145	715
798.247	1533
798.349	52
798.452	1175
798.554	464
798.656	547
798.758	1381
798.860	1191
798.962	48
799.065	149
799.167	-346
799.269	1301
799.371	1583
799.473	1597
799.575	1178
799.677	1581
799.779	3024
799.881	2044
799.983	2024
800.085	-74
800.187	763
800.289	-388
800.390	379
800.492	1487
800.594	904
800.696	129
800.798	956
800.899	700
801.001	215
801.103	62
801.205	686
801.306	1151
801.408	-134
801.509	26
801.611	927
801.713	870
801.814	96
801.916	309
802.017	620
802.119	-27
802.220	346
802.322	-1103
802.423	2140
802.525	-415
802.626	746
802.727	1715
802.829	1645
802.930	-1511
803.031	1334
803.133	-505
803.234	93
803.335	641
803.436	-263
803.538	-225
803.639	-961
803.740	759
803.841	-429
803.942	1533
804.043	399
804.144	-133
804.245	-125
804.346	22
804.447	-242
804.548	1260
804.649	3102
804.750	586
804.851	190
804.952	-200
805.053	487
805.154	-460
805.255	1346
805.355	1095
805.456	-805
805.557	-410
805.658	-717
805.758	527
805.859	1061
805.960	549
806.061	-21
806.161	445
806.262	-89
806.362	195
806.463	-703
806.564	714
806.664	494
806.765	990
806.865	453
806.966	251
807.066	-201
807.166	13
807.267	336
807.367	-153
807.468	141
807.568	-417
807.668	1070
807.769	431
807.869	171
807.969	-309
808.069	-60
808.170	887
808.270	225
808.370	1403
808.470	931
808.570	-81
808.670	945
808.770	818
808.870	-460
808.970	444
809.070	138
809.170	364
809.271	880
809.370	-619
809.470	484
809.570	333
809.670	-667
809.770	-264
809.870	84
809.970	1071
810.070	-163
810.169	368
810.269	-1046
810.369	1353
810.469	363
810.568	-198
810.668	29
810.768	325
810.867	1493
810.967	194
811.066	-12
811.166	-136
811.265	1215
811.365	-381
811.464	67
811.564	-64
811.663	791
811.763	-322
811.862	553
811.962	377
812.061	-100
812.160	553
812.260	208
812.359	621
812.458	388
812.557	4315
812.657	6564
812.756	1983
812.855	-89
812.954	271
813.053	38
813.153	588
813.252	408
813.351	380
813.450	420
813.549	-252
813.648	102
813.747	-718
813.846	725
813.945	-210
814.044	750
814.143	245
814.242	569
814.341	-915
814.439	398
814.538	546
814.637	270
814.736	-176
814.835	1258
814.933	308
815.032	31
815.131	326
815.229	1244
815.328	1202
815.427	354
815.525	1441
815.624	1173
815.722	1129
815.821	1365
815.919	1011
816.018	852
816.116	1945
816.215	1513
816.313	1431
816.412	2214
816.510	1756
816.609	3522
816.707	2994
816.805	1838
816.904	1725
817.002	3155
817.100	2815
817.198	4436
817.296	1839
817.395	2701
817.493	3912
817.591	2627
817.689	4264
817.787	5134
817.885	8506
817.983	14807
818.081	32585
818.179	80542
818.277	215567
818.375	187337
818.473	42194
818.571	15012
818.669	9638
818.767	9526
818.865	9165
818.963	10675
819.061	16118
819.158	29172
819.256	67086
819.354	162168
819.452	377829
819.549	241995
819.647	55357
819.745	20193
819.842	12440
819.940	8875
820.038	6646
820.135	6034
820.233	5300
820.330	3095
820.428	2877
820.525	3577
820.623	3133
820.720	1968
820.818	2568
820.915	3121
821.012	2698
821.110	910
821.207	2925
821.304	1380
821.402	1998
821.499	2621
821.596	3906
821.693	2702
821.791	2534
821.888	2543
821.985	5870
822.082	5235
822.179	2998
822.276	2419
822.373	2058
822.470	916
822.567	1584
822.664	878
822.761	1111
822.858	1036
822.955	1322
823.052	743
823.149	653
823.246	1297
823.343	849
823.440	961
823.536	1103
823.633	399
823.730	687
823.827	641
823.923	730
824.020	2028
824.117	1587
824.213	1400
824.310	2742
824.407	906
824.503	1022
824.600	883
824.696	502
824.793	1933
824.889	1170
824.986	1027
825.082	77
825.179	579
825.275	1902
825.371	918
825.468	1265
825.564	-701
825.660	1233
825.757	715
825.853	1289
825.949	-17
826.045	906
826.142	784
826.238	1157
826.334	1125
826.430	-481
826.526	-46
826.622	-3
826.718	1100
826.814	-717
826.910	2252
827.006	-330
827.102	-314
827.198	867
827.294	252
827.390	1016
827.486	612
827.582	-811
827.678	-110
827.774	588
827.869	-223
827.965	1255
828.061	-705
828.157	574
828.252	-208
828.348	-499
828.444	1062
828.539	298
828.635	-86
828.731	1741
828.826	-398
828.922	286
829.017	196
829.113	1141
829.208	-70
829.304	482
829.399	1117
829.495	-291
829.590	436
829.685	164
829.781	919
829.876	45
829.971	67
830.066	-552
830.162	376
830.257	822
830.352	-206
830.447	1253
830.543	-183
830.638	-823
830.733	1672
830.828	402
830.923	899
831.018	-179
831.113	-396
831.208	6
831.303	25
831.398	275
831.493	-227
831.588	1086
831.683	-875
831.778	-98
831.873	501
831.967	1180
832.062	-158
832.157	64
832.252	1346
832.346	34
832.441	629
832.536	1740
832.631	4316
832.725	4170
832.820	6
832.914	214
833.009	191
833.104	192
833.198	1457
833.293	422
833.387	1279
833.482	534
833.576	342
833.670	202
833.765	427
833.859	954
833.954	1302
834.048	1164
834.142	635
834.237	-262
834.331	9
834.425	-413
834.519	-738
834.613	901
834.708	59
834.802	76
834.896	-473
834.990	-65
835.084	204
835.178	-413
835.272	52
835.366	-482
835.460	796
835.554	186
835.648	421
835.742	-642
835.836	-58
835.930	-139
836.024	71
836.117	482
836.211	-290
836.305	797
836.399	1610
836.493	-971
836.586	663
836.680	-245
836.774	-491
836.867	1201
836.961	83
837.055	-391
837.148	-857
837.242	577
837.335	-392
837.429	63
837.522	-400
837.616	1057
837.709	628
837.803	-581
837.896	921
837.989	-517
838.083	664
838.176	853
838.269	212
838.363	595
838.456	107
838.549	1638
838.642	2593
838.735	5686
838.829	2927
838.922	-233
839.015	217
839.108	-1445
839.201	291
839.294	-311
839.387	208
839.480	-213
839.573	286
839.666	-4
839.759	22
839.852	-156
839.945	493
840.038	-700
840.131	38
840.223	869
840.316	1134
840.409	194
840.502	-287
840.594	645
840.687	-1039
840.780	-416
840.873	-1332
840.965	-101
841.058	-146
841.150	981
841.243	135
841.336	189
841.428	-224
841.521	55
841.613	-1440
841.706	-387
841.798	-750
841.890	129
841.983	-1044
842.075	607
842.167	-559
842.260	43
842.352	1315
842.444	409
842.537	1337
842.629	2530
842.721	126
842.813	206
842.905	-238
842.997	979
843.090	-255
843.182	900
843.274	477
843.366	3052
843.458	7080
843.550	4325
843.642	192
843.734	624
843.826	60
843.918	-80
844.009	466
844.101	-522
844.193	-699
844.285	-42
844.377	1133
844.469	1349
844.560	1729
844.652	980
844.744	322
844.835	-286
844.927	567
845.019	-656
845.110	46
845.202	85
845.293	-543
845.385	-592
845.476	-181
845.568	477
845.659	-861
845.751	-369
845.842	-528
845.934	125
846.025	-405
846.116	-413
846.208	26
846.299	141
846.390	-168
846.482	-573
846.573	686
846.664	526
846.755	390
846.846	1770
846.937	-420
847.029	-397
847.120	-551
847.211	231
847.302	-22
847.393	-1079
847.484	213
847.575	-753
847.666	-720
847.757	-1453
847.847	254
847.938	65
848.029	-313
848.120	-756
848.211	-504
848.302	-433
848.392	-914
848.483	-216
848.574	-882
848.664	-1113
848.755	74
848.846	-1121
848.936	-199
849.027	-30
849.118	22
849.208	274
849.299	1804
849.389	3287
849.480	8483
849.570	16812
849.661	32714
849.751	60473
849.841	22044
849.932	1808
850.022	423
850.112	1
850.203	1022
850.293	79
850.383	91
850.474	-1213
850.564	146
850.654	-48
850.744	-33
850.834	0
850.924	-257
851.014	109
851.104	814
851.194	-86
851.284	587
851.374	1462
851.464	104
851.554	613
851.644	122
851.734	1125
851.824	-649
851.914	-411
852.004	305
852.094	-594
852.183	-353
852.273	559
852.363	-577
852.452	-464
852.542	140
852.632	-442
852.721	225
852.811	-237
852.901	868
852.990	381
853.080	671
853.169	656
853.259	1705
853.348	919
853.438	1355
853.527	2947
853.617	5221
853.706	10950
853.795	21085
853.885	50252
853.974	96091
854.063	169314
854.152	276499
854.242	111265
854.331	17014
854.420	5916
854.509	3848
854.598	3608
854.687	1818
854.777	2972
854.866	1237
854.955	1161
855.044	457
855.133	171
855.222	-47
855.311	-7
855.400	70
855.488	-217
855.577	165
855.666	662
855.755	833
855.844	418
855.933	-538
856.021	-482
856.110	376
856.199	127
856.288	-739
856.376	66
856.465	-666
856.554	461
856.642	-63
856.731	251
856.819	-86
856.908	-152
856.996	-734
857.085	281
857.173	-129
857.262	-301
857.350	-424
857.438	-203
857.527	-729
857.615	33
857.703	697
857.792	-514
857.880	-1427
857.968	-958
858.056	-871
858.145	728
858.233	-282
858.321	-141
858.409	-466
858.497	-239
858.585	-94
858.673	-188
858.761	-1634
858.849	-826
858.937	-526
859.025	244
859.113	408
859.201	-720
859.289	962
859.377	-591
859.465	-587
859.552	822
859.640	-377
859.728	-106
859.816	-553
859.903	-118
859.991	-370
860.079	-646
860.166	75
860.254	-405
860.342	-257
860.429	-710
860.517	-614
860.604	505
860.692	-430
860.779	-265
860.867	-409
860.954	-123
861.042	299
861.129	-605
861.216	-121
861.304	-1016
861.391	-26
861.478	-299
861.565	161
861.653	26
861.740	-312
861.827	-892
861.914	-199
862.001	-132
862.089	-6
862.176	-526
862.263	-112
862.350	-222
862.437	-270
862.524	-191
862.611	23
862.698	64
862.785	19
862.871	874
862.958	597
863.045	315
863.132	-199
863.219	-606
863.306	-782
863.392	-295
863.479	-272
863.566	-527
863.652	272
863.739	14
863.826	-246
863.912	-155
863.999	-655
864.086	462
864.172	125
864.259	375
864.345	-141
864.432	-26
864.518	-412
864.604	-79
864.691	-501
864.777	-166
864.863	802
864.950	1189
865.036	460
865.122	1572
865.209	2262
865.295	2205
865.381	1823
865.467	3048
865.553	3938
865.639	6899
865.726	11350
865.812	24862
865.898	48990
865.984	74489
866.070	137089
866.156	158099
866.242	43930
866.328	8594
866.414	3324
866.499	3341
866.585	3040
866.671	2297
866.757	2630
866.843	1877
866.928	1549
867.014	941
867.100	1420
867.186	844
867.271	1298
867.357	1997
867.442	1312
867.528	1235
867.614	1301
867.699	1433
867.785	1804
867.870	1720
867.956	2204
868.041	2298
868.127	1828
868.212	1636
868.297	1146
868.383	1506
868.468	2987
868.553	3338
868.639	3808
868.724	6356
868.809	6311
868.894	1932
868.979	1238
869.065	858
869.150	682
869.235	594
869.320	693
869.405	-84
869.490	367
869.575	1034
869.660	542
869.745	1070
869.830	462
869.915	1051
870.000	533
870.085	1265
870.169	1665
870.254	2029
870.339	36
870.424	369
870.509	507
870.593	678
870.678	1048
870.763	411
870.847	505
870.932	1222
871.016	979
871.101	1279
871.186	32
871.270	1261
871.355	-358
871.439	-160
871.523	593
871.608	-318
871.692	1233
871.777	1032
871.861	602
871.945	258
872.030	801
872.114	107
872.198	-500
872.282	481
872.367	449
872.451	-261
872.535	942
872.619	841
872.703	246
872.787	-261
872.871	879
872.955	475
873.039	-281
873.123	157
873.207	642
873.291	991
873.375	-291
873.459	1059
873.543	478
873.627	588
873.711	147
873.794	718
873.878	186
873.962	-722
874.045	-245
874.129	437
874.137	461
874.213	698
874.245	671
874.296	631
874.352	226
874.380	30
874.460	175
874.464	179
874.547	-618
874.568	-364
874.631	418
874.676	211
874.714	31
874.784	87
874.798	100
874.881	684
874.892	576
874.965	-204
874.999	86
875.048	516
875.107	340
875.131	254
875.215	798
875.215	798
875.298	631
875.323	440
875.381	-31
875.430	370
875.465	669
875.538	875
875.548	893
875.631	389
875.646	194
875.714	-659
875.753	-474
875.798	-298
875.861	255
875.881	422
875.964	469
875.968	422
876.047	-379
876.076	-178
876.130	180
876.183	386
876.213	532
876.291	914
876.296	936
876.379	545
876.398	492
876.462	204
876.506	59
876.545	61
876.613	317
876.628	358
876.711	128
876.721	196
876.794	699
876.828	657
876.877	501
876.935	-250
876.960	-484
877.043	-152
877.043	-147
877.125	811
877.150	842
877.208	903
877.258	494
877.291	237
877.365	421
877.374	439
877.456	393
877.472	398
877.539	643
877.579	829
877.622	927
877.687	550
877.704	410
877.787	402
877.794	430
877.869	996
877.901	894
877.952	542
878.008	466
878.034	454
878.115	208
878.117	206
878.199	-4
878.222	18
878.282	81
878.329	158
878.364	254
878.437	789
878.447	839
878.529	-361
878.544	-325
878.611	-34
878.651	309
878.694	660
878.758	596
878.776	540
878.858	304
878.865	262
878.941	-111
878.972	-59
879.023	182
879.078	375
879.105	433
879.185	496
879.187	496
879.269	247
879.292	219
879.351	73
879.399	32
879.433	45
879.506	304
879.516	374
879.598	367
879.613	414
879.680	344
879.720	432
879.762	571
879.827	226
879.844	84
879.926	71
879.933	114
880.007	1021
880.040	1130
880.089	1039
880.147	1902
880.171	2496
880.253	5206
880.254	5224
880.335	7821
880.360	8455
880.417	11623
880.467	18158
880.499	23039
880.574	30063
880.580	29703
880.662	10909
880.680	8273
880.744	2787
880.787	1227
880.825	817
880.893	843
880.907	862
880.989	333
881.000	302
881.070	573
881.106	677
881.152	359
881.213	312
881.233	488
881.315	448
881.319	486
881.396	739
881.426	488
881.478	167
881.532	471
881.559	484
881.639	-25
881.641	-16
881.722	501
881.745	640
881.803	521
881.852	205
881.885	12
881.958	539
881.966	617
882.047	679
882.064	637
882.129	424
882.171	686
882.210	1036
882.277	1159
882.291	1179
882.372	1293
882.383	1251
882.454	557
882.489	260
882.535	110
882.596	411
882.616	504
882.697	245
882.702	241
882.778	191
882.808	159
882.859	105
882.914	301
882.940	503
883.020	486
883.021	487
883.102	1000
883.127	888
883.183	674
883.233	425
883.264	242
883.339	219
883.345	241
883.426	190
883.445	331
883.507	678
883.551	460
883.587	451
883.657	864
883.668	871
883.749	785
883.763	791
883.830	719
883.869	497
883.910	318
883.975	116
883.991	104
884.072	-37
884.081	-53
884.152	92
884.187	310
884.233	799
884.292	1327
884.314	1195
884.394	463
884.398	417
884.475	-156
884.504	-218
884.555	-27
884.610	-190
884.636	-143
884.716	517
884.716	519
884.797	-8
884.821	-62
884.877	490
884.927	662
884.958	426
885.033	113
885.038	95
885.118	-366
885.139	-428
885.199	-166
885.244	-97
885.279	110
885.350	644
885.359	649
885.439	724
885.456	597
885.520	475
885.561	855
885.600	655
885.667	158
885.680	317
885.760	983
885.773	1116
885.840	879
885.878	770
885.920	800
885.984	473
886.000	351
886.080	180
886.089	148
886.160	337
886.195	427
886.240	286
886.300	17
886.320	69
886.400	616
886.406	625
886.480	282
886.511	236
886.560	745
886.616	1124
886.640	1011
886.720	932
886.722	918
886.800	459
886.827	380
886.879	461
886.932	566
886.959	803
887.038	1450
887.039	1444
887.119	370
887.143	142
887.198	256
887.248	229
887.278	209
887.354	148
887.358	171
887.437	619
887.459	762
887.517	809
887.564	762
887.596	679
887.669	526
887.676	496
887.755	141
887.774	18
887.835	338
887.880	686
887.914	473
887.985	-141
887.994	-51
888.073	824
888.090	1008
888.153	754
888.195	532
888.232	612
888.300	867
888.311	826
888.391	387
888.405	308
888.470	415
888.510	501
888.549	712
888.615	1050
888.628	1062
888.708	1136
888.720	1134
888.787	337
888.825	-113
888.866	-37
888.930	93
888.945	77
889.024	-24
889.035	-33
889.103	453
889.140	709
889.182	925
889.245	1239
889.261	1120
889.340	508
889.349	440
889.419	655
889.454	749
889.498	597
889.559	403
889.577	414
889.656	455
889.664	462
889.735	1237
889.768	1601
889.814	1329
889.873	963
889.978	379
890.083	359
890.187	1424
890.292	109
890.397	592
890.501	739
890.606	977
890.710	520
890.815	1178
890.919	331
891.024	1346
891.128	1440
891.233	505
891.337	304
891.442	175
891.546	1679
891.650	394
891.755	-552
891.859	1495
891.963	1063
892.068	189
892.172	1034
892.276	820
892.380	763
892.484	804
892.589	1301
892.693	1546
892.797	290
892.901	1249
893.005	659
893.109	994
893.213	1193
893.317	1007
893.421	537
893.525	849
893.629	-381
893.733	222
893.837	-37
893.941	1193
894.045	1774
894.148	397
894.252	-192
894.356	698
894.460	756
894.564	568
894.667	355
894.771	983
894.875	-386
894.978	1476
895.082	517
895.186	145
895.289	754
895.393	1325
895.496	871
895.600	533
895.703	-238
895.807	69
895.910	267
896.014	838
896.117	385
896.221	1097
896.324	779
896.427	55
896.531	-770
896.634	-267
896.737	372
896.840	627
896.944	-72
897.047	88
897.150	37
897.253	-354
897.356	-17
897.460	256
897.563	-445
897.666	643
897.769	629
897.872	580
897.975	-24
898.078	261
898.181	527
898.284	585
898.387	921
898.490	383
898.593	100
898.695	283
898.798	56
898.901	757
899.004	908
899.107	108
899.209	32
899.312	1093
899.415	543
899.518	-207
899.620	36
899.723	750
899.826	630
899.928	1283
900.031	700
900.133	-138
900.236	-770
900.338	163
900.441	-180
900.543	400
900.646	427
900.748	335
900.851	422
900.953	319
901.055	144
901.158	672
901.260	48
901.362	273
901.465	330
901.567	870
901.669	904
901.771	208
901.873	-14
901.976	548
902.078	396
902.180	312
902.282	261
902.384	467
902.486	140
902.588	414
902.690	357
902.792	1075
902.894	717
902.996	84
903.098	91
903.200	421
903.302	38
903.404	351
903.505	-836
903.607	-154
903.709	35
903.811	967
903.913	644
904.014	371
904.116	-389
904.218	313
904.319	643
904.421	1139
904.523	-136
904.624	786
904.726	399
904.827	392
904.929	-495
905.030	182
905.132	-294
905.233	658
905.335	351
905.436	519
905.537	-587
905.639	-405
905.740	-674
905.841	-111
905.943	905
906.044	538
906.145	539
906.247	83
906.348	-419
906.449	52
906.550	-51
906.651	755
906.752	-526
906.854	764
906.955	235
907.056	117
907.157	132
907.258	278
907.359	-239
907.460	856
907.561	-272
907.662	-22
907.762	114
907.863	111
907.964	668
908.065	671
908.166	-241
908.267	-451
908.367	439
908.468	485
908.569	54
908.670	152
908.770	545
908.871	1399
908.971	237
909.072	646
909.173	-785
909.273	-118
909.374	209
909.474	812
909.575	111
909.675	311
909.776	-147
909.876	728
909.977	567
910.077	1212
910.177	841
910.278	982
910.378	-673
910.478	310
910.579	161
910.679	259
910.779	12
910.879	702
910.980	79
911.080	72
911.180	-520
911.280	-234
911.380	-717
911.480	160
911.580	-972
911.680	128
911.780	378
911.880	601
911.980	-316
912.080	48
912.180	35
912.280	-4
912.380	-334
912.480	-140
912.580	-288
912.679	-312
912.779	172
912.879	633
912.979	-241
913.078	274
913.178	-843
913.278	683
913.377	-51
913.477	290
913.577	50
913.676	1437
913.776	3
913.875	718
913.975	279
914.074	262
914.174	1207
914.273	-85
914.373	589
914.472	813
914.572	315
914.671	616
914.770	527
914.870	197
914.969	523
915.068	184
915.167	-56
915.267	31
915.366	253
915.465	-575
915.564	-574
915.663	-304
915.763	244
915.862	247
915.961	334
916.060	427
916.159	67
916.258	-1314
916.357	-968
916.456	111
916.555	-266
916.654	-613
916.752	1409
916.851	778
916.950	609
917.049	569
917.148	-290
917.247	220
917.345	226
917.444	-87
917.543	596
917.642	306
917.740	432
917.839	1046
917.937	-344
918.036	1302
918.135	487
918.233	650
918.332	-397
918.430	309
918.529	-582
918.627	-7
918.726	29
918.824	842
918.923	-1001
919.021	-553
919.119	-245
919.218	293
919.316	-663
919.414	-14
919.512	-224
919.611	250
919.709	189
919.807	27
919.905	680
920.003	735
920.102	-287
920.200	579
920.298	254
920.396	351
920.494	390
920.592	213
920.690	279
920.788	843
920.886	-53
920.984	1105
921.082	-911
921.180	741
921.277	-74
921.375	831
921.473	945
921.571	362
921.669	256
921.766	972
921.864	966
921.962	766
922.060	57
922.157	1283
922.255	1103
922.352	42
922.450	886
922.548	1333
922.645	646
922.743	1408
922.840	1955
922.938	2700
923.035	2825
923.133	1939
923.230	2303
923.327	3701
923.425	3100
923.522	3261
923.619	2625
923.717	2121
923.814	1890
923.911	1998
924.008	2417
924.106	2061
924.203	1912
924.300	3066
924.397	1668
924.494	2774
924.591	2002
924.688	2391
924.786	2061
924.883	2077
924.979	2075
925.077	2567
925.173	1866
925.270	2589
925.367	1534
925.464	3645
925.561	3168
925.658	3423
925.755	2671
925.852	3614
925.948	3294
926.045	2648
926.142	2607
926.239	3262
926.335	2989
926.432	3344
926.529	2218
926.625	2623
926.722	2085
926.818	1918
926.915	2274
927.011	2566
927.108	2589
927.204	2213
927.301	1836
927.397	2415
927.494	2090
927.590	2544
927.687	1460
927.783	2764
927.879	1613
927.976	1961
928.072	1462
928.168	2638
928.264	1770
928.361	1859
928.457	2454
928.553	1604
928.649	1325
928.745	1803
928.841	1190
928.937	2133
929.033	2604
929.129	1886
929.225	1774
929.321	1324
929.417	983
929.513	2105
929.609	1764
929.705	1111
929.801	1536
929.897	1219
929.993	1288
930.089	2228
930.184	1529
930.280	1728
930.376	2578
930.471	1652
930.567	955
930.663	1881
930.758	877
930.854	1326
930.950	1635
931.045	1021
931.141	1736
931.236	1935
931.332	1872
931.427	1513
931.523	2338
931.618	1898
931.714	533
931.809	1247
931.905	918
932.000	1350
932.095	1180
932.191	2693
932.286	2061
932.381	1047
932.476	753
932.572	1334
932.667	1072
932.762	676
932.857	916
932.952	2056
933.047	1725
933.142	659
933.237	921
933.332	2107
933.427	1288
933.522	1024
933.617	1030
933.712	1095
933.807	1253
933.902	2320
933.997	1413
934.092	1130
934.187	872
934.282	1700
934.376	1298
934.471	1660
934.566	1003
934.661	1646
934.755	896
934.850	1452
934.945	1587
935.039	1613
935.134	206
935.228	1564
935.323	2002
935.417	977
935.512	206
935.606	986
935.701	1380
935.795	1312
935.890	608
935.984	981
936.079	191
936.173	1158
936.267	667
936.362	998
936.456	1197
936.550	705
936.644	1094
936.738	527
936.833	717
936.927	-132
937.021	310
937.115	1722
937.209	345
937.303	2258
937.397	380
937.491	634
937.585	817
937.679	1291
937.773	742
937.867	685
937.961	343
938.055	1084
938.149	1430
938.243	289
938.337	409
938.430	850
938.524	492
938.618	1227
938.712	1317
938.805	1349
938.899	755
938.993	1603
939.086	1218
939.180	1156
939.274	2422
939.367	1689
939.461	691
939.554	714
939.648	1034
939.741	832
939.835	1009
939.928	1131
940.022	1233
940.115	1543
940.208	888
940.302	1273
940.395	696
940.488	19
940.582	870
940.675	161
940.768	826
940.861	866
940.954	1661
941.048	777
941.141	-162
941.234	704
941.327	1790
941.420	2566
941.513	1830
941.606	1089
941.699	926
941.792	1302
941.885	450
941.978	1264
942.071	686
942.164	671
942.257	376
942.349	841
942.442	482
942.535	874
942.628	488
942.721	614
942.813	100
942.906	579
942.999	393
943.091	196
943.184	603
943.277	-20
943.369	654
943.462	189
943.554	-71
943.647	-92
943.739	1041
943.832	469
943.924	-192
944.017	503
944.109	-1323
944.201	690
944.294	61
944.386	918
944.478	132
944.571	-9
944.663	734
944.755	687
944.847	847
944.940	644
945.032	-520
945.124	-891
945.216	1301
945.308	840
945.400	97
945.492	1061
945.584	-220
945.676	1559
945.768	607
945.860	931
945.952	805
946.044	1185
946.136	211
946.228	1139
946.320	279
946.412	154
946.503	599
946.595	1397
946.687	141
946.779	-334
946.870	731
946.962	-151
947.054	-4
947.145	451
947.237	-40
947.329	315
947.420	345
947.512	-163
947.603	-351
947.695	373
947.786	-695
947.878	746
947.969	-393
948.061	225
948.152	-185
948.243	-31
948.335	283
948.426	-64
948.517	-713
948.609	779
948.700	-250
948.791	132
948.882	117
948.973	-295
949.065	-729
949.156	1029
949.247	-1000
949.338	866
949.429	-505
949.520	432
949.611	-29
949.702	431
949.793	-53
949.884	606
949.975	191
950.066	-237
950.157	-408
950.247	349
950.338	377
950.429	-212
950.520	-427
950.611	517
950.701	563
950.792	514
950.883	953
950.973	140
951.064	184
951.155	-263
951.245	1620
951.336	740
951.427	-137
951.517	2089
951.608	182
951.698	183
951.788	132
951.879	250
951.969	-81
952.060	535
952.150	503
952.240	65
952.331	-973
952.421	857
952.511	-751
952.602	79
952.692	-20
952.782	-480
952.872	-555
952.962	464
953.052	-327
953.143	-467
953.233	-203
953.323	435
953.413	-13
953.503	1014
953.593	-515
953.683	203
953.773	-500
953.863	-83
953.953	-409
954.042	210
954.132	106
954.222	151
954.312	-453
954.402	33
954.492	47
954.581	199
954.671	198
954.761	-874
954.850	351
954.940	39
955.030	-860
955.119	61
955.209	234
955.298	-1029
955.388	595
955.477	1236
955.567	-1573
955.656	319
955.746	29
955.835	225
955.925	-805
956.014	251
956.103	132
956.193	393
956.282	-30
956.371	124
956.461	417
956.550	97
956.639	216
956.728	-366
956.817	353
956.906	400
956.995	323
957.085	369
957.174	-26
957.263	404
957.352	-323
957.441	-105
957.530	377
957.619	631
957.708	-666
957.796	-929
957.885	-623
957.974	165
958.063	468
958.152	-243
958.241	312
958.329	-341
958.418	-85
958.507	30
958.596	719
958.684	-384
958.773	51
958.861	199
958.950	-532
959.039	-695
959.127	305
959.216	-602
959.304	-401
959.393	32
959.481	-296
959.570	-135
959.658	-328
959.746	-55
959.835	-143
959.923	-322
960.011	-742
960.100	125
960.188	622
960.276	50
960.365	-413
960.453	435
960.541	67
960.629	58
960.717	-84
960.805	-1079
960.893	-281
960.981	563
961.069	149
961.158	-121
961.245	-149
961.333	42
961.421	-25
961.509	431
961.597	-345
961.685	174
961.773	-809
961.861	-423
961.949	64
962.036	-253
962.124	-377
962.212	-279
962.299	-131
962.387	-952
962.475	-646
962.562	-1108
962.650	90
962.738	423
962.825	-928
962.913	256
963.000	-717
963.088	-289
963.175	-95
963.263	740
963.350	-1097
963.438	-651
963.525	-584
963.612	390
963.700	681
963.787	3183
963.874	905
963.962	531
964.049	67
964.136	-112
964.223	-991
964.310	-446
964.398	-120
964.485	-548
964.572	-509
964.659	-276
964.746	119
964.833	829
964.920	-153
965.007	370
965.094	178
965.181	192
965.268	693
965.355	167
965.441	-1081
965.528	-712
965.615	365
965.702	-732
965.789	-1220
965.875	379
965.962	189
966.049	-434
966.136	-105
966.222	-664
966.309	-119
966.395	-276
966.482	564
966.569	-791
966.655	-104
966.742	243
966.828	98
966.915	-130
967.001	-480
967.087	-448
967.174	-1046
967.260	-154
967.347	72
967.433	498
967.519	1283
967.605	636
967.692	-621
967.778	29
967.864	-402
967.950	-1071
968.036	-1091
968.123	368
968.209	-920
968.295	-422
968.381	949
968.467	283
968.553	-1371
968.639	118
968.725	-1078
968.811	1047
968.897	592
968.983	455
969.069	-951
969.154	147
969.240	673
969.326	-1311
969.412	-1308
969.497	-27
969.583	-988
969.669	517
969.755	303
969.840	-237
969.926	-521
970.012	637
970.097	1254
970.183	784
970.268	-8
970.354	-54
970.439	-144
970.525	1986
970.610	-752
970.696	643
970.781	-253
970.866	-966
970.952	-423
971.037	-648
971.122	-331
971.208	-203
971.293	420
971.378	-761
971.463	-602
971.549	-736
971.634	-883
971.719	-496
971.804	-1647
971.889	-215
971.974	-634
972.059	-792
972.144	-1054
972.229	-41
972.314	-823
972.399	-321
972.484	-937
972.569	-282
972.654	-1376
972.739	823
972.824	-735
972.908	18
972.993	-1136
973.078	-89
973.163	-889
973.247	529
973.332	-452
973.417	515
973.501	-1517
973.586	-303
973.671	-498
973.755	-365
973.840	815
973.924	548
974.009	-334
974.093	-708
974.178	-138
974.262	-430
974.346	-1009
974.431	-208
974.515	-554
974.600	-839
974.684	-694
974.768	-1815
974.852	338
974.937	-2115
975.021	34
975.105	-140
975.189	96
975.273	-53
975.358	-779
975.442	-992
975.526	188
975.610	-93
975.694	-1573
975.778	589
975.862	-1160
975.946	-1960
976.030	539
976.114	-539
976.198	140
976.281	-695
976.365	-201
976.449	-783
976.533	-611
976.617	-380
976.700	-714
976.784	-1186
976.868	-674
976.951	1
977.035	-1052
977.119	-240
977.202	-884
977.286	-337
977.369	-980
977.453	537
977.536	-696
977.620	-520
977.703	-22
977.787	-1486
977.870	-5
977.953	406
978.037	-1751
978.120	815
978.203	-1253
978.287	238
978.370	-55
978.453	-600
978.536	-918
978.620	-882
978.703	105
978.786	-1084
978.869	-1231
978.952	-1711
979.035	744
979.118	-248
979.201	-887
979.284	-694
979.367	-1180
979.450	-115
979.533	-1694
979.616	-353
979.699	-866
979.782	-151
979.865	-490
979.948	-607
980.030	-1216
980.113	-142
980.196	-1893
980.279	82
980.361	-665
980.444	-566
980.526	-552
980.609	-117
980.692	-868
980.774	437
980.857	-1541
980.939	-112
981.022	-901
981.104	-565
981.187	-1375
981.269	179
981.352	107
981.434	-1148
981.516	-1270
981.599	824
981.681	-616
981.763	-116
981.846	-1090
981.928	-77
982.010	-1029
982.092	-1211
982.174	764
982.256	-98
982.339	-569
982.421	-427
982.503	-379
982.585	-1478
982.667	-1593
982.749	-599
982.831	-943
982.913	-1215
982.995	262
983.077	-921
983.158	-595
983.240	-1180
983.322	120
983.404	552
983.486	-1041
983.568	-549
983.649	-801
983.731	-234
983.813	-1030
983.894	374
983.976	-1290
984.058	-1046
984.139	-175
984.221	-1132
984.302	416
984.384	200
984.465	-1351
984.547	-271
984.628	-1420
984.710	-561
984.791	-576
984.872	-69
984.954	-905
985.035	-597
985.116	-2000
985.198	-648
985.279	-814
985.360	-828
985.441	-490
985.522	386
985.604	-724
985.685	-1818
985.766	767
985.847	-43
985.928	-1464
986.009	-1123
986.090	-825
986.171	-1024
986.252	-1334
986.333	-1240
986.414	-931
986.495	-279
986.576	-1124
986.656	-498
986.737	-167
986.818	10
986.899	-504
986.980	-610
987.060	144
987.141	-743
987.222	-869
987.302	151
987.383	-715
987.464	-809
987.544	-18
987.625	-76
987.705	-93
987.786	307
987.866	-987
987.947	-1167
988.027	-1100
988.108	-1408
988.188	-638
988.268	-706
988.349	223
988.429	-780
988.509	235
988.589	-279
988.670	-2003
988.750	528
988.830	-379
988.910	-114
988.990	-1316
989.070	-102
989.151	-489
989.231	-649
989.311	-800
989.391	-434
989.471	-1003
989.551	-858
989.631	-682
989.711	87
989.791	-1880
989.870	-1186
989.950	-282
990.030	-671
990.110	-846
990.190	-1035
990.269	-742
990.349	-513
990.429	-416
990.509	-802
990.588	-1869
990.668	-50
990.747	-1181
990.827	-770
990.907	-288
990.986	-1222
991.066	-1333
991.145	-1118
991.225	-1003
991.304	-1361
991.383	-1253
991.463	-703
991.542	-325
991.622	-1405
991.701	-1152
991.780	-1148
991.859	-813
991.939	-1278
992.018	-1318
992.097	-956
992.176	-882
992.256	-819
992.335	-1857
992.414	-187
992.493	-1358
992.572	-1142
992.651	261
992.730	-1072
992.809	-1708
992.888	-1217
992.967	-910
993.046	-205
993.125	-1452
993.203	-465
993.282	-833
993.361	-609
993.440	-1166
993.519	-1766
993.597	-1199
993.676	-1199
993.755	-1133
993.834	-72
993.912	-1885
993.991	-344
994.069	-1888
994.148	-640
994.226	-1306
994.305	-354
994.384	-1435
994.462	-359
994.540	-1659
994.619	-1467
994.697	-1561
994.776	-1440
994.854	-958
994.932	-1196
995.011	-1065
995.089	-1386
995.167	-1368
995.245	-1302
995.324	-2249
995.402	-690
995.480	-1354
995.558	-1056
995.636	-2445
995.714	-1588
995.792	-813
995.870	-1124
995.948	-2547
996.026	-681
996.104	-2752
996.182	132
996.260	-2138
996.338	-1091
996.416	-1295
996.494	-1788
996.572	-874
996.649	-1538
996.727	-2180
996.805	-807
996.883	-1481
996.960	-1420
997.038	-1100
997.116	-1069
997.193	-2585
997.271	-1234
997.348	-2300
997.426	-1453
997.504	-1608
997.581	-1290
997.658	-940
997.736	-2331
997.813	-1659
997.891	-696
997.968	-1812
998.046	-1132
998.123	-2048
998.200	-1463
998.277	-2080
998.355	-372
998.432	-2949
998.509	-880
998.586	-1276
998.663	-837
998.741	-1616
998.818	-169
998.895	-1654
998.972	-1603
999.049	-2044
999.126	-1773
999.203	-1573
999.280	-1227
999.357	-1968
999.434	-1578
999.511	-990
999.587	-893
999.664	-1934
999.741	-260
999.818	-819
999.895	-1402
999.971	-1773
1000.048	-1451
1000.125	-1111
1000.202	-2277
1000.278	-1009
1000.355	-929
1000.431	-2125
1000.508	-2116
1000.584	-1932
1000.661	-1374
1000.738	-2342
1000.814	-1068
1000.890	-1525
1000.967	-1200
1001.043	-1844
1001.120	-1820
1001.196	-1950
1001.272	-2520
1001.349	-2493
1001.425	-1325
1001.501	-879
1001.577	-1257
1001.654	-808
1001.730	-1767
1001.806	-1642
1001.882	-1983
1001.958	-1741
1002.034	-389
1002.110	-1111
1002.186	-1702
1002.262	-1846
1002.338	-1232
1002.414	-1563
1002.490	-839
1002.566	-2312
1002.642	-1145
1002.718	-1591
1002.794	-1754
1002.870	-2013
1002.945	-1799
1003.021	-1210
1003.097	-1982
1003.173	-1200
1003.248	-1967
1003.324	-1718
1003.400	-1443
1003.475	-1966
1003.551	-1192
1003.626	-1289
1003.702	-1670
1003.777	-1229
1003.853	-1812
1003.928	-1904
1004.004	-1698
1004.079	-1308
1004.155	-1460
1004.230	-2601
1004.305	-73
1004.381	-2261
1004.456	-913
1004.531	-1413
1004.607	-1557
1004.682	-1427
1004.757	-1032
1004.832	-1252
1004.907	-2336
1004.982	-2045
1005.057	-1160
1005.133	-2096
1005.208	-2037
1005.283	-1803
1005.358	-771
1005.433	-2324
1005.508	-1356
1005.583	-1831
1005.657	-1478
1005.732	-1123
1005.807	-1947
1005.882	-1934
1005.957	-1506
1006.032	-1456
1006.106	-1599
1006.181	-1817
1006.256	-1263
1006.331	-2405
1006.405	-1772
1006.480	-934
1006.554	-1924
1006.629	-2378
1006.704	-2175
1006.778	-2101
1006.853	-1229
1006.927	-1988
1007.002	-1220
1007.076	-1644
1007.150	-1920
1007.225	-1373
1007.299	-2219
1007.373	-2268
1007.448	-1185
1007.522	-1091
1007.596	-2286
1007.671	-1218
1007.745	-1372
1007.819	-2182
1007.893	-2236
1007.967	-1793
1008.041	-1956
1008.115	-816
1008.190	-1606
1008.264	-2169
1008.338	-2362
1008.412	-1166
1008.486	-1928
1008.560	-1328
1008.633	-1450
1008.707	-976
1008.781	-423
1008.855	-1992
1008.929	-1498
1009.003	-2361
1009.076	-1765
1009.150	-1529
1009.224	-1303
1009.298	-1332
1009.371	-1946
1009.445	-1261
1009.519	-1445
1009.592	-1898
1009.666	-1137
1009.739	-1995
1009.813	-2144
1009.886	-1000
1009.960	-1859
1010.033	-1043
1010.107	-1658
1010.180	-2189
1010.253	-1665
1010.327	-2283
1010.400	-1670
1010.473	-2285
1010.547	-317
1010.620	-2433
1010.693	-1606
1010.766	-1692
1010.840	-1357
1010.913	-2184
1010.986	-1966
1011.059	-1555
1011.132	-1314
1011.205	-1011
1011.278	-2007
1011.351	-1953
1011.424	-1673
1011.497	-1950
1011.570	-1197
1011.643	-1338
1011.716	-2153
1011.789	-1775
1011.862	-1467
1011.934	-702
1012.007	-2170
1012.080	-1481
1012.153	-1209
1012.225	-1700
1012.298	-1726
1012.371	-2506
1012.443	-429
1012.516	-2713
1012.588	-915
1012.661	-1943
1012.733	-1659
1012.806	-1000
1012.879	-2097
1012.951	-1132
1013.023	-1753
1013.096	-1568
1013.168	-1773
1013.241	-1586
1013.313	-1586
1013.385	-2273
1013.458	-2332
1013.530	-1360
1013.602	-1980
1013.674	-1659
1013.746	-2016
1013.819	-2191
1013.891	-800
1013.963	-1534
1014.035	-1876
1014.107	-2172
1014.179	-1260
1014.251	-2383
1014.323	-921
1014.395	-1148
1014.467	-1247
1014.539	-2586
1014.611	-1556
1014.683	-1498
1014.754	-1510
1014.826	-2982
1014.898	-1527
1014.970	-3057
1015.042	-999
1015.113	-1239
1015.185	-1198
1015.257	-2492
1015.328	-89
1015.400	-1870
1015.471	-1418
1015.543	-2783
1015.615	-1532
1015.686	-2031
1015.757	-2027
1015.829	-1644
1015.901	-1712
1015.972	-1837
1016.043	-1823
1016.115	-2450
1016.186	-1541
1016.257	-2766
1016.328	-1369
1016.400	-1045
1016.471	-2298
1016.542	-1178
1016.613	-1686
1016.685	-2419
1016.756	-1450
1016.827	-1706
1016.898	-1299
1016.969	-915
1017.040	-1511
1017.111	-2381
1017.182	-2117
1017.253	-1236
1017.324	-1013
1017.395	-2403
1017.466	-1268
1017.537	-2475
1017.608	-1274
1017.678	-1949
1017.749	-2091
1017.820	-1552
1017.891	-1846
1017.961	-1879
1018.032	-1297
1018.103	-530
1018.173	-1410
1018.244	-2078
1018.315	-1295
1018.385	-1197
1018.456	-1785
1018.526	-2580
1018.597	-1210
1018.667	-2435
1018.738	-1821
1018.808	-2244
1018.878	-1531
1018.949	-2145
1019.019	-941
1019.089	-1493
1019.160	-1352
1019.230	-2514
1019.300	-917
1019.371	-2551
1019.441	-1588
1019.511	-2437
1019.581	-2500
1019.651	-1975
1019.721	-2178
1019.791	-2316
1019.861	-1124
1019.931	-1922
1020.001	-2350
1020.071	-1626
1020.141	-1346
1020.211	-2285
1020.281	-1384
1020.351	-2411
1020.421	-1477
1020.491	-1243
1020.560	-2972
1020.630	-1463
1020.700	-1970
1020.770	-2822
1020.839	-1561
1020.909	-2088
1020.979	-1917
1021.048	-1817
1021.118	-1462
1021.187	-1796
1021.257	-804
1021.326	-885
1021.396	-2502
1021.465	-1523
1021.535	-1807
1021.604	-2109
1021.674	-2025
1021.743	-1948
1021.812	-2177
1021.882	-2312
1021.951	-1185
1022.020	-1464
1022.089	-1096
1022.159	-2109
1022.228	-1054
1022.297	-1983
1022.366	-1687
1022.435	-1599
1022.504	-1664
1022.573	-2331
1022.642	-953
1022.711	-1682
1022.781	-1054
1022.849	-1348
1022.918	-2439
1022.987	-1810
1023.056	-2269
1023.125	-1204
1023.194	-1921
1023.263	-1802
1023.331	-1641
1023.400	-2436
1023.469	-2852
1023.538	-2092
1023.606	-2679
1023.675	-1887
1023.744	-1985
1023.812	-1900
1023.881	-1509
1023.949	-2250
1024.018	-2236
1024.086	-2443
1024.155	-2273
1024.223	-2189
1024.292	-810
1024.360	-2140
1024.429	-2114
1024.497	-2333
1024.565	-1960
1024.634	-1528
1024.702	-1208
1024.770	-2392
1024.838	-1686
1024.907	-1684
1024.975	-1897
1025.043	-2062
1025.111	-1838
1025.179	-2014
1025.247	-1648
1025.315	-2944
1025.383	-1307
1025.451	-1510
1025.519	-1793
1025.587	-1935
1025.655	-1966
1025.723	-1946
1025.791	-1600
1025.859	-1408
1025.927	-1344
1025.995	-2986
1026.062	-1271
1026.130	-1619
1026.198	-1834
1026.266	-2653
1026.333	-1671
1026.401	-1455
1026.469	-2344
1026.536	-2077
1026.604	-2215
1026.671	-2190
1026.739	-1365
1026.806	-2315
1026.874	-1746
1026.941	-2373
1027.009	-1678
1027.076	-1997
1027.144	-701
1027.211	-2986
1027.278	-2266
1027.345	-2147
1027.413	-1575
1027.480	-2359
1027.547	-1568
1027.614	-2372
1027.682	-1885
1027.749	-2767
1027.816	-2527
1027.883	-1622
1027.950	-2070
1028.017	-2127
1028.084	-1901
1028.151	-2207
1028.218	-1859
1028.285	-2621
1028.352	-1725
1028.419	-2153
1028.486	-1578
1028.553	-1946
1028.619	-1935
1028.686	-3163
1028.753	-1824
1028.820	-2557
1028.886	-2880
1028.953	-2834
1029.020	-1524
1029.086	-2796
1029.153	-2037
1029.220	-2638
1029.286	-1710
1029.353	-2140
1029.419	-2476
1029.486	-2231
1029.552	-1878
1029.619	-1580
1029.685	-2217
1029.751	-2753
1029.818	-1061
1029.884	-2123
1029.951	-874
1030.017	-2426
1030.083	-1389
1030.149	-1960
1030.216	-1705
1030.282	-1847
1030.348	-2846
1030.414	-2135
1030.480	-2416
1030.546	-2815
1030.612	-2256
1030.678	-3043
1030.744	-1757
1030.810	-2130
1030.876	-1881
1030.942	-2738
1031.008	-2037
1031.074	-2375
1031.140	-2807
1031.206	-1592
1031.272	-2422
1031.337	-2319
1031.403	-1618
1031.469	-3248
1031.534	-2435
1031.600	-1989
1031.666	-3342
1031.731	-2719
1031.797	-1611
1031.863	-2669
1031.928	-1698
1031.994	-2464
1032.059	-1632
1032.125	-2452
1032.190	-1853
1032.256	-2217
1032.321	-2249
1032.386	-2890
1032.452	-1602
1032.517	-2109
1032.582	-2770
1032.647	-2126
1032.713	-2022
1032.778	-2303
1032.843	-2039
1032.908	-3029
1032.974	-2619
1033.039	-2658
1033.104	-1859
1033.169	-1969
1033.234	-1593
1033.299	-2138
1033.364	-1468
1033.429	-888
1033.494	-1668
1033.559	-2645
1033.624	-1156
1033.688	-2186
1033.753	-2102
1033.818	-2122
1033.883	-1462
1033.948	-1313
1034.013	-1845
1034.077	-2211
1034.142	-1286
1034.207	-1184
1034.271	106
1034.336	530
1034.400	-15
1034.465	-730
1034.530	-1171
1034.594	-1775
1034.658	-1852
1034.723	-2518
1034.787	-1482
1034.852	-2434
1034.916	-1499
1034.981	-2854
1035.045	-1957
1035.109	-1797
1035.173	-1662
1035.238	-3195
1035.302	-2413
1035.366	-1898
1035.430	-2872
1035.495	-3500
1035.559	-1986
1035.623	-2034
1035.687	-2276
1035.751	-2765
1035.815	-1950
1035.879	-2731
1035.943	-2576
1036.007	-2431
1036.071	-2767
1036.135	-2218
1036.198	-2488
1036.262	-2669
1036.326	-2290
1036.390	-2133
1036.454	-1336
1036.517	-1159
1036.581	-717
1036.645	-543
1036.709	207
1036.772	-2137
1036.836	-1620
1036.900	-2244
1036.963	-2495
1037.026	-2269
1037.090	-1909
1037.154	-3002
1037.217	-1669
1037.280	-2494
1037.344	-1568
1037.407	-3382
1037.471	-1981
1037.534	-2475
1037.597	-1336
1037.661	-2233
1037.724	-2085
1037.787	-1636
1037.850	-2800
1037.913	-1822
1037.977	-1367
1038.040	-2084
1038.103	-1807
1038.166	-2811
1038.229	-2700
1038.292	-2028
1038.355	-2133
1038.418	-2368
1038.481	-1380
1038.544	-2532
1038.607	-1699
1038.670	-1908
1038.732	-1927
1038.795	-1984
1038.858	-2090
1038.921	-2380
1038.984	-2071
1039.046	-1849
1039.109	-2485
1039.172	-2053
1039.234	-2752
1039.297	-2672
1039.360	-2708
1039.422	-2741
1039.485	-1816
1039.547	-2599
1039.610	-2583
1039.672	-2542
1039.734	-2315
1039.797	-2991
1039.859	-1765
1039.922	-2318
1039.984	-2386
1040.046	-2533
1040.109	-1968
1040.171	-2194
1040.233	-1895
1040.295	-2434
1040.358	-2284
1040.420	-2364
1040.482	-1852
1040.544	-2133
1040.606	-1934
1040.668	-2014
1040.730	-2198
1040.792	-2598
1040.854	-801
1040.916	-2172
1040.978	-1871
1041.040	-1577
1041.102	-1811
1041.164	-2041
1041.225	-2192
1041.287	-2222
1041.349	-2590
1041.411	-2465
1041.472	-2289
1041.534	-2523
1041.596	-2091
1041.657	-2197
1041.719	-1973
1041.781	-2462
1041.842	-2487
1041.904	-2554
1041.965	-2305
1042.027	-2265
1042.088	-2130
1042.150	-2559
1042.211	-1932
1042.272	-1733
1042.334	-2088
1042.395	-1691
1042.456	-2314
1042.518	-2495
1042.579	-2580
1042.640	-2388
1042.701	-2208
1042.763	-2428
1042.824	-2622
1042.885	-2944
1042.946	-1627
1043.007	-2019
1043.068	-1819
1043.129	-2476
1043.190	-1865
1043.251	-1730
1043.312	-1480
1043.373	-2101
1043.434	-2461
1043.495	-2565
1043.556	-2210
1043.616	-1578
1043.677	-2186
1043.738	-2444
1043.799	-2434
1043.859	-2594
1043.920	-2700
1043.981	-2269
1044.041	-1624
1044.102	-3025
1044.162	-1373
1044.223	-2897
1044.284	-1768
1044.344	-2156
1044.405	-2056
1044.465	-2210
1044.525	-1987
1044.586	-1438
1044.646	-1183
1044.707	-2013
1044.767	-1716
1044.827	-1842
1044.887	-2046
1044.948	-2044
1045.008	-1202
1045.068	-2681
1045.128	-749
1045.188	-2153
1045.249	-1363
1045.309	-2258
1045.369	-1903
1045.429	-2078
1045.489	-2433
1045.549	-1938
1045.609	-1978
1045.669	-2592
1045.729	-2316
1045.789	-2091
1045.848	-2000
1045.908	-1619
1045.968	-1472
1046.028	-1729
1046.088	-1591
1046.147	-1440
1046.207	-1814
1046.267	-1829
1046.326	-2261
1046.386	-2198
1046.446	-1148
1046.505	-1344
1046.565	-1211
1046.624	-972
1046.684	-391
1046.743	-1068
1046.803	-1056
1046.862	-1316
1046.922	0
