'Start Wavelength	183.907
'End Wavelength	1046.922
'Gate Delay	5.000
'Gate Width (ms)	1.050
'Laser Output Level	0.000
'X Position	0.000
'Y Position	0.000
'Z Position	0.000
'Grid Point Number	1.000
'Shot Number	100.000
183.907	312.000
183.977	64.000
184.047	15
184.116	940
184.186	388
184.256	492
184.325	-183
184.395	7
184.465	-186
184.534	-417
184.604	-1035
184.674	-185
184.743	-246
184.813	215
184.883	-387
184.952	581
185.022	334
185.092	27
185.161	-71
185.231	-9
185.301	305
185.370	231
185.440	162
185.509	-38
185.579	-451
185.649	217
185.718	-503
185.788	30
185.857	-12
185.927	134
185.996	-117
186.066	249
186.136	-819
186.205	210
186.275	186
186.344	323
186.414	-315
186.483	188
186.553	122
186.622	969
186.692	87
186.761	746
186.831	-293
186.900	847
186.970	276
187.039	850
187.109	231
187.178	-338
187.248	370
187.317	832
187.387	-524
187.456	100
187.526	-116
187.595	1092
187.664	10
187.734	862
187.803	196
187.873	619
187.942	414
188.012	471
188.081	352
188.150	725
188.220	-396
188.289	857
188.358	73
188.428	729
188.497	81
188.567	370
188.636	15
188.705	427
188.775	-81
188.844	460
188.913	-87
188.983	693
189.052	255
189.121	175
189.191	149
189.260	777
189.329	701
189.399	110
189.468	147
189.537	1242
189.606	-804
189.676	474
189.745	980
189.814	1592
189.883	67
189.953	884
190.022	121
190.091	2046
190.161	1939
190.230	171
190.299	-42
190.368	520
190.437	181
190.507	383
190.576	-22
190.645	467
190.714	-19
190.783	337
190.853	-143
190.922	248
190.991	-235
191.060	66
191.129	367
191.198	90
191.268	-523
191.337	993
191.406	-80
191.475	-53
191.544	-602
191.613	416
191.682	-510
191.752	501
191.821	-301
191.890	198
191.959	541
192.028	414
192.097	645
192.166	389
192.235	211
192.304	758
192.373	-751
192.442	862
192.511	-131
192.580	294
192.650	-800
192.719	176
192.788	-280
192.857	997
192.926	9
192.995	495
193.064	-202
193.133	801
193.202	730
193.271	636
193.340	338
193.409	1045
193.478	1035
193.547	1460
193.615	1834
193.684	1981
193.753	1288
193.822	986
193.891	609
193.960	956
194.029	590
194.098	746
194.167	-487
194.236	332
194.305	231
194.374	1038
194.443	500
194.512	1014
194.580	322
194.649	1229
194.718	14
194.787	425
194.856	-614
194.925	802
194.994	536
195.062	671
195.131	796
195.200	1127
195.269	803
195.338	1081
195.407	-167
195.475	393
195.544	871
195.613	1584
195.682	318
195.751	1189
195.819	124
195.888	1118
195.957	951
196.026	1306
196.094	25
196.163	1572
196.232	563
196.301	1220
196.369	410
196.438	1339
196.507	-110
196.576	560
196.644	893
196.713	898
196.782	283
196.850	980
196.919	155
196.988	947
197.056	-35
197.125	810
197.194	404
197.262	733
197.331	537
197.400	-105
197.468	247
197.537	1021
197.606	344
197.674	1960
197.743	1556
197.812	570
197.880	2491
197.949	1177
198.017	1297
198.086	1245
198.155	967
198.223	1253
198.292	1412
198.360	816
198.429	-296
198.497	1067
198.566	1590
198.635	1896
198.703	332
198.772	1137
198.840	2514
198.909	2160
198.977	957
199.046	1279
199.114	472
199.183	1168
199.251	70
199.320	803
199.388	-412
199.457	936
199.525	304
199.594	525
199.662	137
199.731	759
199.799	-654
199.867	816
199.936	458
200.004	212
200.073	723
200.141	1649
200.210	-382
200.278	216
200.346	223
200.415	563
200.483	783
200.552	896
200.620	491
200.688	1160
200.757	-82
200.825	1144
200.893	-191
200.962	515
201.030	402
201.098	330
201.167	778
201.235	746
201.303	306
201.372	1322
201.440	828
201.508	1237
201.577	516
201.645	1704
201.713	155
201.781	1166
201.850	137
201.918	1190
201.986	-244
202.055	1300
202.123	385
202.191	772
202.259	633
202.327	1420
202.396	216
202.464	1178
202.532	757
202.600	3988
202.669	1836
202.737	1209
202.805	263
202.873	633
202.941	-1
203.009	470
203.078	-225
203.146	1769
203.214	681
203.282	435
203.350	274
203.418	494
203.487	425
203.555	734
203.623	324
203.691	1563
203.759	-374
203.827	1460
203.895	467
203.963	980
204.031	228
204.099	1159
204.168	171
204.236	1257
204.304	512
204.372	660
204.440	-17
204.508	890
204.576	857
204.644	1525
204.712	-404
204.780	841
204.848	1038
204.916	682
204.984	-681
205.052	1357
205.120	1003
205.188	905
205.256	225
205.324	715
205.392	-29
205.460	769
205.528	741
205.596	1797
205.664	-350
205.732	504
205.799	3054
205.867	3842
205.935	899
206.003	1229
206.071	6
206.139	1505
206.207	913
206.275	377
206.343	1042
206.411	1031
206.478	809
206.546	1494
206.614	552
206.682	1191
206.750	-277
206.818	1447
206.885	409
206.953	805
207.021	1301
207.089	1581
207.157	34
207.225	1182
207.292	554
207.360	1087
207.428	-262
207.496	1244
207.563	131
207.631	1187
207.699	-243
207.767	942
207.834	346
207.902	633
207.970	465
208.038	655
208.105	428
208.173	1083
208.241	844
208.309	1538
208.376	979
208.444	2583
208.512	819
208.579	531
208.647	856
208.715	820
208.782	1186
208.850	1344
208.918	1003
208.985	1695
209.053	1677
209.120	1504
209.188	652
209.256	1466
209.323	232
209.391	1489
209.459	1342
209.526	2026
209.594	774
209.661	1095
209.729	710
209.796	993
209.864	375
209.932	776
209.999	1422
210.067	1803
210.134	550
210.202	2198
210.269	2448
210.337	2281
210.404	280
210.472	652
210.539	1152
210.607	1772
210.674	1338
210.742	748
210.809	623
210.877	1802
210.944	1519
211.012	1641
211.079	1370
211.146	1566
211.214	1179
211.281	1538
211.349	659
211.416	1839
211.484	1022
211.551	1469
211.618	609
211.686	945
211.753	420
211.821	1554
211.888	1441
211.955	1593
212.023	882
212.090	1973
212.157	825
212.225	1623
212.292	2740
212.359	5969
212.427	11768
212.494	4193
212.561	2113
212.629	1932
212.696	1527
212.763	1875
212.831	130
212.898	1521
212.965	1155
213.032	813
213.100	1431
213.167	2202
213.234	1906
213.301	2182
213.369	1009
213.436	1174
213.503	2053
213.570	1693
213.638	1441
213.705	1274
213.772	1050
213.839	2285
213.906	1314
213.973	2090
214.041	1003
214.108	1327
214.175	1879
214.242	1441
214.309	749
214.376	2371
214.444	1479
214.511	1758
214.578	1007
214.645	2110
214.712	1786
214.779	1904
214.846	1610
214.913	2873
214.980	2246
215.048	2807
215.115	2598
215.182	3082
215.249	1962
215.316	2141
215.383	1661
215.450	2163
215.517	1289
215.584	1124
215.651	1400
215.718	1441
215.785	1735
215.852	2491
215.919	1293
215.986	2422
216.053	1349
216.120	1250
216.187	1905
216.254	2298
216.321	1355
216.388	2784
216.455	1741
216.522	2292
216.589	1544
216.656	4663
216.722	2820
216.789	3316
216.856	2926
216.923	2902
216.990	1977
217.057	1932
217.124	3378
217.191	3189
217.258	2734
217.324	4556
217.391	4111
217.458	3054
217.525	1809
217.592	1966
217.659	1054
217.725	2036
217.792	2664
217.859	2940
217.926	1308
217.993	1204
218.059	1339
218.126	1883
218.193	903
218.260	2285
218.327	1006
218.393	1581
218.460	674
218.527	853
218.594	859
218.660	3273
218.727	3153
218.794	1287
218.860	1049
218.927	1389
218.994	128
219.061	1492
219.127	2023
219.194	3080
219.261	699
219.327	1335
219.394	231
219.461	313
219.527	532
219.594	2698
219.661	838
219.727	127
219.794	932
219.860	1425
219.927	1514
219.994	2840
220.060	4081
220.127	2932
220.193	1345
220.260	2169
220.326	2941
220.393	4681
220.460	6462
220.526	4480
220.593	2095
220.659	2805
220.726	3158
220.792	7157
220.859	5718
220.925	9161
220.992	11730
221.058	11464
221.125	8220
221.191	6946
221.258	2439
221.324	2118
221.391	1492
221.457	2309
221.524	1267
221.590	2639
221.657	8576
221.723	5263
221.789	4530
221.856	4953
221.922	2044
221.989	2446
222.055	831
222.121	820
222.188	2235
222.254	1681
222.321	172
222.387	984
222.453	848
222.520	617
222.586	242
222.652	687
222.719	872
222.785	1315
222.851	169
222.918	1089
222.984	946
223.050	1206
223.116	300
223.183	1315
223.249	620
223.315	866
223.382	354
223.448	945
223.514	-33
223.580	1015
223.647	-394
223.713	1123
223.779	281
223.845	704
223.911	390
223.978	410
224.044	455
224.110	974
224.176	1160
224.242	756
224.309	171
224.375	686
224.441	42
224.507	1286
224.573	940
224.639	378
224.705	209
224.772	855
224.838	-228
224.904	2092
224.970	922
225.036	1842
225.102	364
225.168	669
225.234	857
225.300	1133
225.366	34
225.432	1282
225.499	458
225.565	1269
225.631	187
225.697	1202
225.763	1588
225.829	1503
225.895	2095
225.961	3720
226.027	2345
226.093	2241
226.159	2782
226.225	4422
226.291	10615
226.357	15988
226.423	7986
226.489	5637
226.554	2731
226.620	3434
226.686	3670
226.752	6646
226.818	9256
226.884	23130
226.950	16660
227.016	6376
227.082	3204
227.148	4137
227.214	2862
227.279	2669
227.345	1782
227.411	2245
227.477	1703
227.543	4703
227.609	3249
227.674	3140
227.740	1575
227.806	1951
227.872	1037
227.938	2195
228.003	3018
228.069	1821
228.135	436
228.201	1032
228.267	1147
228.332	2631
228.398	2873
228.464	1999
228.530	1
228.595	1236
228.661	905
228.727	3734
228.792	2126
228.858	1426
228.924	363
228.990	2582
229.055	1769
229.121	2860
229.187	933
229.252	2017
229.318	1106
229.384	1647
229.449	1712
229.515	935
229.581	-170
229.646	1863
229.712	1707
229.777	5626
229.843	3382
229.909	3009
229.974	3107
230.040	2768
230.105	1393
230.171	2646
230.236	2457
230.302	5300
230.368	3836
230.433	1759
230.499	1544
230.564	3226
230.630	1266
230.695	1617
230.761	569
230.826	443
230.892	2990
230.957	1294
231.023	604
231.088	1546
231.154	679
231.219	1857
231.284	2090
231.350	2833
231.415	436
231.481	1129
231.546	247
231.612	1322
231.677	28
231.742	318
231.808	1205
231.873	609
231.939	547
232.004	3523
232.069	2294
232.135	1872
232.200	1164
232.265	1380
232.331	654
232.396	792
232.461	182
232.527	845
232.592	478
232.657	1460
232.723	3387
232.788	1925
232.853	252
232.918	1226
232.984	671
233.049	999
233.114	2642
233.179	3150
233.245	4620
233.310	5378
233.375	442
233.440	1343
233.506	334
233.571	756
233.636	446
233.701	1665
233.766	4233
233.832	4209
233.897	2037
233.962	2304
234.027	2301
234.092	2187
234.157	1435
234.222	2142
234.288	3857
234.353	12100
234.418	9465
234.483	5474
234.548	2393
234.613	3336
234.678	2140
234.743	3639
234.808	12535
234.873	6352
234.938	3099
235.004	1289
235.069	2062
235.134	2026
235.199	2432
235.264	1994
235.329	579
235.394	1580
235.459	2987
235.524	2409
235.589	1286
235.654	1928
235.719	393
235.784	1420
235.849	2258
235.913	6938
235.978	6952
236.043	7142
236.108	2725
236.173	2939
236.238	2222
236.303	2203
236.368	1389
236.433	4807
236.498	6669
236.563	4004
236.627	8890
236.692	28471
236.757	17384
236.822	8481
236.887	6612
236.952	5141
237.017	3513
237.081	4658
237.146	5899
237.211	12627
237.276	29543
237.341	41460
237.405	18753
237.470	8461
237.535	6096
237.600	4080
237.664	2733
237.729	2191
237.794	4479
237.859	7734
237.923	5669
237.988	3594
238.053	5790
238.118	5719
238.182	16329
238.247	11284
238.312	6124
238.376	4662
238.441	2849
238.506	3487
238.570	843
238.635	2601
238.700	1680
238.764	2038
238.829	7849
238.893	7295
238.958	3369
239.023	3016
239.087	1795
239.152	2668
239.216	1056
239.281	1660
239.346	1285
239.410	2020
239.475	2273
239.539	16813
239.604	8622
239.668	3945
239.733	738
239.797	2576
239.862	6286
239.926	10606
239.991	3562
240.055	2355
240.120	2208
240.184	2856
240.249	581
240.313	2048
240.378	2016
240.442	10830
240.507	12309
240.571	4392
240.635	8175
240.700	7928
240.764	2854
240.829	2851
240.893	912
240.957	2283
241.022	9587
241.086	15315
241.151	5930
241.215	1991
241.279	4664
241.344	7435
241.408	2633
241.472	2272
241.537	2357
241.601	2685
241.665	1829
241.730	1937
241.794	1383
241.858	1792
241.922	1834
241.987	2437
242.051	1570
242.115	1886
242.179	1497
242.244	1409
242.308	2383
242.372	2198
242.436	2733
242.501	2556
242.565	1402
242.629	2035
242.693	2360
242.757	1710
242.822	1599
242.886	2463
242.950	1923
243.014	2493
243.078	3088
243.142	3007
243.206	2577
243.271	3338
243.335	2300
243.399	4491
243.463	18893
243.527	35987
243.591	10185
243.655	5778
243.719	2788
243.783	3612
243.847	6413
243.911	7838
243.975	10869
244.040	5825
244.104	3051
244.168	2547
244.232	5787
244.296	7822
244.360	6530
244.424	4325
244.488	2868
244.552	3387
244.615	1423
244.679	1835
244.743	2876
244.807	3497
244.871	1414
244.935	1900
244.999	1033
245.063	2474
245.127	3364
245.191	6260
245.255	4582
245.319	5659
245.383	3462
245.446	4103
245.510	2418
245.574	3267
245.638	3181
245.702	3166
245.766	8526
245.829	4671
245.893	3441
245.957	3072
246.021	2771
246.085	3044
246.149	4024
246.212	12345
246.276	13696
246.340	7347
246.404	4183
246.467	5237
246.531	7473
246.595	5358
246.659	4493
246.722	5302
246.786	5749
246.850	6654
246.913	6892
246.977	3338
247.041	2563
247.104	3751
247.168	3642
247.232	12843
247.295	20710
247.359	9441
247.423	5089
247.486	10344
247.550	5219
247.614	4863
247.677	6419
247.741	3840
247.804	2745
247.868	5424
247.932	11023
247.995	18394
248.059	6191
248.122	3942
248.186	4562
248.249	10576
248.313	34829
248.376	30900
248.440	18834
248.503	7634
248.567	6975
248.630	11281
248.694	13232
248.757	18498
248.821	33823
248.884	20307
248.948	20307
249.011	26851
249.075	40962
249.138	30730
249.202	12337
249.265	8770
249.328	10278
249.392	7758
249.455	5562
249.519	3758
249.582	7141
249.645	12268
249.709	6458
249.772	5493
249.835	4347
249.899	5390
249.962	5002
250.025	4644
250.089	14569
250.152	17342
250.215	7493
250.279	5456
250.342	6058
250.405	5377
250.468	4134
250.532	7676
250.595	10547
250.658	45499
250.721	51599
250.785	21070
250.848	11169
250.911	6801
250.974	5588
251.038	11583
251.101	18681
251.164	10307
251.227	10964
251.290	8969
251.354	14432
251.417	58404
251.480	40634
251.543	36099
251.606	96732
251.669	57548
251.732	24449
251.795	27795
251.859	28723
251.922	60995
251.985	28447
252.048	12952
252.111	9888
252.174	10028
252.237	21145
252.300	39411
252.363	48291
252.426	74097
252.489	29095
252.552	16894
252.615	11006
252.678	13117
252.741	30178
252.804	40231
252.867	75252
252.930	46248
252.993	24969
253.056	16087
253.119	11315
253.182	9270
253.245	14314
253.308	11177
253.371	13769
253.434	11332
253.497	10918
253.559	21448
253.622	13372
253.685	21918
253.748	17768
253.811	8899
253.874	12627
253.937	11208
254.000	7536
254.062	16453
254.125	19243
254.188	21422
254.251	14164
254.314	8877
254.376	18039
254.439	17850
254.502	14310
254.565	16722
254.628	24818
254.690	17031
254.753	8498
254.816	8415
254.878	8090
254.941	17254
255.004	12717
255.067	7981
255.129	7353
255.192	3928
255.255	3254
255.317	4885
255.380	3452
255.443	3029
255.505	3160
255.568	3747
255.631	2888
255.693	3535
255.756	1600
255.819	3409
255.881	2580
255.944	2462
256.006	2323
256.069	2544
256.132	1857
256.194	6122
256.257	14716
256.319	9217
256.382	7543
256.444	3784
256.507	2708
256.569	2816
256.632	2890
256.694	5881
256.757	17389
256.819	38964
256.882	13462
256.944	7296
257.007	5268
257.069	7402
257.132	4388
257.194	4058
257.257	3700
257.319	2623
257.381	3017
257.444	12649
257.506	53540
257.569	50398
257.631	31955
257.693	15691
257.756	7508
257.818	6747
257.880	3976
257.943	3976
258.005	3287
258.067	2784
258.130	3156
258.192	6405
258.254	11646
258.317	4468
258.379	3751
258.441	14237
258.503	9523
258.566	20091
258.628	17205
258.690	4156
258.753	5628
258.815	11042
258.877	4658
258.939	3784
259.001	2955
259.064	3192
259.126	4243
259.188	6613
259.250	4136
259.312	6539
259.375	21321
259.437	8781
259.499	3579
259.561	3517
259.623	3499
259.685	3069
259.747	2805
259.809	18878
259.872	25292
259.934	47333
259.996	28977
260.058	8104
260.120	3562
260.182	3372
260.244	2233
260.306	2347
260.368	2898
260.430	2281
260.492	7388
260.554	18441
260.616	11969
260.678	27909
260.740	26291
260.802	6894
260.864	5687
260.926	4555
260.988	4317
261.050	4463
261.112	10427
261.174	31978
261.236	17562
261.298	6679
261.359	15944
261.421	16635
261.483	5026
261.545	5270
261.607	1808
261.669	2746
261.731	10367
261.793	21531
261.854	7510
261.916	5720
261.978	3613
262.040	4440
262.102	4345
262.164	9328
262.225	5087
262.287	4603
262.349	12070
262.411	7381
262.472	3177
262.534	11786
262.596	17438
262.658	5637
262.719	2685
262.781	7450
262.843	18666
262.904	6573
262.966	4892
263.028	5931
263.090	41010
263.151	69734
263.213	21249
263.275	12408
263.336	4761
263.398	4265
263.459	1752
263.521	3758
263.583	10988
263.644	6369
263.706	3037
263.767	2157
263.829	1505
263.891	2031
263.952	1206
264.014	1209
264.075	4652
264.137	9323
264.198	4318
264.260	2187
264.321	1649
264.383	9586
264.444	14858
264.506	3897
264.567	2529
264.629	8263
264.690	10172
264.752	4639
264.813	3353
264.875	2388
264.936	2320
264.998	1956
265.059	1658
265.120	2064
265.182	4197
265.243	26101
265.305	17540
265.366	4841
265.427	2584
265.489	2628
265.550	706
265.611	3906
265.673	3069
265.734	1881
265.795	1556
265.857	1521
265.918	1010
265.979	6938
266.040	40686
266.102	22637
266.163	7689
266.224	7805
266.286	3050
266.347	2914
266.408	3097
266.469	3721
266.530	2086
266.592	2286
266.653	8185
266.714	11115
266.775	2634
266.836	2847
266.898	1460
266.959	4649
267.020	2332
267.081	3040
267.142	1701
267.203	2339
267.264	1086
267.326	4317
267.387	2404
267.448	1390
267.509	2152
267.570	2352
267.631	1668
267.692	1758
267.753	2209
267.814	1756
267.875	7803
267.936	12948
267.997	4939
268.058	4730
268.119	2687
268.180	3647
268.241	2220
268.302	1830
268.363	1052
268.424	2629
268.485	2491
268.546	1620
268.607	1253
268.668	973
268.729	676
268.790	2331
268.851	2002
268.912	10853
268.972	10063
269.033	5195
269.094	1802
269.155	2705
269.216	1700
269.277	2742
269.338	800
269.398	1702
269.459	2676
269.520	4613
269.581	6933
269.642	7712
269.702	3910
269.763	2630
269.824	1996
269.885	5409
269.945	5697
270.006	2225
270.067	983
270.128	1971
270.188	578
270.249	2104
270.310	525
270.370	2028
270.431	1656
270.492	1777
270.553	1922
270.613	7583
270.674	13564
270.734	4645
270.795	2703
270.856	5192
270.916	2210
270.977	2607
271.038	3632
271.098	3800
271.159	7171
271.219	6648
271.280	2110
271.340	2310
271.401	4527
271.462	10615
271.522	4364
271.583	2430
271.643	3341
271.704	2169
271.764	2873
271.825	11235
271.885	36659
271.946	37314
272.006	11862
272.066	23248
272.127	27225
272.187	7873
272.248	4422
272.308	7229
272.369	22803
272.429	10041
272.489	11605
272.550	9961
272.610	11251
272.671	7096
272.731	8456
272.791	13512
272.852	6757
272.912	6750
272.972	2423
273.033	4432
273.093	7144
273.153	6189
273.214	3617
273.274	4532
273.334	21670
273.394	32436
273.455	13278
273.515	16814
273.575	29437
273.635	11565
273.696	21449
273.756	31998
273.816	11291
273.876	8703
273.936	22947
273.997	28650
274.057	6004
274.117	5498
274.177	9430
274.237	46041
274.297	31176
274.358	27328
274.418	28095
274.478	18059
274.538	5754
274.598	6869
274.658	30632
274.718	32492
274.778	10359
274.838	6257
274.898	19564
274.958	46076
275.018	34470
275.078	18174
275.138	8129
275.198	5269
275.258	2196
275.318	5944
275.378	10662
275.438	10726
275.498	6003
275.558	26532
275.618	39653
275.678	20533
275.738	16061
275.798	10586
275.858	4771
275.918	2721
275.978	4418
276.038	4517
276.098	1895
276.157	11194
276.217	25611
276.277	10006
276.337	7268
276.397	4305
276.457	5800
276.517	3902
276.576	2423
276.636	2902
276.696	6666
276.756	17545
276.815	9716
276.875	5339
276.935	5568
276.995	5529
277.055	2836
277.114	2594
277.174	6291
277.234	20495
277.293	7293
277.353	4525
277.413	3855
277.472	5209
277.532	3845
277.592	5368
277.651	26727
277.711	32431
277.771	12125
277.830	50505
277.890	26421
277.950	30585
278.009	64309
278.069	20637
278.128	31937
278.188	34244
278.248	15626
278.307	48956
278.367	19798
278.426	6811
278.486	4843
278.545	3976
278.605	2548
278.664	2935
278.724	2919
278.783	17345
278.843	30587
278.902	9100
278.962	5297
279.021	7631
279.081	10964
279.140	9223
279.199	6915
279.259	7221
279.318	6533
279.378	9583
279.437	19375
279.496	75902
279.556	207266
279.615	125622
279.675	37931
279.734	24030
279.793	38080
279.853	45369
279.912	15998
279.971	10157
280.031	7908
280.090	22322
280.149	28351
280.208	29930
280.268	150843
280.327	108065
280.386	30079
280.445	26491
280.505	17785
280.564	8678
280.623	7039
280.682	15385
280.742	16249
280.801	6184
280.860	3890
280.919	3924
280.978	3746
281.037	3237
281.097	2513
281.156	3999
281.215	3367
281.274	5430
281.333	26714
281.392	13411
281.451	3855
281.510	2757
281.569	3206
281.628	2333
281.688	2244
281.747	4407
281.806	2783
281.865	2808
281.924	2639
281.983	2571
282.042	1616
282.101	2564
282.160	1486
282.219	1832
282.278	3587
282.337	16008
282.396	6780
282.454	3524
282.513	5369
282.572	23014
282.631	8838
282.690	4149
282.749	3008
282.808	4556
282.867	3858
282.926	3879
282.985	3014
283.043	1378
283.102	2603
283.161	4175
283.220	12605
283.279	21917
283.338	5899
283.396	4014
283.455	4066
283.514	4399
283.573	8726
283.631	5681
283.690	3093
283.749	3642
283.808	11140
283.866	10493
283.925	3721
283.984	4729
284.043	6009
284.101	6649
284.160	3756
284.219	6340
284.277	5513
284.336	11353
284.395	33583
284.453	20694
284.512	9896
284.570	14625
284.629	11167
284.688	12654
284.746	12926
284.805	15795
284.863	20771
284.922	25858
284.981	30073
285.039	42571
285.098	74542
285.156	155307
285.215	168086
285.273	176422
285.332	135017
285.390	84817
285.449	52296
285.507	36096
285.566	25075
285.624	19132
285.683	14246
285.741	12720
285.799	10136
285.858	10445
285.916	8824
285.975	8347
286.033	6338
286.091	4909
286.150	4236
286.208	6125
286.267	5135
286.325	6071
286.383	9525
286.442	7147
286.500	4134
286.558	4051
286.616	3127
286.675	6702
286.733	4689
286.791	4468
286.850	4679
286.908	8249
286.966	11923
287.024	4746
287.083	2771
287.141	2586
287.199	2913
287.257	6344
287.315	3860
287.374	4788
287.432	13578
287.490	6798
287.548	4303
287.606	3898
287.664	2871
287.723	6875
287.781	6430
287.839	4153
287.897	3853
287.955	4213
288.013	5679
288.071	16552
288.129	98726
288.187	200151
288.245	70050
288.303	25944
288.361	15275
288.419	11496
288.477	6762
288.535	5192
288.593	3007
288.651	3416
288.709	1443
288.767	3985
288.825	2176
288.883	2021
288.941	2132
288.999	2763
289.057	2003
289.115	2381
289.173	2047
289.231	3274
289.289	2797
289.346	2176
289.404	3566
289.462	7729
289.520	6519
289.578	2727
289.636	1509
289.694	1423
289.751	897
289.809	1264
289.867	2364
289.925	4183
289.983	2872
290.040	1939
290.098	1875
290.156	3467
290.214	3000
290.271	1446
290.329	1781
290.387	1452
290.444	1167
290.502	1060
290.560	1495
290.617	1830
290.675	1395
290.733	2011
290.790	2760
290.848	1902
290.906	2167
290.963	2909
291.021	863
291.078	2054
291.136	2264
291.194	14415
291.251	21405
291.309	5346
291.366	1895
291.424	2926
291.481	1758
291.539	3232
291.596	1595
291.654	1671
291.711	1420
291.769	3334
291.826	7598
291.884	4072
291.941	1344
291.999	1801
292.056	3355
292.114	2938
292.171	1427
292.228	2986
292.286	2224
292.343	8320
292.401	8802
292.458	4359
292.515	3118
292.573	5551
292.630	4147
292.687	4154
292.745	2521
292.802	4766
292.859	14328
292.917	28386
292.974	11857
293.031	4656
293.089	2868
293.146	3309
293.203	1567
293.260	2588
293.318	3870
293.375	5387
293.432	2675
293.489	2016
293.546	1923
293.604	3866
293.661	19217
293.718	37842
293.775	16793
293.832	9538
293.889	8249
293.947	8993
294.004	4621
294.061	5050
294.118	13067
294.175	26064
294.232	25544
294.289	10045
294.346	5691
294.403	5787
294.460	3936
294.517	3151
294.574	1960
294.631	2155
294.688	2878
294.745	13343
294.802	47211
294.859	38912
294.916	17216
294.973	10530
295.030	8846
295.087	7438
295.144	4152
295.201	3633
295.258	2360
295.315	4946
295.372	21529
295.429	28862
295.486	10499
295.542	6817
295.599	19682
295.656	26850
295.713	23970
295.770	28299
295.827	9200
295.883	5390
295.940	5492
295.997	12362
296.054	7705
296.111	4435
296.167	2784
296.224	1968
296.281	1647
296.338	2717
296.394	1485
296.451	3796
296.508	16785
296.564	24545
296.621	15159
296.678	42361
296.734	43292
296.791	15955
296.848	7991
296.904	11160
296.961	25764
297.018	38402
297.074	20807
297.131	8635
297.187	5308
297.244	10041
297.301	43492
297.357	52676
297.414	16697
297.470	8514
297.527	5699
297.583	4980
297.640	4836
297.696	3866
297.753	2587
297.809	2793
297.866	1166
297.922	2525
297.979	1398
298.035	3103
298.092	7745
298.148	25193
298.204	16040
298.261	8118
298.317	19648
298.374	43068
298.430	20761
298.486	11547
298.543	8278
298.599	7553
298.656	7701
298.712	18177
298.768	34014
298.824	18760
298.881	6969
298.937	4626
298.993	4596
299.050	7018
299.106	4555
299.162	4727
299.218	4628
299.275	3550
299.331	3573
299.387	11314
299.443	42526
299.500	33542
299.556	14116
299.612	7619
299.668	6932
299.724	8172
299.780	6607
299.837	4283
299.893	8955
299.949	39252
300.005	32880
300.061	37140
300.117	49769
300.173	21005
300.229	11947
300.285	17188
300.341	15734
300.397	8590
300.453	4663
300.510	4676
300.566	4075
300.622	5471
300.678	17787
300.734	33240
300.790	34395
300.845	34910
300.901	24431
300.957	37789
301.013	22763
301.069	10066
301.125	7380
301.181	8300
301.237	5402
301.293	3044
301.349	3124
301.405	3424
301.461	4376
301.516	5560
301.572	6994
301.628	11664
301.684	9284
301.740	18233
301.796	22370
301.851	16793
301.907	26910
301.963	21524
302.019	48195
302.074	113240
302.130	92400
302.186	40851
302.242	18702
302.297	12234
302.353	12782
302.409	24842
302.464	16703
302.520	17687
302.576	45583
302.631	43037
302.687	23125
302.743	10969
302.798	6231
302.854	5285
302.910	5177
302.965	8152
303.021	14713
303.076	12126
303.132	19196
303.187	19901
303.243	9287
303.299	6125
303.354	3999
303.410	4435
303.465	4093
303.521	4401
303.576	3360
303.632	4489
303.687	13950
303.743	37546
303.798	25236
303.853	10671
303.909	6291
303.964	5199
304.020	11325
304.075	15027
304.130	15081
304.186	27894
304.241	26273
304.297	20230
304.352	10369
304.358	9941
304.407	6476
304.449	6448
304.463	6445
304.518	7658
304.539	6458
304.573	4546
304.629	5155
304.630	5245
304.684	9460
304.720	23668
304.739	30916
304.794	34989
304.811	29939
304.850	17703
304.902	8583
304.905	8010
304.960	5597
304.992	5482
305.015	5403
305.071	6128
305.083	5673
305.126	3966
305.173	3239
305.181	3129
305.236	2609
305.264	3199
305.292	3828
305.347	4905
305.354	4978
305.402	5412
305.445	5859
305.457	5994
305.512	8588
305.535	7925
305.567	6909
305.622	6894
305.626	7290
305.678	15078
305.716	33426
305.733	40707
305.788	34686
305.807	31307
305.843	24986
305.897	35263
305.898	35393
305.953	29164
305.988	19990
306.008	14701
306.063	10298
306.078	9020
306.118	6231
306.168	4325
306.173	4166
306.228	3422
306.259	3343
306.283	3240
306.338	2360
306.349	2634
306.393	3785
306.440	3674
306.448	3636
306.503	3466
306.530	4039
306.558	5282
306.613	15072
306.620	16095
306.668	23175
306.711	33029
306.723	34837
306.778	24593
306.801	19349
306.833	12684
306.888	6842
306.892	6657
306.943	5350
306.982	3798
306.997	3283
307.052	3426
307.072	3455
307.107	3728
307.162	4880
307.163	4912
307.217	7937
307.253	10479
307.272	11437
307.327	10429
307.343	9496
307.381	7143
307.434	6311
307.436	6448
307.491	15984
307.524	24685
307.546	28815
307.600	27160
307.614	24447
307.655	14064
307.704	7209
307.710	6853
307.765	6571
307.795	9772
307.819	13177
307.874	19802
307.885	19363
307.929	13290
307.975	9406
307.984	9302
308.038	10876
308.065	14014
308.093	22033
308.148	56090
308.156	64565
308.202	117491
308.246	132078
308.257	127023
308.312	70542
308.336	52278
308.366	42245
308.421	26686
308.426	25643
308.475	16293
308.517	10974
308.530	9860
308.585	8318
308.607	7811
308.639	7265
308.694	7586
308.697	7825
308.748	15519
308.787	23142
308.803	23983
308.857	17337
308.877	15287
308.912	12665
308.967	10906
308.967	10933
309.021	14916
309.058	19188
309.076	23347
309.130	42151
309.148	50182
309.185	82140
309.238	146854
309.239	147573
309.293	177531
309.328	169519
309.348	144588
309.402	69981
309.418	51792
309.457	36358
309.508	23468
309.511	22966
309.566	21964
309.598	23693
309.620	28649
309.674	47555
309.688	51602
309.729	49846
309.778	39254
309.783	37996
309.837	23978
309.868	18205
309.892	18854
309.946	25996
309.959	28977
310.001	40788
310.049	47454
310.055	45897
310.109	27355
310.139	17557
310.163	13421
310.218	8057
310.229	7261
310.272	5767
310.319	4604
310.326	4440
310.381	3767
310.409	3557
310.435	3447
310.489	3051
310.499	3068
310.543	3020
310.589	3017
310.598	3035
310.652	3132
310.679	3123
310.706	2611
310.760	1845
310.769	1691
310.814	1763
310.859	2185
310.868	2181
310.923	1818
310.948	1957
310.977	2427
311.031	2956
311.038	3070
311.085	2814
311.128	2199
311.139	2136
311.193	2379
311.218	2296
311.247	2190
311.301	2257
311.308	2270
311.356	2456
311.398	2689
311.410	2621
311.464	2188
311.488	2059
311.518	1860
311.572	1402
311.578	1391
311.626	2473
311.668	3342
311.680	3364
311.734	3430
311.758	3487
311.788	3329
311.842	3063
311.847	3048
311.896	3308
311.937	3713
311.950	3765
312.004	3952
312.027	4071
312.058	3532
312.112	2598
312.117	2519
312.165	2118
312.207	1800
312.297	2779
312.386	2686
312.476	2441
312.566	5710
312.656	3170
312.745	1518
312.835	1919
312.925	2326
313.015	1610
313.104	2811
313.194	1926
313.284	1869
313.374	2701
313.463	2194
313.553	1582
313.643	1284
313.732	1617
313.822	663
313.912	1868
314.001	1559
314.091	2085
314.180	2138
314.270	3334
314.360	3363
314.449	3042
314.539	1667
314.628	1237
314.718	2361
314.808	3050
314.897	1816
314.987	1473
315.076	3092
315.166	4121
315.255	3235
315.345	3295
315.434	3118
315.524	2926
315.613	3353
315.703	4604
315.792	5239
315.881	9847
315.971	4882
316.060	5501
316.150	8728
316.239	9670
316.328	3390
316.418	1725
316.507	1799
316.597	3697
316.686	2739
316.775	3620
316.865	9933
316.954	2635
317.043	1236
317.133	1986
317.222	1400
317.311	1440
317.400	1405
317.490	3440
317.579	3046
317.668	1929
317.757	3563
317.847	6513
317.936	18650
318.025	12141
318.114	5679
318.203	4155
318.293	4751
318.382	9576
318.471	7441
318.560	10628
318.649	18744
318.738	5168
318.828	2946
318.917	3287
319.006	2784
319.095	11652
319.184	24151
319.273	17485
319.362	9793
319.451	2779
319.540	2804
319.629	6303
319.718	13391
319.807	4102
319.896	8665
319.985	33123
320.074	15178
320.163	2886
320.252	5716
320.341	4468
320.430	3192
320.519	6396
320.608	3536
320.697	2130
320.786	1814
320.875	3632
320.964	4746
321.053	7549
321.142	11344
321.230	13790
321.319	7597
321.408	20435
321.497	8789
321.586	7819
321.675	8888
321.764	9983
321.852	5252
321.941	11197
322.030	8234
322.119	6854
322.207	23667
322.296	16115
322.385	5810
322.474	7167
322.562	27466
322.651	14895
322.740	8470
322.829	14813
322.917	13828
323.006	9460
323.095	6106
323.183	4861
323.272	6664
323.361	13214
323.449	46603
323.538	16501
323.626	28909
323.715	22561
323.804	5555
323.892	26214
323.981	16837
324.069	3655
324.158	12462
324.246	16144
324.335	4472
324.424	8935
324.512	2721
324.601	3154
324.689	6145
324.778	11566
324.866	10621
324.954	3153
325.043	2041
325.131	5394
325.220	10510
325.308	12861
325.397	8460
325.485	6362
325.574	1227
325.662	1915
325.750	2328
325.839	2150
325.927	1504
326.015	2087
326.104	2536
326.192	6114
326.280	1705
326.369	1530
326.457	2391
326.545	6641
326.634	2730
326.722	878
326.810	2117
326.898	1941
326.987	1435
327.075	4972
327.163	6655
327.251	2879
327.340	2992
327.428	5079
327.516	1222
327.604	1534
327.692	1820
327.781	2072
327.869	4071
327.957	2800
328.045	2372
328.133	2341
328.221	2126
328.309	2127
328.397	1609
328.485	2041
328.574	3300
328.662	14036
328.750	8804
328.838	3180
328.926	2133
329.014	1162
329.102	2046
329.190	6215
329.278	5260
329.366	1687
329.454	1075
329.542	1185
329.630	879
329.718	1277
329.806	2065
329.893	2131
329.981	1482
330.069	2177
330.157	7858
330.245	26232
330.333	15852
330.421	2722
330.509	3125
330.597	17316
330.684	12595
330.772	3183
330.860	2897
330.948	4425
331.036	1996
331.123	1217
331.211	778
331.299	1704
331.387	3292
331.475	8388
331.562	2426
331.650	1069
331.738	2106
331.825	2749
331.913	777
332.001	1539
332.089	1091
332.176	4235
332.264	11791
332.352	12131
332.439	2407
332.527	1375
332.614	1495
332.702	2571
332.790	1913
332.877	4331
332.965	14465
333.052	4775
333.140	2827
333.228	12603
333.315	2865
333.403	1797
333.490	6416
333.578	8618
333.665	14998
333.753	7330
333.840	1706
333.928	2360
334.015	6756
334.103	9689
334.190	37000
334.278	10803
334.365	2598
334.452	2579
334.540	1622
334.627	2327
334.715	3070
334.802	5613
334.889	44258
334.977	64065
335.064	6512
335.151	1935
335.239	1874
335.326	2495
335.413	12257
335.501	24610
335.588	3497
335.675	1161
335.762	1788
335.850	3465
335.937	2208
336.024	7816
336.111	49138
336.199	25640
336.286	2873
336.373	1780
336.460	1147
336.547	1126
336.635	2547
336.722	2056
336.809	1831
336.896	2468
336.983	7961
337.070	20824
337.157	35777
337.245	30894
337.332	29584
337.419	3041
337.506	1094
337.593	1847
337.680	5104
337.767	19601
337.854	6153
337.941	6005
338.028	10553
338.115	4143
338.202	2341
338.289	6575
338.376	33511
338.463	12256
338.550	8931
338.637	13558
338.724	4567
338.811	10456
338.898	3069
338.984	1384
339.071	1491
339.158	2318
339.245	7036
339.332	5683
339.419	4894
339.506	7224
339.593	1335
339.679	1268
339.766	848
339.853	1528
339.940	5348
340.027	2159
340.113	1256
340.200	2219
340.287	2456
340.374	2360
340.460	5662
340.547	2346
340.634	2895
340.720	17068
340.807	11919
340.894	1334
340.980	1647
341.067	1268
341.154	1478
341.240	3089
341.327	8710
341.414	2465
341.500	1966
341.587	1983
341.674	1040
341.760	4282
341.847	7220
341.933	2464
342.020	558
342.106	886
342.193	1363
342.279	3909
342.366	1759
342.452	5369
342.539	2305
342.625	5279
342.712	19391
342.798	8814
342.885	3323
342.971	532
343.058	594
343.144	1139
343.230	1458
343.317	1698
343.403	869
343.490	526
343.576	389
343.662	1473
343.749	1619
343.835	2057
343.921	3572
344.008	27699
344.094	96483
344.180	24412
344.267	5521
344.353	18415
344.439	27492
344.525	9869
344.612	2906
344.698	2090
344.784	1458
344.870	920
344.957	1180
345.043	3479
345.129	2364
345.215	5381
345.301	2870
345.387	1471
345.474	13
345.560	657
345.646	969
345.732	1081
345.818	1183
345.904	1765
345.990	2032
346.076	1987
346.162	4208
346.249	3011
346.335	56
346.421	839
346.507	6181
346.593	35493
346.679	10813
346.765	1305
346.851	196
346.937	1302
347.023	1004
347.108	2076
347.194	949
347.280	1352
347.366	2076
347.452	6676
347.538	39574
347.624	30481
347.710	25442
347.796	3547
347.882	1365
347.967	1345
348.053	1177
348.139	1440
348.225	1131
348.311	1736
348.397	1324
348.482	1294
348.568	2108
348.654	573
348.740	961
348.825	380
348.911	2839
348.997	13707
349.083	41623
349.168	7723
349.254	2024
349.340	2506
349.425	404
349.511	1842
349.597	2804
349.682	4578
349.768	19828
349.854	13936
349.939	1246
350.025	984
350.110	636
350.196	540
350.282	1036
350.367	322
350.453	2020
350.538	2500
350.624	1741
350.709	1917
350.795	816
350.880	1573
350.966	1013
351.051	2871
351.137	955
351.222	918
351.308	4903
351.393	18617
351.479	5828
351.564	1913
351.649	110
351.735	941
351.820	386
351.906	889
351.991	1264
352.076	8525
352.162	19624
352.247	3695
352.332	1416
352.418	3735
352.503	4665
352.588	22154
352.673	24954
352.759	4503
352.844	1858
352.929	1032
353.014	3242
353.100	2072
353.185	3690
353.270	5679
353.355	6806
353.441	2141
353.526	867
353.611	4222
353.696	7243
353.781	3664
353.866	941
353.952	144
354.037	3947
354.122	12650
354.207	11867
354.292	5278
354.377	1284
354.462	1663
354.547	1147
354.632	2151
354.717	2002
354.802	4317
354.887	1633
354.972	1143
355.057	772
355.142	794
355.227	758
355.312	3396
355.397	6492
355.482	19901
355.567	12426
355.652	6292
355.737	7335
355.822	22126
355.907	27229
355.991	3628
356.076	1257
356.161	1480
356.246	996
356.331	1159
356.416	3519
356.501	36244
356.585	58943
356.670	6685
356.755	2706
356.840	4216
356.924	20627
357.009	107362
357.094	56187
357.179	7907
357.263	5118
357.348	3914
357.433	4832
357.517	3717
357.602	3088
357.687	2977
357.771	3629
357.856	12254
357.941	9149
358.025	14782
358.110	96526
358.195	61335
358.279	5993
358.364	3387
358.448	12834
358.533	44275
358.617	37032
358.702	33364
358.787	14280
358.871	6259
358.956	5079
359.040	1337
359.125	1274
359.209	1528
359.294	4027
359.378	10576
359.462	5032
359.547	3038
359.631	1720
359.716	675
359.800	1430
359.885	1776
359.969	1272
360.053	1841
360.138	981
360.222	2316
360.306	6223
360.391	5217
360.475	5817
360.559	18583
360.644	16795
360.728	15206
360.812	17631
360.896	70774
360.981	29863
361.065	12630
361.149	2814
361.233	3179
361.318	1678
361.402	2672
361.486	2060
361.570	1946
361.654	1866
361.739	6497
361.823	33533
361.907	79026
361.991	15425
362.075	3933
362.159	11242
362.243	10037
362.327	4879
362.411	6535
362.495	3642
362.580	1652
362.664	1088
362.748	1176
362.832	1549
362.916	2362
363.000	6668
363.084	31907
363.168	83254
363.252	23463
363.336	3787
363.420	6065
363.503	17990
363.587	29194
363.671	6139
363.755	2469
363.839	4780
363.923	2501
364.007	4446
364.091	7085
364.175	5672
364.258	31606
364.342	21733
364.426	14176
364.510	9813
364.594	6137
364.677	7251
364.761	50327
364.845	53024
364.929	11189
365.013	9722
365.096	6722
365.180	9536
365.264	6672
365.347	34805
365.431	19810
365.515	3670
365.598	1990
365.682	2258
365.766	2547
365.849	3841
365.933	1854
366.017	2673
366.100	1545
366.184	-62
366.267	1381
366.351	977
366.435	219
366.518	11
366.602	517
366.685	1181
366.769	1803
366.852	2127
366.936	6199
367.019	4215
367.103	1905
367.186	3147
367.270	1267
367.353	600
367.436	1366
367.520	434
367.603	1824
367.687	2661
367.770	6681
367.853	4414
367.937	11923
368.020	29192
368.104	7119
368.187	3894
368.270	6882
368.353	6926
368.437	7275
368.520	20256
368.603	15143
368.687	12936
368.770	37799
368.853	9938
368.936	6269
369.020	5404
369.103	2249
369.186	1279
369.269	1120
369.352	3477
369.436	6527
369.519	4185
369.602	1292
369.685	1694
369.768	2327
369.851	1467
369.934	1076
370.018	1369
370.101	4769
370.184	5273
370.267	1752
370.350	4154
370.433	7126
370.516	22171
370.599	38796
370.682	9273
370.765	14958
370.848	20457
370.931	42640
371.014	21646
371.097	2457
371.180	1684
371.263	741
371.346	543
371.429	2046
371.511	687
371.594	2987
371.677	5555
371.760	5577
371.843	4932
371.926	22585
372.009	78329
372.091	31386
372.174	12787
372.257	40916
372.340	21501
372.423	6517
372.505	9757
372.588	3548
372.671	9077
372.754	40164
372.836	28616
372.919	8837
373.002	19066
373.085	8740
373.167	5610
373.250	14323
373.332	39220
373.415	46603
373.498	114457
373.580	52553
373.663	36275
373.746	76211
373.828	19574
373.911	6175
373.993	5056
374.076	15272
374.159	21167
374.241	9699
374.324	30569
374.406	29014
374.489	23344
374.571	89878
374.654	50084
374.736	14775
374.819	49454
374.901	77273
374.983	98159
375.066	20812
375.148	4308
375.231	12198
375.313	30434
375.395	13402
375.478	3604
375.560	2181
375.643	3057
375.725	11515
375.807	65321
375.890	68525
375.972	23082
376.054	11506
376.136	16511
376.219	9930
376.301	14609
376.383	61924
376.465	33202
376.548	12416
376.630	14350
376.712	48972
376.794	33782
376.877	2955
376.959	957
377.041	2104
377.123	2084
377.205	4055
377.287	382
377.369	1240
377.452	903
377.534	1594
377.616	1014
377.698	1265
377.780	645
377.862	1394
377.944	890
378.026	1389
378.108	645
378.190	1028
378.272	750
378.354	1190
378.436	344
378.518	1573
378.600	6208
378.682	8166
378.764	19867
378.846	22859
378.928	4407
379.010	5767
379.091	4200
379.173	1407
379.255	756
379.337	2013
379.419	8442
379.501	32793
379.583	18461
379.664	2591
379.746	6117
379.828	19763
379.910	31575
379.991	31705
380.073	6345
380.155	2628
380.237	2770
380.318	1112
380.400	1180
380.482	3703
380.564	7666
380.645	6874
380.727	7339
380.809	3945
380.890	2339
380.972	1409
381.053	1611
381.135	2420
381.217	5153
381.298	22812
381.380	14728
381.461	8650
381.543	40510
381.624	75559
381.706	15706
381.787	5061
381.869	5208
381.951	16342
382.032	79275
382.113	71832
382.195	12108
382.276	6452
382.358	13378
382.439	41883
382.521	51886
382.602	88754
382.684	44779
382.765	56685
382.846	74770
382.928	112894
383.009	82584
383.090	33882
383.172	122666
383.253	271510
383.334	103824
383.416	72790
383.497	51148
383.578	17086
383.659	27197
383.741	95653
383.822	334508
383.903	241265
383.984	55342
384.066	83150
384.147	65458
384.228	14804
384.309	7604
384.390	6143
384.471	3786
384.553	4114
384.634	4430
384.715	6148
384.796	3111
384.877	4195
384.958	17312
385.039	28985
385.120	10610
385.201	3861
385.282	3224
385.363	4353
385.444	3227
385.525	6630
385.606	27786
385.687	35983
385.768	7443
385.849	5539
385.930	26301
386.011	68791
386.092	23786
386.173	3584
386.254	1990
386.335	2833
386.416	2583
386.496	10051
386.577	23535
386.658	9662
386.739	3806
386.820	3237
386.901	2181
386.981	1708
387.062	1433
387.143	3694
387.224	17502
387.304	24219
387.385	7335
387.466	2825
387.547	4179
387.627	2280
387.708	6376
387.789	32263
387.869	56965
387.950	19538
388.031	1695
388.111	270
388.192	4211
388.273	7158
388.353	4374
388.434	2774
388.514	5911
388.595	32551
388.676	57713
388.756	27833
388.837	18446
388.917	15838
388.998	1612
389.078	2281
389.159	1377
389.239	938
389.320	2724
389.400	2708
389.480	5653
389.561	21961
389.641	16231
389.722	3563
389.802	5144
389.883	7958
389.963	27025
390.043	23332
390.124	5010
390.204	5750
390.284	22249
390.365	19064
390.445	11585
390.525	35037
390.605	42359
390.686	14222
390.766	4009
390.846	1900
390.927	379
391.007	1093
391.087	1607
391.167	1414
391.247	77
391.328	2906
391.408	4569
391.488	3537
391.568	-395
391.648	1550
391.728	3268
391.808	3513
391.888	4094
391.969	9114
392.049	21051
392.129	9653
392.209	6927
392.289	26581
392.369	17549
392.449	6962
392.529	4852
392.609	4228
392.689	5907
392.769	21935
392.849	26967
392.929	11458
393.009	30030
393.089	30340
393.169	13227
393.248	33631
393.328	180765
393.408	284612
393.488	74885
393.568	14457
393.648	6726
393.728	3993
393.807	3030
393.887	3032
393.967	2547
394.047	3739
394.127	4002
394.206	7370
394.286	22619
394.366	123734
394.446	189269
394.525	45180
394.605	8863
394.685	5496
394.764	8913
394.844	16198
394.924	15921
395.003	4974
395.083	2693
395.163	2794
395.242	2280
395.322	3123
395.402	832
395.481	3473
395.561	5749
395.640	19701
395.720	18330
395.799	21238
395.879	22650
395.958	10420
396.038	30972
396.117	162871
396.197	243829
396.276	70168
396.356	15297
396.435	10252
396.515	7161
396.594	7140
396.673	12627
396.753	41040
396.832	187249
396.912	196824
396.991	49144
397.070	10121
397.150	3780
397.229	3250
397.308	3270
397.388	4818
397.467	2883
397.546	1740
397.625	-347
397.705	3139
397.784	3178
397.863	1286
397.942	799
398.022	959
398.101	3114
398.180	17024
398.259	11991
398.338	2432
398.417	2041
398.497	874
398.576	2543
398.655	680
398.734	1202
398.813	825
398.892	3926
398.971	19103
399.050	13593
399.129	1157
399.208	-85
399.287	855
399.366	87
399.445	541
399.524	434
399.603	112
399.682	1772
399.761	6014
399.840	20486
399.919	22516
399.998	3544
400.077	483
400.156	-747
400.235	2178
400.313	339
400.392	462
400.471	8748
400.550	20405
400.629	5816
400.708	1322
400.786	492
400.865	2884
400.944	3410
401.023	3837
401.102	182
401.180	-45
401.259	-55
401.338	228
401.416	1309
401.495	973
401.574	1058
401.652	49
401.731	1690
401.810	1158
401.888	33
401.967	-233
402.046	2
402.124	1046
402.203	2526
402.281	1199
402.360	560
402.438	3509
402.517	3385
402.596	547
402.674	1228
402.753	596
402.831	948
402.910	1300
402.988	4826
403.066	26185
403.145	22834
403.223	7533
403.302	19648
403.380	19837
403.459	16277
403.537	7879
403.615	1754
403.694	-70
403.772	960
403.850	350
403.929	-269
404.007	-282
404.085	2538
404.164	3288
404.242	816
404.320	1188
404.398	1653
404.477	8244
404.555	53057
404.633	69779
404.711	12266
404.789	2196
404.868	962
404.946	720
405.024	-131
405.102	-110
405.180	-568
405.258	-346
405.336	721
405.415	-332
405.493	1207
405.571	2177
405.649	-597
405.727	-263
405.805	1134
405.883	1156
405.961	900
406.039	883
406.117	241
406.195	2409
406.273	7917
406.351	48305
406.429	43006
406.507	5086
406.585	475
406.663	725
406.740	1705
406.818	1929
406.896	156
406.974	820
407.052	1935
407.130	22799
407.208	47447
407.285	12871
407.363	985
407.441	527
407.519	325
407.596	838
407.674	2733
407.752	10042
407.830	12595
407.907	4646
407.985	1350
408.063	983
408.141	-193
408.218	910
408.296	574
408.373	1170
408.451	1353
408.529	1557
408.606	-309
408.684	-528
408.762	-542
408.839	-48
408.917	-885
408.994	377
409.072	-1162
409.149	-249
409.227	928
409.304	-50
409.382	166
409.459	144
409.537	635
409.614	640
409.692	-362
409.769	-329
409.846	735
409.924	1343
410.001	73
410.079	206
410.156	259
410.233	-182
410.311	-337
410.388	-80
410.465	-169
410.543	294
410.620	-551
410.697	864
410.775	498
410.852	-845
410.929	913
411.006	1551
411.083	469
411.161	1283
411.238	2105
411.315	821
411.392	-28
411.469	987
411.547	523
411.624	-610
411.701	-212
411.778	398
411.855	2706
411.932	940
412.009	-773
412.086	48
412.163	291
412.240	-104
412.317	841
412.394	980
412.471	306
412.548	325
412.625	-529
412.702	96
412.779	1132
412.856	1493
412.933	-832
413.010	123
413.087	1231
413.164	6883
413.241	16410
413.318	4221
413.395	1637
413.471	2176
413.548	1398
413.625	-189
413.702	-235
413.779	521
413.855	-817
413.932	-222
414.009	-1015
414.086	156
414.162	16
414.239	715
414.316	6291
414.393	22681
414.469	12173
414.546	509
414.623	-270
414.699	58
414.776	28
414.853	596
414.929	-197
415.006	121
415.082	-136
415.159	-393
415.236	-749
415.312	459
415.389	1057
415.465	2314
415.542	1412
415.618	-216
415.695	1588
415.771	1022
415.848	240
415.924	857
416.000	-33
416.077	108
416.153	-970
416.230	-1683
416.306	-337
416.383	-276
416.459	599
416.535	-837
416.612	81
416.688	322
416.764	72
416.841	-1239
416.917	-300
416.993	110
417.069	676
417.146	1062
417.222	1103
417.298	764
417.374	-1130
417.451	-173
417.527	-164
417.603	742
417.679	-7
417.755	261
417.831	-697
417.908	-343
417.984	-617
418.060	-419
418.136	2000
418.212	2875
418.288	737
418.364	-388
418.440	-493
418.516	695
418.592	402
418.668	2399
418.744	5879
418.820	5727
418.896	1281
418.972	-757
419.048	-470
419.124	2327
419.200	1856
419.276	129
419.352	-1242
419.428	-736
419.504	-495
419.579	831
419.655	78
419.731	275
419.807	2677
419.883	7257
419.959	6524
420.034	1111
420.110	1572
420.186	10651
420.262	14012
420.337	1419
420.413	-62
420.489	546
420.565	138
420.640	-1161
420.716	667
420.792	-1257
420.867	355
420.943	-256
421.019	1275
421.094	493
421.170	-18
421.245	-812
421.321	204
421.397	-569
421.472	1400
421.548	4708
421.623	5055
421.699	1189
421.774	629
421.850	-88
421.925	1835
422.001	2246
422.076	595
422.152	691
422.227	2083
422.302	2564
422.378	2715
422.453	4910
422.529	13144
422.604	47788
422.679	124398
422.755	89241
422.830	24450
422.905	7152
422.981	3323
423.056	1784
423.131	1248
423.207	693
423.282	564
423.357	2792
423.432	2585
423.508	1520
423.583	5192
423.658	5820
423.733	1599
423.808	615
423.883	1781
423.959	1360
424.034	8
424.109	12
424.184	-1412
424.259	-142
424.334	-476
424.409	-660
424.484	-826
424.559	-143
424.634	-104
424.709	897
424.784	1630
424.859	343
424.934	370
425.009	7685
425.084	16830
425.159	8825
425.234	888
425.309	-170
425.384	1439
425.459	3566
425.534	2185
425.609	230
425.683	165
425.758	-864
425.833	-348
425.908	473
425.983	3410
426.058	16681
426.132	9992
426.207	712
426.282	1216
426.357	36
426.431	-287
426.506	-214
426.581	141
426.655	472
426.730	-219
426.805	36
426.879	273
426.954	-247
427.029	714
427.103	11803
427.178	42109
427.253	29434
427.327	2379
427.402	756
427.476	4470
427.551	2945
427.625	958
427.700	974
427.774	-1037
427.849	-103
427.923	-759
427.998	-371
428.072	-819
428.147	1405
428.221	4515
428.296	18580
428.370	13141
428.444	1444
428.519	603
428.593	2479
428.667	3430
428.742	2141
428.816	2904
428.890	8339
428.965	20398
429.039	9184
429.113	3560
429.188	2257
429.262	38
429.336	1351
429.410	5502
429.485	5654
429.559	2357
429.633	3553
429.707	870
429.781	967
429.855	9740
429.930	24046
430.004	14502
430.078	16968
430.152	18815
430.226	23079
430.300	36634
430.374	7117
430.448	1071
430.522	3966
430.596	16645
430.670	15401
430.744	22593
430.818	58686
430.892	20522
430.966	1440
431.040	903
431.114	-443
431.188	-928
431.262	-492
431.336	76
431.410	783
431.484	3959
431.557	5649
431.631	-25
431.705	-237
431.779	1439
431.853	13060
431.927	14666
432.000	2075
432.074	-752
432.148	133
432.222	190
432.295	-525
432.369	-201
432.443	222
432.516	9865
432.590	43294
432.664	25879
432.737	1582
432.811	-986
432.885	-1210
432.958	-503
433.032	-652
433.106	-385
433.179	-1026
433.253	-442
433.326	-1005
433.400	-1340
433.473	-132
433.547	-1321
433.620	-449
433.694	-576
433.767	1996
433.841	-357
433.914	-712
433.988	-1104
434.061	-441
434.134	-1034
434.208	-982
434.281	-869
434.355	-748
434.428	-840
434.501	-998
434.575	-461
434.648	-805
434.721	-953
434.795	-806
434.868	-890
434.941	-1135
435.014	-1152
435.088	-1005
435.161	-772
435.234	1018
435.307	1334
435.381	384
435.454	-674
435.527	-479
435.600	-384
435.673	-33
435.746	-832
435.819	-1391
435.892	-1332
435.966	-989
436.039	-1302
436.112	-98
436.185	-1329
436.258	-952
436.331	-1413
436.404	-538
436.477	-1715
436.550	-1185
436.623	-724
436.696	-1554
436.769	-1253
436.842	-533
436.915	-793
436.987	365
437.060	-466
437.133	-926
437.206	-1532
437.279	-384
437.352	-1241
437.425	-1206
437.498	-1199
437.570	712
437.643	1475
437.716	-373
437.789	-484
437.861	-187
437.934	2951
438.007	1994
438.080	-419
438.152	-393
438.225	704
438.298	14086
438.370	66186
438.443	42876
438.516	5441
438.588	619
438.661	-1203
438.734	-434
438.806	-409
438.879	201
438.951	-801
439.024	909
439.096	-217
439.169	-724
439.241	-1537
439.314	-903
439.386	-412
439.459	835
439.531	1566
439.604	429
439.676	-812
439.749	-1149
439.821	-954
439.893	-592
439.966	-1207
440.038	-833
440.110	-247
440.183	-676
440.255	-1287
440.327	-64
440.400	4198
440.472	32301
440.544	37927
440.617	4411
440.689	1274
440.761	1002
440.833	2916
440.905	2617
440.978	-330
441.050	-727
441.122	-673
441.194	-1554
441.266	-1539
441.338	-1024
441.411	-535
441.483	6791
441.555	19848
441.627	6096
441.699	407
441.771	346
441.843	-422
441.915	-708
441.987	-568
442.059	-1663
442.131	-539
442.203	-232
442.275	-11
442.347	1188
442.419	-543
442.491	4128
442.563	17668
442.635	15318
442.706	5228
442.778	6301
442.850	160
442.922	-702
442.994	-175
443.066	-179
443.137	-52
443.209	-86
443.281	392
443.353	1299
443.425	6820
443.496	30638
443.568	44948
443.640	21710
443.711	4975
443.783	469
443.855	-264
443.926	-830
443.998	-303
444.070	-516
444.141	-444
444.213	894
444.285	1620
444.356	1016
444.428	458
444.499	-13
444.571	-992
444.642	82
444.714	-600
444.785	862
444.857	517
444.928	2364
445.000	3182
445.071	1719
445.143	2893
445.214	1791
445.285	1597
445.357	6356
445.428	19502
445.500	63800
445.571	57734
445.642	27983
445.714	10490
445.785	8912
445.856	3002
445.928	1413
445.999	1286
446.070	764
446.141	510
446.213	2623
446.284	-155
446.355	-167
446.426	-971
446.497	-735
446.569	-606
446.640	1447
446.711	839
446.782	-422
446.853	-216
446.924	364
446.995	297
447.066	-322
447.138	158
447.209	946
447.280	-1168
447.351	-1241
447.422	-1429
447.493	-610
447.564	70
447.635	941
447.706	381
447.777	-788
447.847	-647
447.918	-1574
447.989	48
448.060	45
448.131	1055
448.202	2677
448.273	1886
448.344	581
448.414	-623
448.485	-624
448.556	-459
448.627	-977
448.698	-176
448.768	-898
448.839	-1116
448.910	578
448.981	671
449.051	93
449.122	-1011
449.193	-129
449.263	-595
449.334	-961
449.405	-220
449.475	1762
449.546	1520
449.616	573
449.687	949
449.758	382
449.828	-1025
449.899	-701
449.969	-1110
450.040	-1147
450.110	-1016
450.181	263
450.251	-644
450.322	-662
450.392	-559
450.463	-933
450.533	-791
450.604	-444
450.674	-819
450.744	-193
450.815	-962
450.885	-239
450.955	-129
451.026	-1006
451.096	-945
451.166	76
451.237	-241
451.307	4227
451.377	2856
451.447	-405
451.518	-796
451.588	-553
451.658	-735
451.728	162
451.799	2017
451.869	6441
451.939	2164
452.009	-86
452.079	-1009
452.149	30
452.219	-348
452.289	3345
452.360	5916
452.430	1385
452.500	-428
452.570	-159
452.640	804
452.710	2482
452.780	7709
452.850	5711
452.920	6036
452.990	3037
453.060	-57
453.129	598
453.199	1312
453.269	3507
453.339	19296
453.409	35145
453.479	22090
453.549	36832
453.619	41986
453.688	26743
453.758	4052
453.828	-41
453.898	254
453.968	-62
454.037	-743
454.087	-449
454.107	-360
454.168	-1190
454.177	-1351
454.247	-367
454.249	-327
454.316	-302
454.330	-150
454.386	106
454.411	873
454.456	1376
454.492	3927
454.525	6134
454.574	3656
454.595	2631
454.655	652
454.665	355
454.734	897
454.736	1065
454.804	3322
454.817	4278
454.873	5768
454.898	6921
454.943	8654
454.979	6476
455.013	5025
455.060	2713
455.082	1956
455.141	3245
455.152	3300
455.221	7109
455.222	7380
455.291	10281
455.303	9981
455.360	9620
455.384	9771
455.430	8694
455.465	8945
455.499	9148
455.546	8625
455.569	7348
455.627	6089
455.638	6190
455.707	1413
455.708	1445
455.777	1048
455.789	1012
455.846	757
455.869	749
455.916	642
455.950	789
455.985	810
456.031	1329
456.054	1507
456.112	1071
456.124	999
456.193	579
456.193	543
456.262	789
456.274	961
456.332	1529
456.355	1912
456.401	2197
456.436	1678
456.470	1282
456.516	914
456.540	671
456.597	829
456.609	862
456.678	537
456.678	508
456.747	359
456.759	380
456.817	765
456.840	1094
456.886	1562
456.920	1278
456.955	1031
457.001	1427
457.024	1736
457.082	2595
457.093	2667
457.162	3524
457.163	3566
457.232	3585
457.243	3369
457.301	2224
457.324	1961
457.370	1903
457.405	2032
457.439	2118
457.485	2404
457.508	2617
457.566	3310
457.577	3520
457.646	5384
457.647	5432
457.715	8008
457.727	8656
457.784	13405
457.808	16011
457.853	17390
457.889	18760
457.922	16942
457.969	13691
457.991	15765
458.050	20349
458.060	21394
458.129	32445
458.130	32818
458.198	20998
458.211	18519
458.267	11721
458.292	8463
458.336	8579
458.372	8941
458.405	12314
458.453	18207
458.474	23052
458.533	37643
458.543	38178
458.611	46334
458.614	46772
458.680	22945
458.694	17006
458.749	10756
458.775	7699
458.818	5190
458.855	4506
458.887	4410
458.936	4251
458.955	4176
459.016	4220
459.024	4288
459.093	5299
459.097	5322
459.162	4929
459.177	5159
459.230	6622
459.257	7324
459.299	7533
459.338	7558
459.368	7769
459.418	8179
459.437	7520
459.499	5877
459.505	5905
459.574	5029
459.579	5033
459.643	5282
459.659	5327
459.711	5157
459.740	5257
459.780	5746
459.820	6105
459.849	6357
459.900	7174
459.917	7196
459.981	7325
459.986	7330
460.054	7219
460.061	7190
460.123	7704
460.141	8071
460.191	9848
460.222	11048
460.260	12109
460.302	13207
460.328	12122
460.382	9882
460.397	9957
460.462	9790
460.465	10134
460.534	18716
460.543	19850
460.602	42753
460.623	51135
460.671	83673
460.703	107412
460.739	81534
460.783	50510
460.808	41531
460.864	12468
460.876	11475
460.944	7120
460.945	7062
461.013	6832
461.024	6701
461.081	6975
461.104	7406
461.150	7014
461.184	6509
461.218	6529
461.264	6645
461.286	6902
461.345	7090
461.355	6975
461.423	6765
461.425	6763
461.491	8624
461.505	9045
461.559	15598
461.585	18602
461.628	28117
461.665	36849
461.696	37372
461.745	39262
461.764	32912
461.825	10549
461.832	10578
461.901	9005
461.905	9029
461.969	7931
461.985	7615
462.037	7818
462.065	8168
462.105	9789
462.145	10955
462.173	14167
462.225	20460
462.241	22316
462.305	30532
462.310	29465
462.378	13084
462.385	11059
462.446	9027
462.465	8357
462.514	8506
462.545	8889
462.582	8854
462.625	8907
462.650	8542
462.705	7660
462.718	7985
462.785	9844
462.786	9919
462.854	13920
462.865	14557
462.922	16050
462.945	16782
462.990	12352
463.025	8642
463.058	8250
463.104	7467
463.126	7434
463.184	7644
463.194	7774
463.262	8598
463.264	8627
463.330	8729
463.344	8746
463.398	9662
463.424	9984
463.466	9591
463.504	9470
463.533	9594
463.583	9363
463.601	9900
463.663	12114
463.669	12497
463.737	16642
463.743	17003
463.805	24305
463.823	26513
463.873	39404
463.903	46960
463.940	45682
463.982	44993
464.008	35416
464.062	14243
464.076	13716
464.142	9860
464.144	9823
464.211	8914
464.221	8804
464.279	10004
464.301	10530
464.347	11151
464.381	11570
464.414	13190
464.461	15253
464.482	15600
464.540	16718
464.550	16456
464.617	14235
464.620	14135
464.685	15036
464.699	15243
464.753	18667
464.779	20297
464.820	21048
464.859	21781
464.888	21515
464.938	20799
464.956	20569
465.018	19610
465.023	19446
465.091	16896
465.098	16608
465.158	17397
465.177	17618
465.226	17060
465.257	16628
465.293	17599
465.336	18690
465.361	20178
465.416	23390
465.428	24877
465.495	32809
465.496	32991
465.563	52441
465.575	55738
465.631	61246
465.654	63571
465.698	39633
465.734	19575
465.765	18626
465.813	16685
465.833	16798
465.893	17465
465.900	17456
465.968	17286
465.972	17235
466.035	17547
466.052	17604
466.102	17826
466.131	17852
466.170	18141
466.210	18455
466.237	19121
466.290	20249
466.304	20477
466.369	21335
466.372	21432
466.439	23038
466.449	23216
466.506	25994
466.528	26993
466.573	36459
466.607	43472
466.641	59875
466.687	82482
466.708	87287
466.766	100010
466.775	92742
466.842	36749
466.845	34010
466.909	29049
466.925	27825
466.977	27223
467.004	26864
467.044	27985
467.083	29014
467.111	31202
467.163	35131
467.178	35575
467.242	37032
467.245	36911
467.312	32748
467.321	32126
467.379	31397
467.400	31031
467.446	33478
467.480	35125
467.559	28550
467.638	26720
467.717	26108
467.796	28399
467.875	30916
467.955	30423
468.034	46386
468.113	92394
468.192	119882
468.271	32353
468.350	27501
468.429	31229
468.508	30018
468.588	25917
468.667	24721
468.746	26323
468.825	24084
468.904	21622
468.983	25397
469.062	38053
469.141	40139
469.220	21225
469.299	21937
469.378	24637
469.456	28947
469.535	25299
469.614	23974
469.693	26889
469.772	31825
469.851	42490
469.930	27681
470.009	23621
470.088	24037
470.166	29847
470.245	41069
470.324	47876
470.403	33474
470.482	25229
470.560	24213
470.639	23853
470.718	26966
470.797	22433
470.875	26515
470.954	35544
471.033	34658
471.111	18088
471.190	17648
471.269	17546
471.347	18421
471.426	20068
471.505	23284
471.583	25004
471.662	22552
471.740	20538
471.819	21029
471.898	19938
471.976	19584
472.055	19789
472.133	23219
472.212	30104
472.290	28727
472.369	19917
472.447	18925
472.526	18098
472.604	19584
472.683	21062
472.761	21957
472.839	20803
472.918	18778
472.996	19608
473.075	21363
473.153	20864
473.231	18694
473.310	22759
473.388	20864
473.466	20168
473.545	23391
473.623	29310
473.701	27422
473.780	20460
473.858	19917
473.936	21098
474.014	20014
474.093	23058
474.171	31147
474.249	40205
474.327	24499
474.405	17333
474.484	17293
474.562	17965
474.640	18804
474.718	19993
474.796	20726
474.874	19030
474.952	17288
475.030	19154
475.108	19656
475.187	24078
475.265	25732
475.343	34796
475.421	34576
475.499	18419
475.577	19917
475.655	25706
475.733	46218
475.811	74861
475.889	68385
475.966	38081
476.044	20305
476.122	26348
476.200	31950
476.278	23804
476.356	18067
476.434	19182
476.512	23677
476.590	30762
476.667	25069
476.745	17210
476.823	18732
476.901	16814
476.979	18354
477.056	18488
477.134	19562
477.212	19949
477.290	17639
477.367	15876
477.445	16439
477.523	16162
477.601	16461
477.678	16957
477.756	20710
477.834	20609
477.911	15851
477.989	16219
478.066	16163
478.144	20186
478.222	24881
478.299	39989
478.377	31353
478.454	15577
478.532	14394
478.609	16767
478.687	17398
478.764	15550
478.842	16586
478.919	18051
478.997	16341
479.074	15558
479.152	18122
479.229	23041
479.307	14617
479.384	13472
479.461	14154
479.539	15226
479.616	18376
479.694	15389
479.771	17156
479.848	18799
479.926	24098
480.003	22902
480.080	15385
480.157	13770
480.235	13321
480.312	14546
480.389	17987
480.467	25800
480.544	31037
480.621	17387
480.698	17153
480.775	19700
480.853	18767
480.930	15516
481.007	16405
481.084	20868
481.161	23799
481.238	18927
481.315	14392
481.392	14139
481.470	15128
481.547	15693
481.624	15025
481.701	14848
481.778	15862
481.855	17958
481.932	26309
482.009	43953
482.086	25941
482.163	16941
482.240	27535
482.317	48536
482.393	30147
482.470	15641
482.547	16450
482.624	15913
482.701	16465
482.778	15027
482.855	12415
482.932	13976
483.009	13860
483.085	17056
483.162	21945
483.239	19705
483.316	14686
483.393	14556
483.469	13975
483.546	16809
483.623	17035
483.699	13223
483.776	14431
483.853	17150
483.930	28058
484.006	68087
484.083	108156
484.160	56100
484.236	83492
484.313	59640
484.389	47038
484.466	42375
484.543	42030
484.619	41355
484.696	42981
484.772	44027
484.849	45701
484.925	39287
485.002	38676
485.078	40805
485.155	40312
485.231	36143
485.308	35681
485.384	37358
485.461	47254
485.537	71017
485.614	73351
485.690	36036
485.766	35356
485.843	38490
485.919	50087
485.995	48566
486.072	31864
486.148	32861
486.224	31998
486.301	33667
486.377	39802
486.453	40393
486.530	37754
486.606	50916
486.682	53833
486.758	62192
486.835	68327
486.911	56575
486.987	90488
487.063	94432
487.139	112257
487.215	78414
487.292	40573
487.368	36452
487.444	42295
487.520	53315
487.596	53235
487.672	78456
487.748	177666
487.824	232338
487.900	75362
487.976	44221
488.052	42925
488.128	51579
488.204	40353
488.280	34820
488.356	43658
488.432	79848
488.508	108365
488.584	38504
488.660	31722
488.736	30245
488.812	33508
488.888	40898
488.964	59477
489.039	116649
489.115	161901
489.191	84026
489.267	33571
489.343	30661
489.418	27261
489.494	26603
489.570	25728
489.646	27403
489.722	27487
489.797	29967
489.873	45488
489.949	87319
490.024	61411
490.100	26319
490.176	27211
490.251	33282
490.327	41084
490.403	25782
490.478	25198
490.554	21866
490.629	23112
490.705	22705
490.781	25185
490.856	23477
490.932	28466
491.007	27638
491.083	26651
491.158	24742
491.234	35799
491.309	67206
491.385	57822
491.460	24221
491.536	26441
491.611	22686
491.686	26190
491.762	37213
491.837	73216
491.913	116801
491.988	161597
492.063	178863
492.139	49402
492.214	31778
492.289	19822
492.365	20043
492.440	24973
492.515	23859
492.590	24275
492.666	19363
492.741	28868
492.816	38324
492.891	20721
492.967	18941
493.042	17712
493.117	18706
493.192	18739
493.267	28224
493.342	58109
493.418	58914
493.493	20380
493.568	16467
493.643	18604
493.718	24621
493.793	34489
493.868	37469
493.943	23605
494.018	19891
494.093	17795
494.168	17289
494.243	16230
494.318	15134
494.393	16409
494.468	16705
494.543	16572
494.618	19333
494.693	16576
494.768	16399
494.842	17606
494.917	15454
494.992	17867
495.067	14639
495.142	14578
495.217	16912
495.292	16238
495.366	19563
495.441	24618
495.516	31333
495.591	52992
495.665	159526
495.740	332866
495.815	102798
495.890	26667
495.964	21745
496.039	23590
496.114	23973
496.188	28430
496.263	26356
496.338	21539
496.412	26265
496.487	28295
496.561	30366
496.636	30738
496.710	25563
496.785	28754
496.860	31581
496.934	26273
497.009	26339
497.083	26992
497.158	29725
497.232	33807
497.307	39398
497.381	35251
497.455	40706
497.530	47811
497.604	36849
497.679	40074
497.753	61012
497.827	73653
497.902	71054
497.976	89020
498.050	195743
498.125	574993
498.199	463481
498.273	101051
498.348	85376
498.422	72472
498.496	67317
498.570	56754
498.645	45783
498.719	41619
498.793	45282
498.867	66096
498.941	93540
499.016	248316
499.090	572009
499.164	138865
499.238	28404
499.312	26932
499.386	35923
499.460	30036
499.534	26796
499.609	34442
499.683	46920
499.757	48341
499.831	123955
499.905	399348
499.979	288099
500.053	51749
500.127	50666
500.201	36558
500.275	25545
500.349	24914
500.422	29602
500.496	47821
500.570	105771
500.644	235902
500.718	371511
500.792	59061
500.866	24666
500.940	31417
501.013	24998
501.087	27792
501.161	50138
501.235	67767
501.309	146846
501.382	366537
501.456	244561
501.530	66912
501.603	111052
501.677	34088
501.751	18608
501.825	25855
501.898	54568
501.972	143756
502.046	65966
502.119	28772
502.193	69209
502.266	151640
502.340	59792
502.413	73188
502.487	123734
502.561	62454
502.634	20975
502.708	20610
502.781	17949
502.855	14963
502.928	13278
503.002	14251
503.075	13750
503.149	14680
503.222	13961
503.295	16715
503.369	20970
503.442	36617
503.516	115296
503.589	251056
503.662	133181
503.736	52134
503.809	119819
503.882	91288
503.956	152124
504.029	119401
504.102	100366
504.175	113178
504.249	39773
504.322	26286
504.395	21833
504.468	15976
504.542	15672
504.615	13362
504.688	11725
504.761	12800
504.834	16632
504.907	22651
504.980	32542
505.053	19326
505.127	25033
505.200	25168
505.273	21978
505.346	13094
505.419	12889
505.492	11203
505.565	9680
505.638	10154
505.711	9698
505.784	10396
505.857	9604
505.930	11618
506.003	10207
506.076	12967
506.149	17102
506.221	20713
506.294	22699
506.367	67604
506.440	192086
506.513	72190
506.586	22230
506.659	13400
506.731	12428
506.804	16794
506.877	22368
506.950	14943
507.022	11265
507.095	16149
507.168	18714
507.241	11723
507.313	11011
507.386	12536
507.459	16598
507.531	11296
507.604	10179
507.677	10037
507.749	10438
507.822	16726
507.894	32014
507.967	35348
508.040	19813
508.112	17765
508.185	16906
508.257	17902
508.330	24158
508.402	16050
508.475	16158
508.547	16659
508.620	16895
508.692	25849
508.765	15497
508.837	12898
508.909	12548
508.982	13088
509.054	14865
509.127	12943
509.199	11635
509.271	12071
509.344	12516
509.416	12291
509.488	12063
509.560	12660
509.633	13331
509.705	15665
509.777	15484
509.849	21207
509.922	14379
509.994	12562
510.066	13386
510.138	16337
510.210	30729
510.283	26789
510.355	20740
510.427	17833
510.499	18039
510.571	17695
510.643	19899
510.715	30761
510.787	24293
510.859	18310
510.931	22195
511.003	30656
511.076	23172
511.148	15378
511.219	17552
511.291	26536
511.363	26188
511.435	14722
511.507	14534
511.579	13572
511.651	15237
511.723	13940
511.795	13791
511.867	16071
511.939	19539
512.010	35560
512.082	23952
512.154	15483
512.226	16606
512.298	26680
512.369	35342
512.441	26145
512.513	25634
512.585	19947
512.656	20882
512.728	22911
512.800	17140
512.871	16902
512.943	16856
513.015	16436
513.086	17782
513.158	18660
513.230	19031
513.301	26138
513.373	27541
513.444	18244
513.516	15307
513.588	16173
513.659	17545
513.731	21582
513.802	21968
513.874	42868
513.945	63095
514.016	21041
514.088	16350
514.159	19901
514.231	24919
514.302	32557
514.374	22977
514.445	24450
514.516	43243
514.588	28184
514.659	24788
514.730	40260
514.802	29117
514.873	28762
514.944	28095
515.016	24595
515.087	27083
515.158	34180
515.229	40087
515.301	31799
515.372	40539
515.443	26641
515.514	21559
515.585	16349
515.656	17278
515.728	16056
515.799	16734
515.870	17019
515.941	17524
516.012	18985
516.083	23974
516.154	26497
516.225	31112
516.296	28149
516.367	24839
516.438	32052
516.509	46333
516.580	87670
516.651	263995
516.722	766101
516.793	245880
516.864	51236
516.935	49169
517.006	63008
517.077	107776
517.148	281956
517.219	900951
517.289	1137301
517.360	270553
517.431	69893
517.502	31182
517.573	30483
517.643	28249
517.714	29929
517.785	30441
517.856	31191
517.926	35446
517.997	42006
518.068	56340
518.138	91491
518.209	191297
518.280	635416
518.350	1753348
518.421	550043
518.492	67998
518.562	42028
518.633	40460
518.703	43085
518.774	71665
518.845	142919
518.915	113165
518.986	45744
519.056	41661
519.127	67646
519.197	104794
519.268	208895
519.338	102732
519.408	33900
519.479	41001
519.549	28129
519.620	20457
519.690	17701
519.760	17719
519.831	18752
519.901	18437
519.971	15496
520.042	18158
520.112	20784
520.182	22797
520.253	25381
520.323	19703
520.393	32543
520.463	44916
520.534	35003
520.604	62864
520.674	26505
520.744	32328
520.814	77914
520.885	60980
520.955	79984
521.025	233246
521.095	64541
521.165	18281
521.235	15762
521.305	14812
521.375	14743
521.445	17230
521.515	22535
521.585	26500
521.655	23557
521.725	20345
521.795	17523
521.865	15209
521.935	24166
522.005	18655
522.075	13012
522.145	15331
522.215	17205
522.285	25333
522.355	34176
522.424	58757
522.494	46954
522.564	29366
522.634	63061
522.704	157899
522.774	48218
522.843	16381
522.913	15528
522.983	20988
523.053	15695
523.122	17051
523.192	29879
523.262	85338
523.331	67729
523.401	14768
523.471	11693
523.540	12942
523.610	11495
523.680	11679
523.749	12886
523.819	17009
523.888	16369
523.958	11778
524.027	12939
524.097	13112
524.166	13212
524.236	14845
524.305	13982
524.375	11564
524.444	12481
524.514	13724
524.583	14602
524.653	17205
524.722	18985
524.791	12331
524.861	13142
524.930	11797
524.999	13005
525.069	19351
525.138	15427
525.207	18274
525.277	13110
525.346	13218
525.415	13060
525.484	14450
525.554	16926
525.623	15489
525.692	15038
525.761	14596
525.830	15428
525.900	19462
525.969	31394
526.038	52944
526.107	110194
526.176	266536
526.245	182081
526.314	73143
526.383	155513
526.452	188714
526.522	323310
526.591	262195
526.660	79908
526.729	44717
526.797	66503
526.867	161749
526.935	542308
527.004	747960
527.073	302560
527.142	30853
527.211	19062
527.280	20622
527.349	19773
527.418	12106
527.487	12192
527.555	12190
527.624	10468
527.693	10068
527.762	10855
527.831	9579
527.899	10877
527.968	11703
528.037	10735
528.106	14778
528.174	26058
528.243	20943
528.312	30040
528.380	33893
528.449	11755
528.518	9979
528.586	7799
528.655	9697
528.723	8674
528.792	9136
528.861	9914
528.929	8924
528.998	9972
529.066	8231
529.135	8926
529.203	7912
529.272	8721
529.340	9967
529.409	10983
529.477	9536
529.545	13158
529.614	15177
529.682	15529
529.751	16320
529.819	18524
529.887	12413
529.956	9352
530.024	10245
530.092	9548
530.161	12322
530.229	18643
530.297	10837
530.365	9149
530.434	7774
530.502	7802
530.570	8533
530.638	7856
530.707	10088
530.775	11260
530.843	8695
530.911	9077
530.979	8633
531.047	8977
531.115	8936
531.183	8895
531.252	9346
531.320	8863
531.388	7990
531.456	8916
531.524	7597
531.592	9153
531.660	10330
531.728	9484
531.796	8199
531.864	8585
531.932	9655
532.000	9031
532.067	9660
532.135	11030
532.203	13332
532.271	14777
532.339	24835
532.407	58879
532.475	30001
532.542	17262
532.610	22237
532.678	41426
532.746	145295
532.814	289197
532.881	57025
532.949	12752
533.017	10684
533.084	9615
533.152	9040
533.220	10323
533.287	11968
533.355	9229
533.423	8943
533.490	9032
533.558	9353
533.625	10215
533.693	11189
533.761	10793
533.828	11623
533.896	11027
533.963	22816
534.031	27407
534.098	39852
534.166	16635
534.233	10141
534.300	10832
534.368	11049
534.435	10245
534.503	11883
534.570	13930
534.637	11740
534.705	14441
534.772	20591
534.840	40211
534.907	130350
534.974	125448
535.041	17746
535.109	14614
535.176	9573
535.243	10510
535.310	10876
535.378	9236
535.445	8685
535.512	10172
535.579	9965
535.646	9177
535.714	10728
535.781	13402
535.848	11900
535.915	12088
535.982	10877
536.049	10211
536.116	11665
536.183	10166
536.250	10995
536.317	11537
536.384	14443
536.451	18907
536.518	19805
536.585	14554
536.652	17997
536.719	23236
536.786	19098
536.853	16789
536.920	26281
536.987	42276
537.053	52253
537.120	161374
537.187	110412
537.254	13057
537.321	10753
537.388	12564
537.454	10497
537.521	10225
537.588	10377
537.654	13495
537.721	14714
537.788	14610
537.855	11307
537.921	11454
537.988	12038
538.055	12465
538.121	11640
538.188	13775
538.254	20064
538.321	35010
538.388	21381
538.454	12054
538.521	10586
538.587	10287
538.654	9632
538.720	10874
538.787	10191
538.853	12294
538.920	15160
538.986	14650
539.053	12881
539.119	12794
539.185	13761
539.252	16527
539.318	23142
539.385	16988
539.451	16594
539.517	17732
539.583	25578
539.650	52863
539.716	112005
539.782	25468
539.849	13258
539.915	12358
539.981	13878
540.047	16036
540.114	13310
540.180	13534
540.246	14824
540.312	21350
540.378	37580
540.444	41309
540.510	53333
540.576	125996
540.643	31969
540.709	12984
540.775	12412
540.841	13203
540.907	19305
540.973	28460
541.039	21154
541.105	22147
541.171	14747
541.237	12828
541.303	14451
541.369	16511
541.435	20332
541.500	31298
541.566	19344
541.632	12334
541.698	10764
541.764	11268
541.830	11004
541.896	11117
541.961	12233
542.027	13410
542.093	12576
542.159	14031
542.224	15416
542.290	22152
542.356	32529
542.421	34526
542.487	16427
542.553	13306
542.618	14611
542.684	13694
542.750	15198
542.815	22062
542.881	38044
542.947	112867
543.012	67525
543.078	12564
543.143	12142
543.209	14700
543.274	16030
543.340	21609
543.405	45619
543.471	61454
543.536	14921
543.602	12282
543.667	12082
543.732	12156
543.798	11354
543.863	12592
543.928	11047
543.994	10707
544.059	10985
544.124	11871
544.190	11432
544.255	12241
544.320	12140
544.386	14255
544.451	19137
544.516	23776
544.581	29215
544.646	75149
544.712	97726
544.777	19315
544.842	16529
544.907	16866
544.972	14944
545.037	14483
545.102	15870
545.168	15475
545.233	16246
545.298	18502
545.363	23185
545.428	26451
545.493	44385
545.558	87346
545.623	31109
545.688	17036
545.753	15607
545.818	16511
545.883	17414
545.947	15974
546.012	18018
546.077	18842
546.142	18540
546.207	17394
546.272	23680
546.337	23868
546.401	18689
546.466	18168
546.531	17260
546.596	19365
546.661	19813
546.725	19078
546.790	17628
546.855	17649
546.919	18675
546.984	21057
547.049	23366
547.113	26153
547.178	24665
547.243	27920
547.307	32310
547.372	35277
547.436	36585
547.501	32070
547.565	34240
547.630	34792
547.695	34638
547.759	35708
547.823	32957
547.888	29184
547.952	31296
548.017	34228
548.081	38637
548.146	43032
548.210	37473
548.274	34130
548.339	32971
548.403	30985
548.468	30031
548.532	29072
548.596	29974
548.660	30910
548.725	34411
548.789	38498
548.853	37345
548.917	34944
548.982	38945
549.046	35931
549.110	27142
549.174	28800
549.238	31327
549.303	32108
549.367	34864
549.431	31705
549.495	30451
549.559	31902
549.623	36479
549.687	40739
549.751	49469
549.815	43760
549.879	43221
549.943	40059
550.007	44549
550.071	44493
550.135	45579
550.199	39626
550.263	38171
550.327	38419
550.391	44303
550.455	41726
550.519	41828
550.582	47003
550.646	56800
550.710	55606
550.774	47284
550.838	47414
550.901	49185
550.965	54078
551.029	55736
551.093	64938
551.156	76629
551.220	105769
551.284	110020
551.347	74692
551.411	94729
551.475	89520
551.538	51010
551.602	45193
551.666	42872
551.729	39036
551.793	40259
551.856	39713
551.920	39639
551.983	39078
552.047	39740
552.110	39514
552.174	39189
552.237	40006
552.301	37655
552.364	36048
552.428	35784
552.491	36947
552.554	39297
552.618	40175
552.681	42028
552.745	45809
552.808	62466
552.871	79692
552.934	50254
552.998	39298
553.061	39184
553.124	36014
553.187	35108
553.251	37443
553.314	39301
553.377	39203
553.440	48229
553.503	66965
553.567	75629
553.630	39442
553.693	37145
553.756	36899
553.819	35826
553.882	34664
553.945	35607
554.008	35445
554.071	34537
554.134	35006
554.197	33017
554.260	32570
554.323	35087
554.386	34954
554.449	35538
554.512	35422
554.575	33472
554.638	33649
554.701	33863
554.764	32153
554.827	31502
554.889	29032
554.952	27752
555.015	28385
555.078	28744
555.141	29704
555.203	28964
555.266	29363
555.329	29010
555.391	27191
555.454	29103
555.517	28059
555.580	25958
555.642	25893
555.705	25469
555.768	25623
555.830	25136
555.893	23325
555.955	24740
556.018	24055
556.080	24961
556.143	23123
556.206	22361
556.268	24759
556.330	25199
556.393	24307
556.455	24374
556.518	30494
556.580	27827
556.643	21437
556.705	21902
556.767	21409
556.830	22760
556.892	23849
556.955	31549
557.017	25368
557.079	22092
557.142	22155
557.204	24453
557.266	39244
557.328	31463
557.391	19561
557.453	18176
557.515	19483
557.577	21756
557.639	22392
557.701	18704
557.764	17694
557.826	18373
557.888	21741
557.950	23350
558.012	27383
558.074	39494
558.136	76600
558.198	154367
558.260	45183
558.322	21628
558.384	23338
558.446	24891
558.508	30556
558.570	42965
558.632	70032
558.694	111308
558.756	148158
558.818	350948
558.880	708676
558.942	184745
559.003	161424
559.065	64517
559.127	31354
559.189	36841
559.251	52091
559.312	84434
559.374	168786
559.436	466835
559.498	179092
559.559	34808
559.621	37693
559.683	54984
559.744	94657
559.806	237750
559.868	295376
559.929	51475
559.991	44097
560.052	65158
560.114	162949
560.176	95138
560.237	95744
560.299	133093
560.360	28244
560.422	17651
560.483	17317
560.545	16075
560.606	15890
560.667	15684
560.729	13955
560.790	14214
560.852	15162
560.913	14958
560.974	15048
561.036	14024
561.097	13799
561.158	14303
561.220	15150
561.281	14918
561.342	16357
561.403	20826
561.465	24450
561.526	46851
561.587	56810
561.648	17378
561.709	14380
561.771	13621
561.832	13526
561.893	13537
561.954	14031
562.015	13017
562.076	13390
562.137	12920
562.198	13524
562.259	14691
562.320	15332
562.381	15728
562.442	21339
562.503	17135
562.564	13570
562.625	13081
562.686	13170
562.747	15572
562.808	14834
562.869	13238
562.930	18076
562.991	15702
563.051	14351
563.112	13865
563.173	13718
563.234	13425
563.294	13864
563.355	13651
563.416	14477
563.477	13747
563.537	13199
563.598	15179
563.659	13668
563.720	13706
563.780	13842
563.841	15051
563.901	14494
563.962	12536
564.023	13385
564.083	13736
564.144	14867
564.204	14406
564.265	15540
564.325	16670
564.386	27929
564.446	23715
564.507	14092
564.567	12926
564.628	14193
564.688	14135
564.749	13086
564.809	16421
564.869	15914
564.930	14144
564.990	13897
565.050	13139
565.111	14081
565.171	13085
565.231	14180
565.292	13798
565.352	12730
565.412	14000
565.472	14407
565.532	14279
565.593	13404
565.653	13817
565.713	14635
565.773	15657
565.833	17788
565.893	20479
565.953	14774
566.013	15167
566.074	17072
566.134	19744
566.194	28081
566.254	27278
566.314	19364
566.374	15527
566.434	15923
566.494	16686
566.554	17217
566.614	17263
566.673	18731
566.733	19476
566.793	20525
566.853	21949
566.913	20958
566.973	22434
567.033	22186
567.092	21931
567.152	22341
567.212	21718
567.272	22829
567.331	24133
567.391	24651
567.451	26180
567.511	29790
567.570	28302
567.630	22010
567.690	21532
567.749	20939
567.809	23018
567.868	26662
567.928	30888
567.988	36481
568.047	42191
568.107	55976
568.166	76806
568.226	113714
568.285	149175
568.345	123089
568.404	96751
568.464	81599
568.523	77760
568.582	82226
568.642	96990
568.701	125101
568.761	175243
568.820	258277
568.879	243441
568.939	179466
568.998	126064
569.057	93467
569.116	73344
569.176	57294
569.235	47801
569.294	42219
569.353	36959
569.413	32534
569.472	29235
569.531	26575
569.590	23665
569.649	23609
569.708	21659
569.767	21180
569.827	23963
569.886	20685
569.945	17611
570.004	17859
570.063	17735
570.122	17711
570.181	19302
570.240	18103
570.299	19793
570.358	19816
570.417	15786
570.475	14702
570.534	15548
570.593	15895
570.652	16487
570.711	16799
570.770	14396
570.829	15862
570.887	15707
570.946	17108
571.005	13576
571.064	14415
571.122	16004
571.181	16216
571.240	12975
571.299	12934
571.357	13376
571.416	14238
571.475	15443
571.533	15170
571.592	13420
571.650	14196
571.709	12977
571.768	13275
571.826	13016
571.885	12523
571.943	11727
572.002	11967
572.060	12299
572.119	11343
572.177	11972
572.236	11338
572.294	11368
572.352	11402
572.411	10970
572.469	12148
572.528	11892
572.586	12578
572.644	13152
572.703	17153
572.761	11983
572.819	11412
572.877	11096
572.936	11255
572.994	10945
573.052	11565
573.110	11820
573.169	11606
573.227	9910
573.285	10827
573.343	10428
573.401	10560
573.459	10417
573.517	9847
573.576	10487
573.634	11908
573.692	11932
573.750	11602
573.808	11326
573.866	10916
573.924	14534
573.982	13349
574.040	11481
574.098	10868
574.155	9821
574.213	9618
574.271	9951
574.329	10371
574.387	9305
574.445	9705
574.503	9307
574.560	9123
574.618	9688
574.676	9734
574.734	8888
574.792	10421
574.849	9083
574.907	9295
574.965	9281
575.022	9115
575.080	9252
575.138	9562
575.195	9616
575.253	10061
575.311	10667
575.368	9682
575.426	9388
575.483	9701
575.541	9207
575.598	9246
575.656	10899
575.713	9924
575.771	8776
575.828	9518
575.886	9615
575.943	10253
576.001	10591
576.058	9919
576.115	11309
576.173	12115
576.230	13028
576.287	14104
576.345	12443
576.402	10573
576.459	10261
576.517	10585
576.574	11593
576.631	11156
576.688	10577
576.746	10388
576.803	9993
576.860	9580
576.917	10344
576.974	10269
577.031	10290
577.089	10221
577.146	9963
577.203	9919
577.260	10859
577.317	11054
577.374	12126
577.431	11388
577.488	10621
577.545	9493
577.602	10262
577.659	10485
577.716	9905
577.773	10508
577.830	9388
577.886	9615
577.943	9902
578.000	10887
578.057	10383
578.114	10171
578.171	10630
578.227	10688
578.284	9168
578.341	10469
578.398	9814
578.454	11529
578.511	12326
578.568	13681
578.625	11833
578.681	10061
578.738	9571
578.794	9241
578.851	10726
578.908	10126
578.964	11380
579.021	10148
579.077	10157
579.134	10370
579.190	10164
579.247	9767
579.303	10576
579.360	9679
579.416	10543
579.473	10207
579.529	9619
579.586	9891
579.642	9296
579.698	10371
579.755	11013
579.811	10905
579.867	10056
579.924	9503
579.980	8922
580.036	10612
580.093	10099
580.149	11043
580.205	11181
580.261	10346
580.317	10589
580.374	12504
580.430	12458
580.486	12486
580.542	10376
580.598	11501
580.619	11172
580.654	10617
580.692	10514
580.710	10485
580.765	10275
580.767	10283
580.823	11278
580.838	11062
580.879	10540
580.911	10375
580.935	10281
580.984	11077
580.991	11203
581.047	11123
581.057	11207
581.103	11669
581.130	11794
581.159	11947
581.203	11812
581.215	11798
581.270	10949
581.276	10888
581.326	10415
581.349	10762
581.382	11312
581.422	11274
581.438	11271
581.494	11756
581.494	11737
581.550	10962
581.567	11171
581.606	11609
581.640	11293
581.661	11146
581.713	11748
581.717	11802
581.773	10967
581.786	11057
581.829	11428
581.859	11192
581.885	11012
581.932	11798
581.940	11964
581.996	11888
582.004	11787
582.052	11152
582.077	11090
582.107	11042
582.150	11190
582.163	11264
582.219	12190
582.223	12098
582.274	11044
582.296	11196
582.330	11485
582.368	11803
582.386	11952
582.441	10755
582.441	10759
582.497	11627
582.514	11418
582.552	11047
582.587	11082
582.608	11086
582.659	10913
582.663	10910
582.719	11783
582.732	11546
582.774	10685
582.805	10966
582.830	11333
582.877	11590
582.885	11599
582.941	10904
582.950	11031
582.996	11788
583.023	11879
583.052	11997
583.095	11805
583.107	11712
583.162	11879
583.168	11850
583.218	11696
583.240	11391
583.273	11025
583.313	11321
583.328	11447
583.384	11100
583.385	11109
583.439	11193
583.458	11041
583.494	10789
583.531	10709
583.549	10683
583.603	11448
583.605	11470
583.660	11129
583.676	11084
583.715	10897
583.748	11236
583.770	11495
583.820	12039
583.825	12079
583.881	11760
583.893	11588
583.936	11094
583.965	11030
583.991	10894
584.038	10855
584.046	10911
584.101	11609
584.110	11644
584.156	11314
584.183	11166
584.211	11177
584.255	11291
584.266	11295
584.321	11162
584.328	11199
584.376	11215
584.400	11362
584.431	11801
584.472	11415
584.486	11163
584.541	11966
584.545	11955
584.596	11895
584.617	12103
584.651	12482
584.689	12627
584.706	12576
584.761	12256
584.762	12262
584.816	11944
584.834	12253
584.871	12832
584.906	12687
584.926	12515
584.978	12789
584.980	12804
585.035	13383
585.051	13638
585.090	14203
585.123	14422
585.145	14388
585.195	14826
585.200	14874
585.254	15342
585.267	15540
585.309	16095
585.340	17797
585.364	19053
585.412	20517
585.419	20725
585.473	25417
585.484	26895
585.528	32723
585.556	36764
585.583	41199
585.628	52646
585.637	55757
585.692	101696
585.700	111111
585.747	160765
585.772	125488
585.801	74665
585.845	34093
585.856	26162
585.910	19242
585.917	18769
585.965	17511
585.989	17356
586.019	17196
586.061	16812
586.074	16660
586.128	16941
586.133	16958
586.183	16946
586.205	17599
586.237	18594
586.277	18256
586.292	17945
586.346	17858
586.349	17919
586.401	18715
586.421	19054
586.455	19268
586.493	20258
586.509	20977
586.564	23087
586.565	23310
586.618	31321
586.637	31104
586.672	28914
586.709	24578
586.727	22388
586.781	21821
586.781	21773
586.835	20428
586.853	20569
586.889	20633
586.925	20644
586.944	20573
586.996	21509
586.998	21493
587.052	22057
587.068	22334
587.106	22849
587.140	23492
587.161	23554
587.212	24062
587.215	24026
587.269	24732
587.284	24833
587.323	24982
587.356	25837
587.377	26369
587.427	27464
587.431	27441
587.485	27837
587.499	28270
587.539	29261
587.571	30133
587.593	30783
587.643	32806
587.648	32836
587.702	34787
587.715	35324
587.755	36666
587.786	37977
587.810	38831
587.858	40864
587.864	40977
587.917	44375
587.930	45442
587.971	48822
588.001	51676
588.025	53490
588.073	57756
588.079	58142
588.133	64668
588.145	66628
588.187	72608
588.217	77520
588.241	81587
588.288	92284
588.295	93404
588.348	108208
588.360	112349
588.402	127105
588.431	140364
588.456	150933
588.503	177923
588.510	181060
588.564	219393
588.575	230145
588.617	270429
588.646	304566
588.671	336120
588.718	409337
588.725	421499
588.778	545104
588.789	575955
588.832	743421
588.861	849704
588.886	971602
588.932	1098659
588.939	1094758
588.993	1058400
589.004	1092708
589.047	1097047
589.075	1035684
589.100	926748
589.147	641470
589.154	614717
589.207	456293
589.218	433581
589.261	389025
589.290	375393
589.314	375057
589.361	397806
589.368	404625
589.421	501475
589.433	529249
589.475	705034
589.504	809889
589.528	910157
589.576	1027304
589.582	1005892
589.635	941411
589.647	908047
589.689	671735
589.718	478281
589.742	387853
589.790	246792
589.795	236165
589.849	170838
589.861	159471
589.902	133602
589.932	117863
589.955	106479
590.004	87835
590.009	85851
590.062	73332
590.075	71012
590.115	63456
590.146	59039
590.168	55846
590.218	50560
590.222	49827
590.275	45009
590.289	44192
590.328	40968
590.360	38752
590.381	37178
590.431	35160
590.435	34783
590.488	32223
590.503	31722
590.541	29524
590.574	28568
590.594	28083
590.645	27176
590.647	26915
590.700	24939
590.716	24625
590.753	23975
590.787	23733
590.806	22961
590.859	21222
590.859	21053
590.912	20537
590.930	20533
590.965	20182
591.001	20147
591.018	19659
591.071	18603
591.072	18727
591.124	17691
591.143	17485
591.177	16754
591.214	16305
591.230	16276
591.283	16791
591.285	16921
591.336	16277
591.356	16290
591.389	16479
591.427	16905
591.442	16351
591.495	14644
591.498	14631
591.547	13269
591.569	12898
591.600	13184
591.640	13624
591.653	13494
591.706	13607
591.711	13712
591.759	13121
591.782	13065
591.811	13110
591.853	13431
591.864	13289
591.917	12931
591.924	12991
591.969	12513
591.995	12426
592.022	12135
592.066	11954
592.075	11787
592.127	11382
592.137	11435
592.180	12376
592.208	13081
592.233	12340
592.279	11224
592.285	11080
592.338	10818
592.350	10841
592.390	10315
592.421	10138
592.443	10186
592.491	10587
592.495	10497
592.548	10602
592.562	10726
592.600	10038
592.633	9629
592.653	9616
592.704	9790
592.705	9839
592.775	9620
592.846	10021
592.916	9501
592.987	10181
593.058	9386
593.128	9292
593.199	8913
593.270	9311
593.341	8621
593.411	9392
593.482	8744
593.553	9886
593.623	8321
593.694	9086
593.764	9955
593.835	9499
593.906	10250
593.976	8676
594.047	8900
594.117	9546
594.188	10573
594.258	10141
594.329	8279
594.399	10060
594.470	8941
594.540	9033
594.611	8354
594.681	8557
594.751	8907
594.822	9791
594.892	9806
594.963	9731
595.033	8960
595.103	10869
595.174	9912
595.244	12032
595.314	14738
595.384	10596
595.455	9379
595.525	10559
595.595	9292
595.665	10622
595.736	9822
595.806	10299
595.876	9260
595.946	9811
596.016	10617
596.087	9904
596.157	9825
596.227	10460
596.297	10789
596.367	11387
596.437	12176
596.507	12986
596.577	15056
596.647	12761
596.717	11534
596.787	11720
596.857	11682
596.927	12596
596.997	11444
597.067	12621
597.137	11875
597.207	12419
597.277	12002
597.347	11753
597.417	11703
597.487	12363
597.557	13189
597.626	12302
597.696	12973
597.766	13759
597.836	14452
597.906	12988
597.975	11221
598.045	10725
598.115	11994
598.185	11213
598.254	12407
598.324	13432
598.394	14618
598.464	14400
598.533	13585
598.603	13025
598.672	12074
598.742	12055
598.812	12962
598.881	12966
598.951	12747
599.020	12725
599.090	12719
599.159	13485
599.229	12979
599.299	11652
599.368	12291
599.437	12939
599.507	11957
599.576	12455
599.646	11341
599.715	11008
599.785	10975
599.854	11278
599.924	11778
599.993	11363
600.062	10680
600.132	11629
600.201	11623
600.270	13930
600.340	14316
600.409	12724
600.478	12465
600.547	13539
600.617	13032
600.686	11100
600.755	10421
600.824	10673
600.894	10479
600.963	8986
601.032	9162
601.101	9150
601.170	8437
601.239	8053
601.308	9657
601.378	8639
601.447	8919
601.516	8504
601.585	8461
601.654	10239
601.723	9665
601.792	9046
601.861	9078
601.930	10249
601.999	10496
602.068	9925
602.137	10675
602.206	10979
602.275	10245
602.343	10745
602.412	12430
602.481	9845
602.550	9340
602.619	10155
602.688	9634
602.756	10521
602.825	10054
602.894	10508
602.963	10395
603.032	10209
603.100	11387
603.169	10650
603.238	9804
603.307	10097
603.375	10500
603.444	10696
603.513	10293
603.581	10843
603.650	11317
603.719	10243
603.787	10945
603.856	10874
603.924	11670
603.993	12156
604.061	11606
604.130	12855
604.198	12400
604.267	13081
604.335	12918
604.404	12830
604.472	12685
604.541	13311
604.609	13134
604.678	13773
604.746	13126
604.815	13444
604.883	13467
604.951	14242
605.020	13673
605.088	14945
605.156	14732
605.225	14430
605.293	14529
605.361	14333
605.429	15286
605.498	14853
605.566	15903
605.634	16173
605.702	16421
605.771	17073
605.839	17288
605.907	15818
605.975	16191
606.043	16085
606.111	15907
606.180	16262
606.248	15492
606.316	15496
606.384	15593
606.452	17738
606.520	18152
606.588	17594
606.656	16509
606.724	15837
606.792	15079
606.860	13743
606.928	12425
606.996	13242
607.064	11245
607.132	11893
607.200	12173
607.267	13722
607.335	13382
607.403	13749
607.471	13279
607.539	13255
607.607	13092
607.674	12099
607.742	11482
607.810	11627
607.878	12230
607.946	12216
608.013	12155
608.081	12661
608.149	13004
608.216	12915
608.284	13716
608.352	13534
608.419	13149
608.487	14897
608.555	13747
608.622	13368
608.690	13374
608.757	14275
608.825	15592
608.893	15682
608.960	14724
609.028	16693
609.095	16098
609.163	14396
609.230	13516
609.298	12097
609.365	12046
609.432	12792
609.500	13707
609.567	15063
609.635	16445
609.702	18536
609.769	19518
609.837	16062
609.904	13985
609.971	12867
610.039	16246
610.106	20099
610.173	35388
610.241	86950
610.308	98421
610.375	60304
610.442	21930
610.509	13979
610.577	13599
610.644	13052
610.711	13364
610.778	13399
610.845	13939
610.912	14880
610.980	15537
611.047	16167
611.114	15900
611.181	15119
611.248	14310
611.315	15143
611.382	16224
611.449	15631
611.516	16883
611.583	16912
611.650	15874
611.717	16776
611.784	17089
611.851	18198
611.918	19347
611.984	22532
612.051	31312
612.118	63822
612.185	167656
612.252	170870
612.319	33304
612.386	22162
612.452	19957
612.519	19516
612.586	19461
612.653	19712
612.719	18864
612.786	18147
612.853	17676
612.919	16179
612.986	17125
613.053	15310
613.120	15196
613.186	13623
613.253	15426
613.319	14772
613.386	15012
613.453	14951
613.519	15413
613.586	17201
613.652	20943
613.719	18166
613.785	17613
613.852	15626
613.918	14380
613.985	14916
614.051	15960
614.118	19179
614.184	19719
614.250	14624
614.317	15025
614.383	14137
614.449	14429
614.516	15284
614.582	15004
614.648	16430
614.715	14969
614.781	14510
614.847	14770
614.914	15185
614.980	15004
615.046	14029
615.112	13703
615.179	15343
615.245	15651
615.311	16567
615.377	21237
615.443	25355
615.509	18019
615.575	17383
615.642	15736
615.708	17022
615.774	17661
615.840	19134
615.906	22326
615.972	31305
616.038	52820
616.104	97547
616.170	216394
616.236	290040
616.302	56393
616.368	29364
616.434	22211
616.500	19511
616.565	20441
616.631	25407
616.697	21657
616.763	20464
616.829	27761
616.895	50450
616.961	58513
617.026	27186
617.092	16764
617.158	15977
617.224	15901
617.289	14852
617.355	14209
617.421	13566
617.487	14693
617.552	13483
617.618	12930
617.684	13264
617.749	14457
617.815	12714
617.880	11828
617.946	11884
618.012	11946
618.077	12290
618.143	11679
618.208	13185
618.274	12351
618.339	13837
618.405	10968
618.470	11461
618.536	11575
618.601	11850
618.667	11104
618.732	10438
618.798	10527
618.863	10015
618.928	9570
618.994	10292
619.059	10837
619.124	13881
619.190	12941
619.255	10498
619.320	10481
619.386	10187
619.451	9533
619.516	9524
619.581	9464
619.647	10567
619.712	10280
619.777	10230
619.842	9684
619.907	9860
619.972	9415
620.038	9906
620.103	9332
620.168	9051
620.233	10014
620.298	9935
620.363	8485
620.428	10801
620.493	10201
620.558	10371
620.623	10648
620.688	10107
620.753	9269
620.818	10344
620.883	10874
620.948	10827
621.013	9404
621.078	10154
621.143	9629
621.207	11664
621.272	10738
621.337	12420
621.402	11350
621.467	11996
621.532	11449
621.596	11328
621.661	11419
621.726	9775
621.791	10397
621.855	10679
621.920	10327
621.985	11270
622.049	11830
622.114	11176
622.179	11019
622.243	11700
622.308	11372
622.373	12012
622.437	11219
622.502	10754
622.566	10357
622.631	10136
622.695	11139
622.760	11457
622.824	11141
622.889	11066
622.953	12274
623.018	13976
623.082	16300
623.147	11258
623.211	11278
623.276	11540
623.340	10615
623.404	10911
623.469	10758
623.533	10353
623.597	9900
623.662	10244
623.726	9315
623.790	8815
623.854	9182
623.919	9764
623.983	8736
624.047	10155
624.111	8992
624.176	10460
624.240	10608
624.304	11383
624.368	9078
624.432	9317
624.496	9425
624.560	10568
624.625	12387
624.689	10824
624.753	10522
624.817	10017
624.881	9459
624.945	9308
625.009	8778
625.073	8252
625.137	9237
625.201	11123
625.265	12119
625.329	9171
625.393	8852
625.456	9815
625.520	9879
625.584	10606
625.648	11448
625.712	13029
625.776	21849
625.839	28307
625.903	17377
625.967	9080
626.031	11145
626.095	17351
626.158	11887
626.222	7392
626.286	7020
626.349	7076
626.413	6050
626.477	6857
626.540	5816
626.604	6175
626.668	6864
626.731	6050
626.795	6320
626.858	7048
626.922	6673
626.986	6378
627.049	5442
627.113	6326
627.176	5946
627.240	6053
627.303	5667
627.366	5937
627.430	6723
627.493	6270
627.557	5870
627.620	5799
627.684	5370
627.747	5857
627.810	5893
627.874	6075
627.937	4059
628.000	5201
628.064	5616
628.127	4846
628.190	5232
628.253	4472
628.317	4264
628.380	4516
628.443	3659
628.506	4229
628.569	4289
628.632	4403
628.696	3856
628.759	3393
628.822	3363
628.885	4139
628.948	3888
629.011	3346
629.074	3339
629.137	4219
629.200	3265
629.263	4853
629.326	3275
629.389	3980
629.452	2908
629.515	3769
629.578	3350
629.641	4346
629.704	3213
629.767	4420
629.830	2646
629.892	2955
629.955	2224
630.018	4020
630.081	3192
630.144	5202
630.207	3667
630.269	4403
630.332	4268
630.395	3729
630.458	3781
630.520	3031
630.583	3774
630.646	3060
630.708	3099
630.771	3581
630.834	3040
630.896	3464
630.959	2139
631.021	2540
631.084	2745
631.146	3918
631.209	3321
631.272	3718
631.334	3209
631.397	3668
631.459	2754
631.522	2730
631.584	3070
631.646	3635
631.709	4131
631.771	3866
631.834	4147
631.896	2913
631.958	2690
632.021	3365
632.083	2463
632.145	2887
632.208	3575
632.270	3873
632.332	2935
632.395	2668
632.457	3914
632.519	3261
632.581	2520
632.643	2255
632.706	2562
632.768	2573
632.830	3517
632.892	2691
632.954	3043
633.016	3287
633.078	3360
633.141	2856
633.203	2725
633.265	3094
633.327	2919
633.389	2888
633.451	3309
633.513	4091
633.575	3955
633.637	3372
633.698	3043
633.760	2641
633.822	3078
633.884	2768
633.946	2549
634.008	2959
634.070	2710
634.132	3269
634.193	3157
634.255	3539
634.317	3231
634.379	3638
634.441	3092
634.502	2809
634.564	2993
634.626	2840
634.687	2534
634.749	2761
634.811	3132
634.873	2176
634.934	2446
634.996	1959
635.057	3117
635.119	1672
635.181	2745
635.242	2843
635.304	1077
635.365	3607
635.427	2523
635.488	2118
635.550	2675
635.611	2739
635.673	1461
635.734	2931
635.796	2738
635.857	2540
635.918	2570
635.980	3636
636.041	2948
636.102	3140
636.164	3497
636.225	4018
636.286	3106
636.348	3415
636.409	2392
636.470	2058
636.531	2737
636.593	2690
636.654	3132
636.715	2206
636.776	2883
636.838	2333
636.899	2643
636.960	2398
637.021	2054
637.082	1660
637.143	2456
637.204	1245
637.265	1336
637.326	2000
637.387	1681
637.448	2216
637.509	2172
637.570	1424
637.631	2209
637.692	1114
637.753	1175
637.814	1088
637.875	1875
637.936	2536
637.997	1463
638.058	1575
638.119	1672
638.179	1153
638.240	2042
638.301	1869
638.362	1128
638.423	1913
638.483	2289
638.544	1233
638.605	1361
638.666	1486
638.726	2141
638.787	1440
638.848	1277
638.908	855
638.969	968
639.030	1716
639.090	934
639.151	909
639.211	1806
639.272	2621
639.332	3650
639.393	4240
639.453	1191
639.514	1688
639.574	2056
639.635	1421
639.695	1514
639.756	661
639.816	2363
639.877	1829
639.937	3565
639.997	5263
640.058	2019
640.118	751
640.178	1036
640.239	1066
640.299	971
640.359	1161
640.420	1496
640.480	1591
640.540	1235
640.600	1635
640.661	1780
640.721	544
640.781	3943
640.841	1844
640.901	2043
640.961	1534
641.021	1287
641.082	679
641.142	2499
641.202	3229
641.262	777
641.322	2312
641.382	1087
641.442	1540
641.502	936
641.562	1615
641.622	867
641.682	1341
641.742	1459
641.802	2042
641.861	1459
641.921	1187
641.981	1762
642.041	1911
642.101	1659
642.161	1484
642.221	1052
642.280	935
642.340	724
642.400	324
642.460	1158
642.519	1282
642.579	1165
642.639	1595
642.698	-1027
642.758	2033
642.818	705
642.877	524
642.937	470
642.997	1591
643.056	2285
643.116	1127
643.175	1469
643.235	1276
643.294	1629
643.354	1464
643.414	1663
643.473	2112
643.532	2054
643.592	3306
643.651	6841
643.711	12092
643.770	23604
643.830	52432
643.889	164700
643.948	79275
644.008	6246
644.067	2896
644.126	1653
644.186	1615
644.245	1650
644.304	408
644.363	1696
644.423	669
644.482	685
644.541	857
644.600	-317
644.659	2145
644.719	1310
644.778	2553
644.837	4373
644.896	9561
644.955	25330
645.014	17676
645.073	3317
645.132	897
645.191	891
645.250	441
645.309	1615
645.368	1234
645.427	1993
645.486	2175
645.545	5607
645.604	2329
645.663	1198
645.722	1047
645.781	1770
645.840	1071
645.898	1727
645.957	4500
646.016	4832
646.075	10922
646.134	20365
646.192	47707
646.251	123632
646.310	32813
646.369	3885
646.427	2951
646.486	1614
646.545	1150
646.603	1089
646.662	179
646.721	989
646.779	894
646.838	-296
646.896	1746
646.955	2168
647.014	3148
647.072	5250
647.131	14135
647.189	14339
647.248	1672
647.306	958
647.365	1109
647.423	-50
647.481	1253
647.540	113
647.598	798
647.657	887
647.715	1459
647.773	280
647.832	953
647.890	67
647.948	-243
648.007	1008
648.065	-363
648.123	-258
648.181	1561
648.240	971
648.298	876
648.356	593
648.414	557
648.472	1214
648.531	1340
648.589	330
648.647	326
648.705	627
648.763	53
648.821	661
648.879	854
648.937	1137
648.995	1184
649.053	1551
649.111	1794
649.169	4875
649.227	7383
649.285	14258
649.343	45630
649.401	47308
649.459	8571
649.516	6993
649.574	1078
649.632	2407
649.690	3964
649.748	1753
649.806	1455
649.863	3670
649.921	9586
649.979	12150
650.037	1453
650.094	356
650.152	1339
650.210	21
650.268	1143
650.325	454
650.383	303
650.440	-458
650.498	518
650.556	-49
650.613	657
650.671	618
650.728	333
650.786	342
650.843	-166
650.901	-107
650.958	417
651.016	136
651.073	-24
651.131	41
651.188	-437
651.246	346
651.303	-119
651.360	657
651.418	-79
651.475	125
651.532	-587
651.590	534
651.647	130
651.704	-76
651.762	418
651.819	259
651.876	539
651.933	629
651.990	526
652.048	-374
652.105	-258
652.162	573
652.219	-111
652.276	293
652.333	705
652.390	-209
652.448	177
652.505	121
652.562	546
652.619	593
652.676	-191
652.733	931
652.790	-290
652.847	-636
652.904	503
652.961	-1038
653.017	-514
653.074	544
653.131	207
653.188	-990
653.245	-553
653.302	-100
653.359	205
653.415	280
653.472	31
653.529	-278
653.586	184
653.642	-735
653.699	546
653.756	-581
653.813	-37
653.869	79
653.926	-162
653.983	-762
654.039	169
654.096	548
654.152	412
654.209	-871
654.266	1110
654.322	-1500
654.379	1173
654.435	381
654.492	1
654.548	340
654.605	1277
654.661	1860
654.717	249
654.774	34
654.830	8
654.887	-13
654.943	506
655.000	-74
655.056	328
655.112	-228
655.168	87
655.225	506
655.281	100
655.337	-69
655.394	1928
655.450	461
655.506	934
655.562	-317
655.618	2586
655.675	-730
655.731	549
655.787	-1338
655.843	320
655.899	-838
655.955	465
656.011	-210
656.067	-1248
656.123	175
656.179	484
656.235	1229
656.291	11
656.347	379
656.403	137
656.459	275
656.515	500
656.571	-23
656.627	872
656.683	-14
656.739	915
656.795	214
656.850	227
656.906	261
656.962	668
657.018	-829
657.074	-504
657.129	-418
657.185	265
657.241	899
657.297	292
657.352	417
657.408	-610
657.464	986
657.519	286
657.575	-336
657.630	-428
657.686	-355
657.742	-1139
657.797	-167
657.853	-245
657.908	321
657.964	-1244
658.019	133
658.075	73
658.130	223
658.186	-446
658.241	-307
658.297	-759
658.352	-479
658.407	950
658.463	-314
658.518	-456
658.573	827
658.629	-1421
658.684	39
658.739	441
658.795	-1103
658.850	-412
658.905	-452
658.960	587
659.016	-886
659.071	-506
659.126	-221
659.181	-923
659.236	925
659.291	1474
659.346	676
659.401	375
659.457	-185
659.512	-98
659.567	24
659.622	-579
659.677	-586
659.732	-583
659.787	38
659.842	-493
659.897	-162
659.952	448
660.007	-575
660.061	89
660.116	212
660.171	-940
660.226	-221
660.281	864
660.336	-651
660.391	-371
660.445	-682
660.500	-175
660.555	-326
660.610	-658
660.664	132
660.719	-276
660.774	-288
660.828	150
660.883	-769
660.938	19
660.992	-1462
661.047	317
661.101	-526
661.156	-76
661.211	-243
661.265	-413
661.320	-213
661.374	205
661.429	-75
661.483	-714
661.538	-594
661.592	-890
661.647	183
661.701	-494
661.755	216
661.810	500
661.864	-810
661.919	-256
661.973	-73
662.027	-374
662.081	-1224
662.136	-899
662.190	-153
662.244	1140
662.299	-598
662.353	-720
662.407	-55
662.461	-395
662.515	40
662.569	-252
662.624	65
662.678	-587
662.732	-340
662.786	-231
662.840	-24
662.894	-40
662.948	-487
663.002	-313
663.056	-587
663.110	-34
663.164	-728
663.218	50
663.272	149
663.326	168
663.380	8
663.434	294
663.488	-1158
663.542	153
663.595	668
663.649	-667
663.703	1131
663.757	-123
663.811	-415
663.864	-993
663.918	235
663.972	-756
664.026	-68
664.079	-794
664.133	31
664.187	123
664.240	-324
664.294	-589
664.348	-38
664.401	-291
664.455	192
664.508	-624
664.562	-195
664.615	215
664.669	-161
664.722	-253
664.776	-11
664.829	-687
664.883	-427
664.936	-485
664.990	-431
665.043	80
665.097	-279
665.150	763
665.203	-284
665.257	359
665.310	-36
665.363	-321
665.417	-15
665.470	-30
665.523	-40
665.576	-261
665.630	-846
665.683	-94
665.736	259
665.789	685
665.842	-1012
665.895	-502
665.949	261
666.002	-100
666.055	41
666.108	-242
666.161	815
666.214	785
666.267	-333
666.320	400
666.373	401
666.426	-124
666.479	-1316
666.532	-427
666.585	-319
666.638	682
666.691	-712
666.744	738
666.796	-565
666.849	-6
666.902	137
666.955	113
667.008	-91
667.060	357
667.113	-1677
667.166	304
667.219	-122
667.271	-743
667.324	-248
667.377	-12
667.430	108
667.482	-687
667.535	31
667.587	37
667.640	363
667.693	108
667.745	1180
667.798	2380
667.850	314
667.903	789
667.955	56
668.008	292
668.060	146
668.113	-1364
668.165	-8
668.218	80
668.270	-725
668.322	-239
668.375	-210
668.427	238
668.479	-257
668.532	808
668.584	-54
668.636	65
668.689	-20
668.741	5
668.793	-159
668.845	-57
668.898	430
668.950	117
669.002	669
669.054	-415
669.106	-115
669.158	-384
669.211	-332
669.263	-220
669.315	325
669.367	540
669.419	-512
669.471	-85
669.523	115
669.575	1793
669.627	1401
669.679	188
669.731	-347
669.783	410
669.835	9
669.886	-201
669.938	501
669.990	463
670.042	-66
670.094	-474
670.146	819
670.197	1217
670.249	1847
670.301	1665
670.353	3432
670.404	4765
670.456	8510
670.508	13766
670.560	24097
670.611	43778
670.663	76554
670.715	156203
670.766	382897
670.818	240015
670.869	37805
670.921	11605
670.972	7068
671.024	5452
671.075	3534
671.127	2520
671.178	1472
671.230	515
671.281	849
671.333	1419
671.384	802
671.436	532
671.487	828
671.538	316
671.590	852
671.641	2000
671.692	3397
671.744	8776
671.795	9207
671.846	2070
671.897	646
671.949	177
672.000	163
672.051	1060
672.102	382
672.153	-71
672.204	-406
672.256	476
672.307	565
672.358	-301
672.409	666
672.460	569
672.511	502
672.562	-555
672.613	-40
672.664	34
672.715	-695
672.766	388
672.817	616
672.868	-350
672.919	326
672.970	-195
673.021	-429
673.071	-302
673.122	-148
673.173	-590
673.224	-772
673.275	246
673.326	-509
673.376	-422
673.427	-737
673.478	-55
673.528	-563
673.579	-314
673.630	-106
673.680	245
673.731	-914
673.782	-234
673.832	-475
673.883	130
673.934	-35
673.984	-177
674.035	-105
674.085	53
674.136	28
674.186	-20
674.237	404
674.287	-255
674.338	345
674.388	-292
674.438	-36
674.489	244
674.539	-462
674.589	344
674.640	70
674.690	-121
674.740	-776
674.791	-574
674.841	-225
674.891	-84
674.942	-613
674.992	-66
675.042	-338
675.092	-868
675.142	74
675.193	104
675.243	-1024
675.293	475
675.343	-692
675.393	-505
675.443	734
675.493	520
675.543	-1416
675.593	-663
675.643	-297
675.693	-104
675.743	-79
675.793	265
675.843	-547
675.893	-212
675.943	-345
675.993	-356
676.043	-798
676.093	-263
676.142	-975
676.192	365
676.242	-285
676.292	-232
676.341	-807
676.391	95
676.441	-251
676.491	-441
676.540	-356
676.590	-140
676.640	-806
676.689	-85
676.739	-482
676.789	-480
676.838	-1001
676.888	314
676.937	-812
676.987	-437
677.037	409
677.086	-495
677.136	-211
677.185	-312
677.235	8
677.284	-1009
677.333	-385
677.383	-873
677.432	-743
677.482	-746
677.531	-984
677.580	-608
677.630	-452
677.679	-625
677.728	-976
677.778	-409
677.827	447
677.876	6
677.925	-597
677.975	-684
678.024	-223
678.073	42
678.122	-502
678.171	-81
678.220	-803
678.269	-263
678.319	-432
678.368	-592
678.417	226
678.466	55
678.515	-183
678.564	-533
678.613	2
678.662	-281
678.711	-567
678.760	-117
678.809	-191
678.857	-351
678.906	207
678.955	-200
679.004	227
679.053	-555
679.102	-404
679.151	-895
679.199	-97
679.248	-250
679.297	-760
679.346	-237
679.394	-650
679.443	-975
679.492	-134
679.540	-151
679.589	-316
679.638	155
679.686	482
679.735	-430
679.784	-565
679.832	-643
679.881	-871
679.929	-718
679.978	-807
680.026	-385
680.075	207
680.123	-18
680.172	-279
680.220	-114
680.268	-69
680.317	-676
680.365	-926
680.414	-512
680.462	-613
680.510	-361
680.559	-534
680.607	-419
680.655	-602
680.703	-639
680.752	-804
680.800	-324
680.848	-317
680.896	-839
680.945	-740
680.993	-677
681.041	-659
681.089	-414
681.137	-542
681.185	-909
681.233	-847
681.258	-735
681.281	-644
681.329	-626
681.377	-327
681.380	-324
681.425	-568
681.473	130
681.502	-117
681.521	-320
681.569	-450
681.617	-678
681.624	-639
681.665	-509
681.713	112
681.745	-263
681.761	-462
681.809	-1151
681.857	-699
681.867	-743
681.904	-975
681.952	62
681.989	-204
682.000	-302
682.048	-528
682.096	-425
682.111	-109
682.143	498
682.191	-693
682.233	-344
682.239	-301
682.286	204
682.334	-975
682.354	-746
682.382	-488
682.430	-509
682.476	-184
682.477	-190
682.525	41
682.572	82
682.598	388
682.620	586
682.667	-392
682.715	573
682.720	526
682.763	-5
682.810	-30
682.841	577
682.857	877
682.905	347
682.952	643
682.963	537
683.000	88
683.047	457
683.085	1109
683.095	1269
683.142	244
683.190	339
683.206	398
683.237	498
683.284	807
683.328	332
683.332	281
683.379	324
683.426	-54
683.449	121
683.473	252
683.521	417
683.568	559
683.571	532
683.615	75
683.662	553
683.693	552
683.709	514
683.757	342
683.804	998
683.814	1033
683.851	1104
683.898	749
683.936	741
683.945	719
683.992	595
684.039	781
684.057	780
684.086	842
684.133	1115
684.179	1234
684.180	1226
684.227	1209
684.274	954
684.300	1065
684.321	1118
684.368	1194
684.415	1562
684.422	1475
684.462	899
684.509	1290
684.543	1131
684.556	1058
684.603	861
684.649	997
684.665	1223
684.696	1704
684.743	1479
684.786	1407
684.790	1394
684.837	1832
684.883	1496
684.908	1727
684.930	1959
684.977	2231
685.023	2273
685.029	2273
685.070	2013
685.117	933
685.150	1734
685.164	2103
685.210	1413
685.257	1925
685.272	2128
685.303	2436
685.350	1988
685.393	1889
685.396	1888
685.443	2558
685.490	2876
685.514	2801
685.536	2670
685.583	2326
685.629	2403
685.636	2474
685.675	2727
685.722	2470
685.757	2093
685.768	1994
685.815	1865
685.861	2443
685.878	2312
685.908	2128
685.954	1935
686.000	2829
686.000	2841
686.047	2644
686.093	2885
686.121	2903
686.139	2901
686.185	3002
686.232	3444
686.242	3346
686.278	2619
686.324	2954
686.363	2426
686.370	2360
686.416	1922
686.463	1680
686.484	1836
686.509	2105
686.555	2308
686.601	2551
686.606	2622
686.647	3274
686.693	2822
686.727	2532
686.739	2377
686.785	2285
686.831	2649
686.848	2771
686.877	3007
686.923	2673
686.969	2387
686.969	2385
687.015	2745
687.061	2146
687.090	2662
687.107	2987
687.153	2994
687.199	2955
687.211	3097
687.245	3325
687.291	2671
687.332	2982
687.336	3048
687.382	3329
687.428	3577
687.453	3667
687.474	3509
687.520	3331
687.565	3248
687.574	3208
687.611	3250
687.657	3115
687.695	2824
687.702	2818
687.748	3804
687.794	4084
687.816	4116
687.839	3914
687.885	3822
687.931	4296
687.937	4199
687.976	3631
688.022	3263
688.058	3002
688.067	2984
688.113	2905
688.158	3314
688.179	3409
688.204	3519
688.249	3718
688.295	3576
688.300	3556
688.340	3471
688.386	4257
688.421	3824
688.431	3671
688.477	3266
688.522	3204
688.542	3560
688.567	4067
688.613	3660
688.658	3687
688.663	3667
688.703	3637
688.749	3245
688.784	3539
688.794	3595
688.839	3763
688.884	3660
688.905	3604
688.930	3566
688.975	3725
689.020	3806
689.026	3772
689.065	3604
689.110	3952
689.146	4043
689.155	4074
689.201	3766
689.246	4107
689.267	4043
689.291	3908
689.336	4371
689.381	4039
689.388	3963
689.426	3788
689.471	3965
689.509	3947
689.516	3919
689.561	4156
689.606	3867
689.630	3668
689.651	3512
689.696	3418
689.741	3500
689.750	3511
689.785	3754
689.830	4102
689.871	4073
689.875	4045
689.920	3738
689.965	3835
689.992	3702
690.010	3767
690.054	3783
690.099	3926
690.112	3953
690.144	3828
690.189	4018
690.233	3673
690.233	3680
690.278	4145
690.323	4088
690.354	4284
690.367	4277
690.412	4624
690.457	4042
690.474	3944
690.501	3904
690.546	4666
690.590	4430
690.595	4409
690.635	4003
690.680	3690
690.716	3390
690.724	3428
690.769	4013
690.813	4184
690.836	4189
690.857	4141
690.902	4468
690.946	4287
690.957	4356
690.991	4768
691.035	4920
691.077	5075
691.080	5094
691.124	5640
691.168	5797
691.198	5855
691.213	5739
691.257	5830
691.301	5392
691.318	5262
691.346	4950
691.390	4780
691.434	4295
691.439	4222
691.478	4275
691.522	4450
691.559	4616
691.567	4630
691.611	4768
691.655	4674
691.680	4779
691.699	4931
691.743	4716
691.787	5120
691.800	5103
691.831	4998
691.875	4968
691.919	4967
691.921	4947
691.964	4821
692.008	5166
692.041	5084
692.052	5076
692.096	5271
692.139	5375
692.162	5483
692.183	5495
692.227	5453
692.271	5175
692.282	5115
692.315	5263
692.359	5546
692.402	5452
692.403	5463
692.447	5731
692.490	5653
692.523	5586
692.534	5631
692.578	5406
692.622	5369
692.643	5576
692.666	5668
692.709	5056
692.753	5189
692.763	5115
692.797	5094
692.840	5166
692.884	5078
692.884	5091
692.928	5189
692.971	5179
693.004	5318
693.015	5354
693.059	5401
693.102	5389
693.124	5262
693.146	5227
693.189	5413
693.233	5562
693.245	5578
693.276	5612
693.320	5504
693.363	5414
693.365	5396
693.407	5667
693.450	6296
693.485	6645
693.493	6617
693.537	6285
693.580	5672
693.605	5584
693.624	5831
693.667	6151
693.710	6445
693.725	6621
693.753	7078
693.797	7596
693.840	8211
693.845	8213
693.883	8403
693.926	9016
693.966	9443
693.970	9359
694.013	8019
694.056	7255
694.086	6383
694.099	6284
694.142	5900
694.185	5547
694.206	5490
694.229	5713
694.272	5984
694.315	6024
694.326	6086
694.358	6184
694.401	6497
694.444	6227
694.446	6220
694.487	6342
694.530	6274
694.566	6075
694.573	6039
694.616	5743
694.659	5656
694.686	5526
694.702	5549
694.745	5514
694.787	5594
694.806	5489
694.830	5534
694.873	5879
694.916	6293
694.926	6269
694.959	5836
695.002	5618
695.044	5321
695.046	5296
695.087	5755
695.130	6064
695.166	6411
695.172	6401
695.215	6005
695.258	5767
695.286	5541
695.301	5613
695.343	5775
695.386	5920
695.406	6095
695.428	6140
695.471	5880
695.514	5817
695.526	5728
695.556	5652
695.599	5671
695.641	5608
695.646	5587
695.684	5561
695.726	5448
695.766	5540
695.769	5568
695.811	5360
695.854	5553
695.886	5403
695.896	5426
695.938	5733
695.981	5787
696.005	5947
696.023	5995
696.065	5937
696.108	5967
696.125	5931
696.150	6082
696.192	6230
696.235	6461
696.245	6517
696.277	6458
696.319	6107
696.361	6008
696.365	5979
696.404	6183
696.446	6358
696.485	6394
696.488	6402
696.530	6407
696.572	6230
696.604	6158
696.614	6155
696.656	6006
696.698	5868
696.724	5785
696.740	5863
696.783	6126
696.825	6265
696.844	6288
696.867	6261
696.909	6302
696.951	6157
696.964	6141
696.992	6325
697.034	6562
697.076	6708
697.083	6729
697.118	6617
697.160	6335
697.202	6179
697.203	6150
697.244	6121
697.286	6369
697.323	6298
697.327	6320
697.369	6482
697.411	6595
697.442	6762
697.453	6795
697.494	6640
697.536	6629
697.562	6556
697.578	6515
697.620	6419
697.661	6257
697.682	6148
697.703	6389
697.744	6934
697.786	7423
697.801	7564
697.828	7434
697.869	7235
697.911	7032
697.921	6955
697.952	6907
697.994	6840
698.035	6749
698.040	6715
698.077	6609
698.118	6514
698.160	6381
698.160	6360
698.201	6287
698.243	6218
698.279	6140
698.284	6190
698.325	6490
698.367	6734
698.399	6930
698.408	6944
698.449	6884
698.491	6854
698.518	6794
698.532	6816
698.573	6821
698.614	6841
698.638	6822
698.656	6858
698.697	6894
698.738	6934
698.757	6931
698.779	6964
698.820	6983
698.862	7007
698.877	6997
698.903	7291
698.944	7717
698.985	8148
698.996	8243
699.026	7994
699.067	7620
699.116	7152
699.235	7396
699.354	5834
699.474	7115
699.593	7158
699.713	7039
699.832	6664
699.951	6865
700.070	7767
700.190	6600
700.309	6054
700.428	6344
700.547	7003
700.667	6994
700.786	7209
700.905	7011
701.024	6064
701.143	7017
701.262	6158
701.381	6576
701.500	5934
701.619	7196
701.738	6554
701.857	6615
701.976	5537
702.095	5566
702.214	5873
702.333	7208
702.452	6616
702.571	6068
702.690	6055
702.809	5729
702.928	5244
703.047	5750
703.165	6482
703.284	5949
703.403	4608
703.522	5485
703.640	6413
703.759	5725
703.878	8320
703.997	8395
704.115	5664
704.234	5487
704.353	5597
704.471	4812
704.590	5680
704.708	5655
704.827	4973
704.946	5324
705.064	5279
705.183	5648
705.301	5384
705.420	7528
705.538	7885
705.656	7062
705.775	6270
705.893	7632
706.012	10683
706.130	8306
706.249	7043
706.367	7594
706.485	6676
706.604	7441
706.722	7512
706.840	8718
706.958	10219
707.077	9401
707.195	6622
707.313	7311
707.431	5692
707.549	6905
707.668	5319
707.786	6714
707.904	6149
708.022	5996
708.140	5948
708.258	6217
708.376	6267
708.494	6392
708.612	5980
708.730	7435
708.848	8598
708.966	8092
709.084	7867
709.202	7545
709.320	7391
709.438	8095
709.556	7573
709.674	7590
709.791	7831
709.909	6357
710.027	7148
710.145	7336
710.263	7523
710.380	8535
710.498	6609
710.616	6696
710.733	6515
710.851	6767
710.969	7008
711.086	7045
711.204	6608
711.322	6309
711.439	7133
711.557	6785
711.674	6265
711.792	6706
711.909	6360
712.027	6671
712.144	6539
712.262	5452
712.379	6311
712.497	8843
712.614	10115
712.732	9006
712.849	7461
712.966	7932
713.084	9784
713.201	9282
713.318	8107
713.436	7471
713.553	8181
713.670	8345
713.787	8520
713.905	9718
714.022	8201
714.139	7798
714.256	9219
714.373	10000
714.490	13866
714.608	23291
714.725	84598
714.842	246587
714.959	34697
715.076	10297
715.193	7116
715.310	8002
715.427	6159
715.544	7214
715.661	7151
715.778	6604
715.895	7136
716.011	7620
716.128	7484
716.245	6585
716.362	6830
716.479	8650
716.596	7515
716.713	7135
716.829	6618
716.946	6718
717.063	5695
717.180	6169
717.296	7311
717.413	6742
717.530	5345
717.646	6256
717.763	6268
717.880	6012
717.996	5447
718.113	6759
718.229	5562
718.346	5916
718.462	4903
718.579	7052
718.695	9025
718.812	10106
718.928	7327
719.045	7421
719.161	5171
719.277	6108
719.394	5091
719.510	5820
719.626	5263
719.743	6902
719.859	6900
719.975	10094
720.092	22657
720.208	90692
720.324	38983
720.440	7002
720.557	6212
720.673	8464
720.789	11029
720.905	18576
721.021	17457
721.137	6341
721.253	5432
721.369	6152
721.486	5652
721.602	7669
721.718	5534
721.834	4670
721.950	4523
722.066	4822
722.181	4134
722.297	5052
722.413	4595
722.529	4722
722.645	4772
722.761	4261
722.877	4294
722.993	3792
723.108	4081
723.224	4996
723.340	4458
723.456	4245
723.571	3798
723.687	3761
723.803	4279
723.918	4086
724.034	4400
724.150	4344
724.265	4941
724.381	5375
724.497	14125
724.612	6037
724.728	3341
724.843	3796
724.959	4928
725.074	6933
725.190	12811
725.305	5147
725.421	4363
725.536	4125
725.651	3845
725.767	4247
725.882	3431
725.997	3109
726.113	3765
726.228	3336
726.343	3253
726.459	2791
726.574	2892
726.689	3448
726.804	3310
726.920	3214
727.035	3786
727.150	3869
727.265	3923
727.380	4016
727.495	3160
727.610	2947
727.725	3364
727.841	3600
727.956	3511
728.071	4985
728.186	3259
728.301	3145
728.416	3221
728.531	2897
728.645	1979
728.760	2778
728.875	3663
728.990	3399
729.105	2521
729.220	3236
729.335	3130
729.449	2799
729.564	3049
729.679	2138
729.794	2518
729.908	3523
730.023	3180
730.138	2899
730.253	3085
730.367	3565
730.482	2423
730.596	2678
730.711	3096
730.826	3133
730.940	3585
731.055	3067
731.169	3057
731.284	2188
731.398	2563
731.513	3435
731.627	3942
731.742	3184
731.856	3212
731.970	2725
732.085	3534
732.199	3955
732.313	4938
732.428	9629
732.542	29299
732.656	48768
732.771	8555
732.885	4170
732.999	3391
733.113	3628
733.227	3410
733.342	3283
733.456	2702
733.570	3334
733.684	2771
733.798	3530
733.912	3139
734.026	2909
734.140	2761
734.254	3322
734.368	3652
734.482	8028
734.596	3377
734.710	3068
734.824	1688
734.938	1692
735.052	1961
735.166	4087
735.280	2835
735.393	3040
735.507	2406
735.621	3048
735.735	5093
735.849	5113
735.962	1915
736.076	2865
736.190	3263
736.303	3293
736.417	5906
736.531	2941
736.644	2494
736.758	2284
736.872	2014
736.985	3014
737.099	1980
737.212	1475
737.326	1937
737.439	2848
737.553	1656
737.666	2032
737.780	1432
737.893	2332
738.007	1752
738.120	1746
738.233	1734
738.347	2800
738.460	1580
738.573	2387
738.687	1785
738.800	2509
738.913	3084
739.026	2657
739.140	2354
739.253	2217
739.366	1950
739.479	1847
739.592	1809
739.705	2230
739.818	1914
739.932	1747
740.045	2496
740.158	1612
740.271	1691
740.384	1637
740.497	1537
740.610	2423
740.723	2327
740.836	2551
740.949	1971
741.062	2320
741.174	3456
741.287	1874
741.400	1724
741.513	1453
741.626	2386
741.739	1882
741.851	974
741.964	2024
742.077	1409
742.189	1587
742.302	1746
742.415	2671
742.527	1377
742.640	1393
742.753	1255
742.865	666
742.978	1322
743.090	1643
743.203	839
743.316	1677
743.428	1107
743.541	2102
743.653	1354
743.766	1724
743.878	1381
743.990	1652
744.103	2901
744.215	1223
744.327	2204
744.440	1979
744.552	3468
744.664	2686
744.777	1119
744.889	1485
745.001	2291
745.113	2052
745.226	1237
745.338	2068
745.450	1502
745.562	1749
745.674	1028
745.786	1682
745.898	1955
746.010	1864
746.122	1216
746.234	1604
746.347	1400
746.459	2089
746.570	1432
746.682	1337
746.794	1577
746.906	2279
747.018	568
747.130	1583
747.242	1747
747.354	1356
747.466	1380
747.577	812
747.689	1435
747.801	1402
747.913	1275
748.024	1321
748.136	1601
748.248	571
748.359	953
748.471	2073
748.583	1043
748.694	818
748.806	1497
748.918	1078
749.029	1405
749.141	1430
749.252	1583
749.364	1598
749.475	3416
749.587	3947
749.698	1275
749.809	2321
749.921	796
750.032	970
750.144	914
750.255	875
750.366	1030
750.478	995
750.589	1060
750.700	1251
750.811	2079
750.923	1637
751.034	2819
751.145	5948
751.256	1453
751.367	1430
751.479	1334
751.590	934
751.701	1182
751.812	1098
751.923	1031
752.034	797
752.145	1384
752.256	882
752.367	1378
752.478	848
752.589	948
752.700	1250
752.811	1001
752.922	486
753.032	1050
753.143	1512
753.254	1315
753.365	854
753.476	789
753.586	1216
753.697	595
753.808	1062
753.919	199
754.029	976
754.140	765
754.251	463
754.361	552
754.472	1088
754.582	1031
754.693	972
754.804	900
754.914	1025
755.025	889
755.135	1275
755.246	1134
755.356	135
755.466	783
755.577	580
755.687	1258
755.798	1463
755.908	100
756.018	598
756.129	316
756.239	1292
756.349	974
756.460	800
756.570	924
756.680	1213
756.790	627
756.900	1304
757.011	849
757.121	803
757.231	593
757.341	645
757.451	516
757.561	662
757.671	982
757.781	757
757.891	1577
758.001	533
758.111	558
758.221	535
758.331	1667
758.441	1795
758.551	1604
758.661	1749
758.771	1369
758.880	1119
758.990	1629
759.100	916
759.210	1800
759.320	1043
759.429	-157
759.539	567
759.649	188
759.758	829
759.868	872
759.978	1176
760.087	1014
760.197	1740
760.307	1250
760.416	890
760.526	338
760.635	551
760.745	527
760.854	1058
760.964	1524
761.073	889
761.182	1481
761.292	826
761.401	1221
761.511	1660
761.620	618
761.729	1189
761.839	784
761.948	1828
762.057	410
762.166	1275
762.276	-68
762.385	919
762.494	922
762.603	929
762.712	1523
762.822	987
762.931	1071
763.040	770
763.149	894
763.258	1233
763.367	1114
763.476	1377
763.585	798
763.694	975
763.803	1225
763.912	830
764.021	1047
764.130	695
764.238	1615
764.347	825
764.456	502
764.565	1302
764.674	727
764.783	1688
764.891	804
765.000	1598
765.109	1121
765.217	1404
765.326	2169
765.435	2588
765.543	2948
765.652	2319
765.761	3901
765.869	4736
765.978	7628
766.086	11160
766.195	21945
766.303	51795
766.412	155835
766.520	268977
766.629	109692
766.737	28277
766.846	13274
766.954	7868
767.062	6447
767.171	4707
767.279	3509
767.387	3866
767.496	2822
767.604	1769
767.712	1658
767.820	2002
767.928	1599
768.037	2045
768.145	2084
768.253	919
768.361	746
768.469	1826
768.577	1768
768.685	1752
768.793	1770
768.901	1011
769.009	1622
769.117	1047
769.225	1764
769.333	3795
769.441	5031
769.549	8900
769.657	17704
769.765	52742
769.873	173030
769.981	148287
770.088	26953
770.196	9015
770.304	6007
770.412	3940
770.519	3149
770.627	2665
770.735	1630
770.842	1893
770.950	2396
771.058	709
771.165	1655
771.273	2332
771.380	1361
771.488	1682
771.595	1424
771.703	1538
771.810	1465
771.918	867
772.025	942
772.133	940
772.240	1701
772.348	1404
772.455	1226
772.562	1358
772.670	1285
772.777	1710
772.884	965
772.991	1253
773.099	1119
773.206	1039
773.313	1340
773.420	1640
773.528	511
773.635	437
773.742	1335
773.849	796
773.956	875
774.063	940
774.170	1200
774.277	1524
774.384	467
774.491	882
774.598	1063
774.705	1225
774.812	1449
774.919	1478
775.026	872
775.133	939
775.239	710
775.346	1733
775.453	520
775.560	941
775.667	-102
775.773	472
775.880	729
775.987	964
776.093	1650
776.200	1426
776.307	623
776.413	1266
776.520	287
776.627	914
776.733	1184
776.840	1107
776.946	1098
777.053	1423
777.159	1756
777.266	608
777.372	2086
777.478	2137
777.585	615
777.691	706
777.798	550
777.904	1274
778.010	956
778.117	1843
778.223	617
778.329	971
778.435	1087
778.542	802
778.648	582
778.754	1451
778.860	-134
778.966	854
779.072	1151
779.178	1207
779.284	933
779.391	216
779.497	180
779.603	2077
779.708	94
779.815	1436
779.920	1526
780.026	4771
780.132	2604
780.238	1466
780.344	207
780.450	1088
780.556	466
780.661	-234
780.767	699
780.873	266
780.979	822
781.085	725
781.190	381
781.296	423
781.402	179
781.507	672
781.613	402
781.719	898
781.824	276
781.930	689
782.035	15
782.141	455
782.246	864
782.352	344
782.457	777
782.563	81
782.668	445
782.773	489
782.879	213
782.984	286
783.090	1500
783.195	849
783.300	1407
783.405	509
783.511	1166
783.616	558
783.721	957
783.826	526
783.932	-30
784.037	1010
784.142	407
784.247	508
784.352	596
784.457	748
784.562	-580
784.667	1104
784.772	137
784.877	1188
784.982	174
785.087	669
785.192	301
785.297	582
785.402	720
785.507	531
785.611	440
785.716	1062
785.821	536
785.926	320
786.031	785
786.135	683
786.240	-441
786.345	268
786.450	466
786.554	455
786.659	-61
786.763	-562
786.868	805
786.973	305
787.077	84
787.182	119
787.286	1117
787.391	1061
787.495	-96
787.600	-217
787.704	-600
787.809	-857
787.913	355
788.017	117
788.122	64
788.226	-57
788.330	282
788.435	-202
788.539	-506
788.643	348
788.747	-146
788.852	427
788.956	-280
789.060	223
789.164	161
789.268	-15
789.372	-595
789.476	-395
789.580	11
789.684	-284
789.788	452
789.892	-63
789.996	-238
790.100	-24
790.204	349
790.308	956
790.412	312
790.516	121
790.620	266
790.724	125
790.828	-370
790.931	221
791.035	193
791.139	434
791.242	-59
791.346	-180
791.450	-661
791.554	-198
791.657	-705
791.761	1103
791.864	363
791.968	-388
792.072	58
792.175	353
792.279	-317
792.382	849
792.486	-457
792.589	-3
792.693	-37
792.796	-385
792.899	823
793.003	86
793.106	-380
793.209	234
793.313	-187
793.416	-273
793.519	367
793.623	748
793.726	1216
793.829	44
793.932	-474
794.035	153
794.138	170
794.242	1298
794.345	-446
794.448	763
794.551	-142
794.654	1540
794.757	2135
794.860	1187
794.963	715
795.066	-75
795.169	-437
795.272	-1226
795.375	-678
795.477	-314
795.580	622
795.683	-672
795.786	-228
795.889	-752
795.991	510
796.094	264
796.197	-855
796.300	-526
796.402	-331
796.505	73
796.608	-428
796.710	-218
796.813	-129
796.915	331
797.018	-213
797.120	-582
797.223	-958
797.326	569
797.428	-145
797.530	-452
797.633	-858
797.735	318
797.838	-11
797.940	1299
798.042	195
798.145	-333
798.247	159
798.349	-39
798.452	310
798.554	11
798.656	-1524
798.758	-301
798.860	-495
798.962	-312
799.065	-471
799.167	-500
799.269	-82
799.371	118
799.473	-86
799.575	-443
799.677	-468
799.779	601
799.881	-460
799.983	1400
800.085	-1122
800.187	-192
800.289	-692
800.390	-711
800.492	-489
800.594	697
800.696	-386
800.798	-541
800.899	-796
801.001	-708
801.103	-1271
801.205	539
801.306	-387
801.408	-618
801.509	-273
801.611	-348
801.713	-185
801.814	-144
801.916	-191
802.017	444
802.119	-736
802.220	93
802.322	-1846
802.423	1033
802.525	-931
802.626	-450
802.727	-266
802.829	74
802.930	-1940
803.031	1223
803.133	-358
803.234	-67
803.335	-985
803.436	-532
803.538	88
803.639	-1058
803.740	63
803.841	-308
803.942	-770
804.043	246
804.144	-846
804.245	-276
804.346	-297
804.447	201
804.548	-163
804.649	684
804.750	575
804.851	-427
804.952	274
805.053	-74
805.154	-531
805.255	172
805.355	-857
805.456	-932
805.557	-689
805.658	-1083
805.758	-1190
805.859	-816
805.960	56
806.061	-83
806.161	-415
806.262	-336
806.362	-889
806.463	-453
806.564	-298
806.664	56
806.765	-418
806.865	-134
806.966	-535
807.066	-69
807.166	-43
807.267	56
807.367	-651
807.468	-339
807.568	-1560
807.668	72
807.769	-456
807.869	-129
807.969	-519
808.069	150
808.170	-1008
808.270	-386
808.370	58
808.470	-811
808.570	-475
808.670	33
808.770	-531
808.870	-16
808.970	-1306
809.070	-537
809.170	-576
809.271	-728
809.370	-240
809.470	12
809.570	-1375
809.670	-785
809.770	-551
809.870	-272
809.970	-860
810.070	-1160
810.169	-210
810.269	-1723
810.369	-48
810.469	-690
810.568	-569
810.668	-366
810.768	-938
810.867	0
810.967	-833
811.066	-1268
811.166	-894
811.265	-143
811.365	-161
811.464	-229
811.564	-294
811.663	-387
811.763	-674
811.862	-680
811.962	-582
812.061	-404
812.160	-792
812.260	-360
812.359	-99
812.458	1164
812.557	901
812.657	5267
812.756	3025
812.855	-93
812.954	-377
813.053	-320
813.153	318
813.252	-875
813.351	-363
813.450	-225
813.549	-942
813.648	20
813.747	-1334
813.846	781
813.945	-872
814.044	-41
814.143	-934
814.242	-1133
814.341	-809
814.439	-339
814.538	586
814.637	-41
814.736	-386
814.835	-567
814.933	-694
815.032	-429
815.131	303
815.229	-900
815.328	-148
815.427	-233
815.525	558
815.624	382
815.722	170
815.821	-32
815.919	-48
816.018	-638
816.116	79
816.215	618
816.313	460
816.412	88
816.510	351
816.609	1374
816.707	268
816.805	497
816.904	92
817.002	740
817.100	728
817.198	1332
817.296	1033
817.395	1401
817.493	1854
817.591	1997
817.689	3361
817.787	5755
817.885	7818
817.983	15511
818.081	30355
818.179	71051
818.277	172200
818.375	286125
818.473	122803
818.571	34730
818.669	17170
818.767	13639
818.865	12383
818.963	14317
819.061	18529
819.158	30089
819.256	59092
819.354	129081
819.452	286638
819.549	360116
819.647	149539
819.745	47727
819.842	23739
819.940	14650
820.038	9582
820.135	7759
820.233	6687
820.330	4548
820.428	3540
820.525	3317
820.623	2275
820.720	1457
820.818	1452
820.915	1243
821.012	892
821.110	122
821.207	895
821.304	503
821.402	586
821.499	789
821.596	976
821.693	1213
821.791	1011
821.888	894
821.985	2012
822.082	1658
822.179	952
822.276	729
822.373	224
822.470	-441
822.567	-94
822.664	233
822.761	1138
822.858	472
822.955	-44
823.052	-117
823.149	-532
823.246	-479
823.343	-655
823.440	-158
823.536	-445
823.633	-513
823.730	-480
823.827	-302
823.923	-833
824.020	1237
824.117	-772
824.213	-132
824.310	919
824.407	-248
824.503	-831
824.600	-244
824.696	-274
824.793	-270
824.889	-780
824.986	-1101
825.082	-588
825.179	68
825.275	-737
825.371	-974
825.468	-713
825.564	-1113
825.660	-479
825.757	-655
825.853	81
825.949	-1194
826.045	-737
826.142	-1036
826.238	-1005
826.334	-600
826.430	-809
826.526	-137
826.622	-392
826.718	-454
826.814	-1161
826.910	-206
827.006	-1357
827.102	-752
827.198	-91
827.294	-855
827.390	-835
827.486	-205
827.582	-518
827.678	-1081
827.774	-590
827.869	-315
827.965	-609
828.061	-1466
828.157	-1197
828.252	98
828.348	-932
828.444	532
828.539	-892
828.635	-643
828.731	-289
828.826	-1034
828.922	-675
829.017	-943
829.113	-888
829.208	-604
829.304	-1468
829.399	87
829.495	-130
829.590	-643
829.685	-1486
829.781	-431
829.876	-1390
829.971	-1266
830.066	-677
830.162	-901
830.257	-1201
830.352	-322
830.447	-525
830.543	-236
830.638	-1623
830.733	-128
830.828	-680
830.923	-543
831.018	-751
831.113	-1061
831.208	-1323
831.303	-492
831.398	-1538
831.493	-938
831.588	-1113
831.683	-426
831.778	-572
831.873	-880
831.967	-540
832.062	-1585
832.157	-1379
832.252	-68
832.346	-418
832.441	-882
832.536	-301
832.631	296
832.725	1850
832.820	444
832.914	-603
833.009	-1385
833.104	-942
833.198	-230
833.293	-1533
833.387	-910
833.482	-208
833.576	-838
833.670	-344
833.765	-737
833.859	-1055
833.954	240
834.048	-517
834.142	-78
834.237	-1060
834.331	-941
834.425	-784
834.519	-608
834.613	-428
834.708	-957
834.802	5
834.896	-1462
834.990	-1418
835.084	24
835.178	-1295
835.272	-948
835.366	-1451
835.460	1
835.554	-261
835.648	-664
835.742	-1677
835.836	-40
835.930	-790
836.024	-589
836.117	-569
836.211	-694
836.305	39
836.399	-155
836.493	-563
836.586	-537
836.680	-1026
836.774	-692
836.867	388
836.961	-741
837.055	-1374
837.148	-796
837.242	-906
837.335	-209
837.429	-702
837.522	-177
837.616	-856
837.709	106
837.803	-701
837.896	-852
837.989	-921
838.083	-377
838.176	-362
838.269	849
838.363	91
838.456	-807
838.549	-320
838.642	-5
838.735	1370
838.829	44
838.922	-1516
839.015	-1086
839.108	-1295
839.201	-865
839.294	-910
839.387	-628
839.480	-1313
839.573	32
839.666	-488
839.759	-493
839.852	-761
839.945	-159
840.038	-1554
840.131	-707
840.223	-961
840.316	-1101
840.409	-891
840.502	-1502
840.594	-702
840.687	-1405
840.780	-472
840.873	-1679
840.965	-1254
841.058	75
841.150	-1740
841.243	-478
841.336	-527
841.428	-172
841.521	-1079
841.613	-803
841.706	-547
841.798	-827
841.890	-1050
841.983	-1356
842.075	-820
842.167	-991
842.260	-693
842.352	-604
842.444	-1153
842.537	-368
842.629	2336
842.721	79
842.813	-1297
842.905	-1488
842.997	-404
843.090	-790
843.182	-874
843.274	-607
843.366	1849
843.458	4919
843.550	5896
843.642	1577
843.734	-1572
843.826	-705
843.918	-384
844.009	-592
844.101	-904
844.193	-1298
844.285	-1094
844.377	-289
844.469	-235
844.560	-304
844.652	-309
844.744	-199
844.835	-1354
844.927	-1157
845.019	-1028
845.110	-676
845.202	-859
845.293	-674
845.385	-1258
845.476	-1356
845.568	-712
845.659	-737
845.751	-1166
845.842	-1086
845.934	-1712
846.025	-133
846.116	-822
846.208	-949
846.299	-1019
846.390	-316
846.482	-728
846.573	-719
846.664	-77
846.755	509
846.846	259
846.937	-869
847.029	-668
847.120	-1179
847.211	-923
847.302	419
847.393	-1673
847.484	-950
847.575	-1113
847.666	-1256
847.757	-1225
847.847	-1097
847.938	-262
848.029	-1196
848.120	-1073
848.211	-840
848.302	-1207
848.392	-1113
848.483	-1016
848.574	-1393
848.664	-1318
848.755	-674
848.846	-731
848.936	-483
849.027	-1590
849.118	-985
849.208	-625
849.299	-1484
849.389	-1323
849.480	210
849.570	2103
849.661	3128
849.751	7028
849.841	6945
849.932	-181
850.022	-1524
850.112	-847
850.203	-747
850.293	-1534
850.383	-799
850.474	-1085
850.564	-787
850.654	-1238
850.744	-653
850.834	-903
850.924	-648
851.014	-1269
851.104	-729
851.194	-1605
851.284	-129
851.374	-43
851.464	-618
851.554	-792
851.644	-700
851.734	-837
851.824	-645
851.914	-1276
852.004	-643
852.094	-1345
852.183	-585
852.273	-1275
852.363	-1079
852.452	-1549
852.542	-1156
852.632	-1366
852.721	-1037
852.811	-1761
852.901	-903
852.990	-805
853.080	-1727
853.169	-1378
853.259	-305
853.348	-653
853.438	-678
853.527	-534
853.617	-1030
853.706	656
853.795	2664
853.885	6113
853.974	15543
854.063	25527
854.152	54992
854.242	49869
854.331	7149
854.420	33
854.509	-226
854.598	-690
854.687	-355
854.777	-418
854.866	-1572
854.955	-701
855.044	-887
855.133	-1130
855.222	-185
855.311	-1031
855.400	-471
855.488	-2018
855.577	-1254
855.666	-1243
855.755	-243
855.844	-672
855.933	-932
856.021	-1036
856.110	-390
856.199	-1609
856.288	-1215
856.376	-1412
856.465	-1020
856.554	-1024
856.642	-693
856.731	-1077
856.819	-991
856.908	-1579
856.996	-790
857.085	-969
857.173	-1087
857.262	-1349
857.350	-806
857.438	-1386
857.527	-860
857.615	-1231
857.703	-904
857.792	-1451
857.880	-1452
857.968	-1066
858.056	-899
858.145	-860
858.233	-608
858.321	-1409
858.409	-264
858.497	-1472
858.585	-1056
858.673	-854
858.761	-32
858.849	-1061
858.937	-1230
859.025	-753
859.113	-489
859.201	-1348
859.289	14
859.377	-1208
859.465	-458
859.552	-1020
859.640	-647
859.728	-1734
859.816	-380
859.903	-1275
859.991	-1761
860.079	-909
860.166	-1291
860.254	-1081
860.342	-655
860.429	-1773
860.517	-1342
860.604	-431
860.692	-217
860.779	-784
860.867	-1591
860.954	-670
861.042	-929
861.129	-1131
861.216	-1126
861.304	-1244
861.391	-1455
861.478	-1727
861.565	-838
861.653	-669
861.740	-945
861.827	-815
861.914	-1410
862.001	-1286
862.089	-1219
862.176	-1163
862.263	-1565
862.350	-1859
862.437	-1214
862.524	-1435
862.611	-775
862.698	-467
862.785	-1133
862.871	-1570
862.958	-1612
863.045	-1613
863.132	-815
863.219	-1356
863.306	-1981
863.392	-480
863.479	-681
863.566	-1519
863.652	-1619
863.739	-936
863.826	-1384
863.912	-1318
863.999	-1359
864.086	-438
864.172	-1722
864.259	-913
864.345	-1156
864.432	-1299
864.518	-705
864.604	-822
864.691	-995
864.777	-1348
864.863	-1590
864.950	-583
865.036	-950
865.122	-1135
865.209	-803
865.295	-1080
865.381	-382
865.467	-627
865.553	-60
865.639	-604
865.726	360
865.812	2862
865.898	6638
865.984	12097
866.070	17101
866.156	35121
866.242	19441
866.328	1606
866.414	-269
866.499	-31
866.585	-817
866.671	-284
866.757	-833
866.843	-651
866.928	-849
867.014	-676
867.100	-105
867.186	-487
867.271	-384
867.357	-1035
867.442	73
867.528	-889
867.614	-728
867.699	-1559
867.785	615
867.870	-1300
867.956	-906
868.041	-316
868.127	-737
868.212	-1002
868.297	-11
868.383	-827
868.468	-280
868.553	-144
868.639	685
868.724	765
868.809	3118
868.894	478
868.979	-689
869.065	9
869.150	-617
869.235	-611
869.320	-849
869.405	-692
869.490	-860
869.575	-903
869.660	-569
869.745	-449
869.830	-508
869.915	-1066
870.000	-526
870.085	-1147
870.169	-748
870.254	-983
870.339	-887
870.424	-1942
870.509	-1041
870.593	-1096
870.678	-897
870.763	-942
870.847	-855
870.932	-1216
871.016	-662
871.101	-683
871.186	-623
871.270	-940
871.355	-1098
871.439	-933
871.523	-1236
871.608	-1798
871.692	-648
871.777	-638
871.861	-912
871.945	-1574
872.030	-489
872.114	-766
872.198	-625
872.282	-1813
872.367	-437
872.451	-950
872.535	-1014
872.619	-418
872.703	-994
872.787	-604
872.871	-873
872.955	-575
873.039	-626
873.123	-1217
873.207	-652
873.291	-661
873.375	-925
873.459	-1275
873.543	-818
873.627	-1555
873.711	-1475
873.794	-897
873.878	-730
873.962	-1165
874.045	-896
874.129	-1319
874.137	-1286
874.213	-952
874.245	-1072
874.296	-1269
874.352	-801
874.380	-573
874.460	-1901
874.464	-1956
874.547	-331
874.568	-468
874.631	-850
874.676	-800
874.714	-755
874.784	-747
874.798	-752
874.881	-200
874.892	-336
874.965	-1274
874.999	-1190
875.048	-1079
875.107	-1320
875.131	-1407
875.215	94
875.215	93
875.298	-1324
875.323	-1168
875.381	-860
875.430	-1017
875.465	-1106
875.538	-759
875.548	-715
875.631	-1223
875.646	-1234
875.714	-1257
875.753	-1285
875.798	-1345
875.861	-761
875.881	-552
875.964	-1235
875.968	-1187
876.047	-445
876.076	-455
876.130	-422
876.183	-901
876.213	-1183
876.291	-496
876.296	-448
876.379	-939
876.398	-950
876.462	-1080
876.506	-856
876.545	-569
876.613	-1335
876.628	-1521
876.711	-904
876.721	-859
876.794	-513
876.828	-549
876.877	-542
876.935	-558
876.960	-597
877.043	-306
877.043	-308
877.125	-620
877.150	-563
877.208	-418
877.258	-732
877.291	-957
877.365	8
877.374	127
877.456	341
877.472	284
877.539	-33
877.579	-136
877.622	-226
877.687	-675
877.704	-766
877.787	-363
877.794	-365
877.869	-700
877.901	-644
877.952	-401
878.008	-557
878.034	-612
878.115	-424
878.117	-421
878.199	-146
878.222	-253
878.282	-473
878.329	-436
878.364	-422
878.437	-404
878.447	-408
878.529	-1073
878.544	-996
878.611	-593
878.651	-655
878.694	-630
878.758	-353
878.776	-343
878.858	-735
878.865	-745
878.941	-722
878.972	-804
879.023	-952
879.078	-830
879.105	-668
879.185	-453
879.187	-447
879.269	-709
879.292	-502
879.351	-271
879.399	-538
879.433	-692
879.506	-823
879.516	-839
879.598	-1746
879.613	-1621
879.680	-910
879.720	-731
879.762	-493
879.827	-387
879.844	-362
879.926	-618
879.933	-537
880.007	-16
880.040	-300
880.089	-700
880.147	-481
880.171	-248
880.253	379
880.254	382
880.335	1209
880.360	1586
880.417	2841
880.467	3676
880.499	4738
880.574	9402
880.580	9493
880.662	5756
880.680	4707
880.744	1165
880.787	130
880.825	-75
880.893	-236
880.907	-263
880.989	-226
881.000	-278
881.070	-421
881.106	-494
881.152	-714
881.213	-746
881.233	-679
881.315	-555
881.319	-547
881.396	-621
881.426	-715
881.478	-635
881.532	-286
881.559	-231
881.639	-445
881.641	-451
881.722	-793
881.745	-846
881.803	-452
881.852	-415
881.885	-620
881.958	-213
881.966	-167
882.047	-150
882.064	-151
882.129	91
882.171	53
882.210	4
882.277	318
882.291	375
882.372	518
882.383	510
882.454	324
882.489	128
882.535	-85
882.596	-82
882.616	-141
882.697	-531
882.702	-550
882.778	-324
882.808	-312
882.859	-387
882.914	-192
882.940	-90
883.020	-286
883.021	-286
883.102	-119
883.127	-330
883.183	-515
883.233	-108
883.264	-86
883.339	-728
883.345	-719
883.426	-52
883.445	12
883.507	-203
883.551	-185
883.587	-103
883.657	-444
883.668	-499
883.749	-388
883.763	-412
883.830	-441
883.869	-391
883.910	-497
883.975	-942
883.991	-928
884.072	-227
884.081	-216
884.152	-382
884.187	-431
884.233	-348
884.292	105
884.314	115
884.394	-441
884.398	-463
884.475	-411
884.504	-317
884.555	-237
884.610	-255
884.636	-186
884.716	5
884.716	7
884.797	-269
884.821	-371
884.877	-284
884.927	-180
884.958	-99
885.033	34
885.038	16
885.118	-277
885.139	-380
885.199	-210
885.244	33
885.279	81
885.350	128
885.359	97
885.439	-371
885.456	-448
885.520	-79
885.561	78
885.600	-237
885.667	-615
885.680	-588
885.760	-699
885.773	-700
885.840	-478
885.878	-334
885.920	-267
885.984	-144
886.000	-120
886.080	-139
886.089	-116
886.160	-17
886.195	-130
886.240	-248
886.300	-322
886.320	-286
886.400	-171
886.406	-137
886.480	-185
886.511	-441
886.560	-205
886.616	100
886.640	113
886.720	213
886.722	217
886.800	119
886.827	-98
886.879	-336
886.932	-379
886.959	-165
887.038	565
887.039	566
887.119	193
887.143	-0
887.198	-363
887.248	-505
887.278	-421
887.354	-366
887.358	-366
887.437	-288
887.459	-301
887.517	-177
887.564	-97
887.596	-232
887.669	-528
887.676	-499
887.755	-93
887.774	-24
887.835	-101
887.880	-95
887.914	74
887.985	233
887.994	217
888.073	251
888.090	217
888.153	131
888.195	93
888.232	157
888.300	258
888.311	159
888.391	-545
888.405	-682
888.470	-38
888.510	372
888.549	317
888.615	206
888.628	145
888.708	-211
888.720	-275
888.787	-61
888.825	58
888.866	-21
888.930	-161
888.945	-115
889.024	113
889.035	149
889.103	-393
889.140	-712
889.182	-189
889.245	584
889.261	528
889.340	251
889.349	215
889.419	263
889.454	286
889.498	-49
889.559	-531
889.577	-371
889.656	349
889.664	419
889.735	349
889.768	317
889.814	312
889.873	303
889.978	-489
890.083	-304
890.187	-929
890.292	248
890.397	58
890.501	-682
890.606	-145
890.710	598
890.815	668
890.919	389
891.024	84
891.128	743
891.233	487
891.337	422
891.442	-347
891.546	366
891.650	-68
891.755	-1065
891.859	456
891.963	-149
892.068	294
892.172	-275
892.276	-501
892.380	73
892.484	646
892.589	69
892.693	318
892.797	11
892.901	389
893.005	42
893.109	-388
893.213	392
893.317	1012
893.421	101
893.525	-290
893.629	38
893.733	-484
893.837	63
893.941	-814
894.045	-542
894.148	140
894.252	287
894.356	79
894.460	-37
894.564	-248
894.667	-965
894.771	-441
894.875	680
894.978	-443
895.082	-95
895.186	-362
895.289	664
895.393	-295
895.496	-1
895.600	210
895.703	-843
895.807	-168
895.910	-204
896.014	77
896.117	409
896.221	-998
896.324	-228
896.427	379
896.531	-47
896.634	-233
896.737	5
896.840	333
896.944	-328
897.047	142
897.150	-50
897.253	-420
897.356	-146
897.460	118
897.563	-3
897.666	568
897.769	307
897.872	32
897.975	-10
898.078	-365
898.181	414
898.284	-512
898.387	-123
898.490	-328
898.593	-169
898.695	-114
898.798	-239
898.901	261
899.004	118
899.107	-414
899.209	67
899.312	-505
899.415	-497
899.518	88
899.620	-512
899.723	-420
899.826	327
899.928	786
900.031	203
900.133	-115
900.236	14
900.338	-264
900.441	64
900.543	-618
900.646	-648
900.748	-508
900.851	-197
900.953	59
901.055	137
901.158	70
901.260	-322
901.362	-193
901.465	-38
901.567	-931
901.669	-989
901.771	-603
901.873	-341
901.976	-381
902.078	-391
902.180	428
902.282	-429
902.384	-40
902.486	-358
902.588	-1085
902.690	-203
902.792	-236
902.894	60
902.996	-382
903.098	-445
903.200	-1203
903.302	-245
903.404	-567
903.505	-645
903.607	-182
903.709	-270
903.811	-319
903.913	-856
904.014	-1229
904.116	12
904.218	-666
904.319	712
904.421	-215
904.523	188
904.624	425
904.726	-712
904.827	-652
904.929	293
905.030	-1004
905.132	-153
905.233	-247
905.335	-685
905.436	117
905.537	17
905.639	-12
905.740	-374
905.841	-109
905.943	-639
906.044	98
906.145	-138
906.247	-597
906.348	-581
906.449	-134
906.550	-657
906.651	-783
906.752	-384
906.854	-97
906.955	-465
907.056	-140
907.157	-440
907.258	-430
907.359	-271
907.460	-432
907.561	-305
907.662	-1302
907.762	-1160
907.863	-937
907.964	-923
908.065	216
908.166	-383
908.267	-338
908.367	-339
908.468	-828
908.569	-445
908.670	200
908.770	-880
908.871	-4
908.971	-620
909.072	-644
909.173	-154
909.273	-24
909.374	-647
909.474	-739
909.575	-373
909.675	206
909.776	-145
909.876	-45
909.977	-1418
910.077	-28
910.177	-979
910.278	158
910.378	-840
910.478	-325
910.579	-421
910.679	-357
910.779	-381
910.879	-813
910.980	-942
911.080	-745
911.180	102
911.280	-566
911.380	-644
911.480	-374
911.580	263
911.680	-759
911.780	-673
911.880	-629
911.980	-512
912.080	-512
912.180	212
912.280	-165
912.380	-584
912.480	-302
912.580	-614
912.679	-530
912.779	-453
912.879	-639
912.979	-170
913.078	-268
913.178	-701
913.278	-472
913.377	-397
913.477	-550
913.577	-679
913.676	-440
913.776	-387
913.875	253
913.975	-791
914.074	-284
914.174	-1081
914.273	-325
914.373	-991
914.472	-173
914.572	-254
914.671	-958
914.770	-477
914.870	-1216
914.969	-1269
915.068	-429
915.167	-256
915.267	111
915.366	-1150
915.465	100
915.564	-637
915.663	-235
915.763	-513
915.862	-83
915.961	-419
916.060	-844
916.159	-927
916.258	-741
916.357	-590
916.456	-860
916.555	-471
916.654	-632
916.752	67
916.851	-631
916.950	-658
917.049	-514
917.148	-983
917.247	-952
917.345	-530
917.444	-1038
917.543	-1325
917.642	-348
917.740	-1184
917.839	-985
917.937	-687
918.036	98
918.135	-232
918.233	-1199
918.332	-408
918.430	-174
918.529	-950
918.627	-555
918.726	-258
918.824	-734
918.923	-555
919.021	-790
919.119	-142
919.218	-621
919.316	-1150
919.414	-396
919.512	-654
919.611	-571
919.709	-1459
919.807	-632
919.905	-764
920.003	-516
920.102	-1305
920.200	-1014
920.298	-1171
920.396	-384
920.494	-598
920.592	-574
920.690	-673
920.788	-725
920.886	-662
920.984	-268
921.082	-1304
921.180	-908
921.277	-464
921.375	-250
921.473	-1222
921.571	-936
921.669	-385
921.766	-839
921.864	-483
921.962	-258
922.060	-1495
922.157	-1107
922.255	-45
922.352	-538
922.450	-569
922.548	-655
922.645	-584
922.743	-1067
922.840	153
922.938	89
923.035	182
923.133	-173
923.230	-769
923.327	572
923.425	378
923.522	-476
923.619	-254
923.717	-196
923.814	-437
923.911	57
924.008	-359
924.106	13
924.203	20
924.300	-74
924.397	67
924.494	-659
924.591	-622
924.688	-986
924.786	-418
924.883	-56
924.979	-408
925.077	-27
925.173	-97
925.270	-1352
925.367	-4
925.464	-366
925.561	-409
925.658	-283
925.755	-302
925.852	70
925.948	-47
926.045	861
926.142	-305
926.239	-886
926.335	177
926.432	5
926.529	248
926.625	-37
926.722	-184
926.818	-377
926.915	-65
927.011	-986
927.108	-752
927.204	-1021
927.301	-573
927.397	-696
927.494	-389
927.590	-555
927.687	-469
927.783	-465
927.879	248
927.976	-599
928.072	-896
928.168	-851
928.264	-935
928.361	-959
928.457	-408
928.553	590
928.649	-272
928.745	-266
928.841	-169
928.937	-897
929.033	-444
929.129	-286
929.225	-503
929.321	-54
929.417	-951
929.513	-602
929.609	-626
929.705	-736
929.801	-265
929.897	-838
929.993	-625
930.089	-742
930.184	-907
930.280	-711
930.376	-110
930.471	-1033
930.567	-115
930.663	-155
930.758	-273
930.854	-824
930.950	-603
931.045	-321
931.141	-450
931.236	101
931.332	-788
931.427	-230
931.523	-351
931.618	-439
931.714	-628
931.809	-631
931.905	-241
932.000	-698
932.095	-1109
932.191	-503
932.286	-543
932.381	-698
932.476	-908
932.572	-1300
932.667	-658
932.762	-617
932.857	-212
932.952	-375
933.047	-1288
933.142	-688
933.237	-388
933.332	-490
933.427	-831
933.522	-1158
933.617	-440
933.712	-587
933.807	-506
933.902	-902
933.997	-264
934.092	-540
934.187	-594
934.282	-850
934.376	-767
934.471	-1275
934.566	-1035
934.661	-313
934.755	-1258
934.850	-1285
934.945	-852
935.039	-443
935.134	-43
935.228	-1350
935.323	-621
935.417	-1366
935.512	-1039
935.606	-1284
935.701	-1000
935.795	-234
935.890	-412
935.984	-1270
936.079	-1213
936.173	46
936.267	-460
936.362	-588
936.456	-803
936.550	-1445
936.644	-437
936.738	-1016
936.833	-537
936.927	-510
937.021	-1337
937.115	-1319
937.209	-892
937.303	-820
937.397	-1398
937.491	-763
937.585	-657
937.679	-677
937.773	-174
937.867	-13
937.961	-506
938.055	-620
938.149	-135
938.243	170
938.337	-224
938.430	-807
938.524	-581
938.618	-561
938.712	-237
938.805	-1357
938.899	-1030
938.993	-287
939.086	-1267
939.180	-994
939.274	-194
939.367	-413
939.461	-769
939.554	-941
939.648	-1635
939.741	-1169
939.835	-1003
939.928	-1208
940.022	-941
940.115	-706
940.208	-850
940.302	-994
940.395	-680
940.488	-612
940.582	-345
940.675	-1405
940.768	-572
940.861	-1860
940.954	-943
941.048	-1390
941.141	-1016
941.234	-1088
941.327	-1193
941.420	-256
941.513	-1
941.606	-855
941.699	-702
941.792	-522
941.885	-1188
941.978	-795
942.071	-1322
942.164	-729
942.257	-1072
942.349	-761
942.442	-812
942.535	-1424
942.628	-929
942.721	-529
942.813	-722
942.906	-711
942.999	-866
943.091	-942
943.184	-498
943.277	-1809
943.369	-885
943.462	-1118
943.554	-1419
943.647	-928
943.739	-406
943.832	-1209
943.924	-815
944.017	-1039
944.109	-1468
944.201	-359
944.294	-1155
944.386	-899
944.478	-697
944.571	-218
944.663	-806
944.755	-1161
944.847	-1738
944.940	-694
945.032	-303
945.124	-1562
945.216	-467
945.308	-933
945.400	-753
945.492	-1246
945.584	-1214
945.676	-311
945.768	-670
945.860	-458
945.952	-1127
946.044	-967
946.136	-639
946.228	-834
946.320	-1628
946.412	-331
946.503	-1426
946.595	-515
946.687	-1479
946.779	-1164
946.870	-1604
946.962	-878
947.054	-1482
947.145	-890
947.237	-815
947.329	-326
947.420	-1663
947.512	-1169
947.603	-1145
947.695	-1138
947.786	-2608
947.878	-1476
947.969	-294
948.061	-1771
948.152	-1351
948.243	-747
948.335	-1643
948.426	-1140
948.517	-1096
948.609	-633
948.700	-1264
948.791	-576
948.882	-1397
948.973	-1023
949.065	-790
949.156	-980
949.247	-985
949.338	-742
949.429	-1363
949.520	-1516
949.611	-1767
949.702	-1257
949.793	-1189
949.884	-429
949.975	-754
950.066	-1677
950.157	-365
950.247	-1585
950.338	-1860
950.429	-597
950.520	-577
950.611	-1064
950.701	-610
950.792	-528
950.883	-722
950.973	-1477
951.064	-922
951.155	-967
951.245	-96
951.336	-1150
951.427	-907
951.517	-697
951.608	-723
951.698	-914
951.788	-255
951.879	-744
951.969	-1645
952.060	-826
952.150	-508
952.240	-725
952.331	-1277
952.421	-600
952.511	-900
952.602	-1800
952.692	-1255
952.782	-513
952.872	-974
952.962	-1573
953.052	-404
953.143	-807
953.233	-1003
953.323	-1344
953.413	-1028
953.503	-699
953.593	-1231
953.683	-871
953.773	-1800
953.863	-961
953.953	-1353
954.042	-955
954.132	-1934
954.222	-1646
954.312	-1311
954.402	-716
954.492	-1671
954.581	-729
954.671	-999
954.761	-805
954.850	-648
954.940	-1280
955.030	-1053
955.119	-1165
955.209	-914
955.298	-1518
955.388	-679
955.477	-20
955.567	-1661
955.656	-381
955.746	-849
955.835	-1054
955.925	-1080
956.014	-2021
956.103	-673
956.193	-1665
956.282	-1100
956.371	-568
956.461	-1549
956.550	-968
956.639	-1227
956.728	-1284
956.817	-1019
956.906	-1445
956.995	-1224
957.085	-671
957.174	-1226
957.263	-1573
957.352	-774
957.441	-836
957.530	-1175
957.619	-1052
957.708	-939
957.796	-1225
957.885	-1369
957.974	-1392
958.063	-1079
958.152	-1721
958.241	-815
958.329	-701
958.418	-936
958.507	-1210
958.596	-529
958.684	-1757
958.773	-1245
958.861	-1370
958.950	-1104
959.039	-894
959.127	-927
959.216	-1087
959.304	-1459
959.393	-1520
959.481	-1026
959.570	-1264
959.658	-669
959.746	-1278
959.835	-745
959.923	-1003
960.011	-826
960.100	-660
960.188	-861
960.276	-1422
960.365	-745
960.453	-1145
960.541	-826
960.629	-1451
960.717	-903
960.805	-565
960.893	-1683
960.981	-875
961.069	-673
961.158	-919
961.245	-1093
961.333	-825
961.421	-1509
961.509	-817
961.597	-1089
961.685	-1054
961.773	-1509
961.861	-1192
961.949	-1308
962.036	-1021
962.124	-416
962.212	-1748
962.299	-1245
962.387	-1316
962.475	-1258
962.562	-1294
962.650	-346
962.738	-827
962.825	-740
962.913	-826
963.000	-1206
963.088	-1686
963.175	-1634
963.263	-1202
963.350	-1148
963.438	-982
963.525	-1370
963.612	-833
963.700	-898
963.787	2173
963.874	3072
963.962	394
964.049	-768
964.136	-216
964.223	-1010
964.310	-1454
964.398	-712
964.485	-1229
964.572	-1838
964.659	-507
964.746	-146
964.833	26
964.920	-1025
965.007	-1022
965.094	-1114
965.181	-1500
965.268	-1090
965.355	-1172
965.441	-1846
965.528	-2103
965.615	-1222
965.702	-521
965.789	-1721
965.875	-1268
965.962	-1001
966.049	-776
966.136	-1046
966.222	-600
966.309	-1124
966.395	-1167
966.482	-1370
966.569	-1637
966.655	-1779
966.742	-1392
966.828	-622
966.915	-1858
967.001	-1352
967.087	-1681
967.174	-1572
967.260	-1190
967.347	-1010
967.433	-555
967.519	1524
967.605	949
967.692	-1252
967.778	-2184
967.864	-928
967.950	-515
968.036	-1986
968.123	-1553
968.209	-1404
968.295	-1053
968.381	-550
968.467	-1069
968.553	-2164
968.639	-1026
968.725	-1133
968.811	-895
968.897	-330
968.983	-1205
969.069	-1694
969.154	-452
969.240	-979
969.326	-1947
969.412	-2200
969.497	-1085
969.583	-1101
969.669	-1152
969.755	-1087
969.840	-1391
969.926	-950
970.012	-1031
970.097	-175
970.183	-897
970.268	-2047
970.354	-1569
970.439	-747
970.525	268
970.610	-264
970.696	-1527
970.781	-1242
970.866	-2432
970.952	-873
971.037	-842
971.122	-1452
971.208	-1621
971.293	-988
971.378	-1822
971.463	-1500
971.549	-1352
971.634	-1550
971.719	-2030
971.804	-1868
971.889	-762
971.974	-1766
972.059	-2221
972.144	-1274
972.229	-1530
972.314	-918
972.399	-1867
972.484	-1539
972.569	-2066
972.654	-1546
972.739	-134
972.824	-866
972.908	-1340
972.993	-1858
973.078	-1570
973.163	-994
973.247	-1618
973.332	-2507
973.417	-344
973.501	-1540
973.586	-1420
973.671	-1052
973.755	-1188
973.840	-1386
973.924	-801
974.009	-970
974.093	-2042
974.178	-1039
974.262	-1785
974.346	-649
974.431	-1966
974.515	-1607
974.600	-1697
974.684	-1216
974.768	-1506
974.852	-1728
974.937	-1540
975.021	-1072
975.105	-1444
975.189	-2337
975.273	-878
975.358	-2250
975.442	-1643
975.526	-1034
975.610	-2152
975.694	-2322
975.778	-1065
975.862	-1126
975.946	-1998
976.030	-1200
976.114	-953
976.198	-1519
976.281	-1491
976.365	-1712
976.449	-1124
976.533	-1918
976.617	-1447
976.700	-1385
976.784	-1900
976.868	-1842
976.951	-1158
977.035	-1277
977.119	-1254
977.202	-1718
977.286	-1840
977.369	-1868
977.453	-1344
977.536	-1567
977.620	-1481
977.703	-2466
977.787	-1720
977.870	-1027
977.953	-1249
978.037	-1865
978.120	-719
978.203	-813
978.287	-665
978.370	-301
978.453	-1351
978.536	-1931
978.620	-630
978.703	-1905
978.786	-1107
978.869	-2201
978.952	-2624
979.035	-972
979.118	-1467
979.201	-1480
979.284	-1654
979.367	-2375
979.450	-1397
979.533	-1516
979.616	-2103
979.699	-1800
979.782	-1489
979.865	-2047
979.948	-1844
980.030	-1504
980.113	-1288
980.196	-1928
980.279	-1600
980.361	-1670
980.444	-1207
980.526	-1736
980.609	-1426
980.692	-2155
980.774	-1679
980.857	-1565
980.939	-2070
981.022	-1446
981.104	-1628
981.187	-2088
981.269	-567
981.352	-1678
981.434	-1654
981.516	-923
981.599	-801
981.681	-1742
981.763	-1040
981.846	-2287
981.928	-1215
982.010	-1754
982.092	-1408
982.174	-1686
982.256	-1779
982.339	-1312
982.421	-1122
982.503	-1228
982.585	-1961
982.667	-1867
982.749	-2059
982.831	-1693
982.913	-2093
982.995	-1594
983.077	-1271
983.158	-1600
983.240	-2032
983.322	-1376
983.404	-1831
983.486	-1546
983.568	-1795
983.649	-2066
983.731	-1657
983.813	-2560
983.894	-1729
983.976	-1305
984.058	-2017
984.139	-1576
984.221	-2112
984.302	-1381
984.384	-1823
984.465	-1187
984.547	-1333
984.628	-2094
984.710	-2444
984.791	-1369
984.872	-1382
984.954	-2119
985.035	-862
985.116	-2045
985.198	-1631
985.279	-458
985.360	-1471
985.441	-1895
985.522	-1329
985.604	-1501
985.685	-2623
985.766	-784
985.847	-721
985.928	-2307
986.009	-1329
986.090	-2398
986.171	-1223
986.252	-1679
986.333	-1574
986.414	-2213
986.495	-1795
986.576	-1154
986.656	-1254
986.737	-775
986.818	-1885
986.899	-2057
986.980	-732
987.060	-1648
987.141	-2356
987.222	-1626
987.302	-1271
987.383	-888
987.464	-2100
987.544	-1457
987.625	-1544
987.705	-1438
987.786	-1163
987.866	-943
987.947	-1406
988.027	-1572
988.108	-1662
988.188	-1382
988.268	-1452
988.349	-1260
988.429	-1617
988.509	-1208
988.589	-1789
988.670	-2427
988.750	-615
988.830	-865
988.910	-1699
988.990	-2060
989.070	-1419
989.151	-1394
989.231	-1884
989.311	-1736
989.391	-994
989.471	-1250
989.551	-1400
989.631	-1659
989.711	-666
989.791	-1917
989.870	-2715
989.950	-1770
990.030	-2114
990.110	-1690
990.190	-1671
990.269	-1582
990.349	-1869
990.429	-1524
990.509	-1305
990.588	-2202
990.668	-1234
990.747	-2115
990.827	-2198
990.907	-1021
990.986	-1486
991.066	-1387
991.145	-1314
991.225	-654
991.304	-1752
991.383	-957
991.463	-1238
991.542	-1385
991.622	-2030
991.701	-1672
991.780	-1593
991.859	-2041
991.939	-1071
992.018	-1530
992.097	-1385
992.176	-1343
992.256	-2125
992.335	-1073
992.414	-1348
992.493	-1592
992.572	-1544
992.651	-415
992.730	-1585
992.809	-1033
992.888	-1631
992.967	-1336
993.046	-861
993.125	-2233
993.203	-1522
993.282	-1277
993.361	-1921
993.440	-1554
993.519	-2082
993.597	-1033
993.676	-2415
993.755	-1055
993.834	-1568
993.912	-1946
993.991	-943
994.069	-704
994.148	-1771
994.226	-1709
994.305	-1401
994.384	-2683
994.462	-1085
994.540	-1723
994.619	-1928
994.697	-1193
994.776	-1414
994.854	-1702
994.932	-1616
995.011	-1444
995.089	-838
995.167	-1690
995.245	-897
995.324	-1524
995.402	-649
995.480	-1997
995.558	-1791
995.636	-1755
995.714	-2014
995.792	-1326
995.870	-2173
995.948	-1346
996.026	-1271
996.104	-1868
996.182	-544
996.260	-1166
996.338	-2157
996.416	-1748
996.494	-1757
996.572	-636
996.649	-1469
996.727	-1908
996.805	-2218
996.883	-1364
996.960	-1751
997.038	-1242
997.116	-1427
997.193	-2026
997.271	-1151
997.348	-2142
997.426	-1759
997.504	-1547
997.581	-2166
997.658	-1742
997.736	-2063
997.813	-2059
997.891	-908
997.968	-1551
998.046	-1973
998.123	-2270
998.200	-1415
998.277	-2123
998.355	-753
998.432	-2609
998.509	-1606
998.586	-1699
998.663	-1503
998.741	-800
998.818	-1927
998.895	-2485
998.972	-1357
999.049	-1665
999.126	-2397
999.203	-832
999.280	-1350
999.357	-1697
999.434	-2072
999.511	-1405
999.587	-1248
999.664	-2824
999.741	-1732
999.818	-946
999.895	-1024
999.971	-1906
1000.048	-2127
1000.125	-1134
1000.202	-2117
1000.278	-1770
1000.355	-846
1000.431	-1458
1000.508	-1850
1000.584	-1344
1000.661	-895
1000.738	-1572
1000.814	-1198
1000.890	-965
1000.967	-1577
1001.043	-1518
1001.120	-2040
1001.196	-1369
1001.272	-2361
1001.349	-1860
1001.425	-1581
1001.501	-1492
1001.577	-2188
1001.654	-1606
1001.730	-2005
1001.806	-2028
1001.882	-1999
1001.958	-1359
1002.034	-1066
1002.110	-1751
1002.186	-2296
1002.262	-2268
1002.338	-2515
1002.414	-1100
1002.490	-2030
1002.566	-2468
1002.642	-1659
1002.718	-516
1002.794	-1707
1002.870	-1750
1002.945	-2137
1003.021	-1938
1003.097	-1286
1003.173	-1379
1003.248	-2068
1003.324	-1547
1003.400	-1189
1003.475	-1646
1003.551	-1727
1003.626	-1842
1003.702	-2290
1003.777	-1732
1003.853	-1831
1003.928	-2426
1004.004	-1554
1004.079	-1240
1004.155	-1084
1004.230	-2141
1004.305	-1263
1004.381	-2260
1004.456	-2157
1004.531	-1715
1004.607	-1833
1004.682	-2381
1004.757	-1592
1004.832	-1340
1004.907	-1968
1004.982	-1889
1005.057	-1670
1005.133	-2080
1005.208	-1586
1005.283	-2209
1005.358	-1324
1005.433	-2285
1005.508	-1083
1005.583	-2018
1005.657	-2104
1005.732	-1289
1005.807	-1058
1005.882	-1553
1005.957	-811
1006.032	-842
1006.106	-1516
1006.181	-1312
1006.256	-1971
1006.331	-2044
1006.405	-1947
1006.480	-1673
1006.554	-1879
1006.629	-1619
1006.704	-1966
1006.778	-1804
1006.853	-1349
1006.927	-1419
1007.002	-2120
1007.076	-1135
1007.150	-1796
1007.225	-1976
1007.299	-1787
1007.373	-1532
1007.448	-1602
1007.522	-1089
1007.596	-1436
1007.671	-2542
1007.745	-1945
1007.819	-2251
1007.893	-1523
1007.967	-2036
1008.041	-2119
1008.115	-1998
1008.190	-1807
1008.264	-1784
1008.338	-3031
1008.412	-2425
1008.486	-1926
1008.560	-2221
1008.633	-1648
1008.707	-1602
1008.781	-1793
1008.855	-1464
1008.929	-1612
1009.003	-1926
1009.076	-1986
1009.150	-1944
1009.224	-2362
1009.298	-1776
1009.371	-1798
1009.445	-1979
1009.519	-2037
1009.592	-1931
1009.666	-922
1009.739	-1721
1009.813	-1999
1009.886	-1515
1009.960	-2181
1010.033	-2086
1010.107	-1668
1010.180	-2328
1010.253	-1951
1010.327	-2712
1010.400	-1976
1010.473	-2202
1010.547	-948
1010.620	-1453
1010.693	-2272
1010.766	-2264
1010.840	-1414
1010.913	-1946
1010.986	-2868
1011.059	-2143
1011.132	-2019
1011.205	-1591
1011.278	-1323
1011.351	-1658
1011.424	-1796
1011.497	-1271
1011.570	-1684
1011.643	-1615
1011.716	-1977
1011.789	-1493
1011.862	-993
1011.934	-1634
1012.007	-1976
1012.080	-1611
1012.153	-1894
1012.225	-1509
1012.298	-2632
1012.371	-2420
1012.443	-1563
1012.516	-2620
1012.588	-1556
1012.661	-2585
1012.733	-2041
1012.806	-1373
1012.879	-2278
1012.951	-1743
1013.023	-2077
1013.096	-1838
1013.168	-2728
1013.241	-1859
1013.313	-1836
1013.385	-2525
1013.458	-2100
1013.530	-1803
1013.602	-2023
1013.674	-1644
1013.746	-1988
1013.819	-2091
1013.891	-1587
1013.963	-2336
1014.035	-2030
1014.107	-1810
1014.179	-802
1014.251	-2100
1014.323	-1695
1014.395	-2423
1014.467	-2243
1014.539	-1520
1014.611	-2000
1014.683	-1450
1014.754	-1605
1014.826	-1934
1014.898	-1408
1014.970	-2325
1015.042	-1975
1015.113	-1593
1015.185	-1322
1015.257	-1566
1015.328	-1257
1015.400	-1174
1015.471	-1841
1015.543	-2260
1015.615	-2289
1015.686	-2423
1015.757	-1794
1015.829	-1676
1015.901	-2807
1015.972	-1769
1016.043	-1615
1016.115	-1441
1016.186	-1429
1016.257	-1277
1016.328	-1525
1016.400	-1670
1016.471	-2358
1016.542	-2466
1016.613	-2051
1016.685	-1513
1016.756	-2013
1016.827	-2279
1016.898	-2708
1016.969	-806
1017.040	-1471
1017.111	-1599
1017.182	-2099
1017.253	-2116
1017.324	-1850
1017.395	-1519
1017.466	-1534
1017.537	-1465
1017.608	-1925
1017.678	-1882
1017.749	-1646
1017.820	-1906
1017.891	-2266
1017.961	-1827
1018.032	-1775
1018.103	-1871
1018.173	-1659
1018.244	-1895
1018.315	-2533
1018.385	-1658
1018.456	-1751
1018.526	-2087
1018.597	-1462
1018.667	-2389
1018.738	-1327
1018.808	-1963
1018.878	-1977
1018.949	-1166
1019.019	-2226
1019.089	-1663
1019.160	-2036
1019.230	-2330
1019.300	-2345
1019.371	-1711
1019.441	-1140
1019.511	-1573
1019.581	-1457
1019.651	-1525
1019.721	-1732
1019.791	-2544
1019.861	-1212
1019.931	-1509
1020.001	-1778
1020.071	-1990
1020.141	-1692
1020.211	-1548
1020.281	-1772
1020.351	-2431
1020.421	-1530
1020.491	-1269
1020.560	-1711
1020.630	-2210
1020.700	-1498
1020.770	-1958
1020.839	-1860
1020.909	-1815
1020.979	-2934
1021.048	-1452
1021.118	-2180
1021.187	-2671
1021.257	-2337
1021.326	-997
1021.396	-1653
1021.465	-2109
1021.535	-2120
1021.604	-2474
1021.674	-1993
1021.743	-2418
1021.812	-1938
1021.882	-1841
1021.951	-2198
1022.020	-1319
1022.089	-1634
1022.159	-2054
1022.228	-1883
1022.297	-1819
1022.366	-2124
1022.435	-1599
1022.504	-1428
1022.573	-2350
1022.642	-1267
1022.711	-2439
1022.781	-1017
1022.849	-1859
1022.918	-2194
1022.987	-1848
1023.056	-1923
1023.125	-2665
1023.194	-1832
1023.263	-1552
1023.331	-1856
1023.400	-2004
1023.469	-2172
1023.538	-1059
1023.606	-2071
1023.675	-2268
1023.744	-1714
1023.812	-2369
1023.881	-1866
1023.949	-1536
1024.018	-2263
1024.086	-2250
1024.155	-1698
1024.223	-1637
1024.292	-1093
1024.360	-1826
1024.429	-1351
1024.497	-1489
1024.565	-2154
1024.634	-2201
1024.702	-1666
1024.770	-2227
1024.838	-2259
1024.907	-1548
1024.975	-2704
1025.043	-1353
1025.111	-1833
1025.179	-1642
1025.247	-1489
1025.315	-1748
1025.383	-2062
1025.451	-1712
1025.519	-2096
1025.587	-2746
1025.655	-1378
1025.723	-1458
1025.791	-2535
1025.859	-1898
1025.927	-1606
1025.995	-2204
1026.062	-2018
1026.130	-1810
1026.198	-2071
1026.266	-2529
1026.333	-1214
1026.401	-2174
1026.469	-1251
1026.536	-1796
1026.604	-1993
1026.671	-2124
1026.739	-2106
1026.806	-1461
1026.874	-2348
1026.941	-2081
1027.009	-2248
1027.076	-2028
1027.144	-1244
1027.211	-2672
1027.278	-2447
1027.345	-1780
1027.413	-2044
1027.480	-1487
1027.547	-1464
1027.614	-2454
1027.682	-2441
1027.749	-2605
1027.816	-1710
1027.883	-1301
1027.950	-2136
1028.017	-2382
1028.084	-1459
1028.151	-2597
1028.218	-2492
1028.285	-2190
1028.352	-1880
1028.419	-2781
1028.486	-2235
1028.553	-1900
1028.619	-1409
1028.686	-1780
1028.753	-2397
1028.820	-2702
1028.886	-2972
1028.953	-1792
1029.020	-1194
1029.086	-2322
1029.153	-2092
1029.220	-2117
1029.286	-2140
1029.353	-1828
1029.419	-1871
1029.486	-2208
1029.552	-2594
1029.619	-1691
1029.685	-1948
1029.751	-2053
1029.818	-1793
1029.884	-2127
1029.951	-1823
1030.017	-2128
1030.083	-1208
1030.149	-2435
1030.216	-2097
1030.282	-2157
1030.348	-1542
1030.414	-2607
1030.480	-2210
1030.546	-2372
1030.612	-1828
1030.678	-2555
1030.744	-1630
1030.810	-2110
1030.876	-1862
1030.942	-2366
1031.008	-2030
1031.074	-2160
1031.140	-2088
1031.206	-2037
1031.272	-2144
1031.337	-2371
1031.403	-1636
1031.469	-2525
1031.534	-2637
1031.600	-1856
1031.666	-2133
1031.731	-2365
1031.797	-1783
1031.863	-2608
1031.928	-1965
1031.994	-2254
1032.059	-2433
1032.125	-1273
1032.190	-2362
1032.256	-2696
1032.321	-1897
1032.386	-2656
1032.452	-1302
1032.517	-2228
1032.582	-2548
1032.647	-2633
1032.713	-2268
1032.778	-2771
1032.843	-2123
1032.908	-2505
1032.974	-2200
1033.039	-2034
1033.104	-1568
1033.169	-2420
1033.234	-1891
1033.299	-2117
1033.364	-1862
1033.429	-2323
1033.494	-1455
1033.559	-1984
1033.624	-1582
1033.688	-2109
1033.753	-2544
1033.818	-2380
1033.883	-2518
1033.948	-1689
1034.013	-2474
1034.077	-1693
1034.142	-2428
1034.207	-1447
1034.271	-1772
1034.336	-1113
1034.400	-1859
1034.465	-1665
1034.530	-1165
1034.594	-1338
1034.658	-2371
1034.723	-2325
1034.787	-2188
1034.852	-1744
1034.916	-2704
1034.981	-2222
1035.045	-1797
1035.109	-1796
1035.173	-1644
1035.238	-2594
1035.302	-3091
1035.366	-2093
1035.430	-2442
1035.495	-2555
1035.559	-2291
1035.623	-2727
1035.687	-2795
1035.751	-2579
1035.815	-2062
1035.879	-2055
1035.943	-1558
1036.007	-2147
1036.071	-2470
1036.135	-1810
1036.198	-2084
1036.262	-2299
1036.326	-2165
1036.390	-2254
1036.454	-2303
1036.517	-1586
1036.581	-1900
1036.645	-1465
1036.709	-1495
1036.772	-2111
1036.836	-2574
1036.900	-1862
1036.963	-2438
1037.026	-2363
1037.090	-2532
1037.154	-1632
1037.217	-1821
1037.280	-2218
1037.344	-2873
1037.407	-2537
1037.471	-3193
1037.534	-2128
1037.597	-2463
1037.661	-2267
1037.724	-2079
1037.787	-2460
1037.850	-1950
1037.913	-2473
1037.977	-2254
1038.040	-3188
1038.103	-2281
1038.166	-2139
1038.229	-1357
1038.292	-2903
1038.355	-1887
1038.418	-3197
1038.481	-1596
1038.544	-2762
1038.607	-2132
1038.670	-2220
1038.732	-1519
1038.795	-2892
1038.858	-2681
1038.921	-2027
1038.984	-1208
1039.046	-2966
1039.109	-2563
1039.172	-1881
1039.234	-1971
1039.297	-2342
1039.360	-2164
1039.422	-2756
1039.485	-1988
1039.547	-3165
1039.610	-2163
1039.672	-2374
1039.734	-2232
1039.797	-2344
1039.859	-2681
1039.922	-2297
1039.984	-2937
1040.046	-2344
1040.109	-2039
1040.171	-2030
1040.233	-1791
1040.295	-2036
1040.358	-2042
1040.420	-2397
1040.482	-2210
1040.544	-2165
1040.606	-2951
1040.668	-2395
1040.730	-2503
1040.792	-2581
1040.854	-2670
1040.916	-2445
1040.978	-2543
1041.040	-1676
1041.102	-2181
1041.164	-2779
1041.225	-2127
1041.287	-2219
1041.349	-2755
1041.411	-1667
1041.472	-2060
1041.534	-2525
1041.596	-2491
1041.657	-2899
1041.719	-2412
1041.781	-2526
1041.842	-2424
1041.904	-2003
1041.965	-2294
1042.027	-2411
1042.088	-2282
1042.150	-2218
1042.211	-1981
1042.272	-2502
1042.334	-1910
1042.395	-3118
1042.456	-2078
1042.518	-1862
1042.579	-1719
1042.640	-2234
1042.701	-2280
1042.763	-2680
1042.824	-2661
1042.885	-2780
1042.946	-1774
1043.007	-1729
1043.068	-2763
1043.129	-2177
1043.190	-2509
1043.251	-2031
1043.312	-1646
1043.373	-2181
1043.434	-2737
1043.495	-1078
1043.556	-2542
1043.616	-2388
1043.677	-2494
1043.738	-2925
1043.799	-2158
1043.859	-2008
1043.920	-2277
1043.981	-2422
1044.041	-752
1044.102	-2337
1044.162	-2351
1044.223	-1712
1044.284	-2786
1044.344	-1934
1044.405	-2637
1044.465	-2001
1044.525	-2408
1044.586	-2640
1044.646	-1733
1044.707	-1862
1044.767	-1742
1044.827	-2084
1044.887	-1207
1044.948	-1753
1045.008	-1382
1045.068	-2193
1045.128	-1990
1045.188	-1894
1045.249	-1996
1045.309	-2312
1045.369	-2112
1045.429	-1676
1045.489	-1819
1045.549	-1914
1045.609	-1949
1045.669	-2137
1045.729	-2809
1045.789	-1485
1045.848	-1522
1045.908	-2381
1045.968	-2444
1046.028	-1784
1046.088	-1930
1046.147	-1649
1046.207	-1277
1046.267	-1765
1046.326	-2188
1046.386	-1706
1046.446	-1441
1046.505	-1104
1046.565	-1037
1046.624	-1482
1046.684	-782
1046.743	-1356
1046.803	-811
1046.862	-1022
1046.922	0
