'Start Wavelength	183.907
'End Wavelength	1046.922
'Gate Delay	5.000
'Gate Width (ms)	1.050
'Laser Output Level	0.000
'X Position	0.000
'Y Position	0.000
'Z Position	0.000
'Grid Point Number	1.000
'Shot Number	100.000
183.907	473.000
183.977	421.000
184.047	617
184.116	1574
184.186	762
184.256	806
184.325	672
184.395	368
184.465	541
184.534	1064
184.604	799
184.674	674
184.743	628
184.813	837
184.883	-127
184.952	282
185.022	780
185.092	622
185.161	570
185.231	1162
185.301	398
185.370	1576
185.440	200
185.509	667
185.579	575
185.649	-40
185.718	1128
185.788	452
185.857	-57
185.927	967
185.996	456
186.066	897
186.136	268
186.205	302
186.275	1089
186.344	353
186.414	804
186.483	713
186.553	2598
186.622	4810
186.692	1981
186.761	935
186.831	537
186.900	907
186.970	1493
187.039	1554
187.109	2030
187.178	619
187.248	950
187.317	658
187.387	936
187.456	1078
187.526	2215
187.595	1555
187.664	930
187.734	2245
187.803	2081
187.873	1570
187.942	2881
188.012	1027
188.081	1664
188.150	1705
188.220	3887
188.289	4098
188.358	2726
188.428	1249
188.497	1633
188.567	2434
188.636	1616
188.705	1055
188.775	1015
188.844	1551
188.913	2552
188.983	1251
189.052	1432
189.121	1250
189.191	959
189.260	2675
189.329	3043
189.399	1563
189.468	875
189.537	923
189.606	1269
189.676	1325
189.745	1807
189.814	2471
189.883	1702
189.953	1833
190.022	3404
190.091	8893
190.161	10192
190.230	3589
190.299	2004
190.368	1772
190.437	1164
190.507	1457
190.576	1502
190.645	795
190.714	971
190.783	1896
190.853	1236
190.922	983
190.991	2533
191.060	1495
191.129	717
191.198	1015
191.268	977
191.337	1543
191.406	1430
191.475	1869
191.544	1384
191.613	1098
191.682	1344
191.752	1196
191.821	1302
191.890	2025
191.959	1682
192.028	1310
192.097	1131
192.166	1202
192.235	1195
192.304	2009
192.373	708
192.442	787
192.511	1176
192.580	466
192.650	805
192.719	1179
192.788	1475
192.857	1291
192.926	1192
192.995	1599
193.064	1570
193.133	2277
193.202	3408
193.271	2431
193.340	2377
193.409	2772
193.478	2821
193.547	3943
193.615	4329
193.684	4051
193.753	2302
193.822	1631
193.891	1165
193.960	1709
194.029	1408
194.098	1811
194.167	1489
194.236	1112
194.305	2180
194.374	1847
194.443	1466
194.512	2013
194.580	2520
194.649	3114
194.718	3592
194.787	2258
194.856	1561
194.925	2821
194.994	3017
195.062	2547
195.131	2808
195.200	3513
195.269	4904
195.338	2633
195.407	2145
195.475	2048
195.544	3808
195.613	3601
195.682	2131
195.751	4389
195.819	4390
195.888	2227
195.957	4305
196.026	3794
196.094	3746
196.163	3601
196.232	3600
196.301	3199
196.369	3068
196.438	2868
196.507	2188
196.576	2279
196.644	1930
196.713	1857
196.782	1432
196.850	2264
196.919	2309
196.988	2841
197.056	1622
197.125	2231
197.194	2754
197.262	1728
197.331	1548
197.400	1807
197.468	1147
197.537	1869
197.606	1762
197.674	5503
197.743	11801
197.812	4456
197.880	11922
197.949	6915
198.017	10314
198.086	6606
198.155	2813
198.223	4286
198.292	14150
198.360	5023
198.429	3759
198.497	3032
198.566	8445
198.635	12273
198.703	3872
198.772	5131
198.840	16786
198.909	14780
198.977	4318
199.046	3096
199.114	3502
199.183	3175
199.251	2435
199.320	1883
199.388	2006
199.457	1979
199.525	2743
199.594	2213
199.662	2079
199.731	2711
199.799	3245
199.867	3527
199.936	2616
200.004	2415
200.073	2131
200.141	2631
200.210	2307
200.278	2543
200.346	3352
200.415	5183
200.483	5448
200.552	3143
200.620	2527
200.688	1700
200.757	1770
200.825	2202
200.893	2854
200.962	1755
201.030	1519
201.098	1984
201.167	2881
201.235	2577
201.303	3189
201.372	4273
201.440	3942
201.508	5179
201.577	4741
201.645	3194
201.713	2687
201.781	4305
201.850	6512
201.918	3845
201.986	2940
202.055	2640
202.123	2075
202.191	2147
202.259	2314
202.327	2992
202.396	2587
202.464	3452
202.532	8724
202.600	29145
202.669	17691
202.737	6327
202.805	4148
202.873	3109
202.941	3114
203.009	2413
203.078	2533
203.146	3395
203.214	2517
203.282	2295
203.350	3009
203.418	4177
203.487	3832
203.555	2095
203.623	2669
203.691	2502
203.759	2237
203.827	1906
203.895	3281
203.963	3199
204.031	3579
204.099	3703
204.168	3472
204.236	2650
204.304	3570
204.372	3391
204.440	3214
204.508	2268
204.576	2001
204.644	1608
204.712	2923
204.780	2041
204.848	2889
204.916	2143
204.984	3058
205.052	2561
205.120	3237
205.188	3169
205.256	2367
205.324	2554
205.392	3146
205.460	3171
205.528	5812
205.596	6067
205.664	4042
205.732	3844
205.799	15528
205.867	24112
205.935	6997
206.003	4659
206.071	3565
206.139	5067
206.207	4708
206.275	3627
206.343	3568
206.411	3043
206.478	3226
206.546	5163
206.614	4601
206.682	3592
206.750	3793
206.818	6200
206.885	6428
206.953	2627
207.021	3207
207.089	3736
207.157	2338
207.225	2877
207.292	2798
207.360	2807
207.428	3576
207.496	2782
207.563	3106
207.631	3267
207.699	2720
207.767	3261
207.834	2618
207.902	3346
207.970	3846
208.038	3554
208.105	3627
208.173	4219
208.241	6681
208.309	5580
208.376	5603
208.444	11315
208.512	6200
208.579	3129
208.647	6136
208.715	6171
208.782	3815
208.850	3652
208.918	3682
208.985	4011
209.053	4112
209.120	3598
209.188	3517
209.256	3666
209.323	4276
209.391	6787
209.459	5214
209.526	4023
209.594	3850
209.661	3426
209.729	3728
209.796	3900
209.864	4337
209.932	3897
209.999	4967
210.067	4769
210.134	4972
210.202	4264
210.269	7437
210.337	8315
210.404	5126
210.472	4711
210.539	5035
210.607	5017
210.674	6581
210.742	4483
210.809	4471
210.877	6055
210.944	6317
211.012	5448
211.079	6302
211.146	4517
211.214	5552
211.281	10067
211.349	7640
211.416	5162
211.484	6216
211.551	4889
211.618	4564
211.686	5052
211.753	4527
211.821	5058
211.888	5505
211.955	5099
212.023	5119
212.090	5448
212.157	5835
212.225	6235
212.292	14541
212.359	30579
212.427	75217
212.494	32832
212.561	12426
212.629	7749
212.696	6069
212.763	5560
212.831	5946
212.898	5369
212.965	5020
213.032	5074
213.100	6197
213.167	5893
213.234	6673
213.301	5433
213.369	4858
213.436	4927
213.503	5804
213.570	5582
213.638	5141
213.705	4621
213.772	5298
213.839	7387
213.906	7381
213.973	7408
214.041	5572
214.108	4893
214.175	5640
214.242	5743
214.309	4518
214.376	5435
214.444	5937
214.511	7405
214.578	5571
214.645	5504
214.712	7782
214.779	6917
214.846	6126
214.913	5723
214.980	7650
215.048	7811
215.115	10279
215.182	8980
215.249	6431
215.316	5781
215.383	5941
215.450	5501
215.517	5426
215.584	4687
215.651	4893
215.718	5880
215.785	9636
215.852	7422
215.919	8139
215.986	7070
216.053	6083
216.120	5894
216.187	8176
216.254	6593
216.321	6745
216.388	7166
216.455	8828
216.522	7436
216.589	9007
216.656	18293
216.722	16811
216.789	8103
216.856	8198
216.923	7083
216.990	6570
217.057	6817
217.124	10009
217.191	8503
217.258	8884
217.324	9352
217.391	8426
217.458	6935
217.525	6582
217.592	6630
217.659	6481
217.725	9069
217.792	16014
217.859	12775
217.926	6894
217.993	6106
218.059	5200
218.126	5428
218.193	6296
218.260	5927
218.327	5254
218.393	5955
218.460	5848
218.527	5308
218.594	7675
218.660	16144
218.727	16296
218.794	6780
218.860	6136
218.927	5582
218.994	4969
219.061	5725
219.127	8573
219.194	15084
219.261	8039
219.327	5517
219.394	5836
219.461	4075
219.527	6172
219.594	12185
219.661	7425
219.727	4576
219.794	7805
219.860	5902
219.927	7384
219.994	13977
220.060	26435
220.127	17917
220.193	10561
220.260	9066
220.326	9589
220.393	11387
220.460	12704
220.526	9744
220.593	7754
220.659	8406
220.726	11113
220.792	32557
220.859	22901
220.925	18587
220.992	20730
221.058	34326
221.125	43247
221.191	34215
221.258	13053
221.324	9220
221.391	9011
221.457	6477
221.524	7414
221.590	12368
221.657	48809
221.723	32164
221.789	30383
221.856	24379
221.922	13547
221.989	8828
222.055	7332
222.121	7287
222.188	11304
222.254	10702
222.321	8138
222.387	6357
222.453	6036
222.520	5904
222.586	5577
222.652	5846
222.719	5870
222.785	6160
222.851	6047
222.918	5411
222.984	5771
223.050	5726
223.116	5009
223.183	5917
223.249	4654
223.315	4715
223.382	4990
223.448	5200
223.514	4632
223.580	4609
223.647	4481
223.713	5595
223.779	5084
223.845	5268
223.911	6011
223.978	4745
224.044	5737
224.110	5359
224.176	5705
224.242	4992
224.309	5030
224.375	5254
224.441	4222
224.507	5090
224.573	4475
224.639	5729
224.705	4427
224.772	5721
224.838	5458
224.904	6463
224.970	5146
225.036	4878
225.102	6594
225.168	6854
225.234	5700
225.300	5862
225.366	5479
225.432	4856
225.499	5280
225.565	7527
225.631	6803
225.697	7594
225.763	8272
225.829	7974
225.895	9569
225.961	15585
226.027	13622
226.093	10250
226.159	12206
226.225	15029
226.291	24280
226.357	34881
226.423	20662
226.489	16281
226.554	11740
226.620	11239
226.686	14195
226.752	19725
226.818	24428
226.884	52235
226.950	41701
227.016	18419
227.082	14330
227.148	12183
227.214	13376
227.279	11270
227.345	9518
227.411	11614
227.477	17683
227.543	42404
227.609	43356
227.674	20480
227.740	13295
227.806	10588
227.872	9632
227.938	9160
228.003	12644
228.069	7838
228.135	6415
228.201	7110
228.267	7262
228.332	8759
228.398	13207
228.464	9476
228.530	5356
228.595	5737
228.661	6552
228.727	13933
228.792	10030
228.858	6825
228.924	7678
228.990	11009
229.055	10005
229.121	10916
229.187	6776
229.252	9275
229.318	6667
229.384	7932
229.449	10301
229.515	5561
229.581	5098
229.646	7427
229.712	8877
229.777	22913
229.843	22928
229.909	15739
229.974	14732
230.040	14453
230.105	11715
230.171	13366
230.236	16648
230.302	24210
230.368	19592
230.433	10432
230.499	10773
230.564	10815
230.630	9576
230.695	7767
230.761	8498
230.826	6767
230.892	15191
230.957	9467
231.023	8011
231.088	10147
231.154	9931
231.219	9622
231.284	14236
231.350	14437
231.415	9546
231.481	7736
231.546	6653
231.612	7279
231.677	6948
231.742	7014
231.808	8377
231.873	6873
231.939	6624
232.004	18982
232.069	15855
232.135	10047
232.200	7888
232.265	7036
232.331	6369
232.396	6048
232.461	6469
232.527	6661
232.592	8669
232.657	7842
232.723	13690
232.788	9297
232.853	6391
232.918	6785
232.984	6181
233.049	7046
233.114	11633
233.179	12314
233.245	17961
233.310	20178
233.375	7225
233.440	7804
233.506	6265
233.571	5934
233.636	6005
233.701	6900
233.766	14653
233.832	17073
233.897	8714
233.962	7819
234.027	10766
234.092	8388
234.157	9126
234.222	9413
234.288	14566
234.353	39304
234.418	32829
234.483	20020
234.548	15875
234.613	12702
234.678	12184
234.743	14276
234.808	37440
234.873	24278
234.938	12024
235.004	10744
235.069	9694
235.134	9670
235.199	10246
235.264	8281
235.329	7949
235.394	8457
235.459	10690
235.524	11261
235.589	8836
235.654	8866
235.719	7825
235.784	8521
235.849	9225
235.913	19715
235.978	22100
236.043	23930
236.108	11663
236.173	11022
236.238	11551
236.303	7985
236.368	8175
236.433	14577
236.498	26139
236.563	15271
236.627	24389
236.692	78724
236.757	60204
236.822	26794
236.887	22050
236.952	17333
237.017	15262
237.081	15331
237.146	18773
237.211	28738
237.276	78248
237.341	137475
237.405	62422
237.470	27022
237.535	20959
237.600	13495
237.664	11834
237.729	10475
237.794	12854
237.859	18895
237.923	18717
237.988	13547
238.053	19119
238.118	19066
238.182	55692
238.247	43792
238.312	23979
238.376	15882
238.441	12423
238.506	12194
238.570	8195
238.635	10195
238.700	8910
238.764	8737
238.829	24855
238.893	28437
238.958	16027
239.023	14758
239.087	10703
239.152	11293
239.216	9880
239.281	10434
239.346	9191
239.410	9690
239.475	11973
239.539	51530
239.604	40400
239.668	15960
239.733	13472
239.797	28765
239.862	73856
239.926	67098
239.991	25556
240.055	13841
240.120	11185
240.184	11059
240.249	9339
240.313	8640
240.378	10151
240.442	30146
240.507	47349
240.571	16071
240.635	24417
240.700	28436
240.764	13501
240.829	11187
240.893	8978
240.957	9386
241.022	28537
241.086	46630
241.151	23509
241.215	10384
241.279	14791
241.344	25509
241.408	15528
241.472	12712
241.537	12836
241.601	12502
241.665	11099
241.730	11378
241.794	11875
241.858	10570
241.922	10948
241.987	12017
242.051	11208
242.115	9224
242.179	10659
242.244	9739
242.308	11431
242.372	11572
242.436	13463
242.501	12929
242.565	10030
242.629	9990
242.693	10598
242.757	8941
242.822	10849
242.886	10640
242.950	10872
243.014	11511
243.078	13948
243.142	13685
243.206	13210
243.271	14462
243.335	14107
243.399	24025
243.463	97091
243.527	214985
243.591	71121
243.655	28620
243.719	17354
243.783	17034
243.847	30015
243.911	37167
243.975	41903
244.040	27290
244.104	15628
244.168	12564
244.232	21698
244.296	29139
244.360	33446
244.424	18915
244.488	14463
244.552	12746
244.615	10206
244.679	10467
244.743	15509
244.807	15284
244.871	10634
244.935	9905
244.999	9257
245.063	11902
245.127	13172
245.191	24668
245.255	24266
245.319	20180
245.383	15786
245.446	12540
245.510	9988
245.574	12178
245.638	12179
245.702	14140
245.766	33377
245.829	20670
245.893	14025
245.957	12401
246.021	14734
246.085	14267
246.149	17838
246.212	45235
246.276	73090
246.340	29845
246.404	18720
246.467	21359
246.531	33296
246.595	19340
246.659	16083
246.722	15987
246.786	20343
246.850	24221
246.913	30079
246.977	15079
247.041	14020
247.104	16109
247.168	15718
247.232	42602
247.295	98904
247.359	44401
247.423	22083
247.486	36265
247.550	22112
247.614	17522
247.677	23356
247.741	15362
247.804	13904
247.868	17022
247.932	41376
247.995	87033
248.059	32419
248.122	17722
248.186	19844
248.249	36797
248.313	158743
248.376	150393
248.440	96028
248.503	35993
248.567	26252
248.630	38103
248.694	49654
248.757	68160
248.821	164342
248.884	82922
248.948	81616
249.011	114952
249.075	190614
249.138	150367
249.202	55083
249.265	36373
249.328	39741
249.392	30642
249.455	25586
249.519	22101
249.582	28236
249.645	47417
249.709	32574
249.772	22862
249.835	21602
249.899	24867
249.962	22746
250.025	22292
250.089	62450
250.152	75255
250.215	36078
250.279	28361
250.342	27207
250.405	28309
250.468	28625
250.532	33658
250.595	53488
250.658	224372
250.721	326063
250.785	124172
250.848	59112
250.911	37435
250.974	31923
251.038	49538
251.101	97850
251.164	49457
251.227	49352
251.290	45188
251.354	73527
251.417	300171
251.480	274996
251.543	208634
251.606	511987
251.669	379558
251.732	155403
251.795	144692
251.859	148737
251.922	334030
251.985	187244
252.048	69262
252.111	50430
252.174	46073
252.237	86863
252.300	188951
252.363	213718
252.426	406177
252.489	172926
252.552	80041
252.615	53275
252.678	56647
252.741	147793
252.804	205360
252.867	421325
252.930	244720
252.993	121897
253.056	68975
253.119	47640
253.182	39456
253.245	74736
253.308	52574
253.371	45815
253.434	40570
253.497	39107
253.559	82992
253.622	53388
253.685	63020
253.748	58774
253.811	32573
253.874	39210
253.937	36830
254.000	29343
254.062	59568
254.125	88037
254.188	69188
254.251	57399
254.314	29344
254.376	56334
254.439	58045
254.502	47875
254.565	62936
254.628	100788
254.690	53717
254.753	30726
254.816	26147
254.878	28748
254.941	66938
255.004	65187
255.067	28376
255.129	27091
255.192	16998
255.255	16553
255.317	20417
255.380	13857
255.443	12453
255.505	12992
255.568	13172
255.631	13840
255.693	16078
255.756	14541
255.819	13399
255.881	13168
255.944	12071
256.006	12066
256.069	14689
256.132	12181
256.194	16798
256.257	41500
256.319	29259
256.382	28951
256.444	20103
256.507	16532
256.569	15232
256.632	15146
256.694	21105
256.757	41318
256.819	107831
256.882	50954
256.944	24652
257.007	21948
257.069	24431
257.132	17558
257.194	17116
257.257	16233
257.319	15893
257.381	16002
257.444	30350
257.506	139779
257.569	148441
257.631	104536
257.693	54203
257.756	29468
257.818	24756
257.880	15884
257.943	16002
258.005	14020
258.067	13208
258.130	14145
258.192	17494
258.254	34782
258.317	22237
258.379	17576
258.441	53730
258.503	43191
258.566	56391
258.628	62869
258.690	20996
258.753	20089
258.815	33826
258.877	21431
258.939	15546
259.001	15089
259.064	13977
259.126	20478
259.188	28403
259.250	20420
259.312	24399
259.375	63669
259.437	38067
259.499	17506
259.561	16905
259.623	16533
259.685	14845
259.747	15713
259.809	51387
259.872	84561
259.934	142760
259.996	107926
260.058	31956
260.120	18459
260.182	15674
260.244	14374
260.306	12514
260.368	14334
260.430	13367
260.492	24575
260.554	52097
260.616	44428
260.678	79830
260.740	94001
260.802	28556
260.864	20572
260.926	17593
260.988	17781
261.050	16612
261.112	29091
261.174	88459
261.236	71379
261.298	25878
261.359	44182
261.421	54680
261.483	19996
261.545	17175
261.607	12935
261.669	13170
261.731	28535
261.793	62806
261.854	31414
261.916	20526
261.978	16226
262.040	17768
262.102	15541
262.164	26339
262.225	21747
262.287	17411
262.349	43736
262.411	30823
262.472	16693
262.534	30993
262.596	56706
262.658	22274
262.719	14752
262.781	20654
262.843	55655
262.904	26120
262.966	20100
263.028	25105
263.090	133379
263.151	300382
263.213	94749
263.275	45552
263.336	24605
263.398	18221
263.459	13494
263.521	15762
263.583	37712
263.644	24957
263.706	13752
263.767	11541
263.829	11497
263.891	10592
263.952	9902
264.014	10358
264.075	14238
264.137	26205
264.198	19012
264.260	10677
264.321	10155
264.383	26737
264.444	45028
264.506	16993
264.567	13533
264.629	19148
264.690	32786
264.752	19167
264.813	13691
264.875	11146
264.936	11790
264.998	11080
265.059	11097
265.120	11180
265.182	14583
265.243	48163
265.305	45346
265.366	20020
265.427	14335
265.489	12376
265.550	9615
265.611	14168
265.673	13623
265.734	10946
265.795	10310
265.857	11963
265.918	11675
265.979	18341
266.040	85742
266.102	66377
266.163	26258
266.224	22529
266.286	16008
266.347	18206
266.408	15956
266.469	15563
266.530	12864
266.592	17739
266.653	30909
266.714	40090
266.775	17741
266.836	14247
266.898	15866
266.959	19180
267.020	15392
267.081	15400
267.142	14897
267.203	19223
267.264	16424
267.326	19022
267.387	13600
267.448	13033
267.509	13398
267.570	13952
267.631	13472
267.692	23841
267.753	38694
267.814	17240
267.875	33065
267.936	55622
267.997	23527
268.058	21073
268.119	15369
268.180	14779
268.241	12909
268.302	11480
268.363	11144
268.424	12487
268.485	13266
268.546	10814
268.607	9289
268.668	9834
268.729	13024
268.790	14408
268.851	15567
268.912	33393
268.972	36176
269.033	21516
269.094	15557
269.155	14227
269.216	10365
269.277	12817
269.338	11238
269.398	12243
269.459	14498
269.520	17993
269.581	22081
269.642	25770
269.702	19868
269.763	15213
269.824	16583
269.885	22397
269.945	26679
270.006	13411
270.067	11499
270.128	12620
270.188	14452
270.249	15360
270.310	11599
270.370	12708
270.431	12097
270.492	10830
270.553	12458
270.613	26637
270.674	50522
270.734	21151
270.795	15252
270.856	20632
270.916	17437
270.977	13125
271.038	15910
271.098	16599
271.159	26662
271.219	24924
271.280	15621
271.340	12915
271.401	16451
271.462	33102
271.522	20246
271.583	14656
271.643	17680
271.704	16457
271.764	18030
271.825	37422
271.885	140579
271.946	179173
272.006	56305
272.066	87744
272.127	144716
272.187	49291
272.248	28955
272.308	30210
272.369	104085
272.429	53055
272.489	38954
272.550	36341
272.610	44065
272.671	42238
272.731	33162
272.791	45020
272.852	29858
272.912	25676
272.972	18463
273.033	19414
273.093	28409
273.153	29829
273.214	29005
273.274	25378
273.334	73972
273.394	134050
273.455	57176
273.515	57447
273.575	116266
273.635	53863
273.696	75153
273.756	141029
273.816	57219
273.876	37043
273.936	71155
273.997	97357
274.057	34526
274.117	31820
274.177	39241
274.237	170043
274.297	128870
274.358	85793
274.418	111392
274.478	72033
274.538	30784
274.598	26382
274.658	80076
274.718	95782
274.778	40591
274.838	27724
274.898	56297
274.958	137628
275.018	140663
275.078	88746
275.138	39587
275.198	29315
275.258	23939
275.318	27185
275.378	38710
275.438	36938
275.498	27129
275.558	70410
275.618	135463
275.678	91137
275.738	60494
275.798	42646
275.858	23096
275.918	16509
275.978	22218
276.038	19961
276.098	17130
276.157	35653
276.217	85738
276.277	50590
276.337	34948
276.397	21832
276.457	29966
276.517	19753
276.576	15634
276.636	27423
276.696	44036
276.756	57566
276.815	39367
276.875	24317
276.935	29120
276.995	34251
277.055	24955
277.114	20058
277.174	27182
277.234	70286
277.293	31969
277.353	22550
277.413	18292
277.472	19870
277.532	20932
277.592	24663
277.651	121106
277.711	191573
277.771	68051
277.830	227648
277.890	157915
277.950	150028
278.009	378986
278.069	153889
278.128	171549
278.188	194480
278.248	92815
278.307	248109
278.367	125875
278.426	44027
278.486	31320
278.545	24752
278.605	22652
278.664	21829
278.724	24033
278.783	62652
278.843	137479
278.902	45782
278.962	34569
279.021	37388
279.081	76295
279.140	66389
279.199	43889
279.259	45016
279.318	50017
279.378	63789
279.437	114686
279.496	392463
279.556	955831
279.615	743745
279.675	262870
279.734	144011
279.793	201936
279.853	277864
279.912	100204
279.971	61728
280.031	57136
280.090	105543
280.149	162873
280.208	168372
280.268	669194
280.327	623394
280.386	194742
280.445	122529
280.505	87820
280.564	49038
280.623	39019
280.682	53915
280.742	66383
280.801	31395
280.860	26823
280.919	23426
280.978	25294
281.037	24427
281.097	22776
281.156	24305
281.215	23376
281.274	25329
281.333	94607
281.392	62358
281.451	24278
281.510	20653
281.569	20270
281.628	18566
281.688	18079
281.747	20930
281.806	19643
281.865	17639
281.924	16427
281.983	17672
282.042	14460
282.101	14581
282.160	15667
282.219	16432
282.278	19048
282.337	50661
282.396	32553
282.454	18480
282.513	22410
282.572	69386
282.631	37955
282.690	21259
282.749	18506
282.808	20951
282.867	20513
282.926	20601
282.985	16947
283.043	16597
283.102	19296
283.161	20579
283.220	42002
283.279	79442
283.338	30762
283.396	23249
283.455	24102
283.514	28117
283.573	70070
283.631	46365
283.690	25120
283.749	23451
283.808	40398
283.866	41526
283.925	25878
283.984	26534
284.043	32657
284.101	33415
284.160	29125
284.219	32054
284.277	36467
284.336	74197
284.395	124442
284.453	92263
284.512	54722
284.570	65607
284.629	65176
284.688	71544
284.746	82165
284.805	97428
284.863	126330
284.922	160342
284.981	210314
285.039	295312
285.098	472916
285.156	875759
285.215	1080308
285.273	1115045
285.332	874034
285.390	544970
285.449	353980
285.507	243718
285.566	187739
285.624	142553
285.683	107369
285.741	86095
285.799	74000
285.858	66500
285.916	65856
285.975	50833
286.033	44019
286.091	43505
286.150	40119
286.208	36180
286.267	44831
286.325	40613
286.383	42661
286.442	36728
286.500	35473
286.558	36170
286.616	27848
286.675	38431
286.733	36746
286.791	34207
286.850	27772
286.908	31926
286.966	43012
287.024	26145
287.083	23978
287.141	20842
287.199	23370
287.257	26928
287.315	22310
287.374	26298
287.432	44435
287.490	29824
287.548	23275
287.606	24725
287.664	24386
287.723	26392
287.781	29637
287.839	25102
287.897	28937
287.955	37097
288.013	45483
288.071	97348
288.129	432086
288.187	985643
288.245	447006
288.303	163938
288.361	94475
288.419	62239
288.477	42368
288.535	32417
288.593	24505
288.651	22655
288.709	23338
288.767	21289
288.825	18364
288.883	17945
288.941	37107
288.999	24334
289.057	16901
289.115	15421
289.173	16944
289.231	16963
289.289	20064
289.346	29822
289.404	22732
289.462	29537
289.520	25783
289.578	15633
289.636	14125
289.694	17432
289.751	12937
289.809	12755
289.867	12955
289.925	16802
289.983	18396
290.040	11955
290.098	11156
290.156	13884
290.214	16187
290.271	11287
290.329	12169
290.387	11947
290.444	10351
290.502	9249
290.560	14094
290.617	12463
290.675	13124
290.733	12182
290.790	12950
290.848	11024
290.906	20569
290.963	17856
291.021	13011
291.078	18415
291.136	23298
291.194	36168
291.251	63804
291.309	20131
291.366	12687
291.424	12949
291.481	14385
291.539	19210
291.596	19038
291.654	11097
291.711	8943
291.769	12779
291.826	23518
291.884	14973
291.941	10066
291.999	10905
292.056	13692
292.114	13627
292.171	10902
292.228	13003
292.286	14700
292.343	26207
292.401	33119
292.458	21788
292.515	16554
292.573	18212
292.630	16850
292.687	16124
292.745	12411
292.802	15760
292.859	39808
292.917	83319
292.974	41210
293.031	17844
293.089	15126
293.146	12841
293.203	11088
293.260	10564
293.318	16420
293.375	17040
293.432	12656
293.489	12242
293.546	12596
293.604	18730
293.661	75223
293.718	151255
293.775	60932
293.832	36792
293.889	37907
293.947	37589
294.004	22696
294.061	20403
294.118	39803
294.175	66617
294.232	66727
294.289	34583
294.346	22390
294.403	18250
294.460	18235
294.517	15021
294.574	12812
294.631	11759
294.688	13875
294.745	39277
294.802	145071
294.859	104363
294.916	49210
294.973	34878
295.030	26761
295.087	19838
295.144	15397
295.201	13818
295.258	11231
295.315	15399
295.372	64351
295.429	109804
295.486	39843
295.542	21821
295.599	39996
295.656	55354
295.713	58729
295.770	91172
295.827	32231
295.883	17145
295.940	18059
295.997	28478
296.054	24869
296.111	15091
296.167	12112
296.224	10016
296.281	11053
296.338	10565
296.394	10570
296.451	13660
296.508	46574
296.564	71569
296.621	42940
296.678	134572
296.734	168977
296.791	68033
296.848	34697
296.904	31598
296.961	63897
297.018	115745
297.074	78166
297.131	47519
297.187	28986
297.244	32466
297.301	142057
297.357	212443
297.414	66809
297.470	31472
297.527	30741
297.583	33878
297.640	21605
297.696	16058
297.753	12872
297.809	11904
297.866	10361
297.922	10543
297.979	12081
298.035	15326
298.092	32510
298.148	74964
298.204	56343
298.261	26405
298.317	56567
298.374	152649
298.430	76090
298.486	38891
298.543	37541
298.599	81042
298.656	115040
298.712	86762
298.768	142867
298.824	92980
298.881	51390
298.937	30422
298.993	20397
299.050	23364
299.106	18718
299.162	21276
299.218	28516
299.275	17848
299.331	16520
299.387	38430
299.443	155446
299.500	159454
299.556	73582
299.612	39789
299.668	55002
299.724	74231
299.780	60087
299.837	30125
299.893	43136
299.949	130546
300.005	125070
300.061	128645
300.117	212657
300.173	87612
300.229	46216
300.285	52583
300.341	49097
300.397	28778
300.453	23941
300.510	37979
300.566	31093
300.622	31877
300.678	117517
300.734	150707
300.790	116561
300.845	131048
300.901	97857
300.957	134928
301.013	78399
301.069	34020
301.125	27698
301.181	29262
301.237	24850
301.293	20900
301.349	31066
301.405	41537
301.461	77374
301.516	134223
301.572	70944
301.628	46971
301.684	39573
301.740	95125
301.796	127250
301.851	80485
301.907	95535
301.963	69907
302.019	145645
302.074	397036
302.130	376229
302.186	215792
302.242	87202
302.297	49560
302.353	46405
302.409	95540
302.464	93337
302.520	61687
302.576	136089
302.631	130310
302.687	66601
302.743	31518
302.798	21366
302.854	16942
302.910	21151
302.965	28012
303.021	62758
303.076	52671
303.132	54233
303.187	52820
303.243	26479
303.299	16200
303.354	15929
303.410	20206
303.465	19681
303.521	14614
303.576	12246
303.632	16301
303.687	52288
303.743	140407
303.798	92612
303.853	36716
303.909	21889
303.964	20260
304.020	31173
304.075	47752
304.130	45744
304.186	61571
304.241	55651
304.297	45183
304.352	26278
304.358	25471
304.407	18944
304.449	19417
304.463	19590
304.518	19025
304.539	17644
304.573	15472
304.629	14229
304.630	14491
304.684	27250
304.720	75327
304.739	99524
304.794	125621
304.811	104484
304.850	53835
304.902	26721
304.905	25042
304.960	18085
304.992	18185
305.015	18299
305.071	21639
305.083	20977
305.126	18307
305.173	12348
305.181	11401
305.236	10544
305.264	11907
305.292	13644
305.347	27386
305.354	29765
305.402	43957
305.445	34549
305.457	31764
305.512	23991
305.535	22347
305.567	20635
305.622	21230
305.626	22035
305.678	39862
305.716	90106
305.733	109066
305.788	107034
305.807	92909
305.843	69626
305.897	114650
305.898	115172
305.953	99442
305.988	64666
306.008	45853
306.063	29866
306.078	26633
306.118	19698
306.168	14363
306.173	13904
306.228	11679
306.259	11080
306.283	10573
306.338	8772
306.349	8963
306.393	10082
306.440	11299
306.448	11508
306.503	11891
306.530	12671
306.558	15313
306.613	33272
306.620	36231
306.668	57872
306.711	88721
306.723	93700
306.778	65014
306.801	49419
306.833	31556
306.888	17508
306.892	16968
306.943	13226
306.982	11413
306.997	10787
307.052	10246
307.072	10235
307.107	10557
307.162	11774
307.163	11815
307.217	16029
307.253	19065
307.272	20017
307.327	21901
307.343	21298
307.381	20032
307.434	19044
307.436	19416
307.491	35338
307.524	55594
307.546	64037
307.600	67200
307.614	60068
307.655	34624
307.704	18290
307.710	17507
307.765	18578
307.795	22792
307.819	26862
307.874	37279
307.885	36848
307.929	28862
307.975	22643
307.984	22941
308.038	28743
308.065	34819
308.093	60816
308.148	146132
308.156	170616
308.202	303074
308.246	342332
308.257	329242
308.312	160021
308.336	110697
308.366	88407
308.421	61077
308.426	58601
308.475	37892
308.517	28266
308.530	26603
308.585	23664
308.607	23397
308.639	23823
308.694	25869
308.697	26260
308.748	39921
308.787	54036
308.803	54785
308.857	42881
308.877	38757
308.912	37009
308.967	39790
308.967	39912
309.021	59333
309.058	77495
309.076	93369
309.130	152168
309.148	174033
309.185	286822
309.238	512642
309.239	514633
309.293	591612
309.328	543397
309.348	463599
309.402	228971
309.418	172210
309.457	128563
309.508	92084
309.511	91683
309.566	105008
309.598	120330
309.620	151660
309.674	253490
309.688	277707
309.729	262645
309.778	208335
309.783	202425
309.837	129544
309.868	93991
309.892	91607
309.946	100925
309.959	106604
310.001	125294
310.049	134691
310.055	130242
310.109	79106
310.139	53144
310.163	43691
310.218	30650
310.229	28463
310.272	22504
310.319	17172
310.326	16581
310.381	13908
310.409	13032
310.435	12362
310.489	10978
310.499	10859
310.543	10902
310.589	11117
310.598	10968
310.652	10238
310.679	9845
310.706	8926
310.760	7206
310.769	6982
310.814	7093
310.859	7371
310.868	7436
310.923	8000
310.948	8253
310.977	9060
311.031	11273
311.038	11549
311.085	10843
311.128	9709
311.139	9471
311.193	8844
311.218	8460
311.247	7702
311.301	6453
311.308	6332
311.356	6566
311.398	6850
311.410	6791
311.464	6505
311.488	6404
311.518	6584
311.572	7087
311.578	7176
311.626	9733
311.668	11932
311.680	11625
311.734	10060
311.758	9452
311.788	10998
311.842	13912
311.847	14216
311.896	14280
311.937	14418
311.950	14519
312.004	15003
312.027	15203
312.058	12936
312.112	8937
312.117	8561
312.165	7684
312.207	6997
312.297	8033
312.386	7480
312.476	15710
312.566	21569
312.656	8522
312.745	6099
312.835	7521
312.925	8901
313.015	8275
313.104	8630
313.194	15540
313.284	10250
313.374	12219
313.463	10763
313.553	6790
313.643	8216
313.732	7082
313.822	5073
313.912	8130
314.001	8937
314.091	9303
314.180	10085
314.270	10652
314.360	11557
314.449	11086
314.539	7803
314.628	8025
314.718	9070
314.808	10431
314.897	9330
314.987	9893
315.076	12654
315.166	14468
315.255	12434
315.345	13614
315.434	11882
315.524	12989
315.613	17084
315.703	28050
315.792	71836
315.881	274547
315.971	84482
316.060	25663
316.150	24842
316.239	23894
316.328	11961
316.418	9018
316.507	8928
316.597	12401
316.686	12077
316.775	14225
316.865	25060
316.954	8792
317.043	8464
317.133	8607
317.222	7162
317.311	7945
317.400	8931
317.490	13366
317.579	16925
317.668	16899
317.757	41236
317.847	138412
317.936	463593
318.025	132720
318.114	85044
318.203	38623
318.293	30239
318.382	55773
318.471	39421
318.560	45751
318.649	45784
318.738	14212
318.828	13812
318.917	11558
319.006	13890
319.095	33180
319.184	65703
319.273	43926
319.362	26009
319.451	9011
319.540	11229
319.629	26193
319.718	38523
319.807	14346
319.896	32353
319.985	84327
320.074	32857
320.163	10501
320.252	16428
320.341	11274
320.430	10535
320.519	19947
320.608	11832
320.697	10152
320.786	11170
320.875	16231
320.964	20613
321.053	29113
321.142	42820
321.230	41755
321.319	34350
321.408	68621
321.497	30112
321.586	29331
321.675	29435
321.764	27594
321.852	19039
321.941	38667
322.030	25260
322.119	28925
322.207	71368
322.296	38220
322.385	22343
322.474	37820
322.562	96151
322.651	43782
322.740	36530
322.829	46774
322.917	35362
323.006	24924
323.095	21678
323.183	14421
323.272	20872
323.361	42604
323.449	108380
323.538	35840
323.626	74579
323.715	43609
323.804	18893
323.892	64743
323.981	36699
324.069	12059
324.158	34084
324.246	30493
324.335	17423
324.424	25221
324.512	9440
324.601	12500
324.689	25253
324.778	41244
324.866	27613
324.954	9503
325.043	9073
325.131	17420
325.220	25989
325.308	28887
325.397	23092
325.485	14471
325.574	7598
325.662	7468
325.750	9418
325.839	8187
325.927	6707
326.015	9835
326.104	11708
326.192	16127
326.280	6345
326.369	6048
326.457	11224
326.545	19506
326.634	9359
326.722	5719
326.810	7888
326.898	7023
326.987	9650
327.075	20530
327.163	18655
327.251	8839
327.340	17191
327.428	21213
327.516	8414
327.604	9355
327.692	7596
327.781	8532
327.869	12272
327.957	9778
328.045	10204
328.133	5579
328.221	7673
328.309	7519
328.397	6048
328.485	8852
328.574	15724
328.662	49888
328.750	23739
328.838	8045
328.926	5794
329.014	5565
329.102	8579
329.190	18042
329.278	14202
329.366	5043
329.454	4312
329.542	5161
329.630	5180
329.718	5045
329.806	7392
329.893	6947
329.981	5063
330.069	7870
330.157	34052
330.245	95144
330.333	41694
330.421	9126
330.509	13506
330.597	55531
330.684	31260
330.772	10258
330.860	9519
330.948	11633
331.036	6865
331.123	4239
331.211	5128
331.299	6871
331.387	11425
331.475	18904
331.562	8412
331.650	6202
331.738	6874
331.825	8090
331.913	4835
332.001	5523
332.089	6222
332.176	11620
332.264	30919
332.352	22755
332.439	9663
332.527	7186
332.614	5759
332.702	8571
332.790	7167
332.877	19262
332.965	44902
333.052	23671
333.140	28802
333.228	79019
333.315	19609
333.403	10129
333.490	21448
333.578	36748
333.665	114917
333.753	43829
333.840	9896
333.928	10218
334.015	20231
334.103	34386
334.190	93865
334.278	28508
334.365	21706
334.452	20514
334.540	13045
334.627	14071
334.715	17286
334.802	30912
334.889	141002
334.977	158363
335.064	35631
335.151	16150
335.239	12041
335.326	13630
335.413	48130
335.501	55842
335.588	12817
335.675	11142
335.762	13025
335.850	18672
335.937	22235
336.024	52841
336.111	167412
336.199	96510
336.286	27083
336.373	13400
336.460	9432
336.547	8974
336.635	11051
336.722	10604
336.809	13422
336.896	14186
336.983	29884
337.070	59947
337.157	88921
337.245	77794
337.332	54625
337.419	9752
337.506	6630
337.593	7565
337.680	19112
337.767	43002
337.854	16936
337.941	19193
338.028	28849
338.115	12502
338.202	10171
338.289	21957
338.376	75851
338.463	24320
338.550	28210
338.637	27139
338.724	14611
338.811	21038
338.898	7065
338.984	5642
339.071	6932
339.158	9701
339.245	26795
339.332	17616
339.419	16295
339.506	15507
339.593	5203
339.679	6583
339.766	5428
339.853	9058
339.940	20056
340.027	7385
340.113	7747
340.200	10959
340.287	8366
340.374	12106
340.460	18582
340.547	9015
340.634	13730
340.720	56513
340.807	33145
340.894	10088
340.980	7989
341.067	7273
341.154	7646
341.240	13925
341.327	28481
341.414	15985
341.500	21696
341.587	8443
341.674	6954
341.760	17412
341.847	20626
341.933	8068
342.020	5076
342.106	6116
342.193	9222
342.279	17960
342.366	12688
342.452	18344
342.539	11749
342.625	24654
342.712	59413
342.798	25809
342.885	10787
342.971	4645
343.058	5609
343.144	6487
343.230	6941
343.317	14192
343.403	13206
343.490	5869
343.576	7316
343.662	8735
343.749	8984
343.835	10445
343.921	21969
344.008	167067
344.094	382805
344.180	76075
344.267	23279
344.353	83827
344.439	78892
344.525	30625
344.612	16438
344.698	14111
344.784	9286
344.870	5759
344.957	6949
345.043	10547
345.129	9133
345.215	17082
345.301	14234
345.387	10151
345.474	5609
345.560	7256
345.646	7214
345.732	6998
345.818	12453
345.904	10726
345.990	9099
346.076	10109
346.162	18485
346.249	10093
346.335	5972
346.421	8051
346.507	39338
346.593	130254
346.679	29196
346.765	9354
346.851	9391
346.937	8814
347.023	7173
347.108	9048
347.194	8136
347.280	9751
347.366	12444
347.452	44865
347.538	169478
347.624	104986
347.710	73110
347.796	11989
347.882	6708
347.967	5319
348.053	6000
348.139	7069
348.225	6386
348.311	7265
348.397	6892
348.482	9121
348.568	9330
348.654	7199
348.740	18106
348.825	17757
348.911	16992
348.997	75874
349.083	145643
349.168	21175
349.254	12121
349.340	12290
349.425	6486
349.511	9371
349.597	10332
349.682	21750
349.768	74527
349.854	35936
349.939	5924
350.025	5802
350.110	6138
350.196	5838
350.282	4718
350.367	4222
350.453	8956
350.538	9346
350.624	9008
350.709	7604
350.795	5470
350.880	6349
350.966	8321
351.051	12716
351.137	8046
351.222	7530
351.308	23506
351.393	59699
351.479	21623
351.564	10795
351.649	6839
351.735	5677
351.820	6483
351.906	5758
351.991	9449
352.076	39403
352.162	57135
352.247	12281
352.332	9543
352.418	24793
352.503	31125
352.588	81299
352.673	66845
352.759	15992
352.844	8960
352.929	10061
353.014	13958
353.100	9816
353.185	18935
353.270	24542
353.355	22336
353.441	7668
353.526	7823
353.611	19259
353.696	22909
353.781	13156
353.866	7469
353.952	8239
354.037	18658
354.122	41739
354.207	37569
354.292	14893
354.377	7593
354.462	6753
354.547	9721
354.632	9206
354.717	13600
354.802	24137
354.887	10579
354.972	6225
355.057	6705
355.142	6003
355.227	9107
355.312	15430
355.397	29256
355.482	67126
355.567	34252
355.652	23006
355.737	29439
355.822	90051
355.907	76441
355.991	12229
356.076	7687
356.161	7358
356.246	6771
356.331	9397
356.416	26561
356.501	170950
356.585	186808
356.670	28779
356.755	15634
356.840	23800
356.924	119063
357.009	425263
357.094	153817
357.179	27824
357.263	21964
357.348	19420
357.433	22515
357.517	21501
357.602	18004
357.687	19714
357.771	70548
357.856	308417
357.941	155303
358.025	100672
358.110	424123
358.195	195279
358.279	25222
358.364	20382
358.448	60942
358.533	153961
358.617	111527
358.702	109771
358.787	42401
358.871	21440
358.956	20080
359.040	10776
359.125	10048
359.209	24892
359.294	156230
359.378	272706
359.462	51449
359.547	14976
359.631	9634
359.716	8098
359.800	8280
359.885	10555
359.969	10357
360.053	7903
360.138	9809
360.222	14550
360.306	24808
360.391	30850
360.475	139540
360.559	274822
360.644	87341
360.728	50046
360.812	93046
360.896	265860
360.981	90747
361.065	37825
361.149	13457
361.233	12585
361.318	13434
361.402	16835
361.486	12687
361.570	10018
361.654	14551
361.739	34732
361.823	165758
361.907	275582
361.991	50883
362.075	22810
362.159	44280
362.243	37532
362.327	50735
362.411	74219
362.495	33040
362.580	15199
362.664	11729
362.748	13894
362.832	18848
362.916	38128
363.000	126170
363.084	308315
363.168	348136
363.252	76575
363.336	24629
363.420	26619
363.503	64191
363.587	70056
363.671	22669
363.755	16716
363.839	23122
363.923	18917
364.007	34197
364.091	33944
364.175	43720
364.258	127800
364.342	164121
364.426	284853
364.510	152297
364.594	47189
364.677	52908
364.761	225820
364.845	169811
364.929	42472
365.013	32287
365.096	26086
365.180	31649
365.264	33144
365.347	97875
365.431	43614
365.515	12819
365.598	12530
365.682	10999
365.766	9925
365.849	11608
365.933	9675
366.017	11594
366.100	8776
366.184	5912
366.267	8702
366.351	9374
366.435	6879
366.518	7220
366.602	7828
366.685	8667
366.769	9775
366.852	12324
366.936	20714
367.019	15792
367.103	9294
367.186	12772
367.270	8146
367.353	7136
367.436	9672
367.520	8754
367.603	11373
367.687	16365
367.770	27293
367.853	19932
367.937	58403
368.020	98504
368.104	23629
368.187	19469
368.270	27554
368.353	23065
368.437	26927
368.520	48995
368.603	38796
368.687	64173
368.770	119194
368.853	30978
368.936	21689
369.020	19167
369.103	10459
369.186	9189
369.269	10453
369.352	17547
369.436	23384
369.519	15246
369.602	9408
369.685	10046
369.768	10427
369.851	8662
369.934	7172
370.018	9103
370.101	21269
370.184	17833
370.267	12645
370.350	25352
370.433	40980
370.516	126055
370.599	210904
370.682	79641
370.765	58251
370.848	78324
370.931	152304
371.014	56307
371.097	12697
371.180	10837
371.263	8470
371.346	7518
371.429	9760
371.511	9979
371.594	16178
371.677	21791
371.760	20839
371.843	30361
371.926	146866
372.009	349806
372.091	109589
372.174	65504
372.257	158852
372.340	66597
372.423	30811
372.505	28084
372.588	19763
372.671	48721
372.754	148060
372.836	80475
372.919	33510
373.002	49284
373.085	27580
373.167	29052
373.250	67434
373.332	152346
373.415	217687
373.498	467368
373.580	187785
373.663	306578
373.746	415038
373.828	79060
373.911	26221
373.993	22985
374.076	50287
374.159	49263
374.241	39424
374.324	122105
374.406	97879
374.489	138469
374.571	376439
374.654	156235
374.736	72792
374.819	229769
374.901	329056
374.983	352659
375.066	62949
375.148	21389
375.231	47794
375.313	78047
375.395	34470
375.478	15260
375.560	12791
375.643	19928
375.725	71286
375.807	283366
375.890	206672
375.972	55753
376.054	30920
376.136	41581
376.219	27337
376.301	77814
376.383	236747
376.465	95715
376.548	44908
376.630	64893
376.712	183372
376.794	95574
376.877	14045
376.959	8712
377.041	9682
377.123	10873
377.205	12494
377.287	7095
377.369	7433
377.452	8913
377.534	8449
377.616	7696
377.698	7893
377.780	6964
377.862	8841
377.944	9186
378.026	6621
378.108	7255
378.190	6831
378.272	6785
378.354	6235
378.436	6641
378.518	9746
378.600	24681
378.682	30141
378.764	76317
378.846	66385
378.928	18491
379.010	23637
379.091	15710
379.173	10605
379.255	10158
379.337	15053
379.419	44338
379.501	116643
379.583	50844
379.664	14364
379.746	32450
379.828	75828
379.910	107025
379.991	96748
380.073	20731
380.155	13167
380.237	10811
380.318	9812
380.400	11583
380.482	22513
380.564	30508
380.645	31123
380.727	30135
380.809	18391
380.890	13202
380.972	11111
381.053	11984
381.135	14442
381.217	32122
381.298	79346
381.380	45232
381.461	44421
381.543	188758
381.624	242961
381.706	51146
381.787	25531
381.869	31788
381.951	102253
382.032	356568
382.113	232040
382.195	47625
382.276	37045
382.358	77479
382.439	187471
382.521	222875
382.602	350698
382.684	177976
382.765	273207
382.846	453482
382.928	846209
383.009	515632
383.090	347709
383.172	1108115
383.253	1658580
383.334	570055
383.416	350048
383.497	210338
383.578	140584
383.659	284350
383.741	963194
383.822	2203796
383.903	1242061
383.984	339983
384.066	351944
384.147	224098
384.228	65179
384.309	44663
384.390	37938
384.471	31160
384.553	28309
384.634	31747
384.715	32416
384.796	25018
384.877	33958
384.958	85379
385.039	99741
385.120	38497
385.201	21450
385.282	23155
385.363	26176
385.444	32135
385.525	54907
385.606	145049
385.687	132880
385.768	33434
385.849	40359
385.930	158882
386.011	292811
386.092	84108
386.173	20327
386.254	15174
386.335	16099
386.416	19310
386.496	50219
386.577	78282
386.658	28764
386.739	17994
386.820	15974
386.901	13074
386.981	15458
387.062	15747
387.143	28758
387.224	80306
387.304	78057
387.385	31350
387.466	21758
387.547	26750
387.627	24533
387.708	42699
387.789	145418
387.869	193158
387.950	58280
388.031	14386
388.111	11518
388.192	17458
388.273	23794
388.353	22222
388.434	18601
388.514	44674
388.595	168179
388.676	212013
388.756	87057
388.837	68530
388.917	47009
388.998	13663
389.078	13051
389.159	12427
389.239	12057
389.320	18578
389.400	19112
389.480	35468
389.561	87493
389.641	47836
389.722	18218
389.802	25681
389.883	42717
389.963	107447
390.043	67821
390.124	20241
390.204	33946
390.284	88735
390.365	63804
390.445	62347
390.525	220144
390.605	231376
390.686	61713
390.766	25615
390.846	21090
390.927	17113
391.007	13045
391.087	15006
391.167	18284
391.247	15916
391.328	16046
391.408	18403
391.488	15759
391.568	13517
391.648	18450
391.728	22310
391.808	24849
391.888	38657
391.969	63126
392.049	83003
392.129	41598
392.209	48258
392.289	109756
392.369	64351
392.449	37453
392.529	33872
392.609	38781
392.689	54171
392.769	123713
392.849	123063
392.929	96184
393.009	181220
393.089	206049
393.169	286198
393.248	839602
393.328	2340290
393.408	2556468
393.488	911176
393.568	271761
393.648	131498
393.728	81585
393.807	56263
393.887	46040
393.967	37191
394.047	35832
394.127	36042
394.206	44262
394.286	117415
394.366	481103
394.446	535557
394.525	107164
394.605	29651
394.685	25732
394.764	38736
394.844	61453
394.924	54319
395.003	25249
395.083	20920
395.163	18857
395.242	18059
395.322	18486
395.402	14947
395.481	18960
395.561	33835
395.640	81763
395.720	96103
395.799	81756
395.879	59115
395.958	43916
396.038	154544
396.117	628600
396.197	720794
396.276	166314
396.356	69783
396.435	62848
396.515	65537
396.594	102337
396.673	227956
396.753	801224
396.832	2090632
396.912	1645071
396.991	440175
397.070	132137
397.150	69171
397.229	51790
397.308	67402
397.388	99357
397.467	51296
397.546	25124
397.625	24891
397.705	31126
397.784	23537
397.863	15978
397.942	13643
398.022	13687
398.101	24766
398.180	51995
398.259	29384
398.338	18845
398.417	20917
398.497	12432
398.576	11232
398.655	8924
398.734	8410
398.813	9406
398.892	23195
398.971	56326
399.050	34930
399.129	14979
399.208	10093
399.287	8969
399.366	6285
399.445	7065
399.524	6716
399.603	6748
399.682	13582
399.761	29979
399.840	65105
399.919	50687
399.998	10390
400.077	5966
400.156	5249
400.235	8449
400.313	6356
400.392	8872
400.471	38539
400.550	62417
400.629	19036
400.708	8773
400.786	6811
400.865	11437
400.944	12636
401.023	10974
401.102	4947
401.180	5259
401.259	6190
401.338	6194
401.416	8378
401.495	7134
401.574	5884
401.652	5606
401.731	8482
401.810	8428
401.888	6305
401.967	5256
402.046	8835
402.124	8562
402.203	9903
402.281	8192
402.360	11243
402.438	16179
402.517	10721
402.596	7216
402.674	6926
402.753	5720
402.831	5757
402.910	9820
402.988	43223
403.066	130176
403.145	80926
403.223	43241
403.302	106991
403.380	81983
403.459	76575
403.537	31825
403.615	11330
403.694	4709
403.772	5624
403.850	5080
403.929	5266
404.007	5806
404.085	14122
404.164	17797
404.242	7528
404.320	7710
404.398	12790
404.477	52844
404.555	232018
404.633	222001
404.711	33404
404.789	9078
404.868	9103
404.946	6773
405.024	5174
405.102	4222
405.180	4727
405.258	3405
405.336	4702
405.415	4773
405.493	10540
405.571	12203
405.649	5746
405.727	4819
405.805	9347
405.883	10364
405.961	9235
406.039	6615
406.117	5892
406.195	12337
406.273	55083
406.351	187236
406.429	117429
406.507	15217
406.585	5453
406.663	7476
406.740	8813
406.818	8522
406.896	5973
406.974	7484
407.052	18453
407.130	104505
407.208	152944
407.285	33522
407.363	6046
407.441	5808
407.519	5297
407.596	6965
407.674	15161
407.752	35873
407.830	33183
407.907	13635
407.985	8093
408.063	4693
408.141	3349
408.218	6951
408.296	7978
408.373	8928
408.451	7387
408.529	7180
408.606	5324
408.684	4092
408.762	3792
408.839	4473
408.917	3561
408.994	5562
409.072	6416
409.149	7741
409.227	13564
409.304	19734
409.382	16180
409.459	20229
409.537	27953
409.614	21231
409.692	14707
409.769	17595
409.846	29121
409.924	34699
410.001	23866
410.079	14634
410.156	10363
410.233	9017
410.311	8719
410.388	7768
410.465	9369
410.543	9142
410.620	6914
410.697	6285
410.775	10136
410.852	6311
410.929	10483
411.006	12787
411.083	10452
411.161	18542
411.238	16968
411.315	7756
411.392	5769
411.469	9261
411.547	11001
411.624	6177
411.701	5996
411.778	6890
411.855	14069
411.932	9878
412.009	4936
412.086	5412
412.163	6213
412.240	5788
412.317	7029
412.394	7077
412.471	3599
412.548	4338
412.625	5249
412.702	7594
412.779	10956
412.856	8042
412.933	3262
413.010	3587
413.087	8806
413.164	36336
413.241	51746
413.318	14323
413.395	8942
413.471	12538
413.548	6737
413.625	4165
413.702	5007
413.779	3966
413.855	2420
413.932	2415
414.009	1358
414.086	2599
414.162	3070
414.239	7666
414.316	33455
414.393	77194
414.469	31171
414.546	4842
414.623	2663
414.699	3798
414.776	4091
414.853	3877
414.929	4038
415.006	3268
415.082	3319
415.159	3795
415.236	3709
415.312	4328
415.389	9056
415.465	11276
415.542	6722
415.618	4043
415.695	8067
415.771	5248
415.848	4452
415.924	4627
416.000	3515
416.077	2565
416.153	2134
416.230	1614
416.306	2506
416.383	3712
416.459	3356
416.535	3053
416.612	3339
416.688	3996
416.764	5311
416.841	4860
416.917	4520
416.993	4600
417.069	4972
417.146	5616
417.222	6423
417.298	5888
417.374	3482
417.451	4587
417.527	5480
417.603	6775
417.679	4982
417.755	4360
417.831	2534
417.908	2976
417.984	3482
418.060	2197
418.136	9375
418.212	12936
418.288	5960
418.364	3699
418.440	3653
418.516	6560
418.592	5915
418.668	12616
418.744	22745
418.820	17247
418.896	5730
418.972	2653
419.048	3883
419.124	10799
419.200	8647
419.276	3244
419.352	2802
419.428	3421
419.504	4468
419.579	5733
419.655	4129
419.731	5384
419.807	15490
419.883	28405
419.959	21884
420.034	7455
420.110	14136
420.186	47431
420.262	40481
420.337	8190
420.413	6960
420.489	4883
420.565	5235
420.640	4365
420.716	5281
420.792	3226
420.867	6059
420.943	5176
421.019	9444
421.094	8345
421.170	6249
421.245	4984
421.321	7179
421.397	7039
421.472	12272
421.548	22797
421.623	20191
421.699	12612
421.774	12878
421.850	12186
421.925	18627
422.001	19015
422.076	19030
422.152	23733
422.227	33876
422.302	45284
422.378	70553
422.453	135094
422.529	326625
422.604	811330
422.679	1260537
422.755	880737
422.830	323660
422.905	128201
422.981	72727
423.056	47619
423.131	34477
423.207	27195
423.282	24303
423.357	27367
423.432	20968
423.508	20040
423.583	30114
423.658	24648
423.733	11913
423.808	11791
423.883	14164
423.959	14511
424.034	14827
424.109	13195
424.184	8312
424.259	6244
424.334	6576
424.409	4985
424.484	5195
424.559	6793
424.634	6193
424.709	9638
424.784	9927
424.859	7077
424.934	9185
425.009	34837
425.084	55800
425.159	24126
425.234	8714
425.309	21029
425.384	119604
425.459	217556
425.534	59227
425.609	7839
425.683	4041
425.758	4566
425.833	4710
425.908	6162
425.983	21128
426.058	55504
426.132	27172
426.207	6060
426.282	6995
426.357	5224
426.431	4483
426.506	3449
426.581	3740
426.655	3821
426.730	3810
426.805	4322
426.879	4820
426.954	5828
427.029	11921
427.103	60205
427.178	154703
427.253	75542
427.327	15516
427.402	58490
427.476	189650
427.551	109114
427.625	12483
427.700	5919
427.774	3693
427.849	5013
427.923	3664
427.998	4753
428.072	6460
428.147	17363
428.221	87167
428.296	255081
428.370	145976
428.444	17467
428.519	9112
428.593	11923
428.667	11756
428.742	14850
428.816	36698
428.890	181022
428.965	375110
429.039	150704
429.113	22945
429.188	9137
429.262	5448
429.336	9982
429.410	23490
429.485	17093
429.559	10576
429.633	9781
429.707	7878
429.781	27848
429.855	140075
429.930	217024
430.004	70016
430.078	54355
430.152	102074
430.226	334830
430.300	354474
430.374	58451
430.448	13748
430.522	22239
430.596	50781
430.670	65827
430.744	244834
430.818	336048
430.892	66845
430.966	10204
431.040	5448
431.114	2580
431.188	2915
431.262	3016
431.336	2578
431.410	6327
431.484	15273
431.557	13279
431.631	4681
431.705	9373
431.779	58889
431.853	229033
431.927	166046
432.000	19082
432.074	5221
432.148	3598
432.222	3295
432.295	2704
432.369	3056
432.443	8456
432.516	58295
432.590	151563
432.664	59623
432.737	5682
432.811	1638
432.885	1445
432.958	1921
433.032	1525
433.106	272
433.179	1350
433.253	1807
433.326	1069
433.400	1789
433.473	1441
433.547	294
433.620	2394
433.694	7581
433.767	13055
433.841	6650
433.914	10938
433.988	14905
434.061	4164
434.134	2498
434.208	1394
434.281	484
434.355	3576
434.428	14580
434.501	14931
434.575	2550
434.648	1564
434.721	1776
434.795	724
434.868	409
434.941	1560
435.014	2856
435.088	9747
435.161	28210
435.234	30994
435.307	15611
435.381	7896
435.454	9981
435.527	15098
435.600	15927
435.673	10343
435.746	5521
435.819	4866
435.892	4297
435.966	6525
436.039	4931
436.112	2086
436.185	723
436.258	1327
436.331	1012
436.404	-53
436.477	740
436.550	649
436.623	1071
436.696	981
436.769	1271
436.842	1397
436.915	2177
436.987	3077
437.060	3022
437.133	4980
437.206	3510
437.279	1495
437.352	1226
437.425	2456
437.498	2767
437.570	5735
437.643	5344
437.716	1248
437.789	2497
437.861	7595
437.934	21939
438.007	10355
438.080	2390
438.152	3590
438.225	10689
438.298	86308
438.370	239805
438.443	104499
438.516	23661
438.588	5585
438.661	1196
438.734	1936
438.806	2386
438.879	2954
438.951	6261
439.024	9491
439.096	3227
439.169	878
439.241	1521
439.314	820
439.386	1469
439.459	3884
439.531	8376
439.604	2887
439.676	1158
439.749	688
439.821	-19
439.893	1245
439.966	1230
440.038	2605
440.110	3354
440.183	1891
440.255	722
440.327	4614
440.400	30342
440.472	122005
440.544	85708
440.617	10776
440.689	7406
440.761	10484
440.833	17123
440.905	9666
440.978	1846
441.050	492
441.122	1383
441.194	1007
441.266	1393
441.338	1425
441.411	5909
441.483	33140
441.555	50441
441.627	11073
441.699	3794
441.771	2740
441.843	1506
441.915	2235
441.987	1514
442.059	2058
442.131	3221
442.203	5081
442.275	7076
442.347	8371
442.419	20712
442.491	119403
442.563	272783
442.635	101574
442.706	22810
442.778	14948
442.850	5190
442.922	4227
442.994	4089
443.066	7100
443.137	6081
443.209	7341
443.281	11297
443.353	30070
443.425	141006
443.496	492058
443.568	468877
443.640	157315
443.711	25677
443.783	9734
443.855	5907
443.926	4241
443.998	4190
444.070	3654
444.141	4269
444.213	6809
444.285	7936
444.356	5950
444.428	4765
444.499	3194
444.571	2032
444.642	2417
444.714	2959
444.785	5279
444.857	5678
444.928	8020
445.000	7260
445.071	9032
445.143	11768
445.214	13618
445.285	21908
445.357	65740
445.428	303689
445.500	690071
445.571	412621
445.642	216718
445.714	57361
445.785	24400
445.856	10843
445.928	10670
445.999	10223
446.070	7381
446.141	7263
446.213	7719
446.284	4100
446.355	2810
446.426	1390
446.497	2590
446.569	3894
446.640	5013
446.711	5251
446.782	1685
446.853	2481
446.924	3275
446.995	2436
447.066	2092
447.138	2118
447.209	1126
447.280	39
447.351	788
447.422	-308
447.493	1274
447.564	2716
447.635	5131
447.706	1512
447.777	241
447.847	26
447.918	-48
447.989	1574
448.060	2281
448.131	5149
448.202	4734
448.273	4256
448.344	1370
448.414	545
448.485	1427
448.556	-180
448.627	-490
448.698	1072
448.768	-293
448.839	534
448.910	1413
448.981	1833
449.051	640
449.122	979
449.193	316
449.263	-89
449.334	80
449.405	1408
449.475	6163
449.546	3286
449.616	3844
449.687	7810
449.758	4809
449.828	362
449.899	142
449.969	-326
450.040	154
450.110	1507
450.181	1660
450.251	682
450.322	464
450.392	139
450.463	-374
450.533	-609
450.604	209
450.674	85
450.744	258
450.815	398
450.885	1184
450.955	617
451.026	429
451.096	575
451.166	463
451.237	3442
451.307	6724
451.377	1737
451.447	877
451.518	82
451.588	259
451.658	288
451.728	1065
451.799	6653
451.869	6352
451.939	86
452.009	-357
452.079	-478
452.149	7
452.219	2136
452.289	6714
452.360	5216
452.430	1118
452.500	1818
452.570	4658
452.640	11736
452.710	30715
452.780	29330
452.850	18372
452.920	13625
452.990	4464
453.060	3757
453.129	4971
453.199	3176
453.269	11390
453.339	21109
453.409	30879
453.479	31914
453.549	44377
453.619	43997
453.688	13274
453.758	1828
453.828	249
453.898	336
453.968	229
454.037	1707
454.087	2401
454.107	2667
454.168	271
454.177	-93
454.247	242
454.249	241
454.316	-417
454.330	-213
454.386	436
454.411	1942
454.456	4245
454.492	5379
454.525	6291
454.574	5560
454.595	5209
454.655	3114
454.665	2793
454.734	1268
454.736	1357
454.804	2926
454.817	3914
454.873	7312
454.898	7196
454.943	6742
454.979	4903
455.013	3397
455.060	2055
455.082	1560
455.141	1128
455.152	944
455.221	5733
455.222	5832
455.291	8107
455.303	7074
455.360	2693
455.384	2802
455.430	3162
455.465	3460
455.499	3403
455.546	5809
455.569	6646
455.627	4163
455.638	3768
455.707	539
455.708	555
455.777	44
455.789	12
455.846	-251
455.869	13
455.916	474
455.950	563
455.985	673
456.031	667
456.054	570
456.112	390
456.124	382
456.193	774
456.193	754
456.262	801
456.274	966
456.332	1830
456.355	1974
456.401	1712
456.436	1638
456.470	1704
456.516	1702
456.540	1618
456.597	1476
456.609	1461
456.678	1491
456.678	1473
456.747	236
456.759	236
456.817	628
456.840	927
456.886	1490
456.920	1760
456.955	1934
457.001	2228
457.024	2519
457.082	3266
457.093	3298
457.162	5477
457.163	5508
457.232	4660
457.243	4249
457.301	2424
457.324	1941
457.370	1581
457.405	1864
457.439	2241
457.485	2819
457.508	3088
457.566	3735
457.577	4129
457.646	7359
457.647	7436
457.715	17356
457.727	19724
457.784	33578
457.808	43887
457.853	55486
457.889	61713
457.922	60061
457.969	40903
457.991	40831
458.050	53670
458.060	56139
458.129	94532
458.130	95625
458.198	85544
458.211	74576
458.267	35456
458.292	23923
458.336	18256
458.372	19033
458.405	28685
458.453	45870
458.474	56816
458.533	97512
458.543	100040
458.611	150508
458.614	150826
458.680	78272
458.694	58719
458.749	23035
458.775	15280
458.818	8968
458.855	7165
458.887	6300
458.936	5399
458.955	5204
459.016	4703
459.024	4731
459.093	6067
459.097	6183
459.162	6913
459.177	6751
459.230	5902
459.257	5637
459.299	5469
459.338	5531
459.368	5738
459.418	6611
459.437	6269
459.499	4318
459.505	4276
459.574	3740
459.579	3743
459.643	3311
459.659	3093
459.711	2805
459.740	3067
459.780	3560
459.820	3820
459.849	4389
459.900	5343
459.917	5793
459.981	7959
459.986	8140
460.054	11344
460.061	11805
460.123	9536
460.141	7854
460.191	6317
460.222	5978
460.260	6225
460.302	7148
460.328	6429
460.382	4178
460.397	4246
460.462	4286
460.465	4347
460.534	6997
460.543	7329
460.602	15162
460.623	18215
460.671	26886
460.703	35532
460.739	32003
460.783	22638
460.808	18679
460.864	5470
460.876	4341
460.944	3309
460.945	3299
461.013	3848
461.024	3859
461.081	4321
461.104	4758
461.150	5176
461.184	5174
461.218	5779
461.264	6528
461.286	6689
461.345	8382
461.355	8296
461.423	6440
461.425	6373
461.491	9417
461.505	10352
461.559	16000
461.585	19256
461.628	20536
461.665	20698
461.696	19793
461.745	18338
461.764	15842
461.825	6193
461.832	6161
461.901	6085
461.905	6214
461.969	5742
461.985	5413
462.037	5349
462.065	5376
462.105	6352
462.145	7543
462.173	8828
462.225	11036
462.241	11490
462.305	13930
462.310	13618
462.378	8273
462.385	7522
462.446	7932
462.465	8403
462.514	10238
462.545	11657
462.582	12689
462.625	14095
462.650	11704
462.705	5385
462.718	5314
462.785	4595
462.786	4602
462.854	5073
462.865	5298
462.922	6974
462.945	7577
462.990	6090
463.025	4559
463.058	3932
463.104	3410
463.126	3734
463.184	4535
463.194	4584
463.262	4783
463.264	4798
463.330	4630
463.344	4557
463.398	5421
463.424	5702
463.466	5066
463.504	4721
463.533	5074
463.583	5412
463.601	5638
463.663	6595
463.669	6802
463.737	9026
463.743	9241
463.805	11824
463.823	12598
463.873	16337
463.903	18532
463.940	18576
463.982	18868
464.008	15517
464.062	7382
464.076	7168
464.142	6200
464.144	6188
464.211	5827
464.221	5757
464.279	6224
464.301	6486
464.347	8200
464.381	9500
464.414	13617
464.461	19034
464.482	23664
464.540	36580
464.550	38235
464.617	50641
464.620	51012
464.685	23171
464.699	16066
464.753	11157
464.779	9424
464.820	9497
464.859	9947
464.888	10335
464.938	10977
464.956	12038
465.018	15681
465.023	16369
465.091	25411
465.098	26325
465.158	31672
465.177	33312
465.226	26276
465.257	21460
465.293	16030
465.336	8780
465.361	9407
465.416	11654
465.428	11966
465.495	13818
465.496	13869
465.563	18061
465.575	18791
465.631	20764
465.654	21622
465.698	14061
465.734	7366
465.765	6994
465.813	6600
465.833	6508
465.893	6287
465.900	6278
465.968	6192
465.972	6174
466.035	6573
466.052	6628
466.102	6524
466.131	6503
466.170	7167
466.210	7830
466.237	8787
466.290	10626
466.304	10916
466.369	12131
466.372	12166
466.439	12549
466.449	12560
466.506	13368
466.528	13667
466.573	18000
466.607	21155
466.641	25479
466.687	31510
466.708	33540
466.766	38951
466.775	36435
466.842	16904
466.845	15945
466.909	13297
466.925	12664
466.977	11775
467.004	11283
467.044	10883
467.083	10440
467.111	10809
467.163	11456
467.178	11558
467.242	11864
467.245	11859
467.312	11271
467.321	11172
467.379	10806
467.400	10639
467.446	12114
467.480	13141
467.559	11443
467.638	10156
467.717	11079
467.796	13375
467.875	16390
467.955	13310
468.034	20537
468.113	34665
468.192	44417
468.271	19544
468.350	22946
468.429	32251
468.508	35586
468.588	20095
468.667	15100
468.746	12507
468.825	11915
468.904	11687
468.983	13077
469.062	15639
469.141	18072
469.220	9676
469.299	9410
469.378	9854
469.456	11127
469.535	10260
469.614	10491
469.693	13041
469.772	18531
469.851	23895
469.930	15752
470.009	15049
470.088	20244
470.166	39310
470.245	72885
470.324	91515
470.403	51640
470.482	27271
470.560	18953
470.639	17723
470.718	21603
470.797	18768
470.875	16546
470.954	17515
471.033	16546
471.111	9068
471.190	8010
471.269	7274
471.347	8556
471.426	9264
471.505	8336
471.583	9432
471.662	9568
471.740	13412
471.819	16244
471.898	10668
471.976	8069
472.055	8091
472.133	9643
472.212	11236
472.290	12261
472.369	8689
472.447	7925
472.526	6895
472.604	8856
472.683	12188
472.761	12521
472.839	9838
472.918	11354
472.996	12278
473.075	13833
473.153	10088
473.231	8685
473.310	10638
473.388	10979
473.466	10114
473.545	12737
473.623	20102
473.701	22286
473.780	12821
473.858	7564
473.936	11571
474.014	9011
474.093	11978
474.171	14804
474.249	17714
474.327	12388
474.405	8459
474.484	9981
474.562	9602
474.640	8785
474.718	9423
474.796	9526
474.874	8936
474.952	8406
475.030	8447
475.108	10914
475.187	11867
475.265	16046
475.343	26453
475.421	29737
475.499	14582
475.577	21185
475.655	18519
475.733	21109
475.811	32050
475.889	28174
475.966	18453
476.044	11099
476.122	18647
476.200	25078
476.278	16526
476.356	9333
476.434	11932
476.512	17141
476.590	23699
476.667	17952
476.745	9479
476.823	9387
476.901	8499
476.979	8324
477.056	7735
477.134	9295
477.212	8856
477.290	7847
477.367	6708
477.445	7426
477.523	7553
477.601	7816
477.678	8360
477.756	9154
477.834	9831
477.911	7422
477.989	7895
478.066	7591
478.144	9736
478.222	18222
478.299	34256
478.377	27085
478.454	7808
478.532	7137
478.609	9079
478.687	9782
478.764	8292
478.842	13623
478.919	18568
478.997	11859
479.074	7759
479.152	9983
479.229	14232
479.307	9093
479.384	6302
479.461	7054
479.539	7395
479.616	9557
479.694	9387
479.771	8541
479.848	9302
479.926	11338
480.003	14057
480.080	12168
480.157	9120
480.235	7822
480.312	7586
480.389	8671
480.467	12681
480.544	15479
480.621	10550
480.698	11188
480.775	10932
480.853	9674
480.930	7793
481.007	8341
481.084	9593
481.161	10665
481.238	9128
481.315	7068
481.392	8449
481.470	8323
481.547	8497
481.624	8582
481.701	7946
481.778	9665
481.855	9922
481.932	13656
482.009	19674
482.086	16344
482.163	16281
482.240	29962
482.317	52145
482.393	33878
482.470	12687
482.547	11545
482.624	11197
482.701	12230
482.778	11437
482.855	13175
482.932	16993
483.009	11382
483.085	14366
483.162	18634
483.239	18225
483.316	15754
483.393	15349
483.469	12787
483.546	12474
483.623	12421
483.699	9453
483.776	9727
483.853	11505
483.930	15273
484.006	28837
484.083	43442
484.160	20157
484.236	22149
484.313	20231
484.389	16050
484.466	17036
484.543	18017
484.619	22933
484.696	25616
484.772	20489
484.849	18362
484.925	13933
485.002	15149
485.078	16485
485.155	17703
485.231	13354
485.308	11261
485.384	13950
485.461	17760
485.537	27476
485.614	31633
485.690	13322
485.766	14106
485.843	17896
485.919	29257
485.995	32275
486.072	14660
486.148	17403
486.224	15829
486.301	13449
486.377	17977
486.453	20696
486.530	15072
486.606	15985
486.682	16707
486.758	23263
486.835	28619
486.911	26267
486.987	48839
487.063	74167
487.139	96421
487.215	59515
487.292	23932
487.368	20914
487.444	29741
487.520	46149
487.596	61952
487.672	146047
487.748	413657
487.824	603904
487.900	175091
487.976	49353
488.052	34837
488.128	37675
488.204	26638
488.280	18148
488.356	21722
488.432	35811
488.508	54925
488.584	27040
488.660	26709
488.736	23584
488.812	17849
488.888	24562
488.964	41008
489.039	98891
489.115	144985
489.191	76951
489.267	16079
489.343	12710
489.418	11625
489.494	10790
489.570	10385
489.646	11928
489.722	11224
489.797	13264
489.873	20224
489.949	37207
490.024	31230
490.100	12205
490.176	13448
490.251	21354
490.327	29633
490.403	15435
490.478	11546
490.554	10431
490.629	11487
490.705	9970
490.781	12078
490.856	12881
490.932	15549
491.007	16121
491.083	13417
491.158	11499
491.234	16602
491.309	28707
491.385	27425
491.460	11483
491.536	12661
491.611	12923
491.686	16725
491.762	28269
491.837	64466
491.913	110402
491.988	148891
492.063	188783
492.139	45487
492.214	37652
492.289	16311
492.365	12118
492.440	13650
492.515	12676
492.590	12420
492.666	9219
492.741	14473
492.816	17712
492.891	10934
492.967	9800
493.042	10165
493.117	8631
493.192	10363
493.267	12356
493.342	19027
493.418	18676
493.493	11396
493.568	12743
493.643	14701
493.718	13749
493.793	22320
493.868	27105
493.943	17791
494.018	11455
494.093	9855
494.168	11791
494.243	12777
494.318	8939
494.393	8582
494.468	9422
494.543	10702
494.618	13311
494.693	10754
494.768	9657
494.842	9966
494.917	10541
494.992	11261
495.067	9653
495.142	9497
495.217	10838
495.292	11896
495.366	14717
495.441	21174
495.516	25226
495.591	45291
495.665	155751
495.740	338703
495.815	124276
495.890	15325
495.964	10420
496.039	12944
496.114	12073
496.188	13598
496.263	13335
496.338	11095
496.412	12655
496.487	17360
496.561	20329
496.636	19801
496.710	12899
496.785	14823
496.860	15847
496.934	12558
497.009	14110
497.083	12635
497.158	12400
497.232	15713
497.307	20273
497.381	17636
497.455	18719
497.530	22101
497.604	16439
497.679	17579
497.753	25950
497.827	33911
497.902	31673
497.976	41999
498.050	104333
498.125	317854
498.199	310052
498.273	59037
498.348	47781
498.422	38715
498.496	35236
498.570	33862
498.645	20049
498.719	17889
498.793	21446
498.867	32194
498.941	48280
499.016	136533
499.090	313294
499.164	103721
499.238	16035
499.312	16015
499.386	21001
499.460	17525
499.534	16628
499.609	20928
499.683	23494
499.757	25780
499.831	62601
499.905	199511
499.979	177213
500.053	29144
500.127	33779
500.201	33012
500.275	18070
500.349	16112
500.422	20206
500.496	36234
500.570	78035
500.644	136548
500.718	198456
500.792	42742
500.866	13984
500.940	15260
501.013	13702
501.087	15293
501.161	31183
501.235	39932
501.309	69203
501.382	163581
501.456	140881
501.530	37086
501.603	46657
501.677	20602
501.751	10888
501.825	16708
501.898	26122
501.972	61060
502.046	38272
502.119	15645
502.193	35365
502.266	67257
502.340	33426
502.413	31120
502.487	55234
502.561	32989
502.634	15038
502.708	16154
502.781	14525
502.855	11265
502.928	8334
503.002	7973
503.075	8695
503.149	8862
503.222	8464
503.295	9314
503.369	11670
503.442	18728
503.516	52408
503.589	114481
503.662	73600
503.736	31024
503.809	61019
503.882	58774
503.956	86337
504.029	124600
504.102	236277
504.175	320882
504.249	108596
504.322	39375
504.395	24670
504.468	15948
504.542	12784
504.615	9777
504.688	9582
504.761	8919
504.834	13457
504.907	18956
504.980	29464
505.053	12555
505.127	16172
505.200	19506
505.273	12432
505.346	9075
505.419	7646
505.492	7501
505.565	7151
505.638	6452
505.711	5947
505.784	5446
505.857	5380
505.930	6917
506.003	5320
506.076	7515
506.149	8127
506.221	9734
506.294	12564
506.367	30158
506.440	83322
506.513	46373
506.586	12257
506.659	8611
506.731	10056
506.804	12613
506.877	17995
506.950	10126
507.022	7836
507.095	8698
507.168	11382
507.241	10865
507.313	9014
507.386	9606
507.459	17312
507.531	10073
507.604	5772
507.677	7140
507.749	5784
507.822	11261
507.894	19415
507.967	17126
508.040	8488
508.112	10486
508.185	9267
508.257	9158
508.330	16469
508.402	9827
508.475	7054
508.547	8623
508.620	8113
508.692	12966
508.765	8562
508.837	6432
508.909	6040
508.982	7271
509.054	9327
509.127	7448
509.199	6542
509.271	4953
509.344	4849
509.416	5458
509.488	5891
509.560	7387
509.633	8817
509.705	10602
509.777	9325
509.849	15891
509.922	10369
509.994	5765
510.066	6102
510.138	5573
510.210	10442
510.283	8527
510.355	9393
510.427	8104
510.499	8160
510.571	8244
510.643	8287
510.715	18443
510.787	14155
510.859	9059
510.931	11263
511.003	16839
511.076	15134
511.148	6735
511.219	7367
511.291	12148
511.363	13052
511.435	7097
511.507	5417
511.579	7557
511.651	7169
511.723	6285
511.795	7065
511.867	7240
511.939	8742
512.010	16267
512.082	13727
512.154	8326
512.226	9057
512.298	12236
512.369	17047
512.441	13801
512.513	16262
512.585	11977
512.656	11147
512.728	12715
512.800	8960
512.871	9115
512.943	8747
513.015	7581
513.086	9769
513.158	11884
513.230	12400
513.301	21905
513.373	26578
513.444	12880
513.516	9039
513.588	8953
513.659	12291
513.731	17161
513.802	16624
513.874	38590
513.945	67749
514.016	19547
514.088	10236
514.159	12511
514.231	17880
514.302	17158
514.374	11371
514.445	11423
514.516	19878
514.588	15100
514.659	12516
514.730	19926
514.802	20191
514.873	14739
514.944	15638
515.016	14141
515.087	15868
515.158	16370
515.229	20483
515.301	14777
515.372	18501
515.443	12202
515.514	12312
515.585	10464
515.656	12666
515.728	11609
515.799	12575
515.870	14761
515.941	15752
516.012	16194
516.083	19370
516.154	23088
516.225	36001
516.296	35571
516.367	36401
516.438	50092
516.509	79702
516.580	166959
516.651	586759
516.722	1700555
516.793	650144
516.864	86150
516.935	82281
517.006	112702
517.077	208655
517.148	580456
517.219	2176184
517.289	2935276
517.360	441383
517.431	91412
517.502	43683
517.573	38884
517.643	34723
517.714	36743
517.785	40153
517.856	45282
517.926	57857
517.997	78868
518.068	116933
518.138	198573
518.209	443527
518.280	1596440
518.350	4180436
518.421	1656918
518.492	180254
518.562	84479
518.633	77475
518.703	94456
518.774	187636
518.845	437598
518.915	395145
518.986	109553
519.056	60043
519.127	74258
519.197	95351
519.268	124797
519.338	68959
519.408	29450
519.479	40590
519.549	30910
519.620	23469
519.690	16863
519.760	15811
519.831	17348
519.901	17402
519.971	17112
520.042	20460
520.112	24307
520.182	34145
520.253	46599
520.323	76497
520.393	261786
520.463	488171
520.534	327726
520.604	701171
520.674	190268
520.744	199132
520.814	754023
520.885	500355
520.955	56992
521.025	109427
521.095	45274
521.165	12975
521.235	12800
521.305	11323
521.375	12050
521.445	15953
521.515	21454
521.585	23406
521.655	20776
521.725	17541
521.795	13738
521.865	9154
521.935	14482
522.005	11552
522.075	10628
522.145	12783
522.215	11686
522.285	15668
522.355	21125
522.424	37099
522.494	38017
522.564	27586
522.634	60200
522.704	154025
522.774	57010
522.843	13227
522.913	12774
522.983	19289
523.053	14156
523.122	15448
523.192	27666
523.262	92367
523.331	83663
523.401	15690
523.471	10042
523.540	10900
523.610	8267
523.680	9755
523.749	9095
523.819	10210
523.888	11601
523.958	8073
524.027	9814
524.097	10335
524.166	10282
524.236	12824
524.305	13539
524.375	9903
524.444	8366
524.514	10831
524.583	9990
524.653	14002
524.722	26792
524.791	20819
524.861	11580
524.930	10294
524.999	11464
525.069	15605
525.138	12252
525.207	12155
525.277	11630
525.346	12159
525.415	14093
525.484	19330
525.554	20095
525.623	16846
525.692	18552
525.761	23514
525.830	29741
525.900	40705
525.969	71285
526.038	146256
526.107	337950
526.176	882268
526.245	682474
526.314	218185
526.383	487737
526.452	669610
526.522	999076
526.591	898695
526.660	161481
526.729	85221
526.797	112294
526.867	251049
526.935	846567
527.004	1902896
527.073	1043667
527.142	88273
527.211	34443
527.280	30663
527.349	29138
527.418	19559
527.487	25482
527.555	27125
527.624	20294
527.693	11545
527.762	12405
527.831	9943
527.899	11504
527.968	9474
528.037	10402
528.106	15184
528.174	26768
528.243	19475
528.312	27116
528.380	36536
528.449	11685
528.518	9540
528.586	7213
528.655	8796
528.723	7728
528.792	7434
528.861	7524
528.929	6550
528.998	8250
529.066	6735
529.135	6180
529.203	7309
529.272	7323
529.340	9303
529.409	10056
529.477	9901
529.545	15098
529.614	32702
529.682	54007
529.751	46531
529.819	76391
529.887	32736
529.956	11733
530.024	13440
530.092	14018
530.161	12675
530.229	19305
530.297	9909
530.365	8505
530.434	8290
530.502	6345
530.570	7605
530.638	5811
530.707	9589
530.775	9153
530.843	6807
530.911	6970
530.979	6402
531.047	7068
531.115	7224
531.183	6885
531.252	7579
531.320	7400
531.388	6541
531.456	7873
531.524	6079
531.592	7301
531.660	9112
531.728	6842
531.796	6905
531.864	8991
531.932	8745
532.000	7653
532.067	9814
532.135	10644
532.203	12662
532.271	14533
532.339	28950
532.407	73064
532.475	40725
532.542	18712
532.610	22776
532.678	39174
532.746	143699
532.814	317917
532.881	92200
532.949	25303
533.017	15873
533.084	11431
533.152	10783
533.220	9906
533.287	10868
533.355	9256
533.423	8803
533.490	7787
533.558	8489
533.625	8708
533.693	9259
533.761	9878
533.828	10068
533.896	10867
533.963	24348
534.031	31777
534.098	40516
534.166	19172
534.233	11353
534.300	14548
534.368	15988
534.435	18705
534.503	34696
534.570	92364
534.637	47866
534.705	31452
534.772	59625
534.840	142514
534.907	430733
534.974	494408
535.041	50029
535.109	16022
535.176	11468
535.243	11798
535.310	12560
535.378	10997
535.445	10460
535.512	9850
535.579	11325
535.646	9333
535.714	10872
535.781	12591
535.848	11876
535.915	10801
535.982	9892
536.049	10157
536.116	11857
536.183	11015
536.250	11741
536.317	12489
536.384	16761
536.451	24474
536.518	25203
536.585	16248
536.652	21520
536.719	31714
536.786	24356
536.853	19408
536.920	29134
536.987	46987
537.053	50494
537.120	154310
537.187	124420
537.254	15635
537.321	11925
537.388	14386
537.454	10861
537.521	11640
537.588	12396
537.654	13680
537.721	13622
537.788	15865
537.855	11830
537.921	12924
537.988	11944
538.055	12986
538.121	12406
538.188	16110
538.254	25778
538.321	49467
538.388	28952
538.454	14666
538.521	14330
538.587	12807
538.654	12817
538.720	13352
538.787	13415
538.853	12997
538.920	15726
538.986	13612
539.053	13260
539.119	14662
539.185	14042
539.252	18308
539.318	27072
539.385	18687
539.451	14445
539.517	16897
539.583	21796
539.650	46005
539.716	106400
539.782	31520
539.849	14010
539.915	15041
539.981	15921
540.047	21972
540.114	17351
540.180	17073
540.246	17890
540.312	27317
540.378	50010
540.444	50612
540.510	54231
540.576	124341
540.643	41612
540.709	16025
540.775	19588
540.841	24848
540.907	55467
540.973	157086
541.039	69261
541.105	29491
541.171	16493
541.237	15111
541.303	17047
541.369	20512
541.435	26915
541.500	44749
541.566	27072
541.632	14091
541.698	13156
541.764	13127
541.830	12335
541.896	12283
541.961	13368
542.027	14480
542.093	15488
542.159	16303
542.224	16373
542.290	25023
542.356	41024
542.421	46615
542.487	19955
542.553	13907
542.618	13983
542.684	14559
542.750	15338
542.815	20962
542.881	34590
542.947	108963
543.012	78450
543.078	13865
543.143	11763
543.209	14214
543.274	16012
543.340	20106
543.405	43195
543.471	64060
543.536	16669
543.602	13400
543.667	11143
543.732	12684
543.798	12091
543.863	13219
543.928	11582
543.994	11486
544.059	12000
544.124	13715
544.190	13159
544.255	15238
544.320	15151
544.386	16348
544.451	23580
544.516	27038
544.581	28828
544.646	71589
544.712	103435
544.777	21848
544.842	14787
544.907	15839
544.972	14475
545.037	14688
545.102	16461
545.168	15504
545.233	17931
545.298	18963
545.363	20830
545.428	27252
545.493	46343
545.558	90886
545.623	37159
545.688	17981
545.753	17562
545.818	16916
545.883	18676
545.947	17506
546.012	20224
546.077	19428
546.142	21533
546.207	22781
546.272	30962
546.337	30827
546.401	26893
546.466	23856
546.531	23418
546.596	27156
546.661	27467
546.725	27323
546.790	27492
546.855	30402
546.919	31684
546.984	36141
547.049	39789
547.113	45937
547.178	49232
547.243	55238
547.307	64347
547.372	72419
547.436	72742
547.501	73689
547.565	79727
547.630	79032
547.695	76686
547.759	72679
547.823	71580
547.888	71143
547.952	73143
548.017	76588
548.081	81337
548.146	82348
548.210	82892
548.274	85738
548.339	83187
548.403	75282
548.468	71895
548.532	70142
548.596	72155
548.660	72416
548.725	81196
548.789	90198
548.853	87310
548.917	80463
548.982	79582
549.046	73321
549.110	62763
549.174	65725
549.238	74980
549.303	81966
549.367	85364
549.431	79027
549.495	73850
549.559	76342
549.623	88178
549.687	100208
549.751	105779
549.815	116083
549.879	114599
549.943	108202
550.007	113169
550.071	113334
550.135	108252
550.199	98718
550.263	94388
550.327	91802
550.391	94906
550.455	103592
550.519	108968
550.582	118646
550.646	140243
550.710	144194
550.774	132095
550.838	133708
550.901	137168
550.965	149429
551.029	160925
551.093	180401
551.156	211009
551.220	271338
551.284	323829
551.347	216458
551.411	176964
551.475	164874
551.538	143512
551.602	131802
551.666	124242
551.729	114709
551.793	111262
551.856	109697
551.920	108626
551.983	108251
552.047	105703
552.110	106173
552.174	107339
552.237	111852
552.301	102848
552.364	97721
552.428	96585
552.491	102006
552.554	107580
552.618	109598
552.681	120702
552.745	135674
552.808	207498
552.871	271216
552.934	166680
552.998	118523
553.061	104168
553.124	96724
553.187	94760
553.251	98714
553.314	98481
553.377	97672
553.440	106440
553.503	107856
553.567	107866
553.630	103418
553.693	100411
553.756	103075
553.819	99851
553.882	94771
553.945	95785
554.008	95744
554.071	96762
554.134	97801
554.197	90580
554.260	88005
554.323	92790
554.386	93478
554.449	97224
554.512	96261
554.575	91949
554.638	92097
554.701	91511
554.764	89569
554.827	85704
554.889	80768
554.952	77528
555.015	75575
555.078	78021
555.141	78748
555.203	77597
555.266	76279
555.329	77376
555.391	73764
555.454	75861
555.517	73625
555.580	69612
555.642	66180
555.705	65085
555.768	64807
555.830	63885
555.893	60552
555.955	58389
556.018	58956
556.080	58652
556.143	59697
556.206	59453
556.268	59516
556.330	58295
556.393	56630
556.455	55855
556.518	57907
556.580	58862
556.643	50915
556.705	49692
556.767	48908
556.830	49506
556.892	51674
556.955	64034
557.017	54986
557.079	46950
557.142	47596
557.204	51331
557.266	74998
557.328	62162
557.391	40790
557.453	39356
557.515	40501
557.577	45149
557.639	47243
557.701	40996
557.764	40866
557.826	43555
557.888	50219
557.950	57314
558.012	73865
558.074	113069
558.136	261793
558.198	624511
558.260	196417
558.322	56318
558.384	55913
558.446	66026
558.508	79419
558.570	106473
558.632	168149
558.694	268118
558.756	423340
558.818	1160872
558.880	2515606
558.942	801203
559.003	643474
559.065	285537
559.127	92270
559.189	102858
559.251	144154
559.312	239874
559.374	567551
559.436	1720318
559.498	779366
559.559	115608
559.621	103895
559.683	147673
559.744	266483
559.806	831665
559.868	1190410
559.929	207322
559.991	120592
560.052	213717
560.114	614680
560.176	384019
560.237	340961
560.299	548739
560.360	103753
560.422	31091
560.483	25432
560.545	24020
560.606	23220
560.667	21360
560.729	20224
560.790	20034
560.852	19439
560.913	21055
560.974	19298
561.036	18031
561.097	19046
561.158	18306
561.220	18742
561.281	18285
561.342	19918
561.403	23397
561.465	30259
561.526	66097
561.587	83009
561.648	23775
561.709	17391
561.771	15446
561.832	15992
561.893	16327
561.954	15266
562.015	14846
562.076	15623
562.137	14784
562.198	15710
562.259	16249
562.320	16773
562.381	19234
562.442	27524
562.503	21380
562.564	14952
562.625	16399
562.686	15245
562.747	19231
562.808	17807
562.869	14497
562.930	14965
562.991	14064
563.051	14121
563.112	13923
563.173	13192
563.234	13102
563.294	13527
563.355	13842
563.416	14125
563.477	13870
563.537	13715
563.598	13754
563.659	14248
563.720	13080
563.780	14130
563.841	15415
563.901	13987
563.962	12745
564.023	12418
564.083	12669
564.144	13311
564.204	12882
564.265	12961
564.325	14741
564.386	21673
564.446	19176
564.507	12151
564.567	12321
564.628	12865
564.688	11914
564.749	12036
564.809	12679
564.869	15044
564.930	13497
564.990	12585
565.050	11589
565.111	12369
565.171	12055
565.231	11056
565.292	11491
565.352	10304
565.412	11906
565.472	12931
565.532	14324
565.593	12439
565.653	11186
565.713	12794
565.773	15561
565.833	17489
565.893	22806
565.953	12714
566.013	11095
566.074	13626
566.134	15570
566.194	19955
566.254	22489
566.314	16207
566.374	13023
566.434	13473
566.494	12468
566.554	12448
566.614	12870
566.673	13948
566.733	14926
566.793	14257
566.853	14922
566.913	14102
566.973	14081
567.033	16883
567.092	18430
567.152	17534
567.212	16342
567.272	14830
567.331	15678
567.391	15615
567.451	16236
567.511	18583
567.570	18827
567.630	14902
567.690	13700
567.749	14289
567.809	14853
567.868	16614
567.928	18883
567.988	20257
568.047	22590
568.107	27964
568.166	37366
568.226	55815
568.285	75476
568.345	59106
568.404	46514
568.464	38846
568.523	36453
568.582	38335
568.642	45330
568.701	56774
568.761	79984
568.820	125308
568.879	113286
568.939	78917
568.998	57811
569.057	44547
569.116	36253
569.176	28151
569.235	24830
569.294	23821
569.353	20362
569.413	19980
569.472	17881
569.531	16214
569.590	15176
569.649	14771
569.708	14523
569.767	17505
569.827	23789
569.886	18284
569.945	13210
570.004	14534
570.063	13885
570.122	14517
570.181	15476
570.240	15170
570.299	16159
570.358	19316
570.417	13682
570.475	12345
570.534	13381
570.593	14821
570.652	15225
570.711	15645
570.770	13198
570.829	15777
570.887	16122
570.946	17791
571.005	14085
571.064	16376
571.122	20696
571.181	18732
571.240	14281
571.299	11532
571.357	12013
571.416	11308
571.475	11976
571.533	13130
571.592	12492
571.650	13083
571.709	12870
571.768	14937
571.826	15041
571.885	12422
571.943	10524
572.002	10601
572.060	11411
572.119	9953
572.177	9523
572.236	9302
572.294	10180
572.352	11341
572.411	11413
572.469	10662
572.528	10105
572.586	11559
572.644	14485
572.703	20688
572.761	12856
572.819	9556
572.877	8954
572.936	8826
572.994	9252
573.052	9716
573.110	11810
573.169	11665
573.227	8995
573.285	9959
573.343	9889
573.401	9550
573.459	9588
573.517	9624
573.576	10613
573.634	11451
573.692	12911
573.750	11157
573.808	10884
573.866	9643
573.924	11541
573.982	11032
574.040	9545
574.098	8964
574.155	9686
574.213	9375
574.271	10590
574.329	12109
574.387	9948
574.445	9220
574.503	8317
574.560	7744
574.618	8522
574.676	9724
574.734	8217
574.792	8910
574.849	8581
574.907	6864
574.965	7345
575.022	6787
575.080	6989
575.138	8235
575.195	7918
575.253	8401
575.311	10152
575.368	8618
575.426	7460
575.483	7717
575.541	7456
575.598	7640
575.656	7651
575.713	8373
575.771	9326
575.828	8395
575.886	7364
575.943	7336
576.001	7341
576.058	6377
576.115	8561
576.173	9672
576.230	11153
576.287	13195
576.345	10145
576.402	8787
576.459	8861
576.517	7207
576.574	7551
576.631	8351
576.688	8031
576.746	6692
576.803	6404
576.860	7045
576.917	7088
576.974	6978
577.031	7242
577.089	6915
577.146	6881
577.203	7403
577.260	8526
577.317	7562
577.374	8005
577.431	8220
577.488	7212
577.545	6311
577.602	6551
577.659	6505
577.716	6000
577.773	6721
577.830	7406
577.886	6117
577.943	6128
578.000	6638
578.057	7839
578.114	8197
578.171	8018
578.227	7943
578.284	7279
578.341	10278
578.398	9963
578.454	10512
578.511	10065
578.568	10804
578.625	8708
578.681	8923
578.738	9050
578.794	11155
578.851	8603
578.908	7630
578.964	8125
579.021	9909
579.077	13563
579.134	12684
579.190	8473
579.247	6545
579.303	6766
579.360	7380
579.416	6488
579.473	6151
579.529	5682
579.586	5951
579.642	6886
579.698	6108
579.755	6353
579.811	7428
579.867	6754
579.924	6439
579.980	6450
580.036	6652
580.093	6272
580.149	7247
580.205	6840
580.261	7591
580.317	7421
580.374	7730
580.430	8444
580.486	7771
580.542	7422
580.598	7372
580.619	7549
580.654	7865
580.692	7893
580.710	7914
580.765	7327
580.767	7315
580.823	8176
580.838	7935
580.879	7321
580.911	7606
580.935	7831
580.984	7570
580.991	7542
581.047	7875
581.057	7767
581.103	7298
581.130	7267
581.159	7245
581.203	6628
581.215	6471
581.270	6552
581.276	6627
581.326	7361
581.349	7233
581.382	7049
581.422	7087
581.438	7108
581.494	7393
581.494	7392
581.550	7668
581.567	7901
581.606	8372
581.640	8035
581.661	7869
581.713	7496
581.717	7465
581.773	6972
581.786	7069
581.829	7403
581.859	7164
581.885	7004
581.932	6949
581.940	6925
581.996	7876
582.004	7868
582.052	7799
582.077	7433
582.107	7051
582.150	7254
582.163	7310
582.219	7905
582.223	7812
582.274	6749
582.296	7000
582.330	7440
582.368	7960
582.386	8172
582.441	7518
582.441	7517
582.497	6795
582.514	6885
582.552	7196
582.587	7046
582.608	6967
582.659	7281
582.663	7288
582.719	7465
582.732	7381
582.774	7408
582.805	7766
582.830	7990
582.877	7480
582.885	7386
582.941	8420
582.950	8310
582.996	7684
583.023	7828
583.052	8158
583.095	7715
583.107	7552
583.162	8059
583.168	8041
583.218	7785
583.240	7884
583.273	8114
583.313	7577
583.328	7367
583.384	8024
583.385	8029
583.439	8025
583.458	8253
583.494	8779
583.531	7941
583.549	7537
583.603	7725
583.605	7727
583.660	7634
583.676	7824
583.715	8434
583.748	8466
583.770	8447
583.820	9098
583.825	9156
583.881	8527
583.893	8561
583.936	8691
583.965	8178
583.991	7749
584.038	8448
584.046	8567
584.101	8183
584.110	8219
584.156	8294
584.183	8686
584.211	9177
584.255	8427
584.266	8262
584.321	8633
584.328	8712
584.376	9442
584.400	9617
584.431	9679
584.472	9293
584.486	9165
584.541	9910
584.545	9892
584.596	9663
584.617	9758
584.651	10066
584.689	10428
584.706	10536
584.761	10811
584.762	10813
584.816	11077
584.834	11095
584.871	11066
584.906	11448
584.926	11862
584.978	12941
584.980	12976
585.035	13491
585.051	13963
585.090	15371
585.123	16539
585.145	17231
585.195	18073
585.200	18213
585.254	22391
585.267	23218
585.309	25510
585.340	28723
585.364	31829
585.412	40312
585.419	41585
585.473	55524
585.484	59994
585.528	79642
585.556	98317
585.583	125789
585.628	192862
585.637	215856
585.692	474363
585.700	520514
585.747	726170
585.772	588028
585.801	345251
585.845	118536
585.856	84196
585.910	40026
585.917	36507
585.965	27061
585.989	24526
586.019	22781
586.061	20385
586.074	19785
586.128	19133
586.133	19157
586.183	19800
586.205	19688
586.237	19047
586.277	18213
586.292	18173
586.346	18721
586.349	18713
586.401	18304
586.421	18369
586.455	18501
586.493	19193
586.509	19812
586.564	20870
586.565	20995
586.618	27656
586.637	27917
586.672	27057
586.709	26743
586.727	26833
586.781	28591
586.781	28590
586.835	22644
586.853	21717
586.889	20764
586.925	19813
586.944	19491
586.996	18894
586.998	18903
587.052	19147
587.068	19340
587.106	20028
587.140	20378
587.161	20405
587.212	20723
587.215	20789
587.269	21782
587.284	21927
587.323	22132
587.356	22647
587.377	23033
587.427	24124
587.431	24203
587.485	24663
587.499	24849
587.539	26150
587.571	26838
587.593	27463
587.643	29877
587.648	30067
587.702	30961
587.715	31364
587.755	32953
587.786	33417
587.810	33943
587.858	35595
587.864	35870
587.917	38981
587.930	39567
587.971	42267
588.001	44695
588.025	46424
588.073	48970
588.079	49575
588.133	55388
588.145	56733
588.187	62713
588.217	67223
588.241	71384
588.288	79877
588.295	81486
588.348	95570
588.360	98557
588.402	110699
588.431	120108
588.456	129453
588.503	149956
588.510	153599
588.564	186380
588.575	194531
588.617	230072
588.646	260608
588.671	294872
588.718	371694
588.725	390405
588.778	560648
588.789	603365
588.832	941455
588.861	1212089
588.886	1633239
588.932	2505144
588.939	2579084
588.993	2893293
589.004	2903516
589.047	2021567
589.075	1412741
589.100	1066700
589.147	539333
589.154	513580
589.207	375029
589.218	351571
589.261	330474
589.290	325946
589.314	344297
589.361	392261
589.368	411678
589.421	594283
589.433	641954
589.475	1092460
589.504	1463129
589.528	1868696
589.576	2592034
589.582	2533280
589.635	1675760
589.647	1486588
589.689	810469
589.718	398921
589.742	315142
589.790	183293
589.795	177216
589.849	130010
589.861	120250
589.902	104395
589.932	92789
589.955	86007
590.004	72564
590.009	71748
590.062	63624
590.075	61627
590.115	57254
590.146	54146
590.168	52576
590.218	48921
590.222	48727
590.275	45842
590.289	45092
590.328	44214
590.360	43125
590.381	42112
590.431	40134
590.435	40093
590.488	38519
590.503	38098
590.541	37623
590.574	37050
590.594	36741
590.645	35947
590.647	36006
590.700	36157
590.716	36164
590.753	35311
590.787	34603
590.806	34517
590.859	34032
590.859	34085
590.912	34117
590.930	34249
590.965	34200
591.001	33744
591.018	33605
591.071	33185
591.072	33127
591.124	33311
591.143	33289
591.177	33026
591.214	32625
591.230	33192
591.283	34852
591.285	34858
591.336	33829
591.356	33311
591.389	33656
591.427	33817
591.442	33384
591.495	31435
591.498	31248
591.547	31648
591.569	31782
591.600	31657
591.640	31256
591.653	31305
591.706	31194
591.711	31142
591.759	31685
591.782	31893
591.811	32707
591.853	33676
591.864	33661
591.917	33173
591.924	33050
591.969	32978
591.995	32818
592.022	32911
592.066	32933
592.075	33135
592.127	34057
592.137	34156
592.180	34751
592.208	34985
592.233	34863
592.279	34494
592.285	34633
592.338	35233
592.350	35306
592.390	34803
592.421	34297
592.443	34578
592.491	34992
592.495	35131
592.548	36095
592.562	36283
592.600	35300
592.633	34344
592.653	34573
592.704	34808
592.705	35016
592.775	35414
592.846	37062
592.916	37965
592.987	38996
593.058	37528
593.128	37445
593.199	36640
593.270	36353
593.341	37107
593.411	38205
593.482	40102
593.553	40047
593.623	39794
593.694	40670
593.764	42244
593.835	41249
593.906	40874
593.976	41915
594.047	42701
594.117	44939
594.188	47435
594.258	45051
594.329	45568
594.399	46504
594.470	46945
594.540	47530
594.611	49202
594.681	48774
594.751	49694
594.822	53683
594.892	54976
594.963	54077
595.033	55941
595.103	57336
595.174	56699
595.244	60026
595.314	64397
595.384	61035
595.455	61396
595.525	64143
595.595	65792
595.665	66165
595.736	65876
595.806	65966
595.876	65903
595.946	66071
596.016	69174
596.087	71558
596.157	72542
596.227	72705
596.297	76136
596.367	80601
596.437	84282
596.507	85729
596.577	88604
596.647	87412
596.717	90702
596.787	92703
596.857	92227
596.927	93296
596.997	92872
597.067	93488
597.137	94767
597.207	96309
597.277	97441
597.347	93474
597.417	90510
597.487	88989
597.557	92122
597.626	94933
597.696	95393
597.766	96227
597.836	91488
597.906	84933
597.975	82753
598.045	83939
598.115	89083
598.185	94020
598.254	105315
598.324	115171
598.394	118345
598.464	114000
598.533	111131
598.603	103481
598.672	99671
598.742	101909
598.812	103129
598.881	104683
598.951	105725
599.020	104578
599.090	109824
599.159	112111
599.229	107642
599.299	102449
599.368	106345
599.437	105782
599.507	98492
599.576	93363
599.646	92624
599.715	91257
599.785	90848
599.854	88936
599.924	86795
599.993	85285
600.062	88302
600.132	91218
600.201	94973
600.270	109802
600.340	117620
600.409	113516
600.478	112532
600.547	113899
600.617	107611
600.686	84868
600.755	76286
600.824	72727
600.894	69952
600.963	69732
601.032	68137
601.101	66414
601.170	62862
601.239	61111
601.308	62975
601.378	62244
601.447	61452
601.516	61405
601.585	62982
601.654	66467
601.723	64540
601.792	65198
601.861	66304
601.930	69623
601.999	72272
602.068	70487
602.137	72639
602.206	75576
602.275	73301
602.343	76520
602.412	77172
602.481	74082
602.550	74418
602.619	76844
602.688	77000
602.756	77672
602.825	77833
602.894	80256
602.963	81671
603.032	84392
603.100	83840
603.169	82889
603.238	83405
603.307	84892
603.375	86179
603.444	87583
603.513	88672
603.581	90641
603.650	92380
603.719	89572
603.787	94214
603.856	95267
603.924	98626
603.993	102783
604.061	104294
604.130	110100
604.198	113152
604.267	113284
604.335	116013
604.404	117700
604.472	118993
604.541	119859
604.609	121750
604.678	121530
604.746	122193
604.815	126226
604.883	128542
604.951	127696
605.020	130690
605.088	133500
605.156	135933
605.225	138470
605.293	139941
605.361	140549
605.429	142404
605.498	143709
605.566	149279
605.634	155894
605.702	160513
605.771	166334
605.839	167193
605.907	164776
605.975	156529
606.043	154718
606.111	153156
606.180	152925
606.248	152912
606.316	149766
606.384	150102
606.452	155759
606.520	160910
606.588	164294
606.656	162267
606.724	159634
606.792	149883
606.860	135456
606.928	122124
606.996	118486
607.064	114442
607.132	117756
607.200	125550
607.267	130203
607.335	131733
607.403	136805
607.471	132195
607.539	125841
607.607	129002
607.674	113830
607.742	111368
607.810	113034
607.878	113583
607.946	113845
608.013	119450
608.081	122536
608.149	122856
608.216	126134
608.284	131903
608.352	131081
608.419	131048
608.487	128713
608.555	125198
608.622	129582
608.690	136750
608.757	149819
608.825	155875
608.893	151857
608.960	145738
609.028	139906
609.095	138831
609.163	135593
609.230	124077
609.298	112348
609.365	117961
609.432	126731
609.500	137432
609.567	156839
609.635	181105
609.702	191306
609.769	184787
609.837	147641
609.904	122828
609.971	128258
610.039	141961
610.106	179350
610.173	317853
610.241	729907
610.308	468009
610.375	167707
610.442	133471
610.509	125143
610.577	124468
610.644	126087
610.711	130571
610.778	134659
610.845	139948
610.912	149844
610.980	154266
611.047	155590
611.114	153532
611.181	146962
611.248	147312
611.315	154694
611.382	159618
611.449	164697
611.516	168732
611.583	166644
611.650	168267
611.717	170782
611.784	176059
611.851	185616
611.918	201572
611.984	236934
612.051	322433
612.118	616626
612.185	1532380
612.252	1087409
612.319	273295
612.386	222493
612.452	202199
612.519	192924
612.586	188868
612.653	191650
612.719	198084
612.786	190914
612.853	177774
612.919	172179
612.986	175604
613.053	164504
613.120	154654
613.186	148542
613.253	150185
613.319	149271
613.386	149780
613.453	152947
613.519	156235
613.586	155656
613.652	165724
613.719	156866
613.785	158349
613.852	156231
613.918	153460
613.985	154619
614.051	161699
614.118	160171
614.184	156380
614.250	152704
614.317	157540
614.383	155237
614.449	157382
614.516	156770
614.582	157257
614.648	155932
614.715	151189
614.781	150861
614.847	148456
614.914	149750
614.980	146076
615.046	146924
615.112	151105
615.179	151269
615.245	154173
615.311	155179
615.377	161784
615.443	163090
615.509	158214
615.575	163963
615.642	161423
615.708	165777
615.774	178589
615.840	190817
615.906	211218
615.972	260732
616.038	382520
616.104	761586
616.170	1816493
616.236	1753966
616.302	382882
616.368	273297
616.434	205371
616.500	189226
616.565	205059
616.631	254155
616.697	214431
616.763	216676
616.829	299789
616.895	524291
616.961	516429
617.026	227759
617.092	166889
617.158	159133
617.224	156314
617.289	144796
617.355	136813
617.421	135011
617.487	136753
617.552	127760
617.618	128289
617.684	125586
617.749	129214
617.815	123896
617.880	121257
617.946	120606
618.012	123704
618.077	125964
618.143	121295
618.208	121167
618.274	128314
618.339	130572
618.405	110465
618.470	107112
618.536	109376
618.601	106870
618.667	100731
618.732	93675
618.798	92512
618.863	92703
618.928	92119
618.994	94313
619.059	95510
619.124	103627
619.190	97154
619.255	92963
619.320	91561
619.386	92640
619.451	91716
619.516	89195
619.581	91593
619.647	92923
619.712	93620
619.777	88873
619.842	89578
619.907	90990
619.972	92528
620.038	91643
620.103	87793
620.168	88209
620.233	91432
620.298	90482
620.363	92636
620.428	93289
620.493	95277
620.558	96368
620.623	98193
620.688	97513
620.753	97480
620.818	100064
620.883	99865
620.948	100436
621.013	98207
621.078	98395
621.143	97313
621.207	99676
621.272	98613
621.337	97762
621.402	94925
621.467	95115
621.532	96195
621.596	96065
621.661	93109
621.726	91253
621.791	91679
621.855	93673
621.920	92809
621.985	92810
622.049	96006
622.114	94286
622.179	95636
622.243	97215
622.308	100404
622.373	103904
622.437	102377
622.502	96718
622.566	96491
622.631	94479
622.695	98032
622.760	97141
622.824	96849
622.889	97848
622.953	98055
623.018	109910
623.082	112178
623.147	103580
623.211	100512
623.276	102364
623.340	96592
623.404	93335
623.469	93545
623.533	93639
623.597	91090
623.662	90391
623.726	84420
623.790	80876
623.854	76824
623.919	80020
623.983	80885
624.047	83060
624.111	83204
624.176	84142
624.240	87418
624.304	91544
624.368	84680
624.432	83863
624.496	86944
624.560	91595
624.625	95016
624.689	89814
624.753	92534
624.817	90121
624.881	87273
624.945	79987
625.009	76401
625.073	79514
625.137	82563
625.201	88710
625.265	88711
625.329	82454
625.393	83437
625.456	84318
625.520	85070
625.584	86293
625.648	89832
625.712	93246
625.776	101852
625.839	101683
625.903	78358
625.967	66885
626.031	74567
626.095	89362
626.158	81305
626.222	62543
626.286	58547
626.349	54531
626.413	52492
626.477	52281
626.540	52534
626.604	51175
626.668	50973
626.731	49997
626.795	50543
626.858	51255
626.922	49962
626.986	49964
627.049	47162
627.113	51644
627.176	48827
627.240	47789
627.303	47100
627.366	46821
627.430	48136
627.493	47720
627.557	45516
627.620	47338
627.684	49703
627.747	49654
627.810	45897
627.874	41904
627.937	38613
628.000	42629
628.064	40688
628.127	35591
628.190	36674
628.253	35254
628.317	33103
628.380	31381
628.443	32119
628.506	31676
628.569	29683
628.632	28009
628.696	28686
628.759	27826
628.822	27161
628.885	25646
628.948	27051
629.011	26622
629.074	25325
629.137	25320
629.200	24941
629.263	25679
629.326	24219
629.389	24278
629.452	23216
629.515	23514
629.578	23439
629.641	23190
629.704	23488
629.767	23139
629.830	23101
629.892	22453
629.955	21410
630.018	23436
630.081	23274
630.144	26277
630.207	22658
630.269	23260
630.332	21177
630.395	20671
630.458	20471
630.520	20527
630.583	20635
630.646	19738
630.708	19885
630.771	20693
630.834	21805
630.896	20645
630.959	20913
631.021	20328
631.084	20496
631.146	20882
631.209	21833
631.272	20615
631.334	21073
631.397	21569
631.459	21331
631.522	23645
631.584	23540
631.646	24412
631.709	26592
631.771	28049
631.834	25599
631.896	23884
631.958	21788
632.021	22137
632.083	19850
632.145	19500
632.208	20619
632.270	20814
632.332	18878
632.395	19275
632.457	19559
632.519	18377
632.581	20797
632.643	17707
632.706	19465
632.768	17374
632.830	19462
632.892	19148
632.954	19573
633.016	21057
633.078	19575
633.141	19455
633.203	18767
633.265	19388
633.327	19481
633.389	18800
633.451	20696
633.513	21428
633.575	21292
633.637	20680
633.698	21958
633.760	21686
633.822	21859
633.884	22811
633.946	22104
634.008	22428
634.070	24370
634.132	25561
634.193	27415
634.255	30945
634.317	31775
634.379	32025
634.441	27755
634.502	24326
634.564	23494
634.626	21033
634.687	20652
634.749	19309
634.811	19506
634.873	19001
634.934	18688
634.996	19148
635.057	17748
635.119	19002
635.181	19987
635.242	20117
635.304	17850
635.365	21337
635.427	18589
635.488	19955
635.550	18981
635.611	20237
635.673	17502
635.734	21592
635.796	21738
635.857	23827
635.918	24377
635.980	28628
636.041	29206
636.102	32655
636.164	32933
636.225	32469
636.286	26605
636.348	24550
636.409	21681
636.470	20186
636.531	18705
636.593	18511
636.654	19024
636.715	17560
636.776	17550
636.838	16267
636.899	16986
636.960	16134
637.021	16263
637.082	15383
637.143	16973
637.204	16023
637.265	15173
637.326	15266
637.387	15543
637.448	15718
637.509	15807
637.570	15505
637.631	15694
637.692	13945
637.753	13912
637.814	15389
637.875	14389
637.936	15510
637.997	13892
638.058	14527
638.119	15177
638.179	15007
638.240	13926
638.301	14400
638.362	12518
638.423	13519
638.483	14279
638.544	12456
638.605	13246
638.666	13159
638.726	13362
638.787	14271
638.848	13377
638.908	13234
638.969	13256
639.030	13504
639.090	13129
639.151	12877
639.211	14226
639.272	14876
639.332	19979
639.393	16560
639.453	14957
639.514	14599
639.574	13927
639.635	11811
639.695	13183
639.756	12185
639.816	12903
639.877	13108
639.937	18543
639.997	22692
640.058	13582
640.118	12367
640.178	13040
640.239	11782
640.299	12629
640.359	12335
640.420	13707
640.480	15385
640.540	17748
640.600	17113
640.661	15636
640.721	12680
640.781	16549
640.841	12712
640.901	13513
640.961	13356
641.021	14510
641.082	15070
641.142	17000
641.202	15203
641.262	11486
641.322	12543
641.382	10858
641.442	12032
641.502	11438
641.562	11806
641.622	12182
641.682	12251
641.742	15135
641.802	14158
641.861	12459
641.921	12252
641.981	13359
642.041	12768
642.101	14068
642.161	11574
642.221	10443
642.280	10949
642.340	10948
642.400	10281
642.460	11318
642.519	10587
642.579	11616
642.639	11835
642.698	9511
642.758	12932
642.818	12089
642.877	10986
642.937	12472
642.997	13259
643.056	15169
643.116	12680
643.175	12746
643.235	12409
643.294	13333
643.354	15343
643.414	16880
643.473	20681
643.532	28647
643.592	42043
643.651	65982
643.711	113228
643.770	212539
643.830	490307
643.889	1248831
643.948	383147
644.008	49578
644.067	27642
644.126	21698
644.186	18315
644.245	15520
644.304	12712
644.363	15385
644.423	11800
644.482	12957
644.541	14256
644.600	13729
644.659	19257
644.719	22871
644.778	34528
644.837	55836
644.896	108601
644.955	276449
645.014	122723
645.073	22300
645.132	16433
645.191	15185
645.250	12960
645.309	14551
645.368	14677
645.427	20067
645.486	28543
645.545	55720
645.604	22736
645.663	14076
645.722	13616
645.781	15645
645.840	20065
645.898	25263
645.957	38442
646.016	59669
646.075	103603
646.134	197937
646.192	491790
646.251	928181
646.310	168573
646.369	34251
646.427	25748
646.486	19100
646.545	15986
646.603	13396
646.662	13000
646.721	12227
646.779	12584
646.838	13219
646.896	17875
646.955	21611
647.014	32226
647.072	58213
647.131	162093
647.189	110633
647.248	15419
647.306	11796
647.365	10274
647.423	8149
647.481	10289
647.540	7074
647.598	9276
647.657	8677
647.715	8521
647.773	7863
647.832	9101
647.890	6316
647.948	6850
648.007	8623
648.065	5690
648.123	6811
648.181	8886
648.240	7229
648.298	6205
648.356	6666
648.414	7382
648.472	7355
648.531	7594
648.589	6647
648.647	6393
648.705	6392
648.763	6845
648.821	7838
648.879	8551
648.937	9926
648.995	13275
649.053	18311
649.111	28236
649.169	46023
649.227	76595
649.285	151082
649.343	466500
649.401	308531
649.459	42099
649.516	23411
649.574	11772
649.632	13920
649.690	13769
649.748	16498
649.806	21892
649.863	39477
649.921	109844
649.979	99354
650.037	15358
650.094	7083
650.152	6697
650.210	5995
650.268	6823
650.325	6314
650.383	5840
650.440	4652
650.498	5784
650.556	5418
650.613	4519
650.671	5344
650.728	4707
650.786	4139
650.843	7197
650.901	5629
650.958	4976
651.016	4596
651.073	4348
651.131	4092
651.188	3596
651.246	4882
651.303	3097
651.360	4579
651.418	3691
651.475	4067
651.532	2400
651.590	4603
651.647	2981
651.704	3803
651.762	3726
651.819	4132
651.876	3521
651.933	4012
651.990	4089
652.048	3314
652.105	3415
652.162	4030
652.219	2435
652.276	3943
652.333	4251
652.390	2210
652.448	3902
652.505	3566
652.562	3027
652.619	3299
652.676	3377
652.733	4214
652.790	2907
652.847	2858
652.904	3938
652.961	1421
653.017	2689
653.074	3735
653.131	3546
653.188	1886
653.245	3061
653.302	3449
653.359	2507
653.415	3205
653.472	3125
653.529	3504
653.586	2811
653.642	2839
653.699	4071
653.756	2789
653.813	2567
653.869	4101
653.926	3237
653.983	2509
654.039	3802
654.096	3139
654.152	3674
654.209	2312
654.266	2849
654.322	1823
654.379	3525
654.435	3763
654.492	3814
654.548	4067
654.605	4547
654.661	5230
654.717	2948
654.774	4037
654.830	3822
654.887	3638
654.943	2943
655.000	2674
655.056	3214
655.112	3130
655.168	2216
655.225	2990
655.281	3793
655.337	3806
655.394	4123
655.450	3490
655.506	2954
655.562	3247
655.618	4727
655.675	1572
655.731	2783
655.787	2782
655.843	3026
655.899	1512
655.955	3995
656.011	3690
656.067	2794
656.123	3640
656.179	3158
656.235	4322
656.291	2510
656.347	5291
656.403	3114
656.459	2354
656.515	3547
656.571	2606
656.627	3575
656.683	2023
656.739	3384
656.795	3134
656.850	2823
656.906	3652
656.962	4162
657.018	2709
657.074	3540
657.129	4933
657.185	6253
657.241	14710
657.297	11512
657.352	4009
657.408	2358
657.464	4858
657.519	1938
657.575	1523
657.630	1804
657.686	3000
657.742	2384
657.797	1918
657.853	2103
657.908	3290
657.964	2148
658.019	2571
658.075	2740
658.130	2898
658.186	858
658.241	2766
658.297	2088
658.352	1995
658.407	2980
658.463	1778
658.518	2277
658.573	2668
658.629	1888
658.684	1622
658.739	2801
658.795	1271
658.850	2302
658.905	1124
658.960	2687
659.016	1726
659.071	1975
659.126	2360
659.181	2360
659.236	4738
659.291	5308
659.346	3130
659.401	2975
659.457	2436
659.512	1924
659.567	3311
659.622	1522
659.677	2364
659.732	1696
659.787	1682
659.842	1476
659.897	2687
659.952	3233
660.007	1891
660.061	1840
660.116	1197
660.171	1892
660.226	1972
660.281	1933
660.336	1611
660.391	2868
660.445	1771
660.500	2038
660.555	2682
660.610	1685
660.664	2426
660.719	2020
660.774	2336
660.828	1856
660.883	2660
660.938	2491
660.992	1622
661.047	1696
661.101	2241
661.156	2051
661.211	1073
661.265	1629
661.320	1290
661.374	2069
661.429	2080
661.483	1628
661.538	1041
661.592	1310
661.647	1744
661.701	1705
661.755	1376
661.810	2096
661.864	1578
661.919	990
661.973	2605
662.027	2136
662.081	840
662.136	1843
662.190	1786
662.244	1884
662.299	1950
662.353	1867
662.407	1469
662.461	1752
662.515	1541
662.569	866
662.624	2147
662.678	1110
662.732	1880
662.786	1430
662.840	1840
662.894	2570
662.948	1680
663.002	1014
663.056	1217
663.110	1360
663.164	1817
663.218	1772
663.272	1866
663.326	2492
663.380	2194
663.434	1476
663.488	1599
663.542	1141
663.595	1619
663.649	712
663.703	2446
663.757	1551
663.811	1733
663.864	1701
663.918	2312
663.972	1565
664.026	1346
664.079	1652
664.133	1490
664.187	2322
664.240	1433
664.294	1660
664.348	1925
664.401	965
664.455	1522
664.508	1919
664.562	2190
664.615	1526
664.669	919
664.722	2125
664.776	1193
664.829	1933
664.883	1795
664.936	1510
664.990	2127
665.043	1877
665.097	1513
665.150	2870
665.203	1297
665.257	1722
665.310	2597
665.363	1664
665.417	2063
665.470	2264
665.523	1867
665.576	2020
665.630	1272
665.683	2276
665.736	2263
665.789	2812
665.842	1750
665.895	2179
665.949	1793
666.002	2028
666.055	1380
666.108	2567
666.161	2072
666.214	2396
666.267	2865
666.320	2927
666.373	2578
666.426	2143
666.479	1887
666.532	1671
666.585	2729
666.638	3167
666.691	1539
666.744	2827
666.796	1742
666.849	2391
666.902	2201
666.955	2100
667.008	2206
667.060	1408
667.113	1271
667.166	1666
667.219	2479
667.271	2156
667.324	1908
667.377	2026
667.430	2542
667.482	2531
667.535	2376
667.587	2242
667.640	2424
667.693	2567
667.745	4196
667.798	5402
667.850	2468
667.903	1366
667.955	2095
668.008	2430
668.060	2476
668.113	2536
668.165	2067
668.218	2319
668.270	1933
668.322	1678
668.375	2003
668.427	2511
668.479	1834
668.532	1879
668.584	1824
668.636	2239
668.689	2282
668.741	1818
668.793	2139
668.845	1481
668.898	2030
668.950	2116
669.002	2003
669.054	1428
669.106	1235
669.158	2614
669.211	1694
669.263	1731
669.315	1749
669.367	1757
669.419	1209
669.471	2035
669.523	3358
669.575	2722
669.627	2396
669.679	1904
669.731	2827
669.783	2201
669.835	2657
669.886	1896
669.938	2696
669.990	1829
670.042	1758
670.094	2415
670.146	2296
670.197	3368
670.249	3521
670.301	4767
670.353	5950
670.404	8616
670.456	11769
670.508	19587
670.560	29522
670.611	46436
670.663	76949
670.715	170861
670.766	351559
670.818	144006
670.869	19405
670.921	8775
670.972	6027
671.024	4901
671.075	4557
671.127	2532
671.178	3728
671.230	3479
671.281	4283
671.333	3408
671.384	3586
671.436	5245
671.487	6996
671.538	9767
671.590	13894
671.641	22675
671.692	40552
671.744	87633
671.795	66904
671.846	18201
671.897	7355
671.949	5835
672.000	3608
672.051	3570
672.102	3219
672.153	2390
672.204	2578
672.256	2659
672.307	2733
672.358	1752
672.409	2053
672.460	1166
672.511	1715
672.562	568
672.613	1732
672.664	1355
672.715	1699
672.766	1551
672.817	743
672.868	1747
672.919	1289
672.970	989
673.021	986
673.071	1593
673.122	1609
673.173	1307
673.224	1382
673.275	1650
673.326	1434
673.376	1774
673.427	1015
673.478	1518
673.528	976
673.579	1521
673.630	1141
673.680	2099
673.731	1436
673.782	666
673.832	1823
673.883	1661
673.934	588
673.984	1612
674.035	1308
674.085	934
674.136	1563
674.186	1554
674.237	994
674.287	1771
674.338	1923
674.388	967
674.438	631
674.489	1942
674.539	1791
674.589	1116
674.640	2244
674.690	1664
674.740	1249
674.791	2101
674.841	1023
674.891	1113
674.942	1570
674.992	1605
675.042	982
675.092	563
675.142	797
675.193	694
675.243	843
675.293	1212
675.343	1208
675.393	876
675.443	1773
675.493	1079
675.543	868
675.593	1153
675.643	1442
675.693	1171
675.743	946
675.793	1273
675.843	817
675.893	817
675.943	1473
675.993	1234
676.043	991
676.093	1654
676.142	137
676.192	787
676.242	1124
676.292	722
676.341	656
676.391	1089
676.441	754
676.491	1113
676.540	143
676.590	891
676.640	908
676.689	678
676.739	-13
676.789	715
676.838	687
676.888	635
676.937	842
676.987	39
677.037	652
677.086	883
677.136	442
677.185	595
677.235	-191
677.284	1012
677.333	478
677.383	-137
677.432	221
677.482	1515
677.531	498
677.580	1367
677.630	182
677.679	63
677.728	325
677.778	509
677.827	196
677.876	-393
677.925	531
677.975	482
678.024	773
678.073	1010
678.122	485
678.171	917
678.220	829
678.269	1823
678.319	792
678.368	1284
678.417	1433
678.466	888
678.515	961
678.564	-73
678.613	377
678.662	826
678.711	837
678.760	643
678.809	-74
678.857	213
678.906	737
678.955	250
679.004	1242
679.053	516
679.102	486
679.151	105
679.199	221
679.248	314
679.297	-515
679.346	32
679.394	735
679.443	655
679.492	462
679.540	858
679.589	519
679.638	282
679.686	1159
679.735	395
679.784	4
679.832	1298
679.881	360
679.929	-244
679.978	-236
680.026	800
680.075	1117
680.123	745
680.172	-144
680.220	-77
680.268	-163
680.317	-42
680.365	90
680.414	407
680.462	349
680.510	190
680.559	360
680.607	263
680.655	6
680.703	-324
680.752	79
680.800	80
680.848	178
680.896	1155
680.945	567
680.993	186
681.041	116
681.089	340
681.137	-325
681.185	-397
681.233	-276
681.258	261
681.281	761
681.329	-36
681.377	-409
681.380	-364
681.425	308
681.473	482
681.502	439
681.521	390
681.569	1490
681.617	607
681.624	600
681.665	503
681.713	565
681.745	751
681.761	828
681.809	69
681.857	703
681.867	656
681.904	458
681.952	-122
681.989	324
682.000	442
682.048	312
682.096	633
682.111	552
682.143	353
682.191	-106
682.233	132
682.239	156
682.286	214
682.334	433
682.354	637
682.382	909
682.430	865
682.476	650
682.477	637
682.525	-123
682.572	646
682.598	367
682.620	133
682.667	1209
682.715	359
682.720	405
682.763	739
682.810	543
682.841	489
682.857	458
682.905	766
682.952	589
682.963	691
683.000	926
683.047	720
683.085	818
683.095	843
683.142	617
683.190	873
683.206	764
683.237	576
683.284	824
683.328	795
683.332	785
683.379	700
683.426	1211
683.449	861
683.473	487
683.521	457
683.568	1125
683.571	1130
683.615	1109
683.662	1696
683.693	1155
683.709	853
683.757	790
683.804	940
683.814	875
683.851	653
683.898	852
683.936	1310
683.945	1404
683.992	1348
684.039	1459
684.057	1331
684.086	1190
684.133	1166
684.179	822
684.180	798
684.227	1258
684.274	881
684.300	1203
684.321	1485
684.368	649
684.415	875
684.422	855
684.462	634
684.509	1100
684.543	1149
684.556	1181
684.603	1672
684.649	1213
684.665	1237
684.696	1225
684.743	1326
684.786	1506
684.790	1528
684.837	1139
684.883	1309
684.908	1452
684.930	1564
684.977	1581
685.023	1509
685.029	1542
685.070	1611
685.117	1532
685.150	1577
685.164	1645
685.210	1498
685.257	1223
685.272	1535
685.303	2149
685.350	1817
685.393	1851
685.396	1852
685.443	2091
685.490	1740
685.514	1866
685.536	1903
685.583	2262
685.629	2175
685.636	2131
685.675	1852
685.722	1819
685.757	1425
685.768	1315
685.815	1507
685.861	1734
685.878	1833
685.908	2011
685.954	1814
686.000	1936
686.000	1935
686.047	2082
686.093	2021
686.121	2275
686.139	2374
686.185	1659
686.232	1915
686.242	1858
686.278	1809
686.324	1652
686.363	1770
686.370	1767
686.416	2055
686.463	2447
686.484	2248
686.509	2111
686.555	1924
686.601	1871
686.606	1927
686.647	2201
686.693	1879
686.727	1879
686.739	1954
686.785	2353
686.831	2109
686.848	2112
686.877	1919
686.923	1584
686.969	1514
686.969	1515
687.015	2216
687.061	2291
687.090	2532
687.107	2571
687.153	2307
687.199	1929
687.211	2013
687.245	2356
687.291	1782
687.332	2340
687.336	2386
687.382	2337
687.428	2204
687.453	2294
687.474	2377
687.520	2091
687.565	2652
687.574	2500
687.611	1886
687.657	2288
687.695	2202
687.702	2198
687.748	2668
687.794	3026
687.816	2536
687.839	2010
687.885	2903
687.931	2492
687.937	2530
687.976	2858
688.022	2307
688.058	3282
688.067	3504
688.113	3001
688.158	2870
688.179	2800
688.204	2781
688.249	3405
688.295	3603
688.300	3617
688.340	3501
688.386	3164
688.421	3024
688.431	2966
688.477	2296
688.522	2657
688.542	2583
688.567	2694
688.613	2729
688.658	2873
688.663	2851
688.703	2543
688.749	2515
688.784	2789
688.794	2870
688.839	2470
688.884	2498
688.905	2438
688.930	2444
688.975	2821
689.020	2777
689.026	2756
689.065	2457
689.110	2626
689.146	2555
689.155	2571
689.201	2361
689.246	2524
689.267	2532
689.291	2527
689.336	2803
689.381	2596
689.388	2622
689.426	2836
689.471	2809
689.509	3047
689.516	3090
689.561	3057
689.606	2751
689.630	2642
689.651	2460
689.696	2476
689.741	2613
689.750	2627
689.785	2996
689.830	2946
689.871	2928
689.875	2913
689.920	2723
689.965	3046
689.992	3073
690.010	3060
690.054	3047
690.099	3088
690.112	2984
690.144	2861
690.189	2764
690.233	2466
690.233	2471
690.278	2759
690.323	3020
690.354	3052
690.367	3030
690.412	3241
690.457	2871
690.474	2779
690.501	2658
690.546	2672
690.590	2478
690.595	2430
690.635	2336
690.680	2608
690.716	2873
690.724	2924
690.769	3138
690.813	3648
690.836	3600
690.857	3488
690.902	3144
690.946	2965
690.957	2913
690.991	2825
691.035	2741
691.077	3050
691.080	3075
691.124	3236
691.168	2942
691.198	3130
691.213	3226
691.257	3285
691.301	3183
691.318	3328
691.346	3675
691.390	3553
691.434	3855
691.439	3849
691.478	3591
691.522	3520
691.559	3341
691.567	3369
691.611	3716
691.655	4002
691.680	3960
691.699	3749
691.743	3629
691.787	3667
691.800	3536
691.831	3485
691.875	3409
691.919	3848
691.921	3843
691.964	4003
692.008	3768
692.041	3840
692.052	3878
692.096	4164
692.139	4646
692.162	4692
692.183	4565
692.227	4435
692.271	4003
692.282	4019
692.315	4594
692.359	4886
692.402	5488
692.403	5500
692.447	5549
692.490	5585
692.523	5274
692.534	5137
692.578	5488
692.622	4831
692.643	4913
692.666	4891
692.709	4232
692.753	3972
692.763	3929
692.797	4145
692.840	3902
692.884	4306
692.884	4317
692.928	3841
692.971	3802
693.004	3751
693.015	3779
693.059	3705
693.102	3643
693.124	3613
693.146	3652
693.189	3884
693.233	4033
693.245	4083
693.276	4045
693.320	3746
693.363	3576
693.365	3556
693.407	3554
693.450	3673
693.485	3713
693.493	3728
693.537	3946
693.580	3882
693.605	3803
693.624	3765
693.667	3675
693.710	4187
693.725	4146
693.753	4057
693.797	3963
693.840	4030
693.845	4002
693.883	4032
693.926	4015
693.966	4414
693.970	4446
694.013	4088
694.056	4232
694.086	4156
694.099	4104
694.142	3680
694.185	3728
694.206	3494
694.229	3489
694.272	3618
694.315	4212
694.326	4218
694.358	4229
694.401	4338
694.444	4681
694.446	4670
694.487	4662
694.530	4852
694.566	4963
694.573	4933
694.616	4620
694.659	4144
694.686	3967
694.702	3976
694.745	4155
694.787	3843
694.806	3821
694.830	3859
694.873	3967
694.916	4012
694.926	3997
694.959	4050
695.002	3875
695.044	4273
695.046	4259
695.087	4391
695.130	4617
695.166	4806
695.172	4836
695.215	5009
695.258	5244
695.286	5220
695.301	5177
695.343	5209
695.386	5204
695.406	5135
695.428	5030
695.471	4785
695.514	4696
695.526	4688
695.556	5097
695.599	5534
695.641	5843
695.646	5862
695.684	5702
695.726	5478
695.766	5396
695.769	5399
695.811	5148
695.854	4981
695.886	4778
695.896	4845
695.938	4978
695.981	5226
696.005	5266
696.023	5279
696.065	5586
696.108	5618
696.125	5692
696.150	5883
696.192	6033
696.235	6139
696.245	6180
696.277	6328
696.319	6466
696.361	6659
696.365	6636
696.404	6337
696.446	6306
696.485	6246
696.488	6285
696.530	6387
696.572	6513
696.604	6662
696.614	6629
696.656	6360
696.698	6134
696.724	6012
696.740	5965
696.783	5655
696.825	5482
696.844	5324
696.867	5567
696.909	6164
696.951	6577
696.964	6711
696.992	6546
697.034	6238
697.076	6012
697.083	5957
697.118	6238
697.160	6458
697.202	6828
697.203	6817
697.244	6740
697.286	6630
697.323	6459
697.327	6454
697.369	6269
697.411	6194
697.442	6068
697.453	6178
697.494	6567
697.536	6967
697.562	7189
697.578	7383
697.620	7732
697.661	8254
697.682	8458
697.703	8709
697.744	9201
697.786	9692
697.801	9823
697.828	10268
697.869	10961
697.911	11593
697.921	11732
697.952	10954
697.994	9902
698.035	8797
698.040	8639
698.077	8276
698.118	7871
698.160	7431
698.160	7407
698.201	7574
698.243	7623
698.279	7713
698.284	7766
698.325	8034
698.367	8320
698.399	8490
698.408	8484
698.449	8374
698.491	8236
698.518	8119
698.532	8249
698.573	8616
698.614	8966
698.638	9137
698.656	9028
698.697	8720
698.738	8406
698.757	8233
698.779	8106
698.820	7835
698.862	7558
698.877	7438
698.903	7603
698.944	7825
698.985	8056
698.996	8100
699.026	8052
699.067	7956
699.116	7825
699.235	7861
699.354	7805
699.474	6966
699.593	7507
699.713	7517
699.832	8735
699.951	8943
700.070	8927
700.190	7587
700.309	8042
700.428	8130
700.547	8237
700.667	7764
700.786	8536
700.905	7416
701.024	6894
701.143	6429
701.262	7403
701.381	6884
701.500	7770
701.619	8045
701.738	7693
701.857	7176
701.976	7256
702.095	6537
702.214	7730
702.333	7254
702.452	8107
702.571	6870
702.690	7636
702.809	6906
702.928	7199
703.047	7081
703.165	7098
703.284	6834
703.403	7698
703.522	6651
703.640	6952
703.759	7545
703.878	7969
703.997	6594
704.115	6909
704.234	6132
704.353	7091
704.471	5846
704.590	5901
704.708	5800
704.827	6852
704.946	6144
705.064	6428
705.183	6180
705.301	5898
705.420	6431
705.538	6689
705.656	5521
705.775	5508
705.893	5457
706.012	6409
706.130	6229
706.249	5816
706.367	5825
706.485	6390
706.604	6300
706.722	6092
706.840	6921
706.958	7457
707.077	6073
707.195	5825
707.313	5025
707.431	5280
707.549	5565
707.668	6188
707.786	6636
707.904	5474
708.022	4967
708.140	5491
708.258	4877
708.376	6049
708.494	4708
708.612	6164
708.730	6213
708.848	6917
708.966	5700
709.084	7195
709.202	5454
709.320	5737
709.438	5737
709.556	5481
709.674	5595
709.791	5450
709.909	5688
710.027	5903
710.145	4822
710.263	5747
710.380	5188
710.498	5491
710.616	4933
710.733	4789
710.851	4801
710.969	5358
711.086	5179
711.204	5967
711.322	4780
711.439	5285
711.557	4890
711.674	4572
711.792	4699
711.909	5949
712.027	4004
712.144	5679
712.262	5378
712.379	5467
712.497	5835
712.614	6400
712.732	5304
712.849	5777
712.966	5609
713.084	6951
713.201	5930
713.318	5627
713.436	6082
713.553	6039
713.670	5994
713.787	6590
713.905	4666
714.022	6370
714.139	6155
714.256	9430
714.373	13392
714.490	27371
714.608	72520
714.725	342060
714.842	441259
714.959	28437
715.076	10408
715.193	8338
715.310	7827
715.427	6282
715.544	4945
715.661	6945
715.778	6025
715.895	5372
716.011	5967
716.128	5785
716.245	5489
716.362	7652
716.479	7419
716.596	6452
716.713	5579
716.829	5244
716.946	5144
717.063	5122
717.180	4210
717.296	4550
717.413	4428
717.530	5233
717.646	5262
717.763	4769
717.880	4460
717.996	3790
718.113	4963
718.229	4902
718.346	4329
718.462	4957
718.579	6264
718.695	10676
718.812	7517
718.928	5563
719.045	4382
719.161	4641
719.277	5047
719.394	5129
719.510	5202
719.626	5325
719.743	6220
719.859	10864
719.975	23462
720.092	91863
720.208	240534
720.324	33201
720.440	7505
720.557	5730
720.673	8694
720.789	9016
720.905	9237
721.021	6422
721.137	4304
721.253	4769
721.369	3616
721.486	3927
721.602	5536
721.718	4178
721.834	3528
721.950	4481
722.066	3033
722.181	4356
722.297	3509
722.413	4018
722.529	4471
722.645	4125
722.761	4048
722.877	3989
722.993	4158
723.108	5348
723.224	4669
723.340	3723
723.456	3985
723.571	3924
723.687	3576
723.803	4178
723.918	3178
724.034	3739
724.150	3171
724.265	3350
724.381	4437
724.497	5885
724.612	3383
724.728	3404
724.843	3336
724.959	4059
725.074	5511
725.190	6006
725.305	3746
725.421	3158
725.536	3599
725.651	3438
725.767	2758
725.882	3829
725.997	3523
726.113	3329
726.228	3357
726.343	3313
726.459	2546
726.574	2659
726.689	3097
726.804	4202
726.920	3196
727.035	3142
727.150	3271
727.265	3145
727.380	3901
727.495	3922
727.610	3313
727.725	2772
727.841	3411
727.956	3027
728.071	3071
728.186	3054
728.301	2658
728.416	3812
728.531	3005
728.645	3609
728.760	3594
728.875	4776
728.990	4957
729.105	4170
729.220	3256
729.335	3984
729.449	2883
729.564	3335
729.679	2137
729.794	2835
729.908	2705
730.023	3387
730.138	2882
730.253	3365
730.367	2137
730.482	3560
730.596	2945
730.711	4389
730.826	3907
730.940	3461
731.055	3781
731.169	3077
731.284	3768
731.398	2767
731.513	3330
731.627	4370
731.742	3778
731.856	5183
731.970	5057
732.085	6121
732.199	7827
732.313	14496
732.428	36910
732.542	129036
732.656	91673
732.771	13074
732.885	6608
732.999	7536
733.113	6038
733.227	6618
733.342	5013
733.456	5976
733.570	5190
733.684	5938
733.798	3765
733.912	4942
734.026	4729
734.140	4740
734.254	4989
734.368	6185
734.482	6507
734.596	4905
734.710	5414
734.824	4717
734.938	4893
735.052	5281
735.166	5077
735.280	5340
735.393	5704
735.507	7113
735.621	6912
735.735	5716
735.849	4645
735.962	4496
736.076	5206
736.190	4375
736.303	4159
736.417	6226
736.531	3731
736.644	4107
736.758	3639
736.872	4180
736.985	4059
737.099	3926
737.212	3945
737.326	4096
737.439	4802
737.553	3489
737.666	3658
737.780	3873
737.893	4757
738.007	3856
738.120	3504
738.233	4326
738.347	3782
738.460	4350
738.573	4176
738.687	4460
738.800	4181
738.913	5220
739.026	4224
739.140	3192
739.253	3841
739.366	3563
739.479	3476
739.592	3853
739.705	2999
739.818	4765
739.932	6096
740.045	7774
740.158	4180
740.271	4017
740.384	3254
740.497	4860
740.610	5653
740.723	4589
740.836	4484
740.949	5060
741.062	5138
741.174	5010
741.287	3777
741.400	4476
741.513	3924
741.626	5137
741.739	4053
741.851	4481
741.964	3470
742.077	4038
742.189	4118
742.302	6875
742.415	7039
742.527	4913
742.640	4093
742.753	3553
742.865	3230
742.978	3180
743.090	3208
743.203	2907
743.316	2808
743.428	3611
743.541	2799
743.653	2950
743.766	2621
743.878	3054
743.990	3578
744.103	4456
744.215	6003
744.327	3683
744.440	4107
744.552	5777
744.664	3219
744.777	3581
744.889	2435
745.001	2671
745.113	2780
745.226	2024
745.338	2277
745.450	3035
745.562	2097
745.674	2323
745.786	2186
745.898	3005
746.010	2418
746.122	4300
746.234	7196
746.347	3573
746.459	3334
746.570	2737
746.682	3201
746.794	7243
746.906	5065
747.018	3066
747.130	3114
747.242	1930
747.354	2536
747.466	3036
747.577	3013
747.689	2721
747.801	2604
747.913	3105
748.024	2287
748.136	2108
748.248	2133
748.359	2912
748.471	1939
748.583	2498
748.694	1577
748.806	3027
748.918	1928
749.029	2601
749.141	2800
749.252	2319
749.364	2816
749.475	4519
749.587	2865
749.698	2261
749.809	1752
749.921	2574
750.032	2003
750.144	2047
750.255	1952
750.366	1382
750.478	2292
750.589	2932
750.700	2020
750.811	2609
750.923	2545
751.034	5735
751.145	6855
751.256	2572
751.367	1060
751.479	1970
751.590	1501
751.701	2379
751.812	1131
751.923	2255
752.034	1956
752.145	2167
752.256	1647
752.367	1951
752.478	2010
752.589	2197
752.700	2502
752.811	2075
752.922	2169
753.032	2926
753.143	2884
753.254	1563
753.365	2161
753.476	2153
753.586	1144
753.697	1285
753.808	1257
753.919	1833
754.029	1575
754.140	1499
754.251	1225
754.361	2038
754.472	1753
754.582	1620
754.693	1972
754.804	2045
754.914	1149
755.025	1300
755.135	1647
755.246	2007
755.356	1478
755.466	1872
755.577	1253
755.687	2072
755.798	1673
755.908	1959
756.018	1253
756.129	2162
756.239	1636
756.349	2629
756.460	1354
756.570	2978
756.680	2106
756.790	1435
756.900	1586
757.011	1339
757.121	1238
757.231	1512
757.341	1287
757.451	1950
757.561	782
757.671	1570
757.781	1482
757.891	2255
758.001	1744
758.111	2376
758.221	1501
758.331	2236
758.441	2359
758.551	3245
758.661	2553
758.771	2608
758.880	1664
758.990	1644
759.100	1751
759.210	2291
759.320	1974
759.429	2393
759.539	1927
759.649	2090
759.758	3398
759.868	2194
759.978	2404
760.087	3199
760.197	3218
760.307	2515
760.416	2642
760.526	1900
760.635	2220
760.745	2796
760.854	2877
760.964	3462
761.073	2941
761.182	2803
761.292	2011
761.401	2559
761.511	1451
761.620	1637
761.729	1172
761.839	1522
761.948	1772
762.057	1748
762.166	1829
762.276	901
762.385	1504
762.494	1861
762.603	1106
762.712	2051
762.822	989
762.931	2114
763.040	577
763.149	1596
763.258	925
763.367	2112
763.476	831
763.585	1682
763.694	1495
763.803	1410
763.912	840
764.021	1398
764.130	833
764.238	2001
764.347	671
764.456	1554
764.565	1621
764.674	833
764.783	1486
764.891	1248
765.000	1473
765.109	1421
765.217	1166
765.326	2100
765.435	1626
765.543	2445
765.652	1851
765.761	2571
765.869	2989
765.978	3611
766.086	6143
766.195	11407
766.303	33292
766.412	142619
766.520	137025
766.629	11319
766.737	3809
766.846	3621
766.954	1994
767.062	2804
767.171	1882
767.279	2269
767.387	852
767.496	2217
767.604	1402
767.712	703
767.820	1809
767.928	1921
768.037	859
768.145	1565
768.253	1982
768.361	1540
768.469	1540
768.577	1494
768.685	1507
768.793	1770
768.901	676
769.009	1435
769.117	1738
769.225	1944
769.333	2189
769.441	2419
769.549	4773
769.657	10715
769.765	39956
769.873	122671
769.981	28303
770.088	3063
770.196	1912
770.304	2483
770.412	2546
770.519	1620
770.627	1969
770.735	1871
770.842	1557
770.950	1590
771.058	1591
771.165	2064
771.273	1734
771.380	2524
771.488	2750
771.595	3298
771.703	2322
771.810	3355
771.918	2569
772.025	3922
772.133	3399
772.240	3654
772.348	3704
772.455	4063
772.562	2867
772.670	3132
772.777	3559
772.884	3856
772.991	2610
773.099	3313
773.206	3265
773.313	3731
773.420	2544
773.528	3591
773.635	3232
773.742	3749
773.849	2674
773.956	3800
774.063	3214
774.170	2897
774.277	3123
774.384	3290
774.491	2518
774.598	3749
774.705	2596
774.812	3292
774.919	2891
775.026	2772
775.133	2818
775.239	3413
775.346	2564
775.453	3560
775.560	2137
775.667	3425
775.773	1943
775.880	3428
775.987	1779
776.093	2591
776.200	2909
776.307	3030
776.413	2387
776.520	3033
776.627	2761
776.733	3322
776.840	1473
776.946	4696
777.053	5132
777.159	11926
777.266	8484
777.372	10024
777.478	10414
777.585	7176
777.691	2260
777.798	3556
777.904	2600
778.010	3261
778.117	3483
778.223	2949
778.329	1582
778.435	2108
778.542	2773
778.648	1849
778.754	2372
778.860	1828
778.966	2085
779.072	2909
779.178	2548
779.284	2109
779.391	1178
779.497	2099
779.603	2912
779.708	1272
779.815	2198
779.920	2830
780.026	2366
780.132	2634
780.238	1860
780.344	1571
780.450	2635
780.556	1275
780.661	1611
780.767	2023
780.873	1520
780.979	1943
781.085	1290
781.190	1531
781.296	1946
781.402	1223
781.507	1440
781.613	1538
781.719	879
781.824	2587
781.930	1517
782.035	1234
782.141	1115
782.246	1442
782.352	1484
782.457	1698
782.563	1828
782.668	2415
782.773	1435
782.879	629
782.984	1734
783.090	2210
783.195	2337
783.300	2532
783.405	1351
783.511	1351
783.616	1381
783.721	1623
783.826	1535
783.932	1410
784.037	1522
784.142	1517
784.247	857
784.352	1237
784.457	756
784.562	1859
784.667	1622
784.772	1517
784.877	734
784.982	1271
785.087	1075
785.192	1721
785.297	1131
785.402	999
785.507	274
785.611	1146
785.716	961
785.821	964
785.926	391
786.031	806
786.135	1192
786.240	611
786.345	-141
786.450	1182
786.554	1613
786.659	407
786.763	373
786.868	2010
786.973	1017
787.077	1133
787.182	581
787.286	1833
787.391	986
787.495	505
787.600	458
787.704	432
787.809	1099
787.913	1529
788.017	2220
788.122	1056
788.226	1297
788.330	729
788.435	1050
788.539	928
788.643	803
788.747	948
788.852	594
788.956	798
789.060	997
789.164	923
789.268	680
789.372	1662
789.476	461
789.580	384
789.684	-135
789.788	1030
789.892	269
789.996	784
790.100	892
790.204	1785
790.308	572
790.412	1023
790.516	1304
790.620	805
790.724	898
790.828	-35
790.931	594
791.035	1806
791.139	688
791.242	85
791.346	1533
791.450	1031
791.554	430
791.657	-441
791.761	1552
791.864	1454
791.968	1099
792.072	881
792.175	423
792.279	1417
792.382	792
792.486	1586
792.589	838
792.693	949
792.796	103
792.899	1603
793.003	1165
793.106	101
793.209	299
793.313	1532
793.416	-503
793.519	1723
793.623	2095
793.726	2929
793.829	1203
793.932	838
794.035	-57
794.138	1886
794.242	1658
794.345	1609
794.448	729
794.551	1306
794.654	2445
794.757	1523
794.860	281
794.963	903
795.066	-223
795.169	1755
795.272	-132
795.375	856
795.477	442
795.580	15
795.683	-396
795.786	1088
795.889	-775
795.991	1612
796.094	590
796.197	227
796.300	1300
796.402	371
796.505	-100
796.608	90
796.710	771
796.813	522
796.915	390
797.018	256
797.120	601
797.223	-158
797.326	1612
797.428	-8
797.530	551
797.633	465
797.735	1369
797.838	517
797.940	834
798.042	346
798.145	398
798.247	226
798.349	-748
798.452	658
798.554	264
798.656	341
798.758	1751
798.860	598
798.962	-80
799.065	164
799.167	-48
799.269	1729
799.371	703
799.473	1714
799.575	644
799.677	837
799.779	1209
799.881	705
799.983	1739
800.085	686
800.187	-139
800.289	-253
800.390	-295
800.492	546
800.594	294
800.696	-118
800.798	22
800.899	993
801.001	-565
801.103	526
801.205	-167
801.306	875
801.408	622
801.509	397
801.611	-1
801.713	628
801.814	-125
801.916	-100
802.017	-221
802.119	-451
802.220	-68
802.322	-959
802.423	1376
802.525	-800
802.626	841
802.727	279
802.829	573
802.930	-1591
803.031	1778
803.133	-131
803.234	-229
803.335	738
803.436	-360
803.538	608
803.639	-1496
803.740	544
803.841	-94
803.942	176
804.043	-112
804.144	145
804.245	745
804.346	-76
804.447	-822
804.548	190
804.649	413
804.750	36
804.851	-352
804.952	79
805.053	253
805.154	-1010
805.255	829
805.355	132
805.456	-742
805.557	40
805.658	-1641
805.758	91
805.859	162
805.960	-14
806.061	-538
806.161	-450
806.262	324
806.362	-407
806.463	7
806.564	888
806.664	293
806.765	-431
806.865	25
806.966	34
807.066	-442
807.166	352
807.267	869
807.367	-1020
807.468	-46
807.568	-1045
807.668	386
807.769	371
807.869	33
807.969	-119
808.069	454
808.170	33
808.270	-665
808.370	106
808.470	-6
808.570	-89
808.670	-75
808.770	114
808.870	-56
808.970	164
809.070	-97
809.170	-605
809.271	817
809.370	61
809.470	-733
809.570	410
809.670	-472
809.770	504
809.870	-116
809.970	3
810.070	-156
810.169	1105
810.269	-1181
810.369	776
810.469	-48
810.568	-2
810.668	-377
810.768	154
810.867	-395
810.967	-502
811.066	-537
811.166	-45
811.265	-107
811.365	159
811.464	-621
811.564	-108
811.663	278
811.763	83
811.862	493
811.962	-195
812.061	-364
812.160	-321
812.260	170
812.359	631
812.458	-746
812.557	824
812.657	-379
812.756	277
812.855	-357
812.954	-458
813.053	-25
813.153	565
813.252	-887
813.351	966
813.450	-75
813.549	146
813.648	-366
813.747	-371
813.846	-197
813.945	-304
814.044	-55
814.143	417
814.242	217
814.341	372
814.439	-611
814.538	637
814.637	187
814.736	-512
814.835	612
814.933	-501
815.032	159
815.131	865
815.229	1504
815.328	3238
815.427	1979
815.525	1671
815.624	1178
815.722	1431
815.821	1276
815.919	1364
816.018	817
816.116	2062
816.215	958
816.313	1962
816.412	1405
816.510	1953
816.609	3020
816.707	3172
816.805	1657
816.904	2371
817.002	2417
817.100	2642
817.198	2891
817.296	1547
817.395	2481
817.493	3887
817.591	2640
817.689	2987
817.787	2848
817.885	5454
817.983	9753
818.081	20832
818.179	48518
818.277	128416
818.375	115944
818.473	27717
818.571	9469
818.669	7307
818.767	7562
818.865	7241
818.963	6598
819.061	11505
819.158	19099
819.256	44735
819.354	102082
819.452	243078
819.549	159393
819.647	34114
819.745	11807
819.842	8028
819.940	6585
820.038	3970
820.135	4012
820.233	4112
820.330	3056
820.428	1601
820.525	2838
820.623	2177
820.720	1379
820.818	2297
820.915	2713
821.012	2168
821.110	925
821.207	2057
821.304	1292
821.402	2323
821.499	3567
821.596	4175
821.693	3300
821.791	2418
821.888	2181
821.985	4077
822.082	2037
822.179	3557
822.276	2734
822.373	2561
822.470	1066
822.567	1645
822.664	1078
822.761	1661
822.858	-262
822.955	1793
823.052	188
823.149	1669
823.246	698
823.343	1286
823.440	786
823.536	1306
823.633	870
823.730	1513
823.827	771
823.923	845
824.020	1402
824.117	1449
824.213	1499
824.310	1838
824.407	317
824.503	1714
824.600	441
824.696	-29
824.793	2489
824.889	891
824.986	135
825.082	487
825.179	1199
825.275	1307
825.371	507
825.468	374
825.564	-159
825.660	1098
825.757	1314
825.853	1103
825.949	-99
826.045	-73
826.142	257
826.238	998
826.334	222
826.430	-186
826.526	190
826.622	247
826.718	493
826.814	570
826.910	1171
827.006	304
827.102	280
827.198	708
827.294	-490
827.390	702
827.486	500
827.582	-1093
827.678	-134
827.774	819
827.869	-1328
827.965	1012
828.061	183
828.157	681
828.252	462
828.348	-205
828.444	-231
828.539	239
828.635	88
828.731	1347
828.826	-1179
828.922	378
829.017	304
829.113	423
829.208	-54
829.304	-805
829.399	1584
829.495	490
829.590	284
829.685	573
829.781	-240
829.876	-89
829.971	-1
830.066	-20
830.162	-42
830.257	599
830.352	-486
830.447	704
830.543	46
830.638	-269
830.733	1253
830.828	-470
830.923	1226
831.018	74
831.113	383
831.208	-350
831.303	-558
831.398	263
831.493	-547
831.588	824
831.683	-801
831.778	385
831.873	-404
831.967	967
832.062	360
832.157	-242
832.252	715
832.346	208
832.441	1000
832.536	996
832.631	2201
832.725	1509
832.820	39
832.914	90
833.009	-141
833.104	611
833.198	379
833.293	374
833.387	334
833.482	-456
833.576	23
833.670	682
833.765	-58
833.859	-46
833.954	356
834.048	374
834.142	335
834.237	-394
834.331	56
834.425	94
834.519	-392
834.613	645
834.708	-117
834.802	161
834.896	-739
834.990	-59
835.084	-216
835.178	128
835.272	-535
835.366	61
835.460	-11
835.554	181
835.648	-551
835.742	-398
835.836	-18
835.930	-781
836.024	94
836.117	1098
836.211	-707
836.305	460
836.399	-316
836.493	-827
836.586	-300
836.680	-829
836.774	-727
836.867	497
836.961	-746
837.055	-726
837.148	-361
837.242	-647
837.335	-280
837.429	-657
837.522	-1519
837.616	-346
837.709	-498
837.803	157
837.896	-601
837.989	-792
838.083	-394
838.176	-718
838.269	-414
838.363	-450
838.456	-368
838.549	580
838.642	-128
838.735	1819
838.829	1248
838.922	-215
839.015	-679
839.108	-957
839.201	-284
839.294	507
839.387	-586
839.480	-1220
839.573	-722
839.666	-326
839.759	-823
839.852	-456
839.945	237
840.038	-666
840.131	-931
840.223	-459
840.316	98
840.409	-378
840.502	-1578
840.594	-386
840.687	-1136
840.780	-289
840.873	-1368
840.965	-267
841.058	136
841.150	717
841.243	-485
841.336	162
841.428	-1107
841.521	-1154
841.613	-1095
841.706	278
841.798	-605
841.890	-746
841.983	-1375
842.075	-79
842.167	-437
842.260	-166
842.352	-360
842.444	433
842.537	-431
842.629	840
842.721	-462
842.813	-425
842.905	-1352
842.997	-277
843.090	-743
843.182	-283
843.274	-1344
843.366	1298
843.458	2296
843.550	2359
843.642	-691
843.734	-305
843.826	-1177
843.918	277
844.009	-67
844.101	-574
844.193	-1039
844.285	-699
844.377	47
844.469	1498
844.560	1907
844.652	2562
844.744	277
844.835	-452
844.927	-368
845.019	-493
845.110	-358
845.202	-745
845.293	-1205
845.385	-735
845.476	-551
845.568	539
845.659	-611
845.751	15
845.842	-1080
845.934	-970
846.025	-290
846.116	-685
846.208	-1250
846.299	-314
846.390	-835
846.482	-79
846.573	-502
846.664	-211
846.755	-1165
846.846	205
846.937	-1730
847.029	-590
847.120	-898
847.211	-1205
847.302	-206
847.393	-923
847.484	-528
847.575	-1122
847.666	-136
847.757	-746
847.847	-707
847.938	-363
848.029	-485
848.120	-871
848.211	-120
848.302	-1242
848.392	-542
848.483	-247
848.574	-1512
848.664	-474
848.755	-686
848.846	-239
848.936	-977
849.027	159
849.118	63
849.208	-255
849.299	1186
849.389	3551
849.480	9407
849.570	20462
849.661	37997
849.751	72966
849.841	31873
849.932	2885
850.022	431
850.112	46
850.203	-673
850.293	-205
850.383	-455
850.474	-915
850.564	-656
850.654	-672
850.744	-785
850.834	-857
850.924	-575
851.014	-381
851.104	-810
851.194	-306
851.284	-247
851.374	-350
851.464	-846
851.554	-764
851.644	-1562
851.734	365
851.824	-1053
851.914	-684
852.004	-715
852.094	-1707
852.183	-118
852.273	-550
852.363	-805
852.452	-384
852.542	-481
852.632	-703
852.721	-746
852.811	-489
852.901	-679
852.990	-322
853.080	1031
853.169	941
853.259	654
853.348	852
853.438	1558
853.527	3891
853.617	5852
853.706	13397
853.795	26063
853.885	59064
853.974	112954
854.063	193782
854.152	348034
854.242	158921
854.331	23026
854.420	7524
854.509	4227
854.598	3928
854.687	1626
854.777	1698
854.866	1258
854.955	708
855.044	82
855.133	190
855.222	-484
855.311	-307
855.400	3
855.488	549
855.577	-808
855.666	39
855.755	106
855.844	100
855.933	-1099
856.021	9
856.110	-748
856.199	-409
856.288	-974
856.376	70
856.465	-1396
856.554	-250
856.642	-592
856.731	-695
856.819	-2
856.908	-1034
856.996	-1352
857.085	-798
857.173	-546
857.262	-755
857.350	-1131
857.438	-639
857.527	-805
857.615	-1538
857.703	-359
857.792	-378
857.880	-724
857.968	-857
858.056	-658
858.145	-686
858.233	-537
858.321	-1048
858.409	-739
858.497	-914
858.585	-1294
858.673	-435
858.761	-840
858.849	-436
858.937	-1029
859.025	-708
859.113	-502
859.201	-423
859.289	-639
859.377	-495
859.465	-146
859.552	-531
859.640	-1546
859.728	-167
859.816	-552
859.903	-374
859.991	-1438
860.079	-308
860.166	-340
860.254	-1024
860.342	-907
860.429	-839
860.517	-1476
860.604	-420
860.692	-636
860.779	-1712
860.867	-1026
860.954	-598
861.042	-210
861.129	-26
861.216	-679
861.304	-441
861.391	-757
861.478	-1334
861.565	-987
861.653	-571
861.740	-901
861.827	-1000
861.914	-569
862.001	-1320
862.089	-966
862.176	-678
862.263	-1905
862.350	25
862.437	-980
862.524	-385
862.611	-849
862.698	278
862.785	160
862.871	742
862.958	-290
863.045	-850
863.132	-783
863.219	-293
863.306	-1063
863.392	-259
863.479	-854
863.566	-56
863.652	-63
863.739	-163
863.826	-372
863.912	-711
863.999	-1094
864.086	-751
864.172	-197
864.259	-635
864.345	-1006
864.432	-554
864.518	-488
864.604	26
864.691	-937
864.777	-13
864.863	1036
864.950	1386
865.036	59
865.122	2949
865.209	2805
865.295	3056
865.381	3523
865.467	2915
865.553	5492
865.639	8405
865.726	15504
865.812	30750
865.898	60621
865.984	88169
866.070	158322
866.156	209421
866.242	63853
866.328	11527
866.414	4579
866.499	4490
866.585	3063
866.671	2591
866.757	3002
866.843	3029
866.928	1964
867.014	1773
867.100	2089
867.186	783
867.271	1500
867.357	2410
867.442	1194
867.528	1748
867.614	513
867.699	1952
867.785	2378
867.870	2619
867.956	4294
868.041	3602
868.127	2042
868.212	2575
868.297	3118
868.383	2025
868.468	2162
868.553	2958
868.639	2184
868.724	3628
868.809	3891
868.894	2181
868.979	948
869.065	625
869.150	661
869.235	1239
869.320	789
869.405	600
869.490	485
869.575	1510
869.660	260
869.745	1424
869.830	970
869.915	486
870.000	531
870.085	1665
870.169	1698
870.254	2603
870.339	577
870.424	1052
870.509	1407
870.593	1272
870.678	543
870.763	709
870.847	1202
870.932	608
871.016	2194
871.101	1315
871.186	58
871.270	1137
871.355	-278
871.439	1099
871.523	984
871.608	315
871.692	-186
871.777	1748
871.861	609
871.945	327
872.030	636
872.114	406
872.198	-254
872.282	726
872.367	-304
872.451	285
872.535	45
872.619	832
872.703	-344
872.787	331
872.871	-279
872.955	-189
873.039	-274
873.123	605
873.207	611
873.291	459
873.375	-395
873.459	753
873.543	13
873.627	66
873.711	394
873.794	539
873.878	72
873.962	-335
874.045	-561
874.129	-160
874.137	-107
874.213	422
874.245	213
874.296	-119
874.352	43
874.380	115
874.460	613
874.464	633
874.547	-130
874.568	-61
874.631	128
874.676	136
874.714	148
874.784	659
874.798	751
874.881	731
874.892	572
874.965	-430
874.999	197
875.048	985
875.107	730
875.131	644
875.215	-170
875.215	-169
875.298	334
875.323	166
875.381	-249
875.430	764
875.465	1468
875.538	1010
875.548	934
875.631	-123
875.646	-214
875.714	-629
875.753	-403
875.798	-43
875.861	346
875.881	420
875.964	637
875.968	606
876.047	194
876.076	318
876.130	561
876.183	179
876.213	-22
876.291	1190
876.296	1254
876.379	747
876.398	748
876.462	958
876.506	240
876.545	-498
876.613	-548
876.628	-536
876.711	467
876.721	518
876.794	979
876.828	913
876.877	778
876.935	695
876.960	632
877.043	304
877.043	303
877.125	624
877.150	690
877.208	639
877.258	1092
877.291	1533
877.365	792
877.374	660
877.456	747
877.472	697
877.539	665
877.579	670
877.622	673
877.687	919
877.704	985
877.787	620
877.794	596
877.869	670
877.901	1192
877.952	1618
878.008	713
878.034	417
878.115	365
878.117	368
878.199	-36
878.222	253
878.282	1036
878.329	1218
878.364	1318
878.437	1827
878.447	1851
878.529	490
878.544	548
878.611	1227
878.651	831
878.694	390
878.758	1028
878.776	1201
878.858	785
878.865	793
878.941	705
878.972	583
879.023	536
879.078	591
879.105	769
879.185	1459
879.187	1469
879.269	2222
879.292	1947
879.351	1026
879.399	998
879.433	1136
879.506	1013
879.516	993
879.598	1333
879.613	1288
879.680	1359
879.720	1581
879.762	1657
879.827	1634
879.844	1663
879.926	1906
879.933	1929
880.007	2163
880.040	2328
880.089	2658
880.147	3251
880.171	3737
880.253	6786
880.254	6795
880.335	10396
880.360	11591
880.417	18034
880.467	25840
880.499	32605
880.574	47359
880.580	46391
880.662	19628
880.680	15017
880.744	7234
880.787	3300
880.825	2324
880.893	1705
880.907	1720
880.989	1453
881.000	1485
881.070	2092
881.106	2059
881.152	1573
881.213	1076
881.233	1146
881.315	1180
881.319	1224
881.396	1911
881.426	1717
881.478	1329
881.532	1835
881.559	2075
881.639	1439
881.641	1417
881.722	1316
881.745	1114
881.803	1524
881.852	1965
881.885	1790
881.958	1375
881.966	1453
882.047	2106
882.064	2133
882.129	1712
882.171	1943
882.210	2589
882.277	3325
882.291	3325
882.372	2979
882.383	2910
882.454	2559
882.489	2294
882.535	1806
882.596	1659
882.616	1823
882.697	1944
882.702	1954
882.778	1297
882.808	1173
882.859	1316
882.914	1076
882.940	1097
883.020	1605
883.021	1620
883.102	1966
883.127	2363
883.183	3141
883.233	3156
883.264	2534
883.339	1782
883.345	1766
883.426	842
883.445	713
883.507	1122
883.551	1253
883.587	1537
883.657	2288
883.668	2344
883.749	2796
883.763	2757
883.830	1479
883.869	969
883.910	1131
883.975	1268
883.991	1383
884.072	1876
884.081	1926
884.152	2427
884.187	2668
884.233	2823
884.292	2673
884.314	2354
884.394	1546
884.398	1499
884.475	1230
884.504	1030
884.555	1175
884.610	1472
884.636	1737
884.716	2293
884.716	2309
884.797	3462
884.821	3538
884.877	2760
884.927	2222
884.958	2247
885.033	2501
885.038	2452
885.118	1187
885.139	931
885.199	1283
885.244	1465
885.279	1904
885.350	2701
885.359	2777
885.439	3436
885.456	3459
885.520	2372
885.561	2063
885.600	1995
885.667	1437
885.680	1538
885.760	2361
885.773	2467
885.840	1890
885.878	1604
885.920	1960
885.984	2081
886.000	2049
886.080	2320
886.089	2313
886.160	2101
886.195	2115
886.240	2392
886.300	2477
886.320	2502
886.400	2815
886.406	2815
886.480	2680
886.511	2625
886.560	2690
886.616	2656
886.640	2633
886.720	2606
886.722	2590
886.800	2301
886.827	2293
886.879	2618
886.932	2777
886.959	2925
887.038	3397
887.039	3399
887.119	2363
887.143	2052
887.198	2222
887.248	2287
887.278	2233
887.354	2014
887.358	2073
887.437	3154
887.459	3464
887.517	3459
887.564	3246
887.596	2876
887.669	2256
887.676	2232
887.755	1729
887.774	1576
887.835	1570
887.880	1658
887.914	2047
887.985	2686
887.994	2702
888.073	2756
888.090	2765
888.153	3658
888.195	4165
888.232	3595
888.300	2633
888.311	2520
888.391	1581
888.405	1408
888.470	2092
888.510	2460
888.549	2320
888.615	2167
888.628	2280
888.708	2792
888.720	2874
888.787	3430
888.825	3656
888.866	2946
888.930	1930
888.945	2165
889.024	3332
889.035	3470
889.103	3140
889.140	2953
889.182	2706
889.245	2322
889.261	2482
889.340	3208
889.349	3282
889.419	2877
889.454	2653
889.498	2571
889.559	2457
889.577	2629
889.656	3349
889.664	3411
889.735	2718
889.768	2380
889.814	2485
889.873	2604
889.978	2320
890.083	2270
890.187	2516
890.292	3245
890.397	3112
890.501	2785
890.606	1898
890.710	3366
890.815	4288
890.919	2905
891.024	3586
891.128	3342
891.233	2272
891.337	3595
891.442	2496
891.546	2724
891.650	2265
891.755	2111
891.859	3682
891.963	4241
892.068	3234
892.172	2224
892.276	2483
892.380	3566
892.484	4271
892.589	4652
892.693	4303
892.797	2140
892.901	1852
893.005	2403
893.109	4014
893.213	3552
893.317	2541
893.421	2497
893.525	1778
893.629	2406
893.733	3123
893.837	1785
893.941	2089
894.045	2026
894.148	1993
894.252	2325
894.356	4482
894.460	3785
894.564	2471
894.667	3441
894.771	1920
894.875	1996
894.978	2204
895.082	2570
895.186	2951
895.289	2651
895.393	1381
895.496	3267
895.600	2649
895.703	1316
895.807	2445
895.910	2456
896.014	1881
896.117	1770
896.221	2446
896.324	2170
896.427	2077
896.531	1887
896.634	2425
896.737	3005
896.840	2811
896.944	3410
897.047	2464
897.150	2354
897.253	1438
897.356	1841
897.460	1270
897.563	2110
897.666	2422
897.769	2251
897.872	2061
897.975	1570
898.078	2019
898.181	2078
898.284	1934
898.387	2976
898.490	3613
898.593	2720
898.695	1200
898.798	2290
898.901	2294
899.004	2139
899.107	1735
899.209	2194
899.312	3026
899.415	2090
899.518	1103
899.620	1782
899.723	2163
899.826	3649
899.928	3726
900.031	2184
900.133	2138
900.236	1385
900.338	1259
900.441	1798
900.543	1645
900.646	1868
900.748	2252
900.851	3639
900.953	3829
901.055	2990
901.158	2509
901.260	1922
901.362	1388
901.465	1989
901.567	2906
901.669	3806
901.771	2248
901.873	2359
901.976	1838
902.078	3245
902.180	1903
902.282	1552
902.384	1544
902.486	3676
902.588	2322
902.690	1265
902.792	1553
902.894	2608
902.996	2499
903.098	1823
903.200	1062
903.302	2279
903.404	1017
903.505	1966
903.607	1987
903.709	2663
903.811	2403
903.913	1393
904.014	2068
904.116	1112
904.218	1153
904.319	1548
904.421	2529
904.523	2197
904.624	2182
904.726	1408
904.827	293
904.929	1284
905.030	1486
905.132	3135
905.233	2063
905.335	1485
905.436	1229
905.537	1049
905.639	1661
905.740	2165
905.841	2095
905.943	2777
906.044	1600
906.145	1705
906.247	488
906.348	2044
906.449	1509
906.550	1941
906.651	1550
906.752	2307
906.854	1125
906.955	1220
907.056	1667
907.157	2105
907.258	2515
907.359	1295
907.460	1026
907.561	1142
907.662	1851
907.762	1919
907.863	2117
907.964	2837
908.065	1603
908.166	1591
908.267	1670
908.367	1033
908.468	1532
908.569	1801
908.670	3011
908.770	2596
908.871	2375
908.971	2351
909.072	1797
909.173	989
909.273	1641
909.374	1929
909.474	1954
909.575	1511
909.675	1860
909.776	2114
909.876	1915
909.977	1604
910.077	2674
910.177	2877
910.278	1953
910.378	1679
910.478	1642
910.579	1873
910.679	1604
910.779	1636
910.879	2099
910.980	1883
911.080	2109
911.180	677
911.280	1234
911.380	1407
911.480	1923
911.580	2395
911.680	2324
911.780	2623
911.880	1652
911.980	1195
912.080	1467
912.180	2641
912.280	1789
912.380	2159
912.480	620
912.580	1102
912.679	1640
912.779	1969
912.879	1596
912.979	2117
913.078	1615
913.178	1314
913.278	1440
913.377	1471
913.477	1158
913.577	1791
913.676	1793
913.776	2122
913.875	2594
913.975	1975
914.074	1544
914.174	2092
914.273	1299
914.373	2252
914.472	879
914.572	1055
914.671	542
914.770	1982
914.870	2190
914.969	1360
915.068	2153
915.167	2002
915.267	1483
915.366	1581
915.465	2034
915.564	2329
915.663	1761
915.763	1692
915.862	2723
915.961	1601
916.060	1262
916.159	1473
916.258	1755
916.357	1037
916.456	2113
916.555	1713
916.654	1274
916.752	1709
916.851	2151
916.950	1484
917.049	740
917.148	1509
917.247	2066
917.345	1153
917.444	1092
917.543	1241
917.642	843
917.740	2395
917.839	2241
917.937	2865
918.036	2725
918.135	1253
918.233	1249
918.332	1259
918.430	1105
918.529	1534
918.627	1519
918.726	2457
918.824	2140
918.923	1583
919.021	1433
919.119	1747
919.218	1260
919.316	1311
919.414	1601
919.512	2068
919.611	1942
919.709	1614
919.807	2337
919.905	2350
920.003	1847
920.102	2435
920.200	2233
920.298	1759
920.396	2291
920.494	2143
920.592	2379
920.690	2274
920.788	2187
920.886	2281
920.984	3111
921.082	2909
921.180	2401
921.277	2740
921.375	3480
921.473	4437
921.571	3763
921.669	3737
921.766	3290
921.864	4438
921.962	3556
922.060	3753
922.157	4214
922.255	3917
922.352	4590
922.450	4623
922.548	4291
922.645	5613
922.743	6383
922.840	10894
922.938	10639
923.035	8909
923.133	9088
923.230	11099
923.327	12511
923.425	11884
923.522	12078
923.619	10519
923.717	9690
923.814	9946
923.911	9104
924.008	9802
924.106	9052
924.203	8936
924.300	9473
924.397	9110
924.494	9962
924.591	9192
924.688	8599
924.786	9278
924.883	9155
924.979	9336
925.077	8509
925.173	9091
925.270	9357
925.367	9105
925.464	9669
925.561	11375
925.658	10994
925.755	9147
925.852	11469
925.948	10647
926.045	9266
926.142	10475
926.239	10231
926.335	8395
926.432	9266
926.529	10179
926.625	10495
926.722	8306
926.818	7972
926.915	9721
927.011	8248
927.108	7904
927.204	8240
927.301	6905
927.397	8502
927.494	8709
927.590	5913
927.687	7055
927.783	9416
927.879	8821
927.976	7255
928.072	7212
928.168	7850
928.264	7647
928.361	7337
928.457	8924
928.553	7186
928.649	8127
928.745	7531
928.841	7161
928.937	8668
929.033	8319
929.129	7921
929.225	8737
929.321	7518
929.417	6940
929.513	7691
929.609	6706
929.705	7251
929.801	7120
929.897	6348
929.993	6147
930.089	6391
930.184	6389
930.280	5986
930.376	8215
930.471	5720
930.567	6183
930.663	5648
930.758	5615
930.854	5734
930.950	6388
931.045	5614
931.141	6301
931.236	7975
931.332	5344
931.427	5400
931.523	7802
931.618	6129
931.714	4825
931.809	5454
931.905	6964
932.000	4205
932.095	5425
932.191	7638
932.286	8716
932.381	5868
932.476	4823
932.572	5864
932.667	5472
932.762	5310
932.857	6042
932.952	7386
933.047	6429
933.142	4492
933.237	5998
933.332	6454
933.427	7381
933.522	5224
933.617	4722
933.712	5832
933.807	6994
933.902	6477
933.997	7188
934.092	4203
934.187	5282
934.282	5913
934.376	5750
934.471	5440
934.566	3788
934.661	5705
934.755	5463
934.850	5600
934.945	4963
935.039	5401
935.134	3812
935.228	4883
935.323	8129
935.417	4742
935.512	4140
935.606	4167
935.701	5805
935.795	5762
935.890	5421
935.984	4474
936.079	3933
936.173	5104
936.267	4942
936.362	4040
936.456	5654
936.550	6041
936.644	4366
936.738	3812
936.833	3654
936.927	3841
937.021	3891
937.115	4275
937.209	5237
937.303	4435
937.397	2963
937.491	5049
937.585	5676
937.679	4123
937.773	4166
937.867	3527
937.961	4837
938.055	6096
938.149	5336
938.243	3518
938.337	3795
938.430	4104
938.524	5377
938.618	4314
938.712	3987
938.805	3497
938.899	5804
938.993	5800
939.086	3406
939.180	3132
939.274	4069
939.367	5455
939.461	5577
939.554	3745
939.648	3060
939.741	3617
939.835	5010
939.928	5696
940.022	4931
940.115	4051
940.208	5032
940.302	5522
940.395	5106
940.488	3241
940.582	4082
940.675	2990
940.768	3846
940.861	4075
940.954	5101
941.048	3428
941.141	3314
941.234	4623
941.327	5360
941.420	7476
941.513	5820
941.606	3665
941.699	5394
941.792	5081
941.885	4358
941.978	3571
942.071	3637
942.164	2722
942.257	3449
942.349	3768
942.442	4114
942.535	3236
942.628	3413
942.721	3579
942.813	3914
942.906	4482
942.999	3470
943.091	3013
943.184	2982
943.277	3419
943.369	2033
943.462	2395
943.554	3518
943.647	2964
943.739	5069
943.832	4276
943.924	1974
944.017	2266
944.109	2543
944.201	2089
944.294	4113
944.386	3698
944.478	3211
944.571	2694
944.663	4422
944.755	3200
944.847	3677
944.940	3174
945.032	2488
945.124	2868
945.216	3333
945.308	2898
945.400	3827
945.492	3414
945.584	4212
945.676	3564
945.768	3389
945.860	3755
945.952	3593
946.044	3698
946.136	2988
946.228	2550
946.320	3290
946.412	3368
946.503	4357
946.595	4080
946.687	2707
946.779	1432
946.870	2976
946.962	1695
947.054	2673
947.145	2824
947.237	2320
947.329	3077
947.420	2340
947.512	2296
947.603	2459
947.695	2062
947.786	2276
947.878	1994
947.969	2982
948.061	2900
948.152	2826
948.243	2644
948.335	2051
948.426	2153
948.517	2370
948.609	3229
948.700	2782
948.791	1860
948.882	2901
948.973	1757
949.065	2792
949.156	2373
949.247	2040
949.338	2815
949.429	1327
949.520	2471
949.611	2231
949.702	2721
949.793	2273
949.884	2668
949.975	1875
950.066	1507
950.157	2169
950.247	2249
950.338	2036
950.429	2448
950.520	2153
950.611	1371
950.701	3020
950.792	2507
950.883	3465
950.973	2102
951.064	3011
951.155	2383
951.245	3018
951.336	2514
951.427	3253
951.517	3382
951.608	3367
951.698	2271
951.788	2109
951.879	1474
951.969	2035
952.060	2169
952.150	2038
952.240	2687
952.331	2266
952.421	3542
952.511	1291
952.602	1956
952.692	1903
952.782	939
952.872	1505
952.962	2173
953.052	1731
953.143	2149
953.233	2505
953.323	2312
953.413	2371
953.503	2201
953.593	2878
953.683	2749
953.773	1104
953.863	1734
953.953	2553
954.042	3241
954.132	2003
954.222	2029
954.312	1430
954.402	1641
954.492	2487
954.581	3077
954.671	1992
954.761	979
954.850	2216
954.940	431
955.030	1721
955.119	2077
955.209	2197
955.298	1682
955.388	1517
955.477	2305
955.567	877
955.656	1313
955.746	2102
955.835	1737
955.925	1319
956.014	1932
956.103	1952
956.193	2313
956.282	2132
956.371	1887
956.461	955
956.550	1698
956.639	1762
956.728	731
956.817	1864
956.906	2364
956.995	3061
957.085	962
957.174	2437
957.263	756
957.352	1769
957.441	1945
957.530	1850
957.619	1295
957.708	1040
957.796	559
957.885	983
957.974	1281
958.063	1500
958.152	183
958.241	1233
958.329	928
958.418	1905
958.507	1431
958.596	2504
958.684	727
958.773	2277
958.861	1655
958.950	965
959.039	317
959.127	1884
959.216	2008
959.304	1434
959.393	1657
959.481	1393
959.570	901
959.658	1276
959.746	378
959.835	1631
959.923	2030
960.011	1298
960.100	1131
960.188	1955
960.276	1159
960.365	1283
960.453	-85
960.541	965
960.629	1519
960.717	739
960.805	186
960.893	1209
960.981	871
961.069	2964
961.158	2852
961.245	2244
961.333	2394
961.421	1126
961.509	1028
961.597	2228
961.685	-182
961.773	1147
961.861	1015
961.949	1169
962.036	897
962.124	1044
962.212	348
962.299	775
962.387	785
962.475	2039
962.562	849
962.650	1559
962.738	1154
962.825	1337
962.913	739
963.000	1775
963.088	1398
963.175	1226
963.263	897
963.350	1131
963.438	1037
963.525	1401
963.612	2325
963.700	3358
963.787	6578
963.874	3736
963.962	919
964.049	1230
964.136	460
964.223	1171
964.310	908
964.398	1156
964.485	873
964.572	747
964.659	2148
964.746	1583
964.833	107
964.920	778
965.007	724
965.094	112
965.181	797
965.268	1292
965.355	1302
965.441	1121
965.528	335
965.615	1906
965.702	976
965.789	764
965.875	388
965.962	1083
966.049	1011
966.136	1693
966.222	675
966.309	1843
966.395	1431
966.482	1768
966.569	1047
966.655	1239
966.742	1119
966.828	1161
966.915	646
967.001	662
967.087	-240
967.174	423
967.260	417
967.347	1395
967.433	2878
967.519	4425
967.605	2834
967.692	1264
967.778	741
967.864	610
967.950	740
968.036	1254
968.123	813
968.209	671
968.295	-331
968.381	2816
968.467	655
968.553	801
968.639	1612
968.725	1903
968.811	3022
968.897	2970
968.983	804
969.069	-78
969.154	278
969.240	1460
969.326	290
969.412	67
969.497	562
969.583	265
969.669	1027
969.755	723
969.840	1719
969.926	2788
970.012	2950
970.097	5584
970.183	4260
970.268	2786
970.354	2389
970.439	1749
970.525	3211
970.610	1501
970.696	1030
970.781	671
970.866	-872
970.952	1183
971.037	791
971.122	1069
971.208	719
971.293	996
971.378	-193
971.463	422
971.549	577
971.634	750
971.719	1011
971.804	1074
971.889	976
971.974	1186
972.059	531
972.144	581
972.229	390
972.314	362
972.399	1130
972.484	915
972.569	574
972.654	643
972.739	2194
972.824	560
972.908	381
972.993	342
973.078	-63
973.163	440
973.247	895
973.332	-448
973.417	636
973.501	934
973.586	1020
973.671	402
973.755	-75
973.840	1292
973.924	1088
974.009	1514
974.093	1779
974.178	2646
974.262	1054
974.346	1240
974.431	1561
974.515	740
974.600	488
974.684	483
974.768	219
974.852	1471
974.937	144
975.021	918
975.105	320
975.189	290
975.273	743
975.358	492
975.442	-361
975.526	1147
975.610	286
975.694	3
975.778	727
975.862	486
975.946	-424
976.030	1725
976.114	247
976.198	960
976.281	868
976.365	1701
976.449	-35
976.533	1001
976.617	768
976.700	24
976.784	-10
976.868	294
976.951	580
977.035	1523
977.119	1094
977.202	1107
977.286	178
977.369	1869
977.453	1587
977.536	2019
977.620	1451
977.703	1687
977.787	264
977.870	1281
977.953	900
978.037	-253
978.120	1132
978.203	1437
978.287	2184
978.370	928
978.453	616
978.536	716
978.620	2012
978.703	1293
978.786	781
978.869	498
978.952	355
979.035	1698
979.118	1154
979.201	652
979.284	1189
979.367	1394
979.450	1545
979.533	25
979.616	184
979.699	25
979.782	872
979.865	962
979.948	832
980.030	502
980.113	546
980.196	555
980.279	1312
980.361	1093
980.444	-185
980.526	1100
980.609	2250
980.692	1659
980.774	1807
980.857	692
980.939	2007
981.022	930
981.104	508
981.187	1163
981.269	1420
981.352	935
981.434	1027
981.516	495
981.599	1810
981.681	1005
981.763	878
981.846	785
981.928	993
982.010	1308
982.092	601
982.174	1658
982.256	373
982.339	345
982.421	668
982.503	293
982.585	-148
982.667	1231
982.749	603
982.831	1002
982.913	891
982.995	1175
983.077	475
983.158	1564
983.240	-45
983.322	1924
983.404	2916
983.486	2635
983.568	2452
983.649	1638
983.731	2329
983.813	1093
983.894	1037
983.976	1560
984.058	1540
984.139	1497
984.221	559
984.302	1375
984.384	1020
984.465	608
984.547	1133
984.628	999
984.710	2353
984.791	1401
984.872	746
984.954	1064
985.035	1769
985.116	868
985.198	285
985.279	2721
985.360	1147
985.441	1109
985.522	1639
985.604	1286
985.685	14
985.766	1596
985.847	2484
985.928	727
986.009	1128
986.090	930
986.171	1872
986.252	950
986.333	1501
986.414	1958
986.495	1762
986.576	1577
986.656	1670
986.737	1808
986.818	2303
986.899	1921
986.980	1068
987.060	1411
987.141	1342
987.222	1833
987.302	2315
987.383	2394
987.464	1282
987.544	2728
987.625	1111
987.705	2794
987.786	1867
987.866	1529
987.947	2656
988.027	2021
988.108	1330
988.188	2069
988.268	1159
988.349	2093
988.429	1211
988.509	1639
988.589	1391
988.670	-134
988.750	1697
988.830	959
988.910	1364
988.990	1816
989.070	1511
989.151	1573
989.231	302
989.311	2098
989.391	1172
989.471	755
989.551	1360
989.631	1321
989.711	1595
989.791	1023
989.870	280
989.950	1946
990.030	1181
990.110	1076
990.190	75
990.269	515
990.349	661
990.429	2066
990.509	1057
990.588	887
990.668	1101
990.747	458
990.827	211
990.907	1732
990.986	1561
991.066	1756
991.145	956
991.225	1134
991.304	1057
991.383	1312
991.463	941
991.542	1098
991.622	154
991.701	600
991.780	815
991.859	983
991.939	866
992.018	919
992.097	872
992.176	1354
992.256	553
992.335	831
992.414	300
992.493	580
992.572	441
992.651	1486
992.730	636
992.809	690
992.888	671
992.967	592
993.046	150
993.125	207
993.203	186
993.282	1062
993.361	515
993.440	468
993.519	450
993.597	1180
993.676	-185
993.755	945
993.834	-66
993.912	-51
993.991	721
994.069	60
994.148	1139
994.226	478
994.305	625
994.384	147
994.462	1255
994.540	350
994.619	-624
994.697	979
994.776	389
994.854	835
994.932	379
995.011	169
995.089	93
995.167	495
995.245	1231
995.324	-186
995.402	452
995.480	-534
995.558	289
995.636	-103
995.714	273
995.792	513
995.870	-225
995.948	-810
996.026	394
996.104	-141
996.182	1074
996.260	-594
996.338	652
996.416	-229
996.494	-132
996.572	1046
996.649	-1157
996.727	-325
996.805	299
996.883	211
996.960	-459
997.038	994
997.116	868
997.193	-272
997.271	-516
997.348	-1380
997.426	638
997.504	-461
997.581	195
997.658	410
997.736	-1148
997.813	-983
997.891	267
997.968	-799
998.046	116
998.123	-772
998.200	141
998.277	-57
998.355	-461
998.432	-858
998.509	-594
998.586	-533
998.663	-177
998.741	-518
998.818	-512
998.895	-502
998.972	105
999.049	-143
999.126	-545
999.203	548
999.280	-858
999.357	-831
999.434	92
999.511	701
999.587	-40
999.664	-530
999.741	-294
999.818	-252
999.895	-1261
999.971	-1126
1000.048	-348
1000.125	534
1000.202	-984
1000.278	-675
1000.355	64
1000.431	-833
1000.508	-1596
1000.584	82
1000.661	-884
1000.738	-600
1000.814	-484
1000.890	-280
1000.967	-884
1001.043	81
1001.120	-1473
1001.196	-526
1001.272	-514
1001.349	621
1001.425	-970
1001.501	-205
1001.577	-648
1001.654	-325
1001.730	-1239
1001.806	-318
1001.882	-897
1001.958	136
1002.034	-439
1002.110	-1014
1002.186	-1548
1002.262	-233
1002.338	-998
1002.414	-851
1002.490	-879
1002.566	-719
1002.642	-573
1002.718	-78
1002.794	-1198
1002.870	-441
1002.945	-1124
1003.021	-1405
1003.097	-787
1003.173	-570
1003.248	-1790
1003.324	-712
1003.400	-723
1003.475	-1745
1003.551	-335
1003.626	-844
1003.702	-1200
1003.777	-616
1003.853	-1415
1003.928	-1271
1004.004	53
1004.079	-500
1004.155	-815
1004.230	-1668
1004.305	-343
1004.381	-1144
1004.456	-1428
1004.531	-173
1004.607	-1743
1004.682	-1438
1004.757	165
1004.832	-1109
1004.907	-1676
1004.982	-698
1005.057	-1200
1005.133	-958
1005.208	-1874
1005.283	-718
1005.358	-1258
1005.433	-422
1005.508	-154
1005.583	-2054
1005.657	-1520
1005.732	-220
1005.807	-1393
1005.882	-628
1005.957	-1236
1006.032	-544
1006.106	-845
1006.181	-1149
1006.256	-1324
1006.331	-1419
1006.405	-1885
1006.480	-859
1006.554	-1707
1006.629	-740
1006.704	-1566
1006.778	-1161
1006.853	-1473
1006.927	-1455
1007.002	-1367
1007.076	-1559
1007.150	-853
1007.225	-1281
1007.299	-463
1007.373	-1261
1007.448	-1080
1007.522	-875
1007.596	-603
1007.671	-1372
1007.745	-1000
1007.819	-1754
1007.893	-525
1007.967	107
1008.041	-2605
1008.115	-1000
1008.190	-1975
1008.264	-322
1008.338	-972
1008.412	-1309
1008.486	-1512
1008.560	-1444
1008.633	-1381
1008.707	-1613
1008.781	-595
1008.855	-1295
1008.929	-1743
1009.003	-1527
1009.076	-1716
1009.150	-1125
1009.224	-1897
1009.298	-1051
1009.371	-880
1009.445	-1142
1009.519	-1274
1009.592	-1258
1009.666	-1444
1009.739	-2198
1009.813	-2567
1009.886	-74
1009.960	-1569
1010.033	-1319
1010.107	-1433
1010.180	-1807
1010.253	-1825
1010.327	-1904
1010.400	-1498
1010.473	-2539
1010.547	-475
1010.620	-1531
1010.693	-1610
1010.766	-1209
1010.840	-907
1010.913	-1430
1010.986	-1856
1011.059	-796
1011.132	-1442
1011.205	-1083
1011.278	-1595
1011.351	-1207
1011.424	-1332
1011.497	-2071
1011.570	-1074
1011.643	-2145
1011.716	-1738
1011.789	-2067
1011.862	-1431
1011.934	-1028
1012.007	-2568
1012.080	-1163
1012.153	-2186
1012.225	-126
1012.298	-1980
1012.371	-663
1012.443	-349
1012.516	-1499
1012.588	-1304
1012.661	-1148
1012.733	-2377
1012.806	-824
1012.879	-2234
1012.951	-1810
1013.023	-1916
1013.096	-1607
1013.168	-2080
1013.241	-484
1013.313	-1636
1013.385	-1642
1013.458	-1811
1013.530	-1093
1013.602	-2368
1013.674	-1369
1013.746	-1459
1013.819	-1265
1013.891	-1064
1013.963	-1902
1014.035	-1824
1014.107	-1240
1014.179	-1838
1014.251	-2174
1014.323	-2381
1014.395	-1025
1014.467	-1879
1014.539	-742
1014.611	-1325
1014.683	-2104
1014.754	-1489
1014.826	-1437
1014.898	-2030
1014.970	-1225
1015.042	-704
1015.113	-1406
1015.185	-1859
1015.257	-2725
1015.328	-1065
1015.400	-866
1015.471	-1232
1015.543	-1682
1015.615	-1374
1015.686	-2093
1015.757	-909
1015.829	-1335
1015.901	-1556
1015.972	-1512
1016.043	-2032
1016.115	-1170
1016.186	-1099
1016.257	-1776
1016.328	-1076
1016.400	-1293
1016.471	-1711
1016.542	-1979
1016.613	-1712
1016.685	-1985
1016.756	-1651
1016.827	-1360
1016.898	-2500
1016.969	-1292
1017.040	-1538
1017.111	-2220
1017.182	-1957
1017.253	-1506
1017.324	-1762
1017.395	-2370
1017.466	-1432
1017.537	-1120
1017.608	-1602
1017.678	-1921
1017.749	-1702
1017.820	-1313
1017.891	-1639
1017.961	-1969
1018.032	-2200
1018.103	-2310
1018.173	-1380
1018.244	-1709
1018.315	-1833
1018.385	-1265
1018.456	-1696
1018.526	-2320
1018.597	-1033
1018.667	-1433
1018.738	-2468
1018.808	-2029
1018.878	-2323
1018.949	-1108
1019.019	-1775
1019.089	-1823
1019.160	-2053
1019.230	-2250
1019.300	-1485
1019.371	-1982
1019.441	-1331
1019.511	-1706
1019.581	-1748
1019.651	-1940
1019.721	-1720
1019.791	-1766
1019.861	-1678
1019.931	-1222
1020.001	-1674
1020.071	-2030
1020.141	-1833
1020.211	-1954
1020.281	-2067
1020.351	-1851
1020.421	-1907
1020.491	-1635
1020.560	-1853
1020.630	-1591
1020.700	-2596
1020.770	-1696
1020.839	-2933
1020.909	-1902
1020.979	-1520
1021.048	-2158
1021.118	-691
1021.187	-1912
1021.257	-2155
1021.326	-839
1021.396	-2437
1021.465	-1333
1021.535	-1989
1021.604	-2253
1021.674	-2100
1021.743	-1817
1021.812	-2220
1021.882	-1721
1021.951	-1456
1022.020	-1977
1022.089	-843
1022.159	-1733
1022.228	-1642
1022.297	-1968
1022.366	-1897
1022.435	-1871
1022.504	-2173
1022.573	-1904
1022.642	-1320
1022.711	-1583
1022.781	-1350
1022.849	-1557
1022.918	-2378
1022.987	-1485
1023.056	-1447
1023.125	-2009
1023.194	-2026
1023.263	-1873
1023.331	-1192
1023.400	-2076
1023.469	-1872
1023.538	-1814
1023.606	-2445
1023.675	-1778
1023.744	-1848
1023.812	-2146
1023.881	-1989
1023.949	-1374
1024.018	-1940
1024.086	-2514
1024.155	-1900
1024.223	-2467
1024.292	-1691
1024.360	-804
1024.429	-2432
1024.497	-1748
1024.565	-2461
1024.634	-2630
1024.702	-2688
1024.770	-1493
1024.838	-2430
1024.907	-1357
1024.975	-1582
1025.043	-1553
1025.111	-2988
1025.179	-1351
1025.247	-2253
1025.315	-2100
1025.383	-2114
1025.451	-2149
1025.519	-1641
1025.587	-1856
1025.655	-2719
1025.723	-2238
1025.791	-1524
1025.859	-1081
1025.927	-1818
1025.995	-2058
1026.062	-1774
1026.130	-2379
1026.198	-2337
1026.266	-1815
1026.333	-1887
1026.401	-1628
1026.469	-1466
1026.536	-1258
1026.604	-1492
1026.671	-1972
1026.739	-1229
1026.806	-2303
1026.874	-2526
1026.941	-2153
1027.009	-1914
1027.076	-1165
1027.144	-1567
1027.211	-2428
1027.278	-2511
1027.345	-1159
1027.413	-2233
1027.480	-1919
1027.547	-1756
1027.614	-1206
1027.682	-844
1027.749	-1634
1027.816	-1855
1027.883	-1564
1027.950	-1400
1028.017	-1762
1028.084	-2089
1028.151	-2929
1028.218	-2492
1028.285	-1390
1028.352	-1725
1028.419	-2115
1028.486	-1422
1028.553	-1712
1028.619	-1835
1028.686	-1577
1028.753	-2073
1028.820	-1293
1028.886	-2256
1028.953	-1611
1029.020	-918
1029.086	-1678
1029.153	-1550
1029.220	-2159
1029.286	-1902
1029.353	-1451
1029.419	-2185
1029.486	-1510
1029.552	-1850
1029.619	-2498
1029.685	-1435
1029.751	-2600
1029.818	-1395
1029.884	-1562
1029.951	-1149
1030.017	-1938
1030.083	-1827
1030.149	-1500
1030.216	-1772
1030.282	-1723
1030.348	-2338
1030.414	-1883
1030.480	-2832
1030.546	-1295
1030.612	-2144
1030.678	-2480
1030.744	-2669
1030.810	-1766
1030.876	-2315
1030.942	-1915
1031.008	-1848
1031.074	-2290
1031.140	-1286
1031.206	-1695
1031.272	-2772
1031.337	-1780
1031.403	-1818
1031.469	-1422
1031.534	-1682
1031.600	-1872
1031.666	-2015
1031.731	-2291
1031.797	-2759
1031.863	-1576
1031.928	-2340
1031.994	-2064
1032.059	-3008
1032.125	-1947
1032.190	-1513
1032.256	-1489
1032.321	-2356
1032.386	-2681
1032.452	-1427
1032.517	-1492
1032.582	-2220
1032.647	-2084
1032.713	-1931
1032.778	-1489
1032.843	-1702
1032.908	-1867
1032.974	-2345
1033.039	-2329
1033.104	-904
1033.169	-1546
1033.234	-1982
1033.299	-892
1033.364	-1372
1033.429	-1086
1033.494	-793
1033.559	-1308
1033.624	-1458
1033.688	-1610
1033.753	-1920
1033.818	-1593
1033.883	-1263
1033.948	141
1034.013	-1050
1034.077	10
1034.142	686
1034.207	1436
1034.271	3167
1034.336	5461
1034.400	3137
1034.465	2712
1034.530	634
1034.594	-10
1034.658	-780
1034.723	-2003
1034.787	-2415
1034.852	-1787
1034.916	-2114
1034.981	-1397
1035.045	-1657
1035.109	-2156
1035.173	-1855
1035.238	-1778
1035.302	-1866
1035.366	-1408
1035.430	-2474
1035.495	-1744
1035.559	-1536
1035.623	-1865
1035.687	-2174
1035.751	-1274
1035.815	-1952
1035.879	-1638
1035.943	-1972
1036.007	-2870
1036.071	-1675
1036.135	-1476
1036.198	-1502
1036.262	-1868
1036.326	-1532
1036.390	-997
1036.454	-1039
1036.517	-463
1036.581	513
1036.645	1684
1036.709	1111
1036.772	-1228
1036.836	-1257
1036.900	-1931
1036.963	-2001
1037.026	-1766
1037.090	-3861
1037.154	-1411
1037.217	-2056
1037.280	-1407
1037.344	-2217
1037.407	-2187
1037.471	-1986
1037.534	-1651
1037.597	-1281
1037.661	-1548
1037.724	-1757
1037.787	-1862
1037.850	-1920
1037.913	-2286
1037.977	-1531
1038.040	-2338
1038.103	-2121
1038.166	-1788
1038.229	-2330
1038.292	-2625
1038.355	-1788
1038.418	-1594
1038.481	-2139
1038.544	-2319
1038.607	-2523
1038.670	-2391
1038.732	-1805
1038.795	-2622
1038.858	-2586
1038.921	-1191
1038.984	-2015
1039.046	-1769
1039.109	-2363
1039.172	-2214
1039.234	-2477
1039.297	-2198
1039.360	-2560
1039.422	-1911
1039.485	-2534
1039.547	-3202
1039.610	-2511
1039.672	-2071
1039.734	-2089
1039.797	-2303
1039.859	-3025
1039.922	-2506
1039.984	-2192
1040.046	-2113
1040.109	-2033
1040.171	-2220
1040.233	-1580
1040.295	-2621
1040.358	-2434
1040.420	-1994
1040.482	-2967
1040.544	-2880
1040.606	-2127
1040.668	-2102
1040.730	-2335
1040.792	-2019
1040.854	-935
1040.916	-1809
1040.978	-2295
1041.040	-1960
1041.102	-2162
1041.164	-1931
1041.225	-1773
1041.287	-1872
1041.349	-1678
1041.411	-1977
1041.472	-1668
1041.534	-1533
1041.596	-2172
1041.657	-1253
1041.719	-1745
1041.781	-2351
1041.842	-2261
1041.904	-2087
1041.965	-2362
1042.027	-1454
1042.088	-1898
1042.150	-1325
1042.211	-2622
1042.272	-1767
1042.334	-2851
1042.395	-2454
1042.456	-1802
1042.518	-1737
1042.579	-2280
1042.640	-1671
1042.701	-2316
1042.763	-2223
1042.824	-2545
1042.885	-2256
1042.946	-2542
1043.007	-2358
1043.068	-2277
1043.129	-2326
1043.190	-2385
1043.251	-1687
1043.312	-2664
1043.373	-1916
1043.434	-2280
1043.495	-1864
1043.556	-2619
1043.616	-1928
1043.677	-2319
1043.738	-1831
1043.799	-2306
1043.859	-2069
1043.920	-2283
1043.981	-2764
1044.041	-2258
1044.102	-2952
1044.162	-2579
1044.223	-1955
1044.284	-1840
1044.344	-2824
1044.405	-2562
1044.465	-1167
1044.525	-2522
1044.586	-1639
1044.646	-2505
1044.707	-1688
1044.767	-2518
1044.827	-2291
1044.887	-2088
1044.948	-2491
1045.008	-1834
1045.068	-2287
1045.128	-2497
1045.188	-2051
1045.249	-1109
1045.309	-2115
1045.369	-1860
1045.429	-2010
1045.489	-2472
1045.549	-2026
1045.609	-2269
1045.669	-2200
1045.729	-2196
1045.789	-2044
1045.848	-2271
1045.908	-1746
1045.968	-2223
1046.028	-1477
1046.088	-2202
1046.147	-1343
1046.207	-2107
1046.267	-1212
1046.326	-1478
1046.386	-1664
1046.446	-1295
1046.505	-960
1046.565	-1487
1046.624	-1313
1046.684	-1696
1046.743	-60
1046.803	-1044
1046.862	-547
1046.922	0
