'Start Wavelength	183.907
'End Wavelength	1046.922
'Gate Delay	5.000
'Gate Width (ms)	1.050
'Laser Output Level	0.000
'X Position	0.000
'Y Position	0.000
'Z Position	0.000
'Grid Point Number	1.000
'Shot Number	100.000
183.907	406.000
183.977	647.000
184.047	275
184.116	61
184.186	602
184.256	-146
184.325	177
184.395	-761
184.465	1003
184.534	-194
184.604	-643
184.674	-577
184.743	-281
184.813	567
184.883	-195
184.952	-372
185.022	323
185.092	92
185.161	164
185.231	-253
185.301	-89
185.370	-277
185.440	-336
185.509	-108
185.579	-578
185.649	-256
185.718	616
185.788	-232
185.857	273
185.927	-252
185.996	288
186.066	176
186.136	-105
186.205	395
186.275	-814
186.344	283
186.414	93
186.483	170
186.553	667
186.622	56
186.692	-3
186.761	-309
186.831	338
186.900	-364
186.970	574
187.039	-244
187.109	528
187.178	-129
187.248	295
187.317	351
187.387	-218
187.456	333
187.526	333
187.595	10
187.664	38
187.734	258
187.803	497
187.873	565
187.942	1163
188.012	235
188.081	-427
188.150	528
188.220	270
188.289	1429
188.358	1063
188.428	808
188.497	-118
188.567	437
188.636	189
188.705	774
188.775	102
188.844	-436
188.913	1400
188.983	927
189.052	-97
189.121	417
189.191	332
189.260	192
189.329	1044
189.399	714
189.468	342
189.537	489
189.606	-129
189.676	98
189.745	564
189.814	1237
189.883	470
189.953	699
190.022	420
190.091	1267
190.161	2104
190.230	787
190.299	474
190.368	152
190.437	-61
190.507	-138
190.576	94
190.645	-532
190.714	-318
190.783	-154
190.853	752
190.922	801
190.991	977
191.060	590
191.129	406
191.198	587
191.268	448
191.337	151
191.406	-77
191.475	312
191.544	296
191.613	898
191.682	820
191.752	178
191.821	30
191.890	195
191.959	133
192.028	757
192.097	83
192.166	860
192.235	-161
192.304	325
192.373	589
192.442	742
192.511	290
192.580	-459
192.650	496
192.719	175
192.788	1151
192.857	388
192.926	463
192.995	1243
193.064	346
193.133	1152
193.202	1355
193.271	1625
193.340	939
193.409	792
193.478	1488
193.547	2388
193.615	1589
193.684	2102
193.753	1247
193.822	677
193.891	66
193.960	488
194.029	124
194.098	129
194.167	-77
194.236	160
194.305	219
194.374	289
194.443	943
194.512	1365
194.580	963
194.649	1542
194.718	891
194.787	-90
194.856	506
194.925	620
194.994	614
195.062	544
195.131	2030
195.200	855
195.269	1158
195.338	889
195.407	93
195.475	590
195.544	1204
195.613	674
195.682	1062
195.751	1029
195.819	1987
195.888	1211
195.957	964
196.026	1795
196.094	2053
196.163	1204
196.232	1307
196.301	588
196.369	851
196.438	622
196.507	617
196.576	159
196.644	381
196.713	644
196.782	-25
196.850	436
196.919	927
196.988	571
197.056	248
197.125	554
197.194	1089
197.262	368
197.331	136
197.400	482
197.468	494
197.537	-9
197.606	1067
197.674	237
197.743	2383
197.812	544
197.880	1844
197.949	996
198.017	2088
198.086	1129
198.155	618
198.223	408
198.292	2149
198.360	1228
198.429	1092
198.497	205
198.566	1489
198.635	2302
198.703	1035
198.772	783
198.840	2739
198.909	2334
198.977	541
199.046	1164
199.114	1018
199.183	914
199.251	669
199.320	434
199.388	148
199.457	442
199.525	829
199.594	674
199.662	329
199.731	801
199.799	981
199.867	1003
199.936	857
200.004	943
200.073	1818
200.141	801
200.210	923
200.278	259
200.346	344
200.415	744
200.483	1307
200.552	1050
200.620	411
200.688	926
200.757	642
200.825	969
200.893	719
200.962	838
201.030	334
201.098	811
201.167	894
201.235	605
201.303	1254
201.372	1539
201.440	507
201.508	2297
201.577	618
201.645	1099
201.713	1101
201.781	912
201.850	1604
201.918	1424
201.986	709
202.055	1377
202.123	496
202.191	656
202.259	861
202.327	931
202.396	650
202.464	1513
202.532	1006
202.600	4537
202.669	3383
202.737	1794
202.805	866
202.873	726
202.941	1443
203.009	276
203.078	284
203.146	1493
203.214	453
203.282	233
203.350	524
203.418	342
203.487	1138
203.555	-230
203.623	667
203.691	758
203.759	421
203.827	-164
203.895	1157
203.963	355
204.031	852
204.099	946
204.168	961
204.236	781
204.304	1354
204.372	770
204.440	700
204.508	283
204.576	107
204.644	1187
204.712	-158
204.780	196
204.848	1536
204.916	914
204.984	954
205.052	857
205.120	1120
205.188	181
205.256	976
205.324	416
205.392	900
205.460	1031
205.528	643
205.596	1248
205.664	1145
205.732	510
205.799	2429
205.867	3690
205.935	1436
206.003	1580
206.071	1418
206.139	956
206.207	1060
206.275	812
206.343	970
206.411	439
206.478	885
206.546	1060
206.614	673
206.682	-22
206.750	778
206.818	1951
206.885	880
206.953	-712
207.021	1974
207.089	1317
207.157	-45
207.225	854
207.292	198
207.360	1056
207.428	1175
207.496	666
207.563	1033
207.631	675
207.699	373
207.767	813
207.834	1265
207.902	1166
207.970	1264
208.038	1051
208.105	1103
208.173	950
208.241	1651
208.309	1745
208.376	1787
208.444	2567
208.512	1130
208.579	110
208.647	1140
208.715	2049
208.782	1272
208.850	1600
208.918	788
208.985	523
209.053	1224
209.120	1013
209.188	508
209.256	1373
209.323	727
209.391	1422
209.459	2452
209.526	1499
209.594	1760
209.661	981
209.729	1193
209.796	669
209.864	1416
209.932	135
209.999	2922
210.067	1450
210.134	1688
210.202	1628
210.269	2771
210.337	2887
210.404	848
210.472	1218
210.539	1705
210.607	1716
210.674	1334
210.742	1004
210.809	1651
210.877	1729
210.944	3250
211.012	901
211.079	3039
211.146	1098
211.214	1507
211.281	1638
211.349	2222
211.416	1967
211.484	2184
211.551	1581
211.618	1180
211.686	1277
211.753	1124
211.821	1340
211.888	1195
211.955	1084
212.023	1489
212.090	831
212.157	1643
212.225	1936
212.292	3698
212.359	4920
212.427	12581
212.494	5287
212.561	2791
212.629	1365
212.696	1167
212.763	2080
212.831	1451
212.898	2109
212.965	1889
213.032	2216
213.100	2192
213.167	1308
213.234	2656
213.301	2435
213.369	1951
213.436	1603
213.503	1252
213.570	1869
213.638	1238
213.705	904
213.772	770
213.839	1506
213.906	2474
213.973	2096
214.041	1450
214.108	2599
214.175	1267
214.242	1540
214.309	829
214.376	1783
214.444	2002
214.511	1886
214.578	1966
214.645	2126
214.712	3273
214.779	2228
214.846	2436
214.913	2558
214.980	2544
215.048	2667
215.115	3742
215.182	2855
215.249	1744
215.316	1845
215.383	1865
215.450	2397
215.517	1213
215.584	1500
215.651	1430
215.718	745
215.785	2459
215.852	1813
215.919	2701
215.986	1886
216.053	1350
216.120	1029
216.187	2380
216.254	2283
216.321	2161
216.388	1842
216.455	1531
216.522	2306
216.589	2137
216.656	3804
216.722	4516
216.789	2912
216.856	3413
216.923	2240
216.990	3169
217.057	2450
217.124	3254
217.191	3159
217.258	3958
217.324	5134
217.391	5821
217.458	4034
217.525	2070
217.592	2559
217.659	1533
217.725	3468
217.792	4193
217.859	3499
217.926	1775
217.993	1410
218.059	1954
218.126	1446
218.193	1633
218.260	1520
218.327	2054
218.393	1211
218.460	1220
218.527	840
218.594	1307
218.660	2367
218.727	4297
218.794	1613
218.860	1761
218.927	907
218.994	667
219.061	1015
219.127	2440
219.194	3235
219.261	1233
219.327	1009
219.394	1458
219.461	176
219.527	1120
219.594	2620
219.661	2172
219.727	779
219.794	1129
219.860	899
219.927	1815
219.994	2461
220.060	4957
220.127	4090
220.193	1822
220.260	1599
220.326	3119
220.393	5379
220.460	8213
220.526	5245
220.593	2726
220.659	2941
220.726	2881
220.792	7280
220.859	6726
220.925	9782
220.992	13066
221.058	11575
221.125	10219
221.191	8220
221.258	3504
221.324	2406
221.391	1635
221.457	677
221.524	1937
221.590	2646
221.657	9132
221.723	5733
221.789	5438
221.856	4820
221.922	2625
221.989	2219
222.055	1920
222.121	1031
222.188	3049
222.254	1081
222.321	1018
222.387	388
222.453	891
222.520	1362
222.586	1450
222.652	1309
222.719	-46
222.785	1528
222.851	806
222.918	1336
222.984	1376
223.050	402
223.116	32
223.183	1671
223.249	641
223.315	479
223.382	1125
223.448	598
223.514	499
223.580	959
223.647	545
223.713	110
223.779	1234
223.845	900
223.911	853
223.978	393
224.044	993
224.110	1215
224.176	949
224.242	497
224.309	-38
224.375	1679
224.441	1771
224.507	1125
224.573	23
224.639	1596
224.705	910
224.772	1238
224.838	547
224.904	1604
224.970	975
225.036	1205
225.102	1456
225.168	1372
225.234	1968
225.300	1274
225.366	1182
225.432	1056
225.499	664
225.565	1367
225.631	1269
225.697	987
225.763	1786
225.829	3043
225.895	3097
225.961	3790
226.027	3817
226.093	2454
226.159	3642
226.225	4790
226.291	11716
226.357	21209
226.423	10512
226.489	5521
226.554	3233
226.620	2946
226.686	4232
226.752	6767
226.818	10069
226.884	24967
226.950	22951
227.016	8186
227.082	5102
227.148	3554
227.214	4076
227.279	2507
227.345	1825
227.411	2469
227.477	2097
227.543	6634
227.609	6511
227.674	4070
227.740	2637
227.806	1844
227.872	1869
227.938	1512
228.003	3399
228.069	1779
228.135	688
228.201	1387
228.267	1166
228.332	2382
228.398	1975
228.464	2146
228.530	1020
228.595	1170
228.661	883
228.727	2250
228.792	3420
228.858	1086
228.924	805
228.990	3594
229.055	1551
229.121	2768
229.187	1734
229.252	2012
229.318	1196
229.384	1730
229.449	2344
229.515	667
229.581	129
229.646	1865
229.712	1212
229.777	4433
229.843	4653
229.909	3099
229.974	4295
230.040	3006
230.105	2534
230.171	2625
230.236	4267
230.302	4256
230.368	5032
230.433	1769
230.499	2794
230.564	2408
230.630	1125
230.695	2168
230.761	2191
230.826	117
230.892	4365
230.957	1736
231.023	434
231.088	1748
231.154	1794
231.219	2143
231.284	3133
231.350	3918
231.415	1259
231.481	1618
231.546	872
231.612	1269
231.677	452
231.742	489
231.808	2670
231.873	681
231.939	-129
232.004	4105
232.069	4113
232.135	1571
232.200	1616
232.265	2011
232.331	122
232.396	1246
232.461	1130
232.527	782
232.592	1489
232.657	1202
232.723	2854
232.788	2267
232.853	1437
232.918	630
232.984	331
233.049	1057
233.114	2421
233.179	3012
233.245	4830
233.310	4726
233.375	637
233.440	1874
233.506	85
233.571	775
233.636	868
233.701	1277
233.766	2848
233.832	4321
233.897	1620
233.962	1127
234.027	3294
234.092	2101
234.157	1501
234.222	1933
234.288	3594
234.353	9497
234.418	9969
234.483	5559
234.548	4054
234.613	3672
234.678	3198
234.743	3150
234.808	11172
234.873	6169
234.938	3828
235.004	2185
235.069	1927
235.134	1259
235.199	2366
235.264	1206
235.329	1414
235.394	3112
235.459	3862
235.524	1832
235.589	2165
235.654	1298
235.719	492
235.784	2563
235.849	2147
235.913	5522
235.978	6140
236.043	7376
236.108	2670
236.173	2347
236.238	3437
236.303	1414
236.368	1617
236.433	3632
236.498	6981
236.563	4622
236.627	7926
236.692	31512
236.757	26650
236.822	10185
236.887	7539
236.952	6459
237.017	2962
237.081	5403
237.146	5743
237.211	13243
237.276	29636
237.341	51289
237.405	24340
237.470	9428
237.535	7375
237.600	4214
237.664	4290
237.729	2221
237.794	4323
237.859	10188
237.923	6754
237.988	3770
238.053	6301
238.118	5260
238.182	13389
238.247	12334
238.312	5634
238.376	4834
238.441	2988
238.506	3455
238.570	1413
238.635	2726
238.700	2314
238.764	949
238.829	6276
238.893	7249
238.958	4607
239.023	4215
239.087	2115
239.152	2417
239.216	1266
239.281	2215
239.346	1500
239.410	1886
239.475	1574
239.539	13577
239.604	10268
239.668	4174
239.733	2569
239.797	3892
239.862	10667
239.926	11772
239.991	5474
240.055	2263
240.120	2246
240.184	2057
240.249	1939
240.313	1646
240.378	1467
240.442	8026
240.507	12179
240.571	4439
240.635	5130
240.700	8163
240.764	3304
240.829	2249
240.893	1074
240.957	1896
241.022	7797
241.086	13231
241.151	5741
241.215	1815
241.279	4222
241.344	6388
241.408	4535
241.472	2579
241.537	3783
241.601	3336
241.665	1879
241.730	1839
241.794	3123
241.858	2168
241.922	2354
241.987	3123
242.051	1763
242.115	1605
242.179	2214
242.244	1310
242.308	3140
242.372	3037
242.436	2897
242.501	3076
242.565	2122
242.629	1533
242.693	2528
242.757	1448
242.822	1643
242.886	2910
242.950	2834
243.014	1802
243.078	3751
243.142	3673
243.206	2768
243.271	3058
243.335	2410
243.399	4827
243.463	14138
243.527	42572
243.591	13782
243.655	5838
243.719	3198
243.783	4834
243.847	5946
243.911	8131
243.975	10510
244.040	7597
244.104	4499
244.168	3233
244.232	5095
244.296	8485
244.360	7769
244.424	3726
244.488	3900
244.552	2912
244.615	1497
244.679	2400
244.743	3756
244.807	3526
244.871	2543
244.935	1907
244.999	1396
245.063	2365
245.127	4137
245.191	5615
245.255	5063
245.319	5052
245.383	4393
245.446	4260
245.510	2389
245.574	3906
245.638	3559
245.702	3537
245.766	9359
245.829	6886
245.893	2434
245.957	2392
246.021	3448
246.085	3923
246.149	4359
246.212	10988
246.276	16664
246.340	7448
246.404	5875
246.467	6351
246.531	8231
246.595	5278
246.659	6197
246.722	3676
246.786	6751
246.850	6564
246.913	8316
246.977	2798
247.041	3556
247.104	3853
247.168	3724
247.232	12136
247.295	22188
247.359	11446
247.423	4475
247.486	10536
247.550	7798
247.614	4739
247.677	7574
247.741	4340
247.804	3392
247.868	4170
247.932	8942
247.995	21732
248.059	7811
248.122	4412
248.186	5394
248.249	9064
248.313	33387
248.376	37520
248.440	23113
248.503	7654
248.567	8477
248.630	10517
248.694	15960
248.757	18509
248.821	37998
248.884	23217
248.948	19117
249.011	27827
249.075	42645
249.138	37217
249.202	14756
249.265	8255
249.328	10339
249.392	8107
249.455	7562
249.519	4249
249.582	7321
249.645	12170
249.709	8818
249.772	5231
249.835	5892
249.899	5806
249.962	6254
250.025	5127
250.089	12795
250.152	19103
250.215	10456
250.279	6376
250.342	7209
250.405	5784
250.468	5471
250.532	7653
250.595	11198
250.658	38457
250.721	65523
250.785	25894
250.848	14078
250.911	6873
250.974	7711
251.038	8959
251.101	22258
251.164	10907
251.227	12681
251.290	10109
251.354	13090
251.417	54256
251.480	54918
251.543	35542
251.606	98576
251.669	73878
251.732	29907
251.795	29925
251.859	29372
251.922	63433
251.985	39849
252.048	14249
252.111	11499
252.174	10591
252.237	19914
252.300	43605
252.363	45426
252.426	84494
252.489	37618
252.552	18715
252.615	11351
252.678	13708
252.741	31454
252.804	37846
252.867	83946
252.930	53455
252.993	29039
253.056	17421
253.119	12912
253.182	8728
253.245	15979
253.308	12751
253.371	13317
253.434	12262
253.497	11313
253.559	21017
253.622	14084
253.685	20113
253.748	22406
253.811	9033
253.874	11840
253.937	10356
254.000	8364
254.062	13931
254.125	22298
254.188	19928
254.251	18315
254.314	8692
254.376	16886
254.439	19772
254.502	15660
254.565	15536
254.628	27441
254.690	18054
254.753	9760
254.816	8456
254.878	8519
254.941	15033
255.004	16261
255.067	7821
255.129	8710
255.192	5176
255.255	4360
255.317	5391
255.380	4798
255.443	3622
255.505	1973
255.568	3189
255.631	3629
255.693	3731
255.756	3149
255.819	3656
255.881	2903
255.944	2529
256.006	2962
256.069	2933
256.132	2831
256.194	4094
256.257	12282
256.319	8960
256.382	8066
256.444	4413
256.507	3922
256.569	3006
256.632	3418
256.694	5814
256.757	16109
256.819	49217
256.882	18543
256.944	8352
257.007	7626
257.069	7221
257.132	4911
257.194	5274
257.257	4623
257.319	2915
257.381	4895
257.444	11075
257.506	56023
257.569	63269
257.631	33232
257.693	18336
257.756	8749
257.818	6628
257.880	4449
257.943	4501
258.005	4092
258.067	3069
258.130	3694
258.192	5300
258.254	10852
258.317	6650
258.379	4568
258.441	13493
258.503	13216
258.566	14153
258.628	20439
258.690	5673
258.753	5718
258.815	11245
258.877	5939
258.939	4061
259.001	3576
259.064	3640
259.126	5075
259.188	7549
259.250	3994
259.312	5575
259.375	15803
259.437	10895
259.499	5140
259.561	3489
259.623	4218
259.685	3605
259.747	3759
259.809	13956
259.872	25437
259.934	39090
259.996	34555
260.058	9996
260.120	4026
260.182	3755
260.244	3331
260.306	1876
260.368	3806
260.430	2956
260.492	7133
260.554	13948
260.616	11767
260.678	21605
260.740	29473
260.802	7698
260.864	5850
260.926	4389
260.988	5430
261.050	3956
261.112	8449
261.174	25521
261.236	21679
261.298	7142
261.359	12004
261.421	17958
261.483	5459
261.545	4841
261.607	2426
261.669	2913
261.731	7836
261.793	20994
261.854	8938
261.916	6859
261.978	4384
262.040	4595
262.102	4574
262.164	7464
262.225	6328
262.287	3683
262.349	12185
262.411	9783
262.472	4785
262.534	7632
262.596	17932
262.658	6110
262.719	3092
262.781	5512
262.843	16934
262.904	8656
262.966	5425
263.028	4879
263.090	28462
263.151	73419
263.213	24958
263.275	13612
263.336	6435
263.398	4934
263.459	2918
263.521	3155
263.583	12008
263.644	8552
263.706	3450
263.767	2194
263.829	2989
263.891	2004
263.952	1642
264.014	1030
264.075	3181
264.137	8795
264.198	5925
264.260	1529
264.321	2548
264.383	7918
264.444	16917
264.506	5189
264.567	3350
264.629	5927
264.690	9947
264.752	5267
264.813	3781
264.875	2653
264.936	3619
264.998	2211
265.059	2438
265.120	2619
265.182	4390
265.243	25489
265.305	25955
265.366	6352
265.427	3874
265.489	2822
265.550	890
265.611	3959
265.673	3464
265.734	1868
265.795	2505
265.857	1232
265.918	1255
265.979	6063
266.040	42451
266.102	34668
266.163	10007
266.224	8079
266.286	4603
266.347	3715
266.408	4128
266.469	3651
266.530	3422
266.592	1920
266.653	7519
266.714	14859
266.775	5050
266.836	3360
266.898	2971
266.959	4878
267.020	4443
267.081	4141
267.142	2523
267.203	3247
267.264	2470
267.326	4747
267.387	2564
267.448	1890
267.509	3507
267.570	2535
267.631	2410
267.692	2243
267.753	4606
267.814	2553
267.875	6904
267.936	16881
267.997	6489
268.058	5160
268.119	2953
268.180	3740
268.241	2581
268.302	1951
268.363	1894
268.424	3119
268.485	2370
268.546	605
268.607	2080
268.668	605
268.729	2194
268.790	1811
268.851	3083
268.912	8828
268.972	12511
269.033	6329
269.094	2872
269.155	2768
269.216	1988
269.277	2242
269.338	2933
269.398	2373
269.459	2679
269.520	4526
269.581	7058
269.642	9255
269.702	5949
269.763	3647
269.824	3440
269.885	4664
269.945	8296
270.006	3282
270.067	1416
270.128	1514
270.188	1445
270.249	1899
270.310	2001
270.370	2433
270.431	2125
270.492	1808
270.553	2294
270.613	7713
270.674	17098
270.734	6700
270.795	3328
270.856	6040
270.916	4402
270.977	3079
271.038	4264
271.098	4932
271.159	6884
271.219	8004
271.280	3666
271.340	1985
271.401	3207
271.462	9569
271.522	6300
271.583	3128
271.643	3476
271.704	3037
271.764	4065
271.825	9182
271.885	35592
271.946	46901
272.006	14929
272.066	20061
272.127	35138
272.187	11675
272.248	5639
272.308	6564
272.369	23733
272.429	14055
272.489	11320
272.550	11147
272.610	12923
272.671	10070
272.731	8046
272.791	13368
272.852	8362
272.912	7530
272.972	4818
273.033	4032
273.093	7866
273.153	7829
273.214	6304
273.274	5975
273.334	18678
273.394	39338
273.455	18180
273.515	16187
273.575	35113
273.635	15779
273.696	20193
273.756	36793
273.816	16771
273.876	10581
273.936	17963
273.997	29933
274.057	9194
274.117	7076
274.177	9711
274.237	44243
274.297	37765
274.358	25681
274.418	29315
274.478	23246
274.538	9007
274.598	6232
274.658	23930
274.718	32903
274.778	12962
274.838	6638
274.898	13310
274.958	42344
275.018	35179
275.078	23795
275.138	10547
275.198	5831
275.258	4795
275.318	6053
275.378	12784
275.438	13284
275.498	8525
275.558	18310
275.618	41014
275.678	28217
275.738	17947
275.798	12420
275.858	6051
275.918	4648
275.978	5239
276.038	5907
276.098	3283
276.157	9943
276.217	30330
276.277	14167
276.337	10174
276.397	5978
276.457	7374
276.517	4163
276.576	3561
276.636	3699
276.696	8578
276.756	17206
276.815	13071
276.875	6231
276.935	7299
276.995	7103
277.055	4290
277.114	4079
277.174	6447
277.234	23402
277.293	10586
277.353	5957
277.413	4358
277.472	5503
277.532	5962
277.592	6529
277.651	26092
277.711	52207
277.771	17014
277.830	58714
277.890	47502
277.950	29592
278.009	87432
278.069	35312
278.128	37799
278.188	55580
278.248	21880
278.307	59985
278.367	35692
278.426	10725
278.486	7383
278.545	5175
278.605	4812
278.664	5083
278.724	5097
278.783	14462
278.843	38464
278.902	11988
278.962	8598
279.021	9452
279.081	12998
279.140	13133
279.199	10194
279.259	10023
279.318	11921
279.378	12967
279.437	22934
279.496	75905
279.556	227029
279.615	195263
279.675	61723
279.734	32742
279.793	40081
279.853	55714
279.912	22312
279.971	13447
280.031	12991
280.090	21279
280.149	37628
280.208	34052
280.268	155627
280.327	167867
280.386	47089
280.445	31374
280.505	26427
280.564	13244
280.623	10187
280.682	14614
280.742	22862
280.801	8195
280.860	6817
280.919	5416
280.978	5619
281.037	5646
281.097	5461
281.156	6326
281.215	5321
281.274	5121
281.333	26314
281.392	20754
281.451	5924
281.510	4276
281.569	4631
281.628	3196
281.688	3344
281.747	4658
281.806	4739
281.865	4082
281.924	4054
281.983	4006
282.042	3517
282.101	3143
282.160	3340
282.219	3085
282.278	4653
282.337	16446
282.396	11730
282.454	5298
282.513	5676
282.572	24881
282.631	14261
282.690	5056
282.749	4068
282.808	5049
282.867	5916
282.926	5795
282.985	3187
283.043	2658
283.102	3850
283.161	3991
283.220	10965
283.279	27914
283.338	9450
283.396	5218
283.455	5479
283.514	6325
283.573	13535
283.631	9183
283.690	5468
283.749	4876
283.808	12605
283.866	14752
283.925	5962
283.984	6083
284.043	8438
284.101	9095
284.160	5989
284.219	8134
284.277	8567
284.336	14983
284.395	37338
284.453	31659
284.512	13978
284.570	17919
284.629	16916
284.688	17978
284.746	21344
284.805	24538
284.863	33906
284.922	41351
284.981	48546
285.039	65464
285.098	107347
285.156	207183
285.215	211281
285.273	216251
285.332	218341
285.390	134596
285.449	83537
285.507	56823
285.566	41811
285.624	31605
285.683	23521
285.741	18853
285.799	16764
285.858	15000
285.916	14714
285.975	10831
286.033	9324
286.091	9775
286.150	7675
286.208	7430
286.267	8925
286.325	9297
286.383	11889
286.442	10506
286.500	6122
286.558	6769
286.616	4587
286.675	8536
286.733	7943
286.791	6839
286.850	6524
286.908	7799
286.966	15453
287.024	6657
287.083	4406
287.141	3358
287.199	4982
287.257	8062
287.315	5117
287.374	5830
287.432	14255
287.490	9447
287.548	5909
287.606	4609
287.664	4260
287.723	7100
287.781	7886
287.839	5573
287.897	5550
287.955	6589
288.013	7941
288.071	16283
288.129	80051
288.187	235281
288.245	103583
288.303	33124
288.361	18160
288.419	12458
288.477	8876
288.535	6273
288.593	4620
288.651	4975
288.709	3822
288.767	3663
288.825	4298
288.883	3003
288.941	4728
288.999	4040
289.057	3374
289.115	2448
289.173	3905
289.231	3638
289.289	3813
289.346	3790
289.404	4867
289.462	9155
289.520	8433
289.578	4218
289.636	2532
289.694	2422
289.751	1963
289.809	1946
289.867	2859
289.925	4250
289.983	5748
290.040	1662
290.098	2202
290.156	3472
290.214	4550
290.271	1957
290.329	2634
290.387	1943
290.444	2000
290.502	653
290.560	2214
290.617	1718
290.675	2674
290.733	1807
290.790	2844
290.848	2518
290.906	3730
290.963	4106
291.021	2890
291.078	2643
291.136	3746
291.194	10252
291.251	24609
291.309	7216
291.366	2987
291.424	3063
291.481	2579
291.539	3272
291.596	4829
291.654	1744
291.711	1548
291.769	2556
291.826	8044
291.884	4875
291.941	1778
291.999	2866
292.056	3845
292.114	3729
292.171	2134
292.228	2865
292.286	4449
292.343	8844
292.401	11033
292.458	5963
292.515	2753
292.573	5861
292.630	5076
292.687	4649
292.745	3162
292.802	3404
292.859	12321
292.917	28900
292.974	16867
293.031	5340
293.089	3847
293.146	2674
293.203	3047
293.260	1975
293.318	4001
293.375	4992
293.432	2843
293.489	2911
293.546	2271
293.604	4039
293.661	16371
293.718	41617
293.775	20676
293.832	12173
293.889	11392
293.947	9263
294.004	5442
294.061	4995
294.118	12595
294.175	25925
294.232	27906
294.289	12154
294.346	6074
294.403	4994
294.460	4934
294.517	3565
294.574	3092
294.631	2514
294.688	3273
294.745	10093
294.802	42552
294.859	42289
294.916	16231
294.973	10963
295.030	8984
295.087	7757
295.144	4440
295.201	3738
295.258	2856
295.315	3742
295.372	16713
295.429	33818
295.486	13914
295.542	6390
295.599	16198
295.656	25283
295.713	20187
295.770	32360
295.827	12173
295.883	6567
295.940	5265
295.997	10540
296.054	9745
296.111	4659
296.167	3225
296.224	2614
296.281	2692
296.338	2711
296.394	2596
296.451	2789
296.508	13730
296.564	27699
296.621	15442
296.678	34981
296.734	49195
296.791	19320
296.848	10145
296.904	9430
296.961	24630
297.018	39941
297.074	27207
297.131	12749
297.187	7832
297.244	7880
297.301	35357
297.357	64317
297.414	23578
297.470	8714
297.527	7614
297.583	6947
297.640	5939
297.696	3888
297.753	3318
297.809	2140
297.866	2524
297.922	2564
297.979	2441
298.035	3125
298.092	8089
298.148	23346
298.204	21749
298.261	8577
298.317	15102
298.374	43476
298.430	24894
298.486	11830
298.543	9919
298.599	12370
298.656	19707
298.712	22076
298.768	40432
298.824	26870
298.881	11780
298.937	6519
298.993	6038
299.050	6866
299.106	6391
299.162	5179
299.218	6366
299.275	4666
299.331	3734
299.387	9150
299.443	40385
299.500	44883
299.556	20233
299.612	10214
299.668	10814
299.724	14605
299.780	12826
299.837	6473
299.893	9640
299.949	39110
300.005	44007
300.061	38028
300.117	60255
300.173	28138
300.229	12673
300.285	18043
300.341	19573
300.397	10688
300.453	6673
300.510	7074
300.566	6408
300.622	6853
300.678	25188
300.734	44798
300.790	37164
300.845	41260
300.901	28160
300.957	44177
301.013	31241
301.069	11648
301.125	9172
301.181	8603
301.237	7065
301.293	5053
301.349	6114
301.405	6200
301.461	10830
301.516	21427
301.572	15240
301.628	15036
301.684	11189
301.740	22162
301.796	36869
301.851	22551
301.907	32359
301.963	26537
302.019	39856
302.074	111063
302.130	112821
302.186	62414
302.242	26220
302.297	14457
302.353	12104
302.409	28169
302.464	26718
302.520	19472
302.576	44050
302.631	49772
302.687	29218
302.743	12752
302.798	6811
302.854	5191
302.910	5973
302.965	7571
303.021	17310
303.076	16437
303.132	19920
303.187	23185
303.243	11862
303.299	5871
303.354	4365
303.410	4725
303.465	5304
303.521	3949
303.576	3447
303.632	5054
303.687	10798
303.743	37217
303.798	30614
303.853	12189
303.909	7317
303.964	5813
304.020	10434
304.075	17374
304.130	15584
304.186	28119
304.241	28292
304.297	21863
304.352	10892
304.358	10321
304.407	5690
304.449	5932
304.463	6016
304.518	6794
304.539	6204
304.573	5259
304.629	5229
304.630	5273
304.684	7694
304.720	20665
304.739	27127
304.794	39003
304.811	33384
304.850	19734
304.902	9438
304.905	8803
304.960	5960
304.992	6095
305.015	6194
305.071	6681
305.083	6482
305.126	5609
305.173	3547
305.181	3232
305.236	3019
305.264	3694
305.292	4469
305.347	6853
305.354	7141
305.402	8807
305.445	9317
305.457	9448
305.512	9319
305.535	9234
305.567	9093
305.622	6990
305.626	7288
305.678	15453
305.716	35350
305.733	42260
305.788	44473
305.807	38193
305.843	27865
305.897	37429
305.898	37517
305.953	34449
305.988	23157
306.008	17276
306.063	10790
306.078	9667
306.118	7286
306.168	5159
306.173	4971
306.228	4093
306.259	3716
306.283	3560
306.338	3157
306.349	3402
306.393	4397
306.440	5288
306.448	5430
306.503	5198
306.530	5494
306.558	7362
306.613	16083
306.620	17522
306.668	28065
306.711	41831
306.723	43272
306.778	32842
306.801	24757
306.833	16234
306.888	8098
306.892	7764
306.943	5439
306.982	4765
306.997	4620
307.052	4182
307.072	4210
307.107	4610
307.162	5660
307.163	5685
307.217	9371
307.253	11581
307.272	11942
307.327	13254
307.343	12236
307.381	10226
307.434	8988
307.436	9304
307.491	20946
307.524	32562
307.546	35999
307.600	36238
307.614	32788
307.655	20183
307.704	9628
307.710	9274
307.765	10321
307.795	13196
307.819	16166
307.874	24138
307.885	24234
307.929	18734
307.975	13595
307.984	13893
308.038	18123
308.065	22014
308.093	40103
308.148	90285
308.156	102533
308.202	169003
308.246	203307
308.257	195858
308.312	105179
308.336	71996
308.366	56330
308.421	36670
308.426	34926
308.475	22534
308.517	15293
308.530	14088
308.585	12105
308.607	11590
308.639	11925
308.694	13293
308.697	13542
308.748	24790
308.787	34572
308.803	34121
308.857	26363
308.877	22692
308.912	20688
308.967	21399
308.967	21416
309.021	32760
309.058	42701
309.076	52719
309.130	89376
309.148	102150
309.185	163751
309.238	272915
309.239	274011
309.293	311532
309.328	298427
309.348	258595
309.402	129641
309.418	96413
309.457	69915
309.508	46022
309.511	45829
309.566	50553
309.598	57211
309.620	76177
309.674	135378
309.688	149735
309.729	138413
309.778	105351
309.783	102176
309.837	63262
309.868	43459
309.892	45336
309.946	57154
309.959	61702
310.001	76916
310.049	88769
310.055	85546
310.109	49227
310.139	29341
310.163	23571
310.218	14647
310.229	13176
310.272	10748
310.319	8672
310.326	8387
310.381	7015
310.409	6272
310.435	5937
310.489	5566
310.499	5515
310.543	5782
310.589	6255
310.598	6245
310.652	5903
310.679	5724
310.706	5400
310.760	4699
310.769	4618
310.814	4434
310.859	4100
310.868	4152
310.923	4612
310.948	4835
310.977	5603
311.031	7127
311.038	7337
311.085	6617
311.128	5627
311.139	5584
311.193	5537
311.218	5430
311.247	4970
311.301	4161
311.308	4076
311.356	4526
311.398	4857
311.410	4724
311.464	3999
311.488	3707
311.518	3894
311.572	4149
311.578	4195
311.626	6607
311.668	8701
311.680	8560
311.734	7622
311.758	7273
311.788	7491
311.842	7818
311.847	7838
311.896	9538
311.937	11055
311.950	11067
312.004	10977
312.027	10907
312.058	9197
312.112	6123
312.117	5811
312.165	5233
312.207	4741
312.297	6806
312.386	5950
312.476	7288
312.566	15481
312.656	6525
312.745	4115
312.835	4945
312.925	5617
313.015	5587
313.104	6135
313.194	6169
313.284	5751
313.374	8127
313.463	7263
313.553	4490
313.643	4233
313.732	4438
313.822	3890
313.912	5338
314.001	6895
314.091	5906
314.180	7671
314.270	8374
314.360	9263
314.449	8446
314.539	5298
314.628	4400
314.718	5680
314.808	7333
314.897	5775
314.987	5303
315.076	7151
315.166	9889
315.255	7825
315.345	8785
315.434	7771
315.524	7368
315.613	9115
315.703	13414
315.792	23451
315.881	75384
315.971	22708
316.060	16217
316.150	19972
316.239	20556
316.328	6818
316.418	5090
316.507	5037
316.597	7966
316.686	8015
316.775	10410
316.865	21814
316.954	5938
317.043	3931
317.133	5815
317.222	4505
317.311	4555
317.400	4741
317.490	8678
317.579	9905
317.668	6780
317.757	14016
317.847	39892
317.936	129771
318.025	42643
318.114	27555
318.203	14033
318.293	15646
318.382	28743
318.471	22362
318.560	28245
318.649	47376
318.738	10056
318.828	9117
318.917	8750
319.006	10068
319.095	26686
319.184	63598
319.273	39127
319.362	22799
319.451	7692
319.540	7305
319.629	20806
319.718	31631
319.807	10634
319.896	25432
319.985	80380
320.074	29322
320.163	7679
320.252	13270
320.341	10075
320.430	9172
320.519	16486
320.608	8258
320.697	6311
320.786	7479
320.875	10995
320.964	14703
321.053	22790
321.142	34297
321.230	32306
321.319	24952
321.408	57975
321.497	21441
321.586	22012
321.675	23646
321.764	21498
321.852	14239
321.941	32782
322.030	19737
322.119	22006
322.207	60215
322.296	32546
322.385	15492
322.474	23729
322.562	76782
322.651	32830
322.740	25884
322.829	34388
322.917	30283
323.006	20198
323.095	17149
323.183	10622
323.272	15855
323.361	32557
323.449	91412
323.538	27251
323.626	63666
323.715	34782
323.804	13884
323.892	58041
323.981	32402
324.069	8266
324.158	29814
324.246	26444
324.335	12549
324.424	21723
324.512	6753
324.601	9295
324.689	11736
324.778	17387
324.866	21660
324.954	6431
325.043	7288
325.131	13912
325.220	23148
325.308	25887
325.397	19827
325.485	11709
325.574	5252
325.662	5151
325.750	6020
325.839	5312
325.927	4341
326.015	6177
326.104	8348
326.192	13161
326.280	3712
326.369	4824
326.457	8786
326.545	17983
326.634	6458
326.722	3347
326.810	4098
326.898	4278
326.987	5880
327.075	15463
327.163	14316
327.251	5832
327.340	6734
327.428	7582
327.516	4066
327.604	5025
327.692	4392
327.781	5823
327.869	9935
327.957	6024
328.045	7291
328.133	3605
328.221	4894
328.309	4887
328.397	3842
328.485	6474
328.574	9967
328.662	41148
328.750	18352
328.838	6139
328.926	3930
329.014	4088
329.102	7083
329.190	16565
329.278	11784
329.366	3009
329.454	4039
329.542	2828
329.630	2979
329.718	3458
329.806	5217
329.893	4751
329.981	3591
330.069	3797
330.157	13009
330.245	41897
330.333	19944
330.421	5413
330.509	9959
330.597	48461
330.684	27221
330.772	7635
330.860	8883
330.948	10635
331.036	5947
331.123	2170
331.211	2643
331.299	4687
331.387	10351
331.475	20071
331.562	6397
331.650	2894
331.738	4384
331.825	6145
331.913	3024
332.001	3229
332.089	4363
332.176	10059
332.264	27978
332.352	21081
332.439	6761
332.527	5190
332.614	3419
332.702	6015
332.790	4895
332.877	14759
332.965	34675
333.052	13880
333.140	16461
333.228	46581
333.315	10028
333.403	5795
333.490	16755
333.578	22666
333.665	65458
333.753	23385
333.840	5055
333.928	5736
334.015	17173
334.103	25372
334.190	82974
334.278	19773
334.365	11651
334.452	10619
334.540	4997
334.627	7047
334.715	9182
334.802	18161
334.889	106041
334.977	110166
335.064	17683
335.151	7765
335.239	6895
335.326	9149
335.413	39421
335.501	53401
335.588	7798
335.675	6075
335.762	6452
335.850	11795
335.937	11035
336.024	27282
336.111	118711
336.199	54553
336.286	12674
336.373	6598
336.460	4487
336.547	4525
336.635	6706
336.722	6101
336.809	4837
336.896	8101
336.983	24023
337.070	57323
337.157	83586
337.245	66673
337.332	45673
337.419	6127
337.506	3930
337.593	4509
337.680	15944
337.767	47614
337.854	15009
337.941	17319
338.028	24911
338.115	7933
338.202	8495
338.289	17280
338.376	68545
338.463	18620
338.550	29461
338.637	30583
338.724	11753
338.811	20246
338.898	4531
338.984	3421
339.071	4450
339.158	7637
339.245	21455
339.332	12912
339.419	13742
339.506	14151
339.593	2340
339.679	4587
339.766	3295
339.853	6784
339.940	16382
340.027	4675
340.113	5707
340.200	7946
340.287	5635
340.374	7510
340.460	14988
340.547	5727
340.634	10684
340.720	46920
340.807	25489
340.894	5133
340.980	4847
341.067	4367
341.154	5565
341.240	9127
341.327	22012
341.414	8285
341.500	9821
341.587	5206
341.674	3329
341.760	13935
341.847	18780
341.933	4893
342.020	1932
342.106	2625
342.193	5453
342.279	12396
342.366	7937
342.452	15821
342.539	8085
342.625	19547
342.712	49337
342.798	19644
342.885	7266
342.971	3351
343.058	1775
343.144	3707
343.230	4112
343.317	6279
343.403	5253
343.490	3397
343.576	2479
343.662	4501
343.749	5511
343.835	6201
343.921	9752
344.008	69102
344.094	172607
344.180	36451
344.267	13177
344.353	51315
344.439	53846
344.525	22915
344.612	9817
344.698	7904
344.784	5514
344.870	3955
344.957	4776
345.043	8676
345.129	6374
345.215	14353
345.301	8415
345.387	6170
345.474	2701
345.560	3031
345.646	3883
345.732	3955
345.818	7078
345.904	5970
345.990	5075
346.076	5904
346.162	11938
346.249	6113
346.335	3052
346.421	4921
346.507	18837
346.593	74241
346.679	16080
346.765	4979
346.851	5125
346.937	4711
347.023	3712
347.108	5720
347.194	4612
347.280	4739
347.366	6127
347.452	20531
347.538	86334
347.624	62569
347.710	50934
347.796	7274
347.882	4205
347.967	4179
348.053	3771
348.139	3583
348.225	3101
348.311	4008
348.397	3149
348.482	5496
348.568	7570
348.654	3543
348.740	6587
348.825	7544
348.911	9156
348.997	37430
349.083	78230
349.168	11574
349.254	6760
349.340	7000
349.425	3436
349.511	6241
349.597	7100
349.682	14457
349.768	53491
349.854	24708
349.939	4630
350.025	3645
350.110	3861
350.196	3562
350.282	2641
350.367	2636
350.453	6131
350.538	6377
350.624	6166
350.709	6137
350.795	3220
350.880	4062
350.966	5489
351.051	7729
351.137	5475
351.222	5231
351.308	16811
351.393	49604
351.479	14495
351.564	5828
351.649	4417
351.735	2953
351.820	2226
351.906	3381
351.991	5184
352.076	29893
352.162	46797
352.247	8536
352.332	6210
352.418	14551
352.503	17695
352.588	65829
352.673	57472
352.759	12301
352.844	5469
352.929	7058
353.014	10678
353.100	6591
353.185	12365
353.270	18518
353.355	18831
353.441	4528
353.526	5180
353.611	15493
353.696	18777
353.781	10427
353.866	4874
353.952	5460
354.037	14517
354.122	36025
354.207	32114
354.292	12001
354.377	4384
354.462	4934
354.547	7078
354.632	5875
354.717	8523
354.802	13285
354.887	5892
354.972	4169
355.057	3856
355.142	3403
355.227	4757
355.312	10010
355.397	23917
355.482	56821
355.567	25972
355.652	18130
355.737	19586
355.822	61374
355.907	52653
355.991	7550
356.076	4087
356.161	3741
356.246	3660
356.331	4473
356.416	10940
356.501	91994
356.585	101448
356.670	14598
356.755	8710
356.840	12555
356.924	60960
357.009	228078
357.094	88527
357.179	18143
357.263	14467
357.348	12889
357.433	13327
357.517	13294
357.602	9050
357.687	8845
357.771	22300
357.856	96467
357.941	50872
358.025	43719
358.110	201427
358.195	98677
358.279	14102
358.364	11503
358.448	41470
358.533	118747
358.617	86173
358.702	83418
358.787	30653
358.871	16703
358.956	15191
359.040	5802
359.125	4372
359.209	7641
359.294	46013
359.378	86842
359.462	21178
359.547	9409
359.631	5747
359.716	3944
359.800	4530
359.885	8074
359.969	4831
360.053	4734
360.138	4176
360.222	9447
360.306	17296
360.391	14938
360.475	46189
360.559	105405
360.644	53003
360.728	32951
360.812	48692
360.896	142670
360.981	59164
361.065	30403
361.149	8478
361.233	9305
361.318	7504
361.402	9443
361.486	7636
361.570	5237
361.654	8278
361.739	20334
361.823	87578
361.907	144691
361.991	26155
362.075	14095
362.159	33391
362.243	25547
362.327	23729
362.411	34538
362.495	16082
362.580	8255
362.664	5016
362.748	5250
362.832	7732
362.916	12306
363.000	48581
363.084	140284
363.168	174740
363.252	41744
363.336	13850
363.420	17502
363.503	52304
363.587	65557
363.671	13554
363.755	10970
363.839	16316
363.923	8656
364.007	18039
364.091	20207
364.175	22139
364.258	89742
364.342	80056
364.426	116441
364.510	66503
364.594	23811
364.677	25368
364.761	116589
364.845	90012
364.929	29241
365.013	24899
365.096	19230
365.180	25159
365.264	22837
365.347	85299
365.431	37608
365.515	9353
365.598	6719
365.682	7228
365.766	8317
365.849	10090
365.933	7128
366.017	9524
366.100	5308
366.184	3092
366.267	5125
366.351	5250
366.435	3514
366.518	2250
366.602	3557
366.685	4892
366.769	5710
366.852	8207
366.936	16929
367.019	11059
367.103	6961
367.186	11282
367.270	4978
367.353	3623
367.436	5279
367.520	4607
367.603	7409
367.687	10724
367.770	20215
367.853	12112
367.937	34973
368.020	62417
368.104	16388
368.187	14365
368.270	21675
368.353	18216
368.437	20578
368.520	42851
368.603	31037
368.687	42747
368.770	85756
368.853	21706
368.936	16939
369.020	15736
369.103	6638
369.186	3687
369.269	5340
369.352	12096
369.436	19057
369.519	12224
369.602	5447
369.685	6024
369.768	6822
369.851	6093
369.934	4223
370.018	6137
370.101	16449
370.184	14237
370.267	8100
370.350	15037
370.433	22746
370.516	61714
370.599	93058
370.682	30984
370.765	43995
370.848	55511
370.931	102501
371.014	39011
371.097	7279
371.180	7119
371.263	4675
371.346	3105
371.429	5390
371.511	5286
371.594	10785
371.677	15537
371.760	15142
371.843	14980
371.926	65081
372.009	159957
372.091	55728
372.174	37849
372.257	87488
372.340	38441
372.423	22918
372.505	24255
372.588	11968
372.671	30270
372.754	100106
372.836	53695
372.919	25627
373.002	49365
373.085	20299
373.167	16943
373.250	41172
373.332	88218
373.415	108547
373.498	222792
373.580	89317
373.663	115526
373.746	161781
373.828	35752
373.911	15039
373.993	14223
374.076	43752
374.159	45992
374.241	25312
374.324	83818
374.406	60246
374.489	61469
374.571	181690
374.654	82826
374.736	35788
374.819	110132
374.901	158447
374.983	171543
375.066	31412
375.148	10436
375.231	36331
375.313	75039
375.395	29722
375.478	8818
375.560	7296
375.643	9938
375.725	34218
375.807	140969
375.890	116407
375.972	43864
376.054	24990
376.136	33587
376.219	16957
376.301	40360
376.383	128839
376.465	54501
376.548	32504
376.630	39699
376.712	111560
376.794	57926
376.877	7459
376.959	4650
377.041	6251
377.123	9188
377.205	10927
377.287	2928
377.369	4770
377.452	4519
377.534	4635
377.616	5120
377.698	5706
377.780	4093
377.862	5310
377.944	5687
378.026	3186
378.108	3769
378.190	3799
378.272	3487
378.354	3327
378.436	3323
378.518	6812
378.600	23025
378.682	24485
378.764	56761
378.846	50156
378.928	12894
379.010	18214
379.091	11096
379.173	5661
379.255	4419
379.337	8124
379.419	28347
379.501	83208
379.583	35807
379.664	9481
379.746	21506
379.828	57438
379.910	79806
379.991	71999
380.073	13590
380.155	7803
380.237	6777
380.318	4926
380.400	6509
380.482	14315
380.564	22522
380.645	21720
380.727	19940
380.809	12734
380.890	8237
380.972	6904
381.053	6236
381.135	8603
381.217	20225
381.298	61714
381.380	33546
381.461	25923
381.543	107355
381.624	145212
381.706	28052
381.787	13584
381.869	15591
381.951	45492
382.032	166373
382.113	119301
382.195	27017
382.276	19947
382.358	37657
382.439	98766
382.521	110670
382.602	171623
382.684	90830
382.765	159409
382.846	241925
382.928	448823
383.009	269902
383.090	157465
383.172	526306
383.253	808039
383.334	282864
383.416	183971
383.497	108290
383.578	65352
383.659	129856
383.741	439815
383.822	1018128
383.903	593901
383.984	177160
384.066	212685
384.147	140425
384.228	34838
384.309	25330
384.390	20597
384.471	15037
384.553	15408
384.634	19041
384.715	20460
384.796	12558
384.877	17075
384.958	56262
385.039	71916
385.120	26876
385.201	13324
385.282	14030
385.363	15447
385.444	15546
385.525	24706
385.606	74193
385.687	70620
385.768	17902
385.849	18692
385.930	72777
386.011	131459
386.092	38810
386.173	10267
386.254	8236
386.335	9259
386.416	10125
386.496	33534
386.577	59057
386.658	21035
386.739	12571
386.820	10831
386.901	8054
386.981	8695
387.062	7067
387.143	15246
387.224	56769
387.304	57847
387.385	19031
387.466	11281
387.547	13855
387.627	11100
387.708	22240
387.789	94530
387.869	122245
387.950	34895
388.031	6510
388.111	4646
388.192	12197
388.273	18679
388.353	13515
388.434	9779
388.514	18092
388.595	81011
388.676	115270
388.756	60265
388.837	53447
388.917	36619
388.998	6291
389.078	7669
389.159	6902
389.239	5699
389.320	11385
389.400	10454
389.480	20906
389.561	57078
389.641	32800
389.722	10680
389.802	17023
389.883	25180
389.963	65945
390.043	43774
390.124	12298
390.204	20349
390.284	65272
390.365	45337
390.445	38238
390.525	114570
390.605	113777
390.686	36964
390.766	14431
390.846	9713
390.927	5648
391.007	5991
391.087	7451
391.167	9095
391.247	7404
391.328	9636
391.408	12449
391.488	9733
391.568	4460
391.648	9487
391.728	12812
391.808	12768
391.888	16707
391.969	33979
392.049	54255
392.129	23922
392.209	25728
392.289	66749
392.369	39897
392.449	22181
392.529	17118
392.609	17525
392.689	22991
392.769	65737
392.849	64541
392.929	41048
393.009	91380
393.089	87524
393.169	88651
393.248	258558
393.328	806925
393.408	910595
393.488	307636
393.568	88169
393.648	42783
393.728	26596
393.807	18038
393.887	16682
393.967	13846
394.047	14993
394.127	16068
394.206	25548
394.286	73796
394.366	318083
394.446	374879
394.525	87820
394.605	20347
394.685	17610
394.764	30976
394.844	50224
394.924	41050
395.003	16169
395.083	11376
395.163	10875
395.242	9491
395.322	10449
395.402	6473
395.481	10695
395.561	22272
395.640	62168
395.720	61197
395.799	63140
395.879	53259
395.958	31987
396.038	105990
396.117	419598
396.197	499076
396.276	144239
396.356	45215
396.435	32368
396.515	27937
396.594	38126
396.673	75473
396.753	258580
396.832	742661
396.912	618006
396.991	166687
397.070	45524
397.150	23805
397.229	17531
397.308	23354
397.388	37686
397.467	19687
397.546	9223
397.625	6676
397.705	12351
397.784	11121
397.863	6248
397.942	5136
398.022	5716
398.101	16556
398.180	49203
398.259	27725
398.338	9740
398.417	9232
398.497	4736
398.576	5450
398.655	3380
398.734	4564
398.813	4398
398.892	15282
398.971	53115
399.050	30805
399.129	5556
399.208	3785
399.287	4054
399.366	1819
399.445	3439
399.524	3491
399.603	2913
399.682	8374
399.761	22442
399.840	59059
399.919	50346
399.998	7488
400.077	2157
400.156	1982
400.235	5478
400.313	3103
400.392	4691
400.471	29493
400.550	51147
400.629	14649
400.708	5966
400.786	4036
400.865	9991
400.944	12869
401.023	8146
401.102	2266
401.180	2139
401.259	2154
401.338	3501
401.416	5542
401.495	5024
401.574	3667
401.652	3461
401.731	5407
401.810	4541
401.888	3021
401.967	1753
402.046	4301
402.124	5402
402.203	6206
402.281	5629
402.360	6443
402.438	14748
402.517	9660
402.596	4053
402.674	3390
402.753	1955
402.831	2682
402.910	4901
402.988	18117
403.066	66514
403.145	43440
403.223	20257
403.302	53435
403.380	43114
403.459	38408
403.537	17843
403.615	5377
403.694	1461
403.772	2641
403.850	1966
403.929	2158
404.007	2367
404.085	7760
404.164	9441
404.242	2662
404.320	4327
404.398	7555
404.477	26048
404.555	130324
404.633	126902
404.711	18285
404.789	4953
404.868	4030
404.946	2339
405.024	1556
405.102	2275
405.180	1158
405.258	1213
405.336	2050
405.415	2442
405.493	6665
405.571	7194
405.649	2506
405.727	2679
405.805	4409
405.883	6098
405.961	4186
406.039	4204
406.117	3153
406.195	6689
406.273	31212
406.351	119024
406.429	77920
406.507	9908
406.585	3035
406.663	4287
406.740	6114
406.818	5058
406.896	2742
406.974	4346
407.052	9204
407.130	67929
407.208	104135
407.285	22577
407.363	2755
407.441	3083
407.519	1928
407.596	4109
407.674	8616
407.752	18992
407.830	20756
407.907	9518
407.985	3355
408.063	2308
408.141	1308
408.218	4353
408.296	4632
408.373	4856
408.451	5317
408.529	4468
408.606	1260
408.684	1419
408.762	987
408.839	1420
408.917	1260
408.994	2058
409.072	1675
409.149	2073
409.227	5456
409.304	7713
409.382	6788
409.459	6653
409.537	10340
409.614	9297
409.692	5728
409.769	5231
409.846	10521
409.924	13987
410.001	8979
410.079	5331
410.156	4865
410.233	3655
410.311	2249
410.388	1909
410.465	3444
410.543	4075
410.620	2590
410.697	3922
410.775	5356
410.852	1554
410.929	5185
411.006	7601
411.083	2956
411.161	8650
411.238	8670
411.315	5038
411.392	1792
411.469	5460
411.547	5017
411.624	2268
411.701	1747
411.778	3621
411.855	10135
411.932	5057
412.009	2555
412.086	2947
412.163	2776
412.240	3047
412.317	3898
412.394	3201
412.471	910
412.548	1053
412.625	2450
412.702	3474
412.779	5943
412.856	4528
412.933	1028
413.010	1957
413.087	4417
413.164	26593
413.241	42606
413.318	10551
413.395	5512
413.471	8613
413.548	4680
413.625	2595
413.702	2681
413.779	2151
413.855	444
413.932	203
414.009	152
414.086	1160
414.162	1170
414.239	4312
414.316	25366
414.393	63475
414.469	24765
414.546	2469
414.623	1193
414.699	1577
414.776	2136
414.853	1480
414.929	2256
415.006	2027
415.082	2078
415.159	1604
415.236	1314
415.312	3356
415.389	6029
415.465	8858
415.542	5290
415.618	2347
415.695	5928
415.771	3419
415.848	3368
415.924	1715
416.000	1297
416.077	2050
416.153	-328
416.230	728
416.306	297
416.383	1203
416.459	1302
416.535	1050
416.612	344
416.688	1696
416.764	2361
416.841	2537
416.917	2188
416.993	2615
417.069	3702
417.146	3327
417.222	4543
417.298	3863
417.374	1041
417.451	2366
417.527	3454
417.603	4584
417.679	3409
417.755	2509
417.831	634
417.908	1620
417.984	424
418.060	342
418.136	7229
418.212	11130
418.288	3074
418.364	1243
418.440	1504
418.516	4684
418.592	4069
418.668	12239
418.744	20082
418.820	14880
418.896	3391
418.972	870
419.048	2097
419.124	8176
419.200	6694
419.276	1628
419.352	768
419.428	1174
419.504	2107
419.579	3334
419.655	3116
419.731	3327
419.807	12218
419.883	24497
419.959	17227
420.034	4775
420.110	9299
420.186	37811
420.262	32951
420.337	5874
420.413	3645
420.489	2196
420.565	2373
420.640	905
420.716	2800
420.792	968
420.867	2955
420.943	2108
421.019	5229
421.094	3853
421.170	2090
421.245	1555
421.321	2447
421.397	2961
421.472	4123
421.548	10866
421.623	10773
421.699	4358
421.774	5309
421.850	4949
421.925	8939
422.001	9410
422.076	6833
422.152	8030
422.227	13798
422.302	17117
422.378	23803
422.453	45992
422.529	105531
422.604	267679
422.679	393598
422.755	305079
422.830	127789
422.905	50727
422.981	26903
423.056	18076
423.131	13545
423.207	9766
423.282	9461
423.357	15506
423.432	10696
423.508	10823
423.583	21996
423.658	17458
423.733	5755
423.808	5438
423.883	6793
423.959	7115
424.034	6486
424.109	4757
424.184	1947
424.259	2639
424.334	1653
424.409	1891
424.484	1939
424.559	2808
424.634	2709
424.709	5524
424.784	5711
424.859	3662
424.934	6060
425.009	27908
425.084	47635
425.159	18813
425.234	3393
425.309	4919
425.384	32153
425.459	64289
425.534	17880
425.609	2851
425.683	1781
425.758	2023
425.833	1711
425.908	3890
425.983	16525
426.058	50005
426.132	22977
426.207	3694
426.282	4385
426.357	3816
426.431	1702
426.506	1920
426.581	1973
426.655	2534
426.730	2080
426.805	2342
426.879	2882
426.954	2925
427.029	7071
427.103	41371
427.178	108332
427.253	53229
427.327	7195
427.402	15694
427.476	55261
427.551	33960
427.625	4091
427.700	2261
427.774	710
427.849	3710
427.923	1935
427.998	1462
428.072	2523
428.147	6798
428.221	34612
428.296	103593
428.370	62225
428.444	7212
428.519	5157
428.593	9960
428.667	9980
428.742	10948
428.816	15744
428.890	66681
428.965	136863
429.039	56767
429.113	15011
429.188	6152
429.262	2102
429.336	7227
429.410	22035
429.485	15416
429.559	8325
429.633	7413
429.707	2846
429.781	10812
429.855	61643
429.930	108231
430.004	46930
430.078	50077
430.152	57831
430.226	120538
430.300	138679
430.374	23644
430.448	6657
430.522	16726
430.596	48982
430.670	42154
430.744	113013
430.818	179880
430.892	39778
430.966	6105
431.040	2280
431.114	673
431.188	751
431.262	1199
431.336	1117
431.410	5920
431.484	15289
431.557	13190
431.631	2103
431.705	3119
431.779	19385
431.853	89695
431.927	70955
432.000	8402
432.074	1902
432.148	2322
432.222	1359
432.295	900
432.369	1388
432.443	5419
432.516	38861
432.590	107945
432.664	44387
432.737	4174
432.811	1053
432.885	714
432.958	1079
433.032	436
433.106	-83
433.179	118
433.253	32
433.326	-249
433.400	24
433.473	733
433.547	-299
433.620	1242
433.694	5206
433.767	7084
433.841	1918
433.914	2671
433.988	4093
434.061	837
434.134	224
434.208	306
434.281	-215
434.355	900
434.428	3071
434.501	3730
434.575	678
434.648	986
434.721	380
434.795	382
434.868	-61
434.941	75
435.014	-361
435.088	2868
435.161	8703
435.234	12303
435.307	9416
435.381	5294
435.454	4219
435.527	6860
435.600	6524
435.673	4882
435.746	2082
435.819	2660
435.892	1189
435.966	2303
436.039	1694
436.112	1692
436.185	327
436.258	730
436.331	-113
436.404	-295
436.477	-268
436.550	264
436.623	-258
436.696	482
436.769	1601
436.842	789
436.915	1193
436.987	1966
437.060	723
437.133	1295
437.206	-219
437.279	238
437.352	265
437.425	435
437.498	1030
437.570	5278
437.643	6043
437.716	1220
437.789	607
437.861	4123
437.934	12014
438.007	7759
438.080	845
438.152	2356
438.225	5966
438.298	50663
438.370	152222
438.443	69430
438.516	15040
438.588	3432
438.661	391
438.734	1011
438.806	1190
438.879	2776
438.951	2783
439.024	6685
439.096	2769
439.169	536
439.241	673
439.314	-41
439.386	1014
439.459	3709
439.531	6455
439.604	3323
439.676	203
439.749	145
439.821	-118
439.893	139
439.966	959
440.038	2457
440.110	2560
440.183	1509
440.255	388
440.327	3940
440.400	20951
440.472	95126
440.544	74763
440.617	8666
440.689	5428
440.761	7066
440.833	11787
440.905	8137
440.978	481
441.050	511
441.122	423
441.194	184
441.266	49
441.338	391
441.411	4490
441.483	29857
441.555	52617
441.627	12152
441.699	3736
441.771	3593
441.843	1426
441.915	483
441.987	1327
442.059	691
442.131	1694
442.203	3268
442.275	5269
442.347	5906
442.419	9076
442.491	49042
442.563	133702
442.635	66869
442.706	22151
442.778	17034
442.850	4331
442.922	1999
442.994	2559
443.066	4915
443.137	3919
443.209	3573
443.281	5778
443.353	14801
443.425	60601
443.496	225082
443.568	245999
443.640	100192
443.711	18210
443.783	6220
443.855	3675
443.926	2293
443.998	2023
444.070	3828
444.141	3055
444.213	6120
444.285	8350
444.356	6247
444.428	4055
444.499	2189
444.571	1328
444.642	1861
444.714	2245
444.785	5977
444.857	6068
444.928	11017
445.000	7777
445.071	7563
445.143	10893
445.214	10300
445.285	13533
445.357	38244
445.428	137588
445.500	338386
445.571	236610
445.642	134980
445.714	46011
445.785	25636
445.856	10659
445.928	9559
445.999	7758
446.070	5644
446.141	5506
446.213	9077
446.284	4657
446.355	3118
446.426	1716
446.497	2353
446.569	3231
446.640	7250
446.711	7329
446.782	2804
446.853	2337
446.924	3372
446.995	2649
447.066	2398
447.138	3405
447.209	2709
447.280	62
447.351	389
447.422	-224
447.493	1593
447.564	2923
447.635	7088
447.706	2942
447.777	148
447.847	190
447.918	-141
447.989	2314
448.060	3357
448.131	6946
448.202	8479
448.273	6645
448.344	3264
448.414	498
448.485	1186
448.556	466
448.627	604
448.698	824
448.768	-745
448.839	695
448.910	3369
448.981	3706
449.051	1964
449.122	645
449.193	379
449.263	228
449.334	892
449.405	2483
449.475	8476
449.546	6781
449.616	4726
449.687	5500
449.758	3246
449.828	881
449.899	1043
449.969	126
450.040	926
450.110	1355
450.181	2083
450.251	1163
450.322	728
450.392	1032
450.463	1084
450.533	-494
450.604	796
450.674	435
450.744	838
450.815	5
450.885	1304
450.955	615
451.026	563
451.096	486
451.166	2194
451.237	3961
451.307	12850
451.377	6224
451.447	956
451.518	239
451.588	146
451.658	1137
451.728	2502
451.799	11070
451.869	16006
451.939	3648
452.009	778
452.079	-57
452.149	1775
452.219	3124
452.289	13749
452.360	12126
452.430	2892
452.500	2620
452.570	5125
452.640	8037
452.710	20360
452.780	29605
452.850	23083
452.920	22205
452.990	8820
453.060	3170
453.129	6407
453.199	5798
453.269	16608
453.339	42412
453.409	68266
453.479	55421
453.549	84123
453.619	90882
453.688	43178
453.758	5553
453.828	2091
453.898	424
453.968	1221
454.037	1644
454.087	1690
454.107	1696
454.168	1020
454.177	903
454.247	1697
454.249	1669
454.316	420
454.330	532
454.386	775
454.411	2763
454.456	5883
454.492	9248
454.525	12242
454.574	7607
454.595	5603
454.655	2877
454.665	2442
454.734	2181
454.736	2308
454.804	5500
454.817	7274
454.873	13861
454.898	15020
454.943	17084
454.979	11508
455.013	6680
455.060	3989
455.082	2824
455.141	2396
455.152	2163
455.221	8971
455.222	9124
455.291	16694
455.303	15010
455.360	7983
455.384	6569
455.430	4082
455.465	4875
455.499	5327
455.546	10533
455.569	12626
455.627	11018
455.638	10874
455.707	2850
455.708	2858
455.777	730
455.789	828
455.846	1231
455.869	1119
455.916	828
455.950	982
455.985	1183
456.031	1884
456.054	2116
456.112	1034
456.124	874
456.193	1751
456.193	1731
456.262	1357
456.274	1584
456.332	2533
456.355	2730
456.401	2990
456.436	2447
456.470	1925
456.516	1591
456.540	1390
456.597	1665
456.609	1719
456.678	1373
456.678	1356
456.747	1145
456.759	1042
456.817	648
456.840	950
456.886	1356
456.920	1354
456.955	1631
457.001	2375
457.024	2637
457.082	3088
457.093	3112
457.162	4589
457.163	4610
457.232	4670
457.243	4391
457.301	3239
457.324	2640
457.370	1658
457.405	1939
457.439	2333
457.485	2417
457.508	2471
457.566	3805
457.577	4240
457.646	5607
457.647	5663
457.715	11221
457.727	12531
457.784	20811
457.808	26778
457.853	31543
457.889	35723
457.922	37473
457.969	28537
457.991	29174
458.050	33632
458.060	34462
458.129	55699
458.130	56393
458.198	51513
458.211	45276
458.267	29312
458.292	21066
458.336	13422
458.372	13981
458.405	19038
458.453	28204
458.474	34251
458.533	57959
458.543	58588
458.611	83638
458.614	83984
458.680	56631
458.694	44492
458.749	21742
458.775	15926
458.818	8057
458.855	6606
458.887	5670
458.936	4655
458.955	4367
459.016	4037
459.024	4017
459.093	5286
459.097	5343
459.162	5137
459.177	4967
459.230	5291
459.257	6004
459.299	6354
459.338	6044
459.368	6024
459.418	6145
459.437	5907
459.499	5012
459.505	4993
459.574	4109
459.579	4116
459.643	3730
459.659	3573
459.711	3750
459.740	3960
459.780	4194
459.820	4676
459.849	4936
459.900	5479
459.917	5674
459.981	5828
459.986	5879
460.054	7209
460.061	7427
460.123	7536
460.141	7235
460.191	7988
460.222	8422
460.260	8469
460.302	9770
460.328	9363
460.382	7158
460.397	7113
460.462	5440
460.465	5441
460.534	7231
460.543	7483
460.602	13100
460.623	15346
460.671	21880
460.703	28281
460.739	24759
460.783	18542
460.808	17144
460.864	7107
460.876	5994
460.944	4396
460.945	4377
461.013	4826
461.024	4868
461.081	5272
461.104	5707
461.150	5470
461.184	4931
461.218	5070
461.264	5348
461.286	5520
461.345	5875
461.355	5775
461.423	5322
461.425	5298
461.491	6108
461.505	6455
461.559	11329
461.585	13637
461.628	16832
461.665	20580
461.696	20812
461.745	22496
461.764	20882
461.825	9837
461.832	9619
461.901	6509
461.905	6535
461.969	5021
461.985	4654
462.037	5225
462.065	5312
462.105	5711
462.145	6692
462.173	8285
462.225	11394
462.241	12102
462.305	15671
462.310	15314
462.378	10000
462.385	8971
462.446	7081
462.465	6847
462.514	6956
462.545	7657
462.582	7811
462.625	8034
462.650	7316
462.705	5433
462.718	5561
462.785	5130
462.786	5141
462.854	6996
462.865	7252
462.922	7951
462.945	8489
462.990	7249
463.025	5647
463.058	5300
463.104	4598
463.126	4551
463.184	4764
463.194	4763
463.262	4847
463.264	4863
463.330	5188
463.344	5159
463.398	5917
463.424	6289
463.466	5709
463.504	5329
463.533	5709
463.583	6178
463.601	6339
463.663	6785
463.669	6991
463.737	9636
463.743	9885
463.805	13497
463.823	14526
463.873	19610
463.903	22798
463.940	21965
463.982	21962
464.008	18821
464.062	9695
464.076	9250
464.142	6029
464.144	5972
464.211	5353
464.221	5305
464.279	6214
464.301	6646
464.347	7545
464.381	8174
464.414	9510
464.461	11434
464.482	13159
464.540	17732
464.550	17910
464.617	19435
464.620	19475
464.685	14165
464.699	12600
464.753	12589
464.779	12693
464.820	12432
464.859	12524
464.888	12019
464.938	10924
464.956	11473
465.018	13745
465.023	13864
465.091	15011
465.098	15108
465.158	16552
465.177	17089
465.226	14471
465.257	12755
465.293	12380
465.336	11275
465.361	11957
465.416	13758
465.428	14402
465.495	18256
465.496	18326
465.563	24888
465.575	26018
465.631	27701
465.654	28696
465.698	19330
465.734	10598
465.765	9705
465.813	8107
465.833	7984
465.893	8491
465.900	8514
465.968	8562
465.972	8556
466.035	8511
466.052	8481
466.102	8734
466.131	8837
466.170	8445
466.210	8017
466.237	8685
466.290	9974
466.304	10137
466.369	10782
466.372	10799
466.439	10814
466.449	10773
466.506	12049
466.528	12588
466.573	17752
466.607	21543
466.641	28060
466.687	37056
466.708	38691
466.766	43326
466.775	40170
466.842	15947
466.845	14764
466.909	12607
466.925	12186
466.977	11870
467.004	11760
467.044	12083
467.083	12390
467.111	13796
467.163	16379
467.178	16695
467.242	17883
467.245	17803
467.312	15506
467.321	15176
467.379	14570
467.400	14310
467.446	15224
467.480	15841
467.559	13640
467.638	13082
467.717	13301
467.796	15122
467.875	17852
467.955	15832
468.034	24783
468.113	43895
468.192	55005
468.271	16434
468.350	18946
468.429	23374
468.508	26146
468.588	16513
468.667	14500
468.746	13993
468.825	12731
468.904	12181
468.983	15349
469.062	18707
469.141	20765
469.220	10688
469.299	11081
469.378	13520
469.456	16545
469.535	13793
469.614	13531
469.693	15532
469.772	18390
469.851	22704
469.930	16294
470.009	15158
470.088	17914
470.166	28202
470.245	47111
470.324	52500
470.403	26043
470.482	17448
470.560	15177
470.639	14938
470.718	17529
470.797	14599
470.875	16319
470.954	18590
471.033	17951
471.111	9872
471.190	10762
471.269	9961
471.347	10486
471.426	11924
471.505	12542
471.583	12974
471.662	13269
471.740	12901
471.819	13897
471.898	11543
471.976	11238
472.055	11157
472.133	12224
472.212	15312
472.290	14672
472.369	10750
472.447	10830
472.526	10135
472.604	11956
472.683	12296
472.761	12411
472.839	12098
472.918	12541
472.996	12551
473.075	12617
473.153	11513
473.231	11344
473.310	12739
473.388	12892
473.466	11856
473.545	14530
473.623	19691
473.701	18312
473.780	11925
473.858	10816
473.936	12415
474.014	12506
474.093	13451
474.171	16601
474.249	19866
474.327	13463
474.405	10621
474.484	11383
474.562	10621
474.640	10070
474.718	9599
474.796	10070
474.874	9891
474.952	8852
475.030	9029
475.108	10906
475.187	11195
475.265	13156
475.343	19176
475.421	20415
475.499	12214
475.577	14774
475.655	15560
475.733	24128
475.811	36518
475.889	31843
475.966	19455
476.044	11131
476.122	14353
476.200	18962
476.278	12529
476.356	10594
476.434	12105
476.512	14886
476.590	17504
476.667	14076
476.745	10100
476.823	10906
476.901	9290
476.979	10242
477.056	11349
477.134	10367
477.212	10941
477.290	10581
477.367	8372
477.445	8939
477.523	8223
477.601	9306
477.678	8586
477.756	10678
477.834	10703
477.911	9126
477.989	8905
478.066	8942
478.144	10864
478.222	14348
478.299	22463
478.377	15992
478.454	8293
478.532	8955
478.609	9283
478.687	10055
478.764	8744
478.842	10766
478.919	12798
478.997	9495
479.074	8608
479.152	10641
479.229	12089
479.307	7411
479.384	7456
479.461	8260
479.539	8216
479.616	9223
479.694	7608
479.771	9488
479.848	9447
479.926	11678
480.003	13386
480.080	9371
480.157	8372
480.235	8201
480.312	8082
480.389	9735
480.467	13406
480.544	15218
480.621	9254
480.698	9886
480.775	10533
480.853	10092
480.930	8313
481.007	8538
481.084	9804
481.161	9952
481.238	8964
481.315	8002
481.392	7651
481.470	8301
481.547	7957
481.624	8305
481.701	7989
481.778	8561
481.855	8649
481.932	14804
482.009	21308
482.086	13166
482.163	11040
482.240	19387
482.317	29214
482.393	18113
482.470	9872
482.547	9961
482.624	9188
482.701	10300
482.778	8065
482.855	8516
482.932	9467
483.009	8043
483.085	10460
483.162	12438
483.239	11142
483.316	10667
483.393	9947
483.469	9493
483.546	11615
483.623	9554
483.699	8218
483.776	9536
483.853	10187
483.930	16782
484.006	34955
484.083	52124
484.160	32504
484.236	49100
484.313	35062
484.389	27563
484.466	25633
484.543	25345
484.619	27472
484.696	29821
484.772	26999
484.849	26550
484.925	23046
485.002	23154
485.078	24660
485.155	23154
485.231	20647
485.308	20246
485.384	21196
485.461	26166
485.537	36354
485.614	37301
485.690	20594
485.766	20844
485.843	23599
485.919	33130
485.995	31065
486.072	19258
486.148	19466
486.224	19470
486.301	19750
486.377	22901
486.453	23361
486.530	22173
486.606	30640
486.682	32204
486.758	34899
486.835	37961
486.911	33542
486.987	51669
487.063	66143
487.139	80138
487.215	51289
487.292	24818
487.368	23315
487.444	29807
487.520	35975
487.596	42159
487.672	90778
487.748	233050
487.824	278023
487.900	62376
487.976	29617
488.052	26260
488.128	31582
488.204	23638
488.280	21256
488.356	26226
488.432	44223
488.508	55342
488.584	24135
488.660	22391
488.736	21207
488.812	22329
488.888	28147
488.964	41806
489.039	89054
489.115	118619
489.191	53768
489.267	19029
489.343	17234
489.418	16922
489.494	15783
489.570	14177
489.646	16212
489.722	16624
489.797	17907
489.873	26494
489.949	44611
490.024	31671
490.100	15700
490.176	17963
490.251	22578
490.327	28461
490.403	15232
490.478	15723
490.554	13531
490.629	13112
490.705	13412
490.781	15815
490.856	14261
490.932	17302
491.007	17670
491.083	16069
491.158	14861
491.234	21040
491.309	34549
491.385	29200
491.460	14167
491.536	16373
491.611	14292
491.686	18491
491.762	27199
491.837	56427
491.913	87732
491.988	124318
492.063	129252
492.139	30586
492.214	22539
492.289	13187
492.365	13154
492.440	15257
492.515	14120
492.590	14195
492.666	11896
492.741	16849
492.816	20192
492.891	13201
492.967	12581
493.042	10500
493.117	10560
493.192	11425
493.267	12175
493.342	16509
493.418	15291
493.493	11268
493.568	10864
493.643	13062
493.718	14904
493.793	21307
493.868	24872
493.943	16578
494.018	12461
494.093	11157
494.168	11238
494.243	11452
494.318	10470
494.393	10048
494.468	10676
494.543	10716
494.618	13273
494.693	11001
494.768	10386
494.842	11293
494.917	10434
494.992	11080
495.067	9605
495.142	9714
495.217	11572
495.292	11346
495.366	13607
495.441	17208
495.516	21759
495.591	41203
495.665	133775
495.740	254262
495.815	68755
495.890	14978
495.964	10922
496.039	14431
496.114	12481
496.188	14103
496.263	13508
496.338	12326
496.412	13433
496.487	16197
496.561	18406
496.636	18041
496.710	13505
496.785	15297
496.860	16021
496.934	13628
497.009	13806
497.083	13377
497.158	14528
497.232	17155
497.307	18724
497.381	16046
497.455	18613
497.530	21062
497.604	15109
497.679	16501
497.753	26026
497.827	29128
497.902	25772
497.976	38318
498.050	109143
498.125	326676
498.199	247691
498.273	43935
498.348	34003
498.422	26846
498.496	27475
498.570	24130
498.645	15660
498.719	14759
498.793	18753
498.867	31024
498.941	49230
499.016	151927
499.090	310965
499.164	73915
499.238	14662
499.312	15393
499.386	20839
499.460	16828
499.534	16614
499.609	21557
499.683	25386
499.757	26469
499.831	72232
499.905	222217
499.979	150706
500.053	28166
500.127	29219
500.201	24416
500.275	15089
500.349	15591
500.422	19520
500.496	34249
500.570	71556
500.644	144013
500.718	194868
500.792	31646
500.866	12254
500.940	16583
501.013	12413
501.087	16335
501.161	31450
501.235	38177
501.309	78427
501.382	188702
501.456	125732
501.530	36230
501.603	51060
501.677	17057
501.751	10343
501.825	15821
501.898	29290
501.972	68907
502.046	32793
502.119	16601
502.193	39798
502.266	72656
502.340	28448
502.413	37655
502.487	59106
502.561	30132
502.634	12366
502.708	12564
502.781	10698
502.855	9217
502.928	7253
503.002	8983
503.075	7420
503.149	8476
503.222	8541
503.295	9382
503.369	11996
503.442	20174
503.516	62694
503.589	123445
503.662	65245
503.736	28912
503.809	62138
503.882	50110
503.956	84518
504.029	85882
504.102	130625
504.175	145341
504.249	35708
504.322	17997
504.395	13917
504.468	10424
504.542	9002
504.615	7526
504.688	8010
504.761	7008
504.834	10499
504.907	15571
504.980	23441
505.053	10946
505.127	15409
505.200	15588
505.273	10778
505.346	7885
505.419	6292
505.492	7454
505.565	5255
505.638	5615
505.711	5100
505.784	5802
505.857	5045
505.930	7007
506.003	5491
506.076	8185
506.149	8782
506.221	9480
506.294	13331
506.367	35711
506.440	95796
506.513	38404
506.586	10888
506.659	6874
506.731	7957
506.804	11808
506.877	13851
506.950	8905
507.022	6739
507.095	7425
507.168	10763
507.241	8450
507.313	6645
507.386	8840
507.459	12621
507.531	6836
507.604	6266
507.677	7553
507.749	4616
507.822	11892
507.894	22023
507.967	23234
508.040	12055
508.112	12496
508.185	10666
508.257	11619
508.330	17906
508.402	9947
508.475	8936
508.547	10407
508.620	10404
508.692	14593
508.765	9721
508.837	7932
508.909	7571
508.982	8114
509.054	10386
509.127	7552
509.199	7323
509.271	7109
509.344	6257
509.416	7175
509.488	7917
509.560	9163
509.633	9322
509.705	10608
509.777	10641
509.849	15117
509.922	8989
509.994	6946
510.066	8816
510.138	10164
510.210	20036
510.283	16252
510.355	13357
510.427	12287
510.499	10685
510.571	10468
510.643	12591
510.715	21618
510.787	15234
510.859	13060
510.931	14552
511.003	19567
511.076	15831
511.148	9293
511.219	9408
511.291	15878
511.363	14985
511.435	8742
511.507	8412
511.579	9728
511.651	9452
511.723	9148
511.795	8627
511.867	8531
511.939	11906
512.010	19350
512.082	14152
512.154	10618
512.226	10023
512.298	18780
512.369	22497
512.441	17930
512.513	17833
512.585	12894
512.656	13968
512.728	14674
512.800	11394
512.871	11466
512.943	10771
513.015	9331
513.086	11749
513.158	12378
513.230	13057
513.301	20425
513.373	21804
513.444	12544
513.516	10873
513.588	11204
513.659	12942
513.731	15843
513.802	14916
513.874	36473
513.945	48652
514.016	13708
514.088	11524
514.159	12800
514.231	18055
514.302	21562
514.374	15377
514.445	14463
514.516	24486
514.588	16200
514.659	13974
514.730	21336
514.802	17759
514.873	12001
514.944	14015
515.016	13402
515.087	15675
515.158	18699
515.229	20991
515.301	13169
515.372	14125
515.443	10942
515.514	11524
515.585	9655
515.656	11794
515.728	12337
515.799	10238
515.870	13345
515.941	13026
516.012	15013
516.083	18207
516.154	21394
516.225	26996
516.296	25395
516.367	24086
516.438	30468
516.509	46736
516.580	97618
516.651	344649
516.722	872487
516.793	231982
516.864	46569
516.935	44917
517.006	63146
517.077	112748
517.148	322739
517.219	1151817
517.289	1180358
517.360	185778
517.431	48826
517.502	25380
517.573	23756
517.643	22987
517.714	25355
517.785	27742
517.856	27923
517.926	35261
517.997	43551
518.068	59580
518.138	100013
518.209	220034
518.280	824210
518.350	1975775
518.421	516613
518.492	63267
518.562	38455
518.633	38546
518.703	43733
518.774	89756
518.845	211981
518.915	151710
518.986	40544
519.056	32363
519.127	52757
519.197	73926
519.268	118570
519.338	56087
519.408	22459
519.479	30647
519.549	20204
519.620	15706
519.690	13179
519.760	12940
519.831	13781
519.901	12541
519.971	12016
520.042	13654
520.112	15539
520.182	20908
520.253	24397
520.323	29980
520.393	88902
520.463	121524
520.534	103859
520.604	185189
520.674	44258
520.744	71447
520.814	240980
520.885	110263
520.955	49670
521.025	121862
521.095	34690
521.165	11712
521.235	10031
521.305	9403
521.375	10682
521.445	12683
521.515	17015
521.585	19642
521.655	15231
521.725	14303
521.795	12354
521.865	8188
521.935	15727
522.005	9914
522.075	8498
522.145	11108
522.215	10713
522.285	14857
522.355	20148
522.424	33418
522.494	26408
522.564	21635
522.634	53790
522.704	121599
522.774	32930
522.843	10462
522.913	11535
522.983	14527
523.053	10723
523.122	13657
523.192	23289
523.262	73137
523.331	48931
523.401	9750
523.471	7943
523.540	9069
523.610	7321
523.680	8238
523.749	8662
523.819	10008
523.888	9199
523.958	6746
524.027	8672
524.097	9426
524.166	9009
524.236	10128
524.305	11136
524.375	8439
524.444	6717
524.514	10454
524.583	9246
524.653	10135
524.722	14535
524.791	8901
524.861	9891
524.930	7016
524.999	10347
525.069	13207
525.138	9582
525.207	9706
525.277	9608
525.346	10444
525.415	10208
525.484	11471
525.554	11413
525.623	12132
525.692	11748
525.761	13019
525.830	16167
525.900	20829
525.969	37228
526.038	68609
526.107	169460
526.176	389681
526.245	238478
526.314	90716
526.383	229469
526.452	257832
526.522	477957
526.591	310303
526.660	74015
526.729	42014
526.797	63954
526.867	157309
526.935	538669
527.004	918764
527.073	329790
527.142	28253
527.211	15810
527.280	17619
527.349	16148
527.418	8912
527.487	11690
527.555	10703
527.624	9118
527.693	6828
527.762	8544
527.831	6935
527.899	7567
527.968	6969
528.037	7108
528.106	11367
528.174	19486
528.243	14340
528.312	22994
528.380	24537
528.449	6856
528.518	7507
528.586	4746
528.655	6831
528.723	6217
528.792	5506
528.861	6360
528.929	4841
528.998	5926
529.066	4974
529.135	6351
529.203	5403
529.272	4532
529.340	6558
529.409	8366
529.477	6582
529.545	8652
529.614	15457
529.682	17718
529.751	17369
529.819	25634
529.887	9792
529.956	6871
530.024	8478
530.092	7286
530.161	10952
530.229	14711
530.297	7095
530.365	6666
530.434	6357
530.502	3885
530.570	6137
530.638	4663
530.707	6834
530.775	7845
530.843	4882
530.911	5656
530.979	6351
531.047	5821
531.115	5296
531.183	5945
531.252	7156
531.320	6056
531.388	5931
531.456	6161
531.524	4015
531.592	7065
531.660	8668
531.728	6102
531.796	5652
531.864	6213
531.932	7111
532.000	6461
532.067	7496
532.135	7443
532.203	10634
532.271	11131
532.339	23510
532.407	53215
532.475	23499
532.542	13564
532.610	17517
532.678	32297
532.746	129472
532.814	221423
532.881	43519
532.949	11392
533.017	9584
533.084	8369
533.152	7216
533.220	8144
533.287	8306
533.355	6444
533.423	6974
533.490	5562
533.558	7198
533.625	7557
533.693	7936
533.761	7542
533.828	9276
533.896	9322
533.963	19495
534.031	22627
534.098	30349
534.166	13165
534.233	8863
534.300	10127
534.368	9681
534.435	10253
534.503	15824
534.570	28513
534.637	15679
534.705	16591
534.772	27940
534.840	58449
534.907	202867
534.974	162021
535.041	17141
535.109	11562
535.176	8813
535.243	9023
535.310	9320
535.378	7671
535.445	7332
535.512	8626
535.579	9154
535.646	7521
535.714	8551
535.781	10699
535.848	10475
535.915	10449
535.982	8512
536.049	8629
536.116	10273
536.183	8614
536.250	9208
536.317	10017
536.384	12617
536.451	18436
536.518	17581
536.585	11622
536.652	16615
536.719	23139
536.786	16135
536.853	13977
536.920	22748
536.987	34967
537.053	41298
537.120	137480
537.187	78800
537.254	11956
537.321	9239
537.388	11549
537.454	8972
537.521	9653
537.588	9197
537.654	12529
537.721	12338
537.788	12759
537.855	10050
537.921	11055
537.988	10057
538.055	11522
538.121	9494
538.188	12247
538.254	19742
538.321	34867
538.388	17796
538.454	10447
538.521	11134
538.587	10851
538.654	10550
538.720	10535
538.787	10296
538.853	11924
538.920	12193
538.986	12155
539.053	10059
539.119	12698
539.185	11680
539.252	15871
539.318	20632
539.385	15772
539.451	14641
539.517	15353
539.583	20056
539.650	45313
539.716	84199
539.782	20140
539.849	10762
539.915	12530
539.981	12878
540.047	15372
540.114	12764
540.180	13200
540.246	13306
540.312	19985
540.378	36867
540.444	34772
540.510	48570
540.576	98424
540.643	24176
540.709	10929
540.775	12183
540.841	13851
540.907	26037
540.973	48266
541.039	25227
541.105	21229
541.171	13021
541.237	11803
541.303	13580
541.369	16288
541.435	20411
541.500	31173
541.566	16455
541.632	11013
541.698	10383
541.764	12310
541.830	10260
541.896	8959
541.961	12080
542.027	11230
542.093	11647
542.159	13272
542.224	13072
542.290	20016
542.356	30971
542.421	32768
542.487	13661
542.553	11987
542.618	13432
542.684	12199
542.750	13608
542.815	17998
542.881	31347
542.947	95028
543.012	48998
543.078	10823
543.143	10875
543.209	12488
543.274	13118
543.340	18101
543.405	39771
543.471	46187
543.536	13069
543.602	11977
543.667	10019
543.732	11618
543.798	10860
543.863	12081
543.928	10004
543.994	10195
544.059	11507
544.124	11951
544.190	11358
544.255	12817
544.320	12647
544.386	12777
544.451	18699
544.516	21465
544.581	23722
544.646	66487
544.712	74526
544.777	16899
544.842	13552
544.907	14056
544.972	12277
545.037	14053
545.102	13663
545.168	13634
545.233	14894
545.298	16963
545.363	18201
545.428	22278
545.493	42489
545.558	71564
545.623	24066
545.688	14255
545.753	14659
545.818	14038
545.883	16235
545.947	16131
546.012	16362
546.077	16527
546.142	18092
546.207	18300
546.272	23126
546.337	23177
546.401	20069
546.466	19792
546.531	18914
546.596	21318
546.661	21514
546.725	21415
546.790	20712
546.855	23435
546.919	23451
546.984	26990
547.049	30015
547.113	34229
547.178	34912
547.243	41319
547.307	46943
547.372	51423
547.436	50405
547.501	52043
547.565	53834
547.630	54115
547.695	51724
547.759	51866
547.823	49606
547.888	49373
547.952	50628
548.017	54214
548.081	56091
548.146	59194
548.210	57573
548.274	59124
548.339	56525
548.403	51305
548.468	49799
548.532	48351
548.596	50467
548.660	50989
548.725	56999
548.789	62748
548.853	58415
548.917	56225
548.982	54976
549.046	51307
549.110	43368
549.174	46167
549.238	52294
549.303	56714
549.367	57791
549.431	54127
549.495	51229
549.559	53557
549.623	63336
549.687	69552
549.751	75936
549.815	80541
549.879	77550
549.943	74757
550.007	78123
550.071	76653
550.135	74261
550.199	66772
550.263	64043
550.327	62781
550.391	67241
550.455	70935
550.519	74664
550.582	81392
550.646	97628
550.710	94413
550.774	87279
550.838	88556
550.901	90812
550.965	97365
551.029	101850
551.093	109068
551.156	125200
551.220	159192
551.284	173365
551.347	118256
551.411	118263
551.475	111112
551.538	93777
551.602	85686
551.666	82811
551.729	77161
551.793	75826
551.856	74369
551.920	72594
551.983	73600
552.047	72228
552.110	74264
552.174	74336
552.237	75897
552.301	69442
552.364	67969
552.428	66161
552.491	69221
552.554	71272
552.618	72351
552.681	78210
552.745	83285
552.808	122646
552.871	135028
552.934	85864
552.998	71302
553.061	69488
553.124	63981
553.187	65595
553.251	68315
553.314	67252
553.377	67357
553.440	73484
553.503	74239
553.567	72799
553.630	71706
553.693	70803
553.756	70170
553.819	68051
553.882	66462
553.945	67044
554.008	67533
554.071	66478
554.134	67520
554.197	63988
554.260	61969
554.323	65602
554.386	65729
554.449	67933
554.512	65706
554.575	65190
554.638	64638
554.701	63834
554.764	61955
554.827	59842
554.889	57264
554.952	53711
555.015	52939
555.078	54569
555.141	55266
555.203	53294
555.266	54954
555.329	54525
555.391	52371
555.454	51561
555.517	51251
555.580	47222
555.642	45772
555.705	46579
555.768	46338
555.830	43823
555.893	42323
555.955	41668
556.018	41334
556.080	41445
556.143	43284
556.206	41877
556.268	42351
556.330	41933
556.393	40142
556.455	39708
556.518	43216
556.580	41012
556.643	35984
556.705	35924
556.767	34012
556.830	36238
556.892	38605
556.955	44308
557.017	35112
557.079	33359
557.142	33083
557.204	36778
557.266	52341
557.328	38121
557.391	28202
557.453	27295
557.515	28993
557.577	33278
557.639	31797
557.701	28758
557.764	27268
557.826	28682
557.888	31620
557.950	34051
558.012	41557
558.074	60559
558.136	139399
558.198	247605
558.260	62686
558.322	32799
558.384	34097
558.446	38421
558.508	45228
558.570	58371
558.632	92525
558.694	135107
558.756	205463
558.818	588069
558.880	993127
558.942	255811
559.003	262237
559.065	89186
559.127	46199
559.189	51950
559.251	72145
559.312	117940
559.374	295262
559.436	732982
559.498	224033
559.559	47945
559.621	51012
559.683	74223
559.744	134603
559.806	417074
559.868	419758
559.929	66791
559.991	59553
560.052	111464
560.114	269897
560.176	130395
560.237	171983
560.299	199585
560.360	33117
560.422	19194
560.483	18225
560.545	17956
560.606	17532
560.667	16776
560.729	15409
560.790	15412
560.852	15442
560.913	14872
560.974	13955
561.036	14633
561.097	15139
561.158	15007
561.220	16208
561.281	14803
561.342	16054
561.403	20377
561.465	25201
561.526	54551
561.587	54604
561.648	15711
561.709	14267
561.771	14074
561.832	13329
561.893	13586
561.954	14075
562.015	13742
562.076	13654
562.137	13437
562.198	13637
562.259	13908
562.320	14792
562.381	16006
562.442	20640
562.503	15769
562.564	13112
562.625	13157
562.686	12674
562.747	15370
562.808	13045
562.869	13034
562.930	14514
562.991	13345
563.051	12771
563.112	12911
563.173	12555
563.234	11730
563.294	12458
563.355	12896
563.416	13635
563.477	11955
563.537	12854
563.598	12775
563.659	14190
563.720	12864
563.780	14015
563.841	13002
563.901	12515
563.962	12704
564.023	11856
564.083	12535
564.144	13153
564.204	12709
564.265	12867
564.325	14599
564.386	22822
564.446	18100
564.507	12401
564.567	11668
564.628	11386
564.688	12038
564.749	12218
564.809	14382
564.869	13485
564.930	11803
564.990	12330
565.050	11205
565.111	12669
565.171	11841
565.231	11694
565.292	11328
565.352	11709
565.412	11999
565.472	12942
565.532	13210
565.593	12117
565.653	11653
565.713	13344
565.773	13938
565.833	16603
565.893	17993
565.953	12515
566.013	11866
566.074	13399
566.134	16019
566.194	21832
566.254	20204
566.314	14815
566.374	12195
566.434	13059
566.494	12444
566.554	11934
566.614	11994
566.673	12833
566.733	13494
566.793	14583
566.853	12784
566.913	13655
566.973	13792
567.033	14485
567.092	14364
567.152	15113
567.212	14128
567.272	13714
567.331	14152
567.391	14259
567.451	15891
567.511	19225
567.570	16802
567.630	14869
567.690	12996
567.749	13538
567.809	13708
567.868	15094
567.928	17330
567.988	18240
568.047	18487
568.107	21786
568.166	27498
568.226	41008
568.285	50008
568.345	36422
568.404	28632
568.464	24558
568.523	24478
568.582	27293
568.642	32344
568.701	39586
568.761	57620
568.820	85436
568.879	67788
568.939	47307
568.998	34388
569.057	26385
569.116	22624
569.176	18385
569.235	18145
569.294	15965
569.353	15284
569.413	15541
569.472	14459
569.531	13890
569.590	12691
569.649	13163
569.708	12657
569.767	15185
569.827	17139
569.886	15028
569.945	12237
570.004	13255
570.063	12634
570.122	14641
570.181	14037
570.240	15508
570.299	15641
570.358	14914
570.417	11812
570.475	12110
570.534	14177
570.593	14230
570.652	14128
570.711	13547
570.770	13037
570.829	14883
570.887	13969
570.946	16331
571.005	13896
571.064	14851
571.122	16653
571.181	14634
571.240	12007
571.299	11801
571.357	11945
571.416	11765
571.475	13157
571.533	13691
571.592	12159
571.650	12470
571.709	12487
571.768	13374
571.826	12666
571.885	11409
571.943	11521
572.002	10751
572.060	10448
572.119	10946
572.177	10809
572.236	9997
572.294	10398
572.352	11787
572.411	11811
572.469	10597
572.528	11429
572.586	11943
572.644	12806
572.703	15785
572.761	12057
572.819	10247
572.877	9779
572.936	9902
572.994	9347
573.052	11026
573.110	11079
573.169	10691
573.227	9800
573.285	10316
573.343	10230
573.401	10630
573.459	9815
573.517	10160
573.576	11069
573.634	10713
573.692	11615
573.750	10406
573.808	10199
573.866	11007
573.924	12256
573.982	11419
574.040	10053
574.098	9900
574.155	9859
574.213	9740
574.271	9789
574.329	10328
574.387	9130
574.445	9047
574.503	9579
574.560	8982
574.618	9190
574.676	9529
574.734	8034
574.792	10097
574.849	9602
574.907	8947
574.965	8258
575.022	7258
575.080	8075
575.138	8749
575.195	8477
575.253	9257
575.311	10347
575.368	9193
575.426	7677
575.483	7922
575.541	8692
575.598	8566
575.656	9357
575.713	8607
575.771	9502
575.828	8753
575.886	8090
575.943	10495
576.001	9555
576.058	8558
576.115	9610
576.173	11942
576.230	11702
576.287	13845
576.345	11005
576.402	9978
576.459	9448
576.517	9459
576.574	10227
576.631	10845
576.688	8705
576.746	8612
576.803	8584
576.860	8540
576.917	8940
576.974	9138
577.031	8545
577.089	8117
577.146	9172
577.203	9200
577.260	9457
577.317	10219
577.374	10284
577.431	10354
577.488	9077
577.545	8702
577.602	9314
577.659	8705
577.716	8530
577.773	8365
577.830	8686
577.886	8544
577.943	8107
578.000	7946
578.057	8836
578.114	9160
578.171	9011
578.227	9137
578.284	8626
578.341	9078
578.398	10775
578.454	10210
578.511	11473
578.568	11378
578.625	10649
578.681	9162
578.738	9079
578.794	9351
578.851	8283
578.908	9699
578.964	10247
579.021	11010
579.077	11006
579.134	9913
579.190	9025
579.247	9345
579.303	7801
579.360	8740
579.416	8660
579.473	7912
579.529	8581
579.586	8958
579.642	8511
579.698	8893
579.755	8716
579.811	9370
579.867	8472
579.924	7938
579.980	8736
580.036	9095
580.093	8274
580.149	9747
580.205	8727
580.261	9552
580.317	9800
580.374	9563
580.430	10852
580.486	10360
580.542	8645
580.598	10110
580.619	9964
580.654	9721
580.692	9839
580.710	9912
580.765	9839
580.767	9847
580.823	9806
580.838	10000
580.879	10549
580.911	9974
580.935	9561
580.984	9649
580.991	9675
581.047	9599
581.057	9487
581.103	8993
581.130	9683
581.159	10432
581.203	9499
581.215	9260
581.270	9746
581.276	9649
581.326	8857
581.349	9109
581.382	9433
581.422	9648
581.438	9780
581.494	10115
581.494	10110
581.550	10084
581.567	10024
581.606	9932
581.640	9527
581.661	9276
581.713	10256
581.717	10336
581.773	9920
581.786	9964
581.829	10113
581.859	10404
581.885	10723
581.932	9985
581.940	9843
581.996	10010
582.004	10144
582.052	10934
582.077	10565
582.107	10079
582.150	9455
582.163	9296
582.219	11070
582.223	10950
582.274	9440
582.296	9503
582.330	9732
582.368	9880
582.386	9954
582.441	9969
582.441	9970
582.497	10049
582.514	9986
582.552	9739
582.587	9770
582.608	9905
582.659	9641
582.663	9596
582.719	10093
582.732	9956
582.774	9754
582.805	10035
582.830	10227
582.877	10078
582.885	10033
582.941	10404
582.950	10301
582.996	9976
583.023	10378
583.052	10779
583.095	10133
583.107	9962
583.162	10304
583.168	10281
583.218	10080
583.240	10081
583.273	9983
583.313	10179
583.328	10313
583.384	10656
583.385	10641
583.439	10108
583.458	10233
583.494	10523
583.531	10229
583.549	10041
583.603	10430
583.605	10444
583.660	9827
583.676	10029
583.715	10497
583.748	10461
583.770	10546
583.820	10965
583.825	10966
583.881	10523
583.893	10424
583.936	10374
583.965	10216
583.991	9966
584.038	10903
584.046	11090
584.101	10810
584.110	10803
584.156	10574
584.183	10433
584.211	10359
584.255	10762
584.266	10893
584.321	10481
584.328	10525
584.376	10839
584.400	10871
584.431	10870
584.472	11093
584.486	11239
584.541	12300
584.545	12336
584.596	12441
584.617	12090
584.651	11784
584.689	12691
584.706	13019
584.761	12644
584.762	12649
584.816	13315
584.834	13222
584.871	12853
584.906	13125
584.926	13417
584.978	13902
584.980	13930
585.035	15450
585.051	15549
585.090	15741
585.123	16955
585.145	17756
585.195	17964
585.200	18022
585.254	20430
585.267	20908
585.309	22449
585.340	24561
585.364	26418
585.412	31977
585.419	32833
585.473	42058
585.484	44804
585.528	58520
585.556	70513
585.583	91663
585.628	140543
585.637	158172
585.692	337185
585.700	359005
585.747	432063
585.772	353638
585.801	196279
585.845	64254
585.856	50980
585.910	29610
585.917	27394
585.965	23111
585.989	21989
586.019	21466
586.061	20153
586.074	19839
586.128	19404
586.133	19349
586.183	19371
586.205	19789
586.237	20218
586.277	19740
586.292	19566
586.346	19044
586.349	19065
586.401	19712
586.421	19921
586.455	20399
586.493	21043
586.509	21781
586.564	25195
586.565	25361
586.618	34587
586.637	34613
586.672	30415
586.709	27162
586.727	26526
586.781	26939
586.781	26940
586.835	22643
586.853	21931
586.889	21531
586.925	20988
586.944	20697
586.996	20797
586.998	20830
587.052	21505
587.068	21689
587.106	21998
587.140	22372
587.161	22778
587.212	23997
587.215	24038
587.269	23728
587.284	23997
587.323	24828
587.356	24842
587.377	25029
587.427	26177
587.431	26262
587.485	27053
587.499	27247
587.539	28044
587.571	28631
587.593	29061
587.643	30745
587.648	30953
587.702	32355
587.715	32782
587.755	33913
587.786	34771
587.810	35267
587.858	36241
587.864	36520
587.917	39630
587.930	40387
587.971	42903
588.001	44258
588.025	45749
588.073	49134
588.079	49538
588.133	53492
588.145	54435
588.187	59590
588.217	63465
588.241	67200
588.288	75240
588.295	76506
588.348	87215
588.360	89651
588.402	100410
588.431	108676
588.456	116583
588.503	133910
588.510	136932
588.564	165055
588.575	171887
588.617	205012
588.646	231445
588.671	264039
588.718	336273
588.725	354196
588.778	509200
588.789	545912
588.832	791653
588.861	977400
588.886	1157254
588.932	1466960
588.939	1472881
588.993	1390495
589.004	1375263
589.047	1215042
589.075	1054864
589.100	852716
589.147	520874
589.154	499070
589.207	362849
589.218	338529
589.261	313621
589.290	303306
589.314	318756
589.361	358038
589.368	374411
589.421	525043
589.433	562659
589.475	837155
589.504	1044668
589.528	1172196
589.576	1336196
589.582	1312656
589.635	1031993
589.647	960831
589.689	611582
589.718	391991
589.742	319261
589.790	195285
589.795	189570
589.849	142539
589.861	132421
589.902	116202
589.932	103429
589.955	95091
590.004	78890
590.009	78034
590.062	69077
590.075	66935
590.115	61887
590.146	58044
590.168	56716
590.218	53675
590.222	53469
590.275	50480
590.289	49657
590.328	47790
590.360	46053
590.381	45030
590.431	42526
590.435	42475
590.488	41175
590.503	40853
590.541	41095
590.574	41073
590.594	40343
590.645	38503
590.647	38499
590.700	37283
590.716	36877
590.753	36385
590.787	35923
590.806	36028
590.859	36314
590.859	36347
590.912	35797
590.930	35602
590.965	35800
591.001	35833
591.018	35465
591.071	34385
591.072	34338
591.124	34518
591.143	34538
591.177	34669
591.214	34817
591.230	34967
591.283	35470
591.285	35435
591.336	34913
591.356	34750
591.389	34955
591.427	34974
591.442	34486
591.495	32483
591.498	32305
591.547	31878
591.569	31644
591.600	31792
591.640	31884
591.653	32014
591.706	32304
591.711	32317
591.759	33318
591.782	33755
591.811	34309
591.853	34923
591.864	34663
591.917	33067
591.924	32799
591.969	33297
591.995	33562
592.022	33351
592.066	32798
592.075	33054
592.127	34495
592.137	34737
592.180	36351
592.208	37195
592.233	36265
592.279	34457
592.285	34493
592.338	34422
592.350	34364
592.390	34021
592.421	33695
592.443	33954
592.491	34376
592.495	34395
592.548	34075
592.562	33948
592.600	33227
592.633	32543
592.653	32961
592.704	33785
592.705	33993
592.775	34794
592.846	35507
592.916	36189
592.987	37494
593.058	36460
593.128	35319
593.199	34294
593.270	35115
593.341	33634
593.411	36223
593.482	37370
593.553	36952
593.623	36507
593.694	38132
593.764	38014
593.835	37579
593.906	37279
593.976	38317
594.047	38586
594.117	42452
594.188	41647
594.258	40063
594.329	39712
594.399	40755
594.470	41668
594.540	42360
594.611	42810
594.681	43134
594.751	42561
594.822	45689
594.892	47278
594.963	46713
595.033	48228
595.103	48462
595.174	50305
595.244	54820
595.314	60339
595.384	51774
595.455	51936
595.525	54529
595.595	55072
595.665	55445
595.736	52791
595.806	54467
595.876	54641
595.946	55130
596.016	57024
596.087	59714
596.157	58056
596.227	59424
596.297	62708
596.367	65641
596.437	69739
596.507	73800
596.577	74672
596.647	72786
596.717	73529
596.787	74382
596.857	73764
596.927	75097
596.997	74249
597.067	76326
597.137	76891
597.207	77825
597.277	78369
597.347	74993
597.417	72971
597.487	73623
597.557	76340
597.626	77967
597.696	78971
597.766	79010
597.836	77727
597.906	71315
597.975	67426
598.045	68050
598.115	71096
598.185	75271
598.254	85060
598.324	93718
598.394	94723
598.464	92170
598.533	88550
598.603	83698
598.672	80003
598.742	82252
598.812	82346
598.881	84358
598.951	83765
599.020	84696
599.090	86668
599.159	88846
599.229	85247
599.299	83716
599.368	85075
599.437	84574
599.507	77347
599.576	75133
599.646	75708
599.715	74957
599.785	73567
599.854	72140
599.924	70807
599.993	71506
600.062	71627
600.132	72983
600.201	77632
600.270	90512
600.340	94669
600.409	91159
600.478	90500
600.547	92378
600.617	85059
600.686	68705
600.755	63940
600.824	61206
600.894	59460
600.963	58105
601.032	57310
601.101	55314
601.170	52817
601.239	52108
601.308	53333
601.378	53402
601.447	51715
601.516	52387
601.585	53308
601.654	58050
601.723	54477
601.792	54629
601.861	56165
601.930	59843
601.999	62169
602.068	59151
602.137	62737
602.206	63255
602.275	61047
602.343	65217
602.412	66296
602.481	62557
602.550	62751
602.619	65088
602.688	64711
602.756	64972
602.825	65794
602.894	67131
602.963	67990
603.032	69324
603.100	68691
603.169	69575
603.238	70033
603.307	70443
603.375	70906
603.444	72826
603.513	73607
603.581	75370
603.650	76577
603.719	74102
603.787	74981
603.856	78694
603.924	80088
603.993	84304
604.061	86341
604.130	88828
604.198	91247
604.267	92063
604.335	93891
604.404	94426
604.472	96161
604.541	96664
604.609	97221
604.678	98775
604.746	99830
604.815	101374
604.883	104444
604.951	103643
605.020	104835
605.088	107074
605.156	110740
605.225	110805
605.293	111630
605.361	111193
605.429	112767
605.498	114957
605.566	119578
605.634	124174
605.702	128622
605.771	131544
605.839	132958
605.907	129849
605.975	125421
606.043	123147
606.111	120724
606.180	122460
606.248	121037
606.316	119509
606.384	119816
606.452	123703
606.520	128960
606.588	130866
606.656	130196
606.724	125080
606.792	117583
606.860	106065
606.928	95151
606.996	92823
607.064	89344
607.132	92665
607.200	99656
607.267	104032
607.335	106061
607.403	107151
607.471	104702
607.539	100401
607.607	101332
607.674	90255
607.742	90711
607.810	89767
607.878	90037
607.946	91712
608.013	93542
608.081	96952
608.149	98586
608.216	102070
608.284	105250
608.352	105241
608.419	103936
608.487	103892
608.555	101090
608.622	102250
608.690	109660
608.757	121852
608.825	123657
608.893	120645
608.960	116751
609.028	114422
609.095	111938
609.163	108787
609.230	97235
609.298	89201
609.365	91905
609.432	102077
609.500	109610
609.567	126615
609.635	143665
609.702	154132
609.769	146479
609.837	115359
609.904	99395
609.971	101866
610.039	115560
610.106	155742
610.173	301737
610.241	707590
610.308	455902
610.375	192891
610.442	115804
610.509	102159
610.577	101388
610.644	102542
610.711	104768
610.778	107437
610.845	112327
610.912	118402
610.980	123918
611.047	123572
611.114	120939
611.181	117976
611.248	116627
611.315	124636
611.382	125832
611.449	131205
611.516	132786
611.583	132143
611.650	133286
611.717	136100
611.784	138245
611.851	146552
611.918	158055
611.984	185591
612.051	264008
612.118	539676
612.185	1329992
612.252	834409
612.319	216596
612.386	175574
612.452	160948
612.519	153781
612.586	153480
612.653	151956
612.719	156244
612.786	151139
612.853	138881
612.919	134392
612.986	139805
613.053	130859
613.120	121724
613.186	117816
613.253	117905
613.319	117902
613.386	118754
613.453	121524
613.519	124075
613.586	125269
613.652	137212
613.719	129343
613.785	127655
613.852	124450
613.918	121294
613.985	124041
614.051	128671
614.118	127474
614.184	121576
614.250	119061
614.317	124636
614.383	122512
614.449	124395
614.516	124422
614.582	124289
614.648	122049
614.715	120643
614.781	119034
614.847	117987
614.914	118719
614.980	114770
615.046	115653
615.112	117741
615.179	120580
615.245	121585
615.311	121164
615.377	130234
615.443	133428
615.509	126732
615.575	128460
615.642	127018
615.708	131378
615.774	138303
615.840	148058
615.906	162647
615.972	204994
616.038	320802
616.104	663078
616.170	1541316
616.236	1305691
616.302	309547
616.368	228516
616.434	166199
616.500	153304
616.565	169737
616.631	214248
616.697	172273
616.763	178673
616.829	268077
616.895	491091
616.961	456103
617.026	188500
617.092	132601
617.158	126522
617.224	123582
617.289	114506
617.355	107856
617.421	108071
617.487	109201
617.552	101413
617.618	101629
617.684	99763
617.749	103626
617.815	97830
617.880	93933
617.946	95607
618.012	98004
618.077	99397
618.143	94480
618.208	96470
618.274	102196
618.339	104708
618.405	87241
618.470	86171
618.536	85787
618.601	86487
618.667	79829
618.732	75851
618.798	74401
618.863	74207
618.928	73682
618.994	76195
619.059	77679
619.124	85480
619.190	76812
619.255	72351
619.320	72389
619.386	73533
619.451	72093
619.516	69650
619.581	70984
619.647	73500
619.712	74088
619.777	70164
619.842	72162
619.907	72839
619.972	73682
620.038	73118
620.103	70341
620.168	70078
620.233	71115
620.298	71948
620.363	72692
620.428	76010
620.493	76653
620.558	76818
620.623	77874
620.688	76852
620.753	76434
620.818	80249
620.883	78975
620.948	79333
621.013	78724
621.078	77209
621.143	77443
621.207	80796
621.272	78575
621.337	78327
621.402	76357
621.467	78572
621.532	78491
621.596	77852
621.661	74764
621.726	72311
621.791	74581
621.855	75813
621.920	75044
621.985	75764
622.049	77105
622.114	77309
622.179	76553
622.243	77791
622.308	81544
622.373	86333
622.437	82932
622.502	77808
622.566	76515
622.631	76274
622.695	79409
622.760	77748
622.824	78608
622.889	79839
622.953	80901
623.018	95213
623.082	94323
623.147	82854
623.211	82286
623.276	83201
623.340	77258
623.404	74443
623.469	74123
623.533	75209
623.597	73500
623.662	73836
623.726	68564
623.790	63574
623.854	63224
623.919	64198
623.983	65879
624.047	66162
624.111	66794
624.176	67393
624.240	70267
624.304	74644
624.368	67722
624.432	66851
624.496	70817
624.560	74745
624.625	78072
624.689	73660
624.753	75449
624.817	73001
624.881	71669
624.945	64179
625.009	61868
625.073	63583
625.137	65578
625.201	74522
625.265	74647
625.329	67054
625.393	67728
625.456	67744
625.520	69163
625.584	71688
625.648	76590
625.712	82936
625.776	104320
625.839	106154
625.903	69324
625.967	58093
626.031	67498
626.095	85823
626.158	66763
626.222	49975
626.286	48430
626.349	44664
626.413	42406
626.477	45238
626.540	43610
626.604	43808
626.668	42565
626.731	41786
626.795	42145
626.858	43787
626.922	40424
626.986	42194
627.049	40605
627.113	42019
627.176	41673
627.240	41124
627.303	41449
627.366	40627
627.430	41899
627.493	41013
627.557	39449
627.620	40709
627.684	42078
627.747	42357
627.810	37216
627.874	36358
627.937	33995
628.000	37692
628.064	34442
628.127	30868
628.190	31394
628.253	30964
628.317	29059
628.380	29507
628.443	27545
628.506	28577
628.569	27004
628.632	24299
628.696	25643
628.759	25414
628.822	23396
628.885	24844
628.948	23661
629.011	23992
629.074	23634
629.137	22772
629.200	21972
629.263	24526
629.326	21095
629.389	20896
629.452	21779
629.515	22453
629.578	20915
629.641	23394
629.704	22124
629.767	21251
629.830	20692
629.892	20408
629.955	19222
630.018	23190
630.081	22695
630.144	26152
630.207	20864
630.269	23917
630.332	20352
630.395	19924
630.458	18753
630.520	20305
630.583	20939
630.646	19802
630.708	18344
630.771	18684
630.834	20494
630.896	20026
630.959	20168
631.021	19213
631.084	20684
631.146	20594
631.209	20897
631.272	19180
631.334	20178
631.397	20020
631.459	20318
631.522	22374
631.584	22081
631.646	24398
631.709	24947
631.771	28944
631.834	24215
631.896	22699
631.958	20204
632.021	21031
632.083	18854
632.145	19995
632.208	19559
632.270	20030
632.332	16953
632.395	17539
632.457	18459
632.519	18208
632.581	18199
632.643	18176
632.706	19169
632.768	16271
632.830	18205
632.892	18778
632.954	18344
633.016	19508
633.078	17560
633.141	18561
633.203	17928
633.265	19114
633.327	17957
633.389	18020
633.451	20218
633.513	22323
633.575	20577
633.637	21830
633.698	19919
633.760	20696
633.822	20466
633.884	20615
633.946	20987
634.008	21511
634.070	21198
634.132	23598
634.193	24742
634.255	28743
634.317	27844
634.379	29317
634.441	25821
634.502	22553
634.564	20725
634.626	20066
634.687	18165
634.749	17992
634.811	17755
634.873	17926
634.934	17464
634.996	18288
635.057	17071
635.119	18191
635.181	17627
635.242	18990
635.304	16972
635.365	19957
635.427	18096
635.488	18679
635.550	16418
635.611	18473
635.673	16189
635.734	21383
635.796	19837
635.857	23013
635.918	23173
635.980	27085
636.041	27705
636.102	29909
636.164	29984
636.225	29859
636.286	24397
636.348	22743
636.409	19818
636.470	18031
636.531	17830
636.593	17693
636.654	17230
636.715	16276
636.776	15083
636.838	15131
636.899	16528
636.960	15001
637.021	13537
637.082	14375
637.143	14507
637.204	13656
637.265	13215
637.326	14886
637.387	14345
637.448	13602
637.509	15408
637.570	14238
637.631	14623
637.692	12817
637.753	12188
637.814	13202
637.875	13258
637.936	13701
637.997	13406
638.058	13544
638.119	13735
638.179	12439
638.240	13205
638.301	13512
638.362	12051
638.423	12229
638.483	13667
638.544	10739
638.605	12729
638.666	11797
638.726	13018
638.787	12543
638.848	12035
638.908	11775
638.969	11102
639.030	12077
639.090	10585
639.151	11913
639.211	13984
639.272	15661
639.332	21743
639.393	15682
639.453	12939
639.514	14041
639.574	12168
639.635	11639
639.695	12259
639.756	10714
639.816	13062
639.877	13702
639.937	19543
639.997	23542
640.058	12008
640.118	10868
640.178	11517
640.239	10197
640.299	10446
640.359	11616
640.420	11413
640.480	14465
640.540	15604
640.600	15134
640.661	13697
640.721	12342
640.781	15049
640.841	11428
640.901	11943
640.961	11556
641.021	12405
641.082	13732
641.142	16496
641.202	13757
641.262	9964
641.322	11280
641.382	9127
641.442	10599
641.502	10338
641.562	11225
641.622	10441
641.682	12399
641.742	13385
641.802	12423
641.861	11979
641.921	11847
641.981	13163
642.041	10610
642.101	13170
642.161	10457
642.221	9870
642.280	9609
642.340	9688
642.400	8547
642.460	11073
642.519	10172
642.579	10363
642.639	10038
642.698	8383
642.758	11857
642.818	11229
642.877	9790
642.937	10647
642.997	12477
643.056	15705
643.116	9844
643.175	11459
643.235	10270
643.294	10823
643.354	12929
643.414	13236
643.473	16450
643.532	20309
643.592	28649
643.651	48300
643.711	86911
643.770	174289
643.830	428920
643.889	933045
643.948	222371
644.008	35964
644.067	22096
644.126	16446
644.186	14041
644.245	12389
644.304	10478
644.363	11974
644.423	9791
644.482	11041
644.541	11551
644.600	9714
644.659	16326
644.719	18949
644.778	30437
644.837	51389
644.896	110913
644.955	266221
645.014	85812
645.073	17707
645.132	13280
645.191	12711
645.250	11740
645.309	12843
645.368	12141
645.427	17740
645.486	29541
645.545	53804
645.604	16662
645.663	10030
645.722	10720
645.781	12158
645.840	14945
645.898	18966
645.957	28655
646.016	43023
646.075	83231
646.134	166282
646.192	452836
646.251	689065
646.310	98943
646.369	26707
646.427	21453
646.486	15108
646.545	13625
646.603	11100
646.662	10436
646.721	10231
646.779	8876
646.838	9392
646.896	14192
646.955	18424
647.014	31116
647.072	56741
647.131	167375
647.189	79931
647.248	12407
647.306	9327
647.365	9319
647.423	6780
647.481	9317
647.540	5819
647.598	7701
647.657	6820
647.715	8054
647.773	6458
647.832	7450
647.890	5444
647.948	5956
648.007	7679
648.065	5934
648.123	6259
648.181	7441
648.240	6081
648.298	5120
648.356	5772
648.414	6257
648.472	6204
648.531	6210
648.589	5005
648.647	5686
648.705	5692
648.763	6062
648.821	6081
648.879	7173
648.937	7982
648.995	10547
649.053	12708
649.111	21498
649.169	35971
649.227	68892
649.285	144270
649.343	437822
649.401	204958
649.459	36490
649.516	20260
649.574	10185
649.632	10710
649.690	12718
649.748	14397
649.806	19914
649.863	38241
649.921	115858
649.979	77731
650.037	10759
650.094	5706
650.152	6569
650.210	4885
650.268	6140
650.325	5438
650.383	5248
650.440	4325
650.498	4772
650.556	4317
650.613	4345
650.671	4667
650.728	4868
650.786	5023
650.843	7507
650.901	3841
650.958	5080
651.016	4589
651.073	3484
651.131	3098
651.188	3607
651.246	4098
651.303	3286
651.360	4007
651.418	3802
651.475	4019
651.532	3240
651.590	4696
651.647	2977
651.704	4050
651.762	3272
651.819	3474
651.876	3332
651.933	3718
651.990	3723
652.048	2265
652.105	3300
652.162	3714
652.219	3083
652.276	3565
652.333	3305
652.390	2745
652.448	3908
652.505	2861
652.562	3846
652.619	2753
652.676	3404
652.733	3982
652.790	3773
652.847	2519
652.904	3432
652.961	1761
653.017	2598
653.074	3866
653.131	3290
653.188	2631
653.245	3395
653.302	3416
653.359	2358
653.415	3376
653.472	2664
653.529	3014
653.586	2979
653.642	2419
653.699	3443
653.756	2031
653.813	2677
653.869	3450
653.926	2575
653.983	2155
654.039	3634
654.096	2226
654.152	4142
654.209	1543
654.266	3055
654.322	2097
654.379	4385
654.435	3644
654.492	3713
654.548	4681
654.605	6779
654.661	4990
654.717	2450
654.774	2811
654.830	2915
654.887	3050
654.943	2455
655.000	3327
655.056	2544
655.112	3122
655.168	2064
655.225	3165
655.281	3904
655.337	3956
655.394	4981
655.450	3654
655.506	4159
655.562	5100
655.618	5262
655.675	2286
655.731	3292
655.787	849
655.843	3819
655.899	1926
655.955	3289
656.011	2819
656.067	1927
656.123	2499
656.179	3006
656.235	3149
656.291	2270
656.347	3794
656.403	1967
656.459	2694
656.515	3220
656.571	3109
656.627	3010
656.683	2689
656.739	3915
656.795	2990
656.850	2918
656.906	3716
656.962	4600
657.018	2006
657.074	3183
657.129	4043
657.185	6496
657.241	14603
657.297	9069
657.352	3445
657.408	2847
657.464	3331
657.519	2945
657.575	1569
657.630	2738
657.686	1749
657.742	2290
657.797	1739
657.853	2716
657.908	2980
657.964	2512
658.019	2517
658.075	2793
658.130	2652
658.186	1372
658.241	2089
658.297	1503
658.352	2230
658.407	2862
658.463	2185
658.518	2438
658.573	2082
658.629	2578
658.684	1849
658.739	2564
658.795	811
658.850	2423
658.905	1847
658.960	2817
659.016	1806
659.071	2279
659.126	2487
659.181	2267
659.236	5292
659.291	6633
659.346	2815
659.401	2503
659.457	3049
659.512	1723
659.567	3247
659.622	2323
659.677	1789
659.732	850
659.787	2161
659.842	1657
659.897	2608
659.952	2112
660.007	1978
660.061	1620
660.116	1042
660.171	1620
660.226	2872
660.281	1996
660.336	2027
660.391	2519
660.445	1948
660.500	2104
660.555	1579
660.610	1377
660.664	2425
660.719	1496
660.774	1825
660.828	2278
660.883	2381
660.938	2629
660.992	1353
661.047	2124
661.101	1359
661.156	1921
661.211	1114
661.265	1540
661.320	1831
661.374	1974
661.429	2083
661.483	2960
661.538	784
661.592	2087
661.647	1613
661.701	1699
661.755	1751
661.810	2367
661.864	1728
661.919	1359
661.973	1993
662.027	1669
662.081	1038
662.136	1822
662.190	1698
662.244	2145
662.299	1753
662.353	1822
662.407	1141
662.461	1691
662.515	2507
662.569	1622
662.624	2144
662.678	2273
662.732	1997
662.786	2186
662.840	1666
662.894	2281
662.948	1807
663.002	1498
663.056	2210
663.110	1844
663.164	2027
663.218	2701
663.272	1932
663.326	2693
663.380	2936
663.434	2301
663.488	1274
663.542	1880
663.595	1667
663.649	1682
663.703	1826
663.757	2315
663.811	1922
663.864	2188
663.918	1774
663.972	1598
664.026	1806
664.079	1244
664.133	2124
664.187	1488
664.240	962
664.294	1855
664.348	2114
664.401	1691
664.455	1819
664.508	1440
664.562	2090
664.615	1765
664.669	1920
664.722	2002
664.776	1559
664.829	2056
664.883	1827
664.936	1088
664.990	1583
665.043	2046
665.097	818
665.150	2402
665.203	1073
665.257	1928
665.310	1647
665.363	1768
665.417	2055
665.470	2225
665.523	1365
665.576	2277
665.630	1083
665.683	1362
665.736	2276
665.789	2480
665.842	1205
665.895	1990
665.949	1677
666.002	1856
666.055	2522
666.108	2473
666.161	2494
666.214	2915
666.267	2057
666.320	2617
666.373	1900
666.426	1866
666.479	1948
666.532	2723
666.585	1566
666.638	2130
666.691	1276
666.744	3210
666.796	2155
666.849	2341
666.902	1722
666.955	2211
667.008	1650
667.060	1522
667.113	1216
667.166	1861
667.219	2317
667.271	1464
667.324	1783
667.377	3051
667.430	1515
667.482	919
667.535	1796
667.587	1553
667.640	2038
667.693	3025
667.745	5129
667.798	6070
667.850	2596
667.903	2438
667.955	1602
668.008	2359
668.060	2535
668.113	1870
668.165	2052
668.218	2568
668.270	1474
668.322	2539
668.375	2046
668.427	1596
668.479	1417
668.532	2542
668.584	1710
668.636	2490
668.689	1958
668.741	1974
668.793	2418
668.845	1407
668.898	2027
668.950	2240
669.002	2206
669.054	1713
669.106	1599
669.158	2431
669.211	1600
669.263	1990
669.315	2316
669.367	2577
669.419	1125
669.471	3109
669.523	2369
669.575	3802
669.627	2497
669.679	3020
669.731	2949
669.783	3003
669.835	2369
669.886	3096
669.938	2129
669.990	2791
670.042	2682
670.094	3830
670.146	3272
670.197	5098
670.249	5722
670.301	6135
670.353	9818
670.404	13695
670.456	19712
670.508	32401
670.560	55270
670.611	95133
670.663	166339
670.715	392311
670.766	616435
670.818	209063
670.869	37470
670.921	18792
670.972	12390
671.024	8727
671.075	6733
671.127	5016
671.178	4795
671.230	4839
671.281	4414
671.333	4506
671.384	4259
671.436	4153
671.487	6303
671.538	8977
671.590	13482
671.641	22051
671.692	39696
671.744	80249
671.795	47353
671.846	13809
671.897	7051
671.949	4578
672.000	2500
672.051	2741
672.102	3518
672.153	1615
672.204	2122
672.256	2646
672.307	1805
672.358	2920
672.409	2037
672.460	2083
672.511	1431
672.562	1993
672.613	1184
672.664	1472
672.715	1146
672.766	1310
672.817	1740
672.868	2485
672.919	1471
672.970	1199
673.021	1533
673.071	1525
673.122	1980
673.173	1518
673.224	1431
673.275	869
673.326	1000
673.376	2168
673.427	1099
673.478	1302
673.528	982
673.579	1456
673.630	1412
673.680	2562
673.731	664
673.782	945
673.832	584
673.883	1538
673.934	1595
673.984	1605
674.035	1190
674.085	1729
674.136	2537
674.186	1454
674.237	1436
674.287	2233
674.338	1689
674.388	1495
674.438	1183
674.489	1953
674.539	1733
674.589	1336
674.640	1545
674.690	1463
674.740	997
674.791	1924
674.841	1335
674.891	1937
674.942	841
674.992	1092
675.042	225
675.092	1429
675.142	475
675.193	1460
675.243	1197
675.293	716
675.343	742
675.393	1174
675.443	1766
675.493	1291
675.543	671
675.593	1530
675.643	911
675.693	1241
675.743	925
675.793	1114
675.843	1066
675.893	1359
675.943	763
675.993	1510
676.043	1328
676.093	1681
676.142	911
676.192	1320
676.242	1004
676.292	931
676.341	147
676.391	995
676.441	55
676.491	581
676.540	151
676.590	1079
676.640	1232
676.689	578
676.739	-323
676.789	800
676.838	1148
676.888	895
676.937	524
676.987	796
677.037	386
677.086	288
677.136	798
677.185	214
677.235	264
677.284	418
677.333	92
677.383	202
677.432	8
677.482	1541
677.531	1079
677.580	924
677.630	-441
677.679	1014
677.728	362
677.778	725
677.827	439
677.876	1578
677.925	461
677.975	652
678.024	927
678.073	922
678.122	934
678.171	288
678.220	773
678.269	346
678.319	1475
678.368	1500
678.417	663
678.466	1392
678.515	909
678.564	599
678.613	484
678.662	896
678.711	915
678.760	1157
678.809	791
678.857	398
678.906	596
678.955	386
679.004	1255
679.053	417
679.102	26
679.151	623
679.199	77
679.248	181
679.297	656
679.346	968
679.394	-786
679.443	987
679.492	120
679.540	117
679.589	628
679.638	522
679.686	213
679.735	851
679.784	219
679.832	837
679.881	1400
679.929	-211
679.978	282
680.026	991
680.075	212
680.123	447
680.172	-139
680.220	64
680.268	781
680.317	177
680.365	-34
680.414	169
680.462	548
680.510	773
680.559	377
680.607	733
680.655	674
680.703	214
680.752	499
680.800	107
680.848	516
680.896	-86
680.945	-506
680.993	396
681.041	604
681.089	337
681.137	-178
681.185	585
681.233	-61
681.258	140
681.281	291
681.329	892
681.377	695
681.380	730
681.425	651
681.473	1154
681.502	301
681.521	-364
681.569	1329
681.617	793
681.624	909
681.665	1374
681.713	447
681.745	1134
681.761	1407
681.809	573
681.857	965
681.867	1133
681.904	1553
681.952	1596
681.989	1873
682.000	1909
682.048	1127
682.096	1367
682.111	1691
682.143	2222
682.191	1814
682.233	2066
682.239	2073
682.286	1624
682.334	1820
682.354	1803
682.382	1654
682.430	2245
682.476	1722
682.477	1679
682.525	1677
682.572	2127
682.598	2439
682.620	2660
682.667	2574
682.715	2659
682.720	2681
682.763	2474
682.810	2753
682.841	2665
682.857	2573
682.905	2636
682.952	2912
682.963	3115
683.000	3653
683.047	3790
683.085	4367
683.095	4492
683.142	3241
683.190	3291
683.206	3207
683.237	2962
683.284	3870
683.328	3418
683.332	3349
683.379	4400
683.426	3390
683.449	3437
683.473	3440
683.521	3758
683.568	4158
683.571	4154
683.615	3722
683.662	4871
683.693	4247
683.709	3866
683.757	4839
683.804	3489
683.814	3782
683.851	4715
683.898	4371
683.936	5060
683.945	5209
683.992	4999
684.039	6341
684.057	6275
684.086	6088
684.133	6125
684.179	5964
684.180	5926
684.227	5977
684.274	6013
684.300	6264
684.321	6455
684.368	5837
684.415	6379
684.422	6241
684.462	5145
684.509	5059
684.543	5169
684.556	5229
684.603	5729
684.649	5560
684.665	5609
684.696	5655
684.743	5986
684.786	6501
684.790	6536
684.837	5925
684.883	6989
684.908	6999
684.930	6958
684.977	6956
685.023	6912
685.029	6968
685.070	6972
685.117	6793
685.150	7358
685.164	7634
685.210	6897
685.257	7851
685.272	7893
685.303	7880
685.350	7565
685.393	7445
685.396	7443
685.443	8105
685.490	8934
685.514	8951
685.536	8603
685.583	8630
685.629	8539
685.636	8469
685.675	8190
685.722	8450
685.757	8058
685.768	7945
685.815	8573
685.861	8528
685.878	8603
685.908	8656
685.954	8697
686.000	8560
686.000	8555
686.047	9167
686.093	10672
686.121	10563
686.139	10130
686.185	9889
686.232	9150
686.242	9259
686.278	9629
686.324	8669
686.363	8507
686.370	8522
686.416	8344
686.463	8819
686.484	8733
686.509	8636
686.555	8978
686.601	8828
686.606	8902
686.647	9515
686.693	8899
686.727	9260
686.739	9382
686.785	9658
686.831	9337
686.848	9291
686.877	9075
686.923	9265
686.969	9248
686.969	9249
687.015	9165
687.061	9873
687.090	10436
687.107	10601
687.153	10289
687.199	10246
687.211	9972
687.245	9446
687.291	10121
687.332	9914
687.336	9880
687.382	10562
687.428	10049
687.453	10176
687.474	10242
687.520	10091
687.565	10347
687.574	10318
687.611	10278
687.657	10341
687.695	10320
687.702	10380
687.748	10929
687.794	11652
687.816	11554
687.839	11220
687.885	10983
687.931	11139
687.937	11125
687.976	11162
688.022	11193
688.058	11498
688.067	11653
688.113	11987
688.158	12333
688.179	12442
688.204	12299
688.249	12245
688.295	12255
688.300	12222
688.340	12183
688.386	12700
688.421	12205
688.431	12020
688.477	12055
688.522	11531
688.542	11704
688.567	12169
688.613	11681
688.658	11404
688.663	11488
688.703	12095
688.749	12161
688.784	11943
688.794	11865
688.839	12355
688.884	11813
688.905	11807
688.930	11870
688.975	11735
689.020	11448
689.026	11477
689.065	12099
689.110	12533
689.146	12119
689.155	11948
689.201	12402
689.246	12181
689.267	12333
689.291	12625
689.336	12335
689.381	12368
689.388	12330
689.426	11992
689.471	12212
689.509	12011
689.516	12039
689.561	12451
689.606	11663
689.630	11918
689.651	12102
689.696	11907
689.741	12397
689.750	12319
689.785	12357
689.830	12752
689.871	12742
689.875	12704
689.920	12306
689.965	12427
689.992	12172
690.010	12283
690.054	12124
690.099	12986
690.112	12954
690.144	12664
690.189	12563
690.233	12250
690.233	12269
690.278	12628
690.323	12592
690.354	12571
690.367	12628
690.412	13000
690.457	13216
690.474	13377
690.501	13502
690.546	13025
690.590	13116
690.595	13066
690.635	12933
690.680	13023
690.716	13174
690.724	13234
690.769	12999
690.813	13214
690.836	13097
690.857	13152
690.902	13712
690.946	13641
690.957	13662
690.991	13966
691.035	14676
691.077	15184
691.080	15218
691.124	15213
691.168	15487
691.198	15146
691.213	15012
691.257	15382
691.301	15368
691.318	15370
691.346	15183
691.390	14559
691.434	14351
691.439	14286
691.478	14430
691.522	14705
691.559	14631
691.567	14746
691.611	15539
691.655	15786
691.680	16542
691.699	16646
691.743	15752
691.787	15167
691.800	14966
691.831	15141
691.875	15477
691.919	15750
691.921	15731
691.964	16034
692.008	15967
692.041	16134
692.052	16151
692.096	16086
692.139	16218
692.162	16149
692.183	16337
692.227	16661
692.271	16546
692.282	16569
692.315	16745
692.359	17192
692.402	17372
692.403	17407
692.447	17344
692.490	17675
692.523	17695
692.534	17665
692.578	17440
692.622	16902
692.643	16891
692.666	16818
692.709	16334
692.753	15721
692.763	15563
692.797	15494
692.840	15521
692.884	15321
692.884	15356
692.928	15642
692.971	15871
693.004	16186
693.015	16254
693.059	16302
693.102	16508
693.124	16256
693.146	16207
693.189	16517
693.233	16864
693.245	16840
693.276	16811
693.320	17029
693.363	16878
693.365	16843
693.407	16896
693.450	16946
693.485	16814
693.493	16857
693.537	17273
693.580	17288
693.605	17366
693.624	17386
693.667	16931
693.710	16983
693.725	16888
693.753	17380
693.797	18235
693.840	19010
693.845	19082
693.883	19229
693.926	18918
693.966	18917
693.970	18880
694.013	17872
694.056	17061
694.086	16299
694.099	16399
694.142	16908
694.185	17092
694.206	17195
694.229	17483
694.272	17882
694.315	18412
694.326	18450
694.358	18635
694.401	19318
694.444	19515
694.446	19483
694.487	19626
694.530	19548
694.566	19937
694.573	19910
694.616	18778
694.659	18088
694.686	17556
694.702	17577
694.745	17379
694.787	17196
694.806	17177
694.830	17315
694.873	17187
694.916	17226
694.926	17139
694.959	17047
695.002	17446
695.044	17157
695.046	17118
695.087	17608
695.130	17925
695.166	18172
695.172	18258
695.215	18690
695.258	19020
695.286	19065
695.301	18926
695.343	18508
695.386	18152
695.406	17948
695.428	18196
695.471	18531
695.514	18708
695.526	18784
695.556	19138
695.599	19633
695.641	19639
695.646	19642
695.684	19550
695.726	19127
695.766	18808
695.769	18863
695.811	18872
695.854	18982
695.886	18917
695.896	18936
695.938	19003
695.981	19040
696.005	18890
696.023	19015
696.065	19314
696.108	19601
696.125	19669
696.150	19854
696.192	20069
696.235	20289
696.245	20325
696.277	20370
696.319	20263
696.361	20097
696.365	20023
696.404	19819
696.446	19795
696.485	19561
696.488	19617
696.530	19690
696.572	19759
696.604	19830
696.614	19938
696.656	20093
696.698	20192
696.724	20242
696.740	20186
696.783	19899
696.825	19620
696.844	19456
696.867	19746
696.909	20133
696.951	20481
696.964	20554
696.992	20574
697.034	20552
697.076	20431
697.083	20368
697.118	20861
697.160	21382
697.202	21818
697.203	21771
697.244	21380
697.286	21080
697.323	20645
697.327	20727
697.369	20932
697.411	21165
697.442	21285
697.453	21483
697.494	22081
697.536	22653
697.562	22936
697.578	23034
697.620	23209
697.661	23264
697.682	23277
697.703	24192
697.744	25832
697.786	27527
697.801	28028
697.828	28108
697.869	28298
697.911	28302
697.921	28247
697.952	26913
697.994	25006
698.035	23158
698.040	22868
698.077	22656
698.118	22335
698.160	22014
698.160	21952
698.201	22155
698.243	22325
698.279	22385
698.284	22496
698.325	22982
698.367	23440
698.399	23743
698.408	23757
698.449	23519
698.491	23285
698.518	23064
698.532	23134
698.573	23143
698.614	23157
698.638	23104
698.656	23196
698.697	23271
698.738	23311
698.757	23279
698.779	23267
698.820	23097
698.862	22957
698.877	22838
698.903	23114
698.944	23448
698.985	23785
698.996	23815
699.026	23553
699.067	23098
699.116	22495
699.235	23656
699.354	22579
699.474	22983
699.593	24031
699.713	24199
699.832	23326
699.951	24772
700.070	22928
700.190	21301
700.309	22692
700.428	23220
700.547	21461
700.667	21318
700.786	22729
700.905	21363
701.024	22097
701.143	21031
701.262	20756
701.381	20628
701.500	22063
701.619	23955
701.738	22021
701.857	19880
701.976	19996
702.095	20167
702.214	22621
702.333	23087
702.452	21401
702.571	20440
702.690	20801
702.809	19846
702.928	19512
703.047	20427
703.165	19404
703.284	18511
703.403	19285
703.522	19497
703.640	20485
703.759	22257
703.878	26421
703.997	20210
704.115	19004
704.234	18648
704.353	19113
704.471	17984
704.590	17849
704.708	17299
704.827	17315
704.946	16620
705.064	17782
705.183	17932
705.301	19626
705.420	24320
705.538	22368
705.656	20033
705.775	19082
705.893	20414
706.012	20668
706.130	19836
706.249	20938
706.367	19287
706.485	21876
706.604	19624
706.722	21431
706.840	24206
706.958	23513
707.077	20393
707.195	18499
707.313	18619
707.431	18441
707.549	18782
707.668	18147
707.786	18392
707.904	18708
708.022	17137
708.140	17430
708.258	17644
708.376	18876
708.494	18277
708.612	19263
708.730	25713
708.848	24804
708.966	23300
709.084	22980
709.202	21853
709.320	20706
709.438	20523
709.556	21647
709.674	20131
709.791	21109
709.909	20167
710.027	20002
710.145	19308
710.263	20118
710.380	19268
710.498	19520
710.616	19897
710.733	18888
710.851	20211
710.969	20443
711.086	19148
711.204	18613
711.322	19734
711.439	19371
711.557	19510
711.674	18767
711.792	18970
711.909	17740
712.027	16840
712.144	17800
712.262	17552
712.379	20022
712.497	23809
712.614	24455
712.732	22034
712.849	20811
712.966	22667
713.084	28518
713.201	22682
713.318	22224
713.436	21436
713.553	21732
713.670	22589
713.787	24240
713.905	23444
714.022	22521
714.139	21784
714.256	27533
714.373	34452
714.490	57918
714.608	140802
714.725	616446
714.842	713915
714.959	57508
715.076	28484
715.193	23327
715.310	22665
715.427	19256
715.544	19809
715.661	19414
715.778	19230
715.895	20401
716.011	20065
716.128	19504
716.245	19098
716.362	22350
716.479	24185
716.596	18080
716.713	17923
716.829	18125
716.946	17888
717.063	16648
717.180	15998
717.296	16400
717.413	16458
717.530	16496
717.646	17433
717.763	17178
717.880	15508
717.996	16466
718.113	18081
718.229	16041
718.346	15333
718.462	16836
718.579	21866
718.695	38028
718.812	26546
718.928	20099
719.045	17232
719.161	15940
719.277	15816
719.394	16434
719.510	15735
719.626	16913
719.743	20452
719.859	27174
719.975	48259
720.092	179992
720.208	461094
720.324	59606
720.440	19721
720.557	20587
720.673	29068
720.789	31761
720.905	49186
721.021	23357
721.137	14412
721.253	15265
721.369	14713
721.486	16569
721.602	20005
721.718	14714
721.834	13398
721.950	13584
722.066	13874
722.181	12997
722.297	14883
722.413	13847
722.529	11697
722.645	12810
722.761	12997
722.877	11915
722.993	12376
723.108	15219
723.224	13991
723.340	13924
723.456	12698
723.571	12577
723.687	11242
723.803	11499
723.918	12807
724.034	11411
724.150	11897
724.265	13135
724.381	20080
724.497	26519
724.612	11281
724.728	11059
724.843	11146
724.959	13323
725.074	21139
725.190	24499
725.305	12611
725.421	12082
725.536	10519
725.651	11962
725.767	11071
725.882	11162
725.997	11462
726.113	11208
726.228	10827
726.343	10173
726.459	9453
726.574	10773
726.689	10857
726.804	10728
726.920	10718
727.035	10244
727.150	10449
727.265	9901
727.380	10770
727.495	10576
727.610	9477
727.725	10525
727.841	10271
727.956	10707
728.071	11893
728.186	10481
728.301	9492
728.416	11267
728.531	10433
728.645	8809
728.760	10438
728.875	12183
728.990	10996
729.105	10604
729.220	11853
729.335	10905
729.449	9690
729.564	9369
729.679	9152
729.794	9327
729.908	10027
730.023	9881
730.138	8637
730.253	8399
730.367	8770
730.482	7760
730.596	9641
730.711	9318
730.826	10706
730.940	10082
731.055	10189
731.169	9795
731.284	8956
731.398	9050
731.513	10566
731.627	9592
731.742	11771
731.856	13217
731.970	12357
732.085	14808
732.199	18456
732.313	29837
732.428	76519
732.542	246611
732.656	158463
732.771	26378
732.885	14974
732.999	14135
733.113	13607
733.227	12908
733.342	11293
733.456	12153
733.570	11450
733.684	10953
733.798	10785
733.912	10647
734.026	10890
734.140	11716
734.254	11338
734.368	14015
734.482	17836
734.596	10777
734.710	10522
734.824	9422
734.938	10410
735.052	10241
735.166	11321
735.280	10329
735.393	10384
735.507	11888
735.621	14004
735.735	17484
735.849	10873
735.962	9614
736.076	10743
736.190	10354
736.303	12505
736.417	13819
736.531	10016
736.644	10077
736.758	8724
736.872	8995
736.985	8823
737.099	8529
737.212	8146
737.326	9202
737.439	9358
737.553	8999
737.666	9892
737.780	8587
737.893	9476
738.007	7463
738.120	8474
738.233	8292
738.347	8952
738.460	8862
738.573	9786
738.687	8775
738.800	9966
738.913	12598
739.026	9243
739.140	7908
739.253	8260
739.366	7545
739.479	7533
739.592	7595
739.705	7688
739.818	8931
739.932	10258
740.045	12149
740.158	8611
740.271	8617
740.384	8146
740.497	8039
740.610	8004
740.723	8526
740.836	8828
740.949	9790
741.062	12113
741.174	9727
741.287	8373
741.400	7814
741.513	7853
741.626	8732
741.739	7873
741.851	8296
741.964	7040
742.077	7795
742.189	7868
742.302	9424
742.415	8484
742.527	7929
742.640	7483
742.753	6895
742.865	7384
742.978	7336
743.090	7318
743.203	7838
743.316	7188
743.428	6572
743.541	7142
743.653	6395
743.766	7350
743.878	6937
743.990	8813
744.103	9601
744.215	6782
744.327	7121
744.440	9683
744.552	15912
744.664	8509
744.777	7002
744.889	6340
745.001	6725
745.113	6700
745.226	6367
745.338	6798
745.450	6467
745.562	7028
745.674	6250
745.786	6683
745.898	6678
746.010	6783
746.122	8655
746.234	11511
746.347	6207
746.459	5655
746.570	5955
746.682	6082
746.794	7452
746.906	6103
747.018	6208
747.130	6055
747.242	5849
747.354	5753
747.466	6668
747.577	5129
747.689	5795
747.801	6112
747.913	5223
748.024	5290
748.136	5110
748.248	5683
748.359	5584
748.471	5790
748.583	5006
748.694	5148
748.806	6024
748.918	6349
749.029	6172
749.141	6626
749.252	7193
749.364	7695
749.475	15956
749.587	9982
749.698	5914
749.809	5852
749.921	5979
750.032	5819
750.144	4368
750.255	5149
750.366	5472
750.478	5512
750.589	6092
750.700	5871
750.811	6458
750.923	7221
751.034	17099
751.145	18913
751.256	6256
751.367	4718
751.479	4826
751.590	5065
751.701	4806
751.812	4956
751.923	4634
752.034	5790
752.145	4891
752.256	4751
752.367	4765
752.478	4186
752.589	4476
752.700	4055
752.811	4105
752.922	4929
753.032	5687
753.143	7380
753.254	4772
753.365	6054
753.476	4808
753.586	4996
753.697	4969
753.808	3886
753.919	4377
754.029	4486
754.140	4722
754.251	4601
754.361	3953
754.472	4939
754.582	4399
754.693	4830
754.804	5047
754.914	4102
755.025	3627
755.135	5377
755.246	4683
755.356	4740
755.466	4554
755.577	4738
755.687	4793
755.798	4018
755.908	4126
756.018	4027
756.129	3591
756.239	4639
756.349	4277
756.460	4988
756.570	5110
756.680	4847
756.790	4643
756.900	5678
757.011	4662
757.121	4824
757.231	4464
757.341	4746
757.451	3983
757.561	4103
757.671	4181
757.781	3456
757.891	4847
758.001	4584
758.111	4571
758.221	5197
758.331	6210
758.441	6549
758.551	8557
758.661	7526
758.771	5992
758.880	5458
758.990	4529
759.100	4775
759.210	4591
759.320	4887
759.429	5157
759.539	5298
759.649	4326
759.758	6805
759.868	6531
759.978	6098
760.087	6441
760.197	6286
760.307	6220
760.416	5044
760.526	5583
760.635	6283
760.745	6264
760.854	6341
760.964	7382
761.073	7519
761.182	6633
761.292	5070
761.401	5623
761.511	5356
761.620	5207
761.729	4571
761.839	5076
761.948	5146
762.057	4715
762.166	4797
762.276	4049
762.385	4875
762.494	4366
762.603	3588
762.712	4480
762.822	3498
762.931	4101
763.040	3768
763.149	3726
763.258	4073
763.367	4813
763.476	2930
763.585	4078
763.694	4259
763.803	5120
763.912	4146
764.021	4133
764.130	3707
764.238	4694
764.347	5082
764.456	4124
764.565	4856
764.674	4233
764.783	3907
764.891	3747
765.000	5278
765.109	5023
765.217	4855
765.326	6011
765.435	6609
765.543	5730
765.652	6405
765.761	6375
765.869	9753
765.978	10835
766.086	19203
766.195	36066
766.303	97421
766.412	351908
766.520	353998
766.629	52988
766.737	18052
766.846	11935
766.954	9053
767.062	8167
767.171	6862
767.279	6199
767.387	5902
767.496	6408
767.604	5459
767.712	5379
767.820	5431
767.928	4869
768.037	4447
768.145	5016
768.253	4660
768.361	4434
768.469	4981
768.577	3911
768.685	4201
768.793	4325
768.901	4463
769.009	5441
769.117	4873
769.225	5269
769.333	7142
769.441	10061
769.549	16124
769.657	33096
769.765	121084
769.873	343846
769.981	98465
770.088	14759
770.196	8416
770.304	7686
770.412	6103
770.519	6799
770.627	4890
770.735	4877
770.842	4744
770.950	5749
771.058	5558
771.165	5676
771.273	5539
771.380	4664
771.488	5999
771.595	6282
771.703	6098
771.810	6164
771.918	5268
772.025	5810
772.133	6094
772.240	6264
772.348	7804
772.455	6559
772.562	6251
772.670	6091
772.777	7107
772.884	5919
772.991	6191
773.099	6246
773.206	4774
773.313	5633
773.420	5430
773.528	4744
773.635	5991
773.742	6160
773.849	5432
773.956	4897
774.063	5321
774.170	5303
774.277	6655
774.384	5598
774.491	5603
774.598	6410
774.705	6485
774.812	8079
774.919	7132
775.026	6211
775.133	5867
775.239	5202
775.346	5339
775.453	4793
775.560	5490
775.667	5562
775.773	5003
775.880	5572
775.987	4691
776.093	5820
776.200	5025
776.307	4036
776.413	5286
776.520	5145
776.627	4793
776.733	5427
776.840	4859
776.946	6909
777.053	4836
777.159	5412
777.266	4585
777.372	5766
777.478	5267
777.585	5576
777.691	4647
777.798	4952
777.904	6101
778.010	7825
778.117	7397
778.223	5238
778.329	4296
778.435	4367
778.542	5666
778.648	4265
778.754	4445
778.860	5766
778.966	4790
779.072	4763
779.178	5213
779.284	4126
779.391	4104
779.497	4155
779.603	5301
779.708	3984
779.815	4824
779.920	6503
780.026	9176
780.132	4355
780.238	4174
780.344	3508
780.450	4670
780.556	3821
780.661	4130
780.767	3720
780.873	2885
780.979	4215
781.085	4211
781.190	4590
781.296	3198
781.402	3408
781.507	3816
781.613	3778
781.719	3350
781.824	4184
781.930	4576
782.035	4856
782.141	4152
782.246	4266
782.352	3701
782.457	4197
782.563	3030
782.668	3026
782.773	3852
782.879	3535
782.984	3887
783.090	5304
783.195	8149
783.300	5927
783.405	3532
783.511	3663
783.616	4156
783.721	4193
783.826	4201
783.932	3648
784.037	3669
784.142	3800
784.247	3427
784.352	3726
784.457	3621
784.562	3782
784.667	3390
784.772	3827
784.877	3551
784.982	2653
785.087	3410
785.192	3983
785.297	3846
785.402	3428
785.507	3343
785.611	3924
785.716	3303
785.821	3204
785.926	3170
786.031	3689
786.135	3797
786.240	3088
786.345	1971
786.450	3761
786.554	3190
786.659	3237
786.763	3152
786.868	3973
786.973	3715
787.077	2638
787.182	3280
787.286	3197
787.391	2968
787.495	2820
787.600	2950
787.704	2710
787.809	3525
787.913	3206
788.017	2774
788.122	3097
788.226	2869
788.330	3104
788.435	3596
788.539	3336
788.643	2193
788.747	2140
788.852	3285
788.956	2696
789.060	3124
789.164	2571
789.268	1275
789.372	2684
789.476	2750
789.580	2452
789.684	2071
789.788	3236
789.892	3048
789.996	3048
790.100	2914
790.204	2966
790.308	3261
790.412	2776
790.516	2606
790.620	2138
790.724	2924
790.828	2669
790.931	2512
791.035	4372
791.139	2812
791.242	2531
791.346	3823
791.450	2232
791.554	2946
791.657	2100
791.761	3570
791.864	2635
791.968	3668
792.072	2864
792.175	2843
792.279	2721
792.382	1825
792.486	2900
792.589	2738
792.693	2712
792.796	1707
792.899	3569
793.003	2959
793.106	1905
793.209	2541
793.313	3838
793.416	926
793.519	4683
793.623	5146
793.726	8262
793.829	3182
793.932	3253
794.035	2223
794.138	3441
794.242	4169
794.345	3482
794.448	4341
794.551	5727
794.654	6868
794.757	4845
794.860	4348
794.963	2971
795.066	1982
795.169	2951
795.272	1964
795.375	1828
795.477	1707
795.580	2291
795.683	1374
795.786	2972
795.889	1891
795.991	3190
796.094	2590
796.197	2183
796.300	2852
796.402	1787
796.505	1661
796.608	2911
796.710	2341
796.813	1982
796.915	1907
797.018	3016
797.120	2996
797.223	955
797.326	2642
797.428	1629
797.530	1414
797.633	2484
797.735	2463
797.838	3715
797.940	3841
798.042	1483
798.145	1753
798.247	1628
798.349	1257
798.452	2328
798.554	2625
798.656	1739
798.758	3069
798.860	1651
798.962	1473
799.065	863
799.167	1365
799.269	3051
799.371	3321
799.473	3120
799.575	3205
799.677	3151
799.779	3592
799.881	6148
799.983	4073
800.085	2067
800.187	1732
800.289	1414
800.390	2227
800.492	2045
800.594	3671
800.696	1409
800.798	2090
800.899	1784
801.001	1524
801.103	1894
801.205	1147
801.306	1450
801.408	1051
801.509	2026
801.611	2589
801.713	2145
801.814	1573
801.916	974
802.017	1207
802.119	833
802.220	1809
802.322	775
802.423	3109
802.525	575
802.626	1805
802.727	1821
802.829	2358
802.930	102
803.031	2480
803.133	1069
803.234	1784
803.335	1770
803.436	958
803.538	2230
803.639	224
803.740	1845
803.841	770
803.942	2662
804.043	1414
804.144	1037
804.245	2035
804.346	2344
804.447	2072
804.548	3090
804.649	4267
804.750	1562
804.851	969
804.952	830
805.053	1714
805.154	1083
805.255	1776
805.355	1659
805.456	1611
805.557	898
805.658	1060
805.758	1262
805.859	889
805.960	1863
806.061	399
806.161	1600
806.262	1390
806.362	1333
806.463	1546
806.564	2560
806.664	1414
806.765	1557
806.865	1988
806.966	2044
807.066	414
807.166	2241
807.267	1101
807.367	692
807.468	1445
807.568	127
807.668	1831
807.769	2800
807.869	422
807.969	1231
808.069	1748
808.170	2063
808.270	646
808.370	1379
808.470	2970
808.570	2308
808.670	1021
808.770	2112
808.870	1246
808.970	1589
809.070	1189
809.170	-266
809.271	1490
809.370	1633
809.470	1044
809.570	612
809.670	1005
809.770	1044
809.870	2186
809.970	1943
810.070	1358
810.169	1368
810.269	-457
810.369	1999
810.469	668
810.568	913
810.668	828
810.768	1124
810.867	1581
810.967	910
811.066	1081
811.166	402
811.265	1340
811.365	1104
811.464	1208
811.564	1014
811.663	2143
811.763	716
811.862	1675
811.962	1994
812.061	1309
812.160	654
812.260	421
812.359	2532
812.458	3549
812.557	11075
812.657	17939
812.756	5580
812.855	1136
812.954	976
813.053	1645
813.153	1912
813.252	1310
813.351	1403
813.450	1907
813.549	767
813.648	849
813.747	1036
813.846	2182
813.945	718
814.044	1254
814.143	1631
814.242	2466
814.341	791
814.439	1110
814.538	1949
814.637	1588
814.736	1044
814.835	1890
814.933	1599
815.032	2496
815.131	2245
815.229	2832
815.328	4488
815.427	3017
815.525	3104
815.624	3894
815.722	2405
815.821	3131
815.919	3557
816.018	2530
816.116	3159
816.215	2745
816.313	3721
816.412	3791
816.510	4457
816.609	3870
816.707	5003
816.805	3598
816.904	4034
817.002	4794
817.100	6239
817.198	5777
817.296	6029
817.395	4908
817.493	6750
817.591	5639
817.689	9278
817.787	10115
817.885	15776
817.983	27100
818.081	58015
818.179	137490
818.277	347812
818.375	327337
818.473	88961
818.571	32679
818.669	21928
818.767	19198
818.865	18690
818.963	21940
819.061	31038
819.158	52832
819.256	112509
819.354	254510
819.452	553359
819.549	393910
819.647	114725
819.745	44487
819.842	27312
819.940	18960
820.038	13711
820.135	11397
820.233	9444
820.330	7093
820.428	6466
820.525	7043
820.623	5541
820.720	4386
820.818	5585
820.915	5040
821.012	4205
821.110	2683
821.207	4024
821.304	3589
821.402	3629
821.499	4491
821.596	3687
821.693	3820
821.791	4249
821.888	4383
821.985	10918
822.082	8414
822.179	3988
822.276	2798
822.373	2490
822.470	2527
822.567	3075
822.664	2242
822.761	3312
822.858	2151
822.955	3140
823.052	2032
823.149	2363
823.246	2147
823.343	3062
823.440	2043
823.536	2170
823.633	2170
823.730	1682
823.827	2048
823.923	2230
824.020	2641
824.117	2198
824.213	1848
824.310	2779
824.407	1599
824.503	1820
824.600	2762
824.696	1433
824.793	2713
824.889	1641
824.986	1329
825.082	1996
825.179	1151
825.275	2220
825.371	1910
825.468	2132
825.564	967
825.660	2263
825.757	1929
825.853	2717
825.949	1115
826.045	822
826.142	1496
826.238	1584
826.334	1433
826.430	1086
826.526	1060
826.622	1146
826.718	2394
826.814	1478
826.910	2324
827.006	505
827.102	1089
827.198	2157
827.294	1445
827.390	1571
827.486	1763
827.582	557
827.678	256
827.774	2195
827.869	756
827.965	1782
828.061	671
828.157	1693
828.252	1646
828.348	179
828.444	1436
828.539	644
828.635	1943
828.731	2635
828.826	547
828.922	1098
829.017	1497
829.113	1987
829.208	1576
829.304	1801
829.399	3379
829.495	1066
829.590	1419
829.685	952
829.781	1716
829.876	344
829.971	524
830.066	280
830.162	1187
830.257	1365
830.352	1745
830.447	1486
830.543	1502
830.638	636
830.733	1493
830.828	1339
830.923	1432
831.018	599
831.113	1729
831.208	570
831.303	953
831.398	1202
831.493	695
831.588	1822
831.683	155
831.778	1381
831.873	1099
831.967	1619
832.062	513
832.157	16
832.252	1624
832.346	643
832.441	2622
832.536	4069
832.631	8026
832.725	8003
832.820	578
832.914	533
833.009	947
833.104	1492
833.198	2763
833.293	1008
833.387	1203
833.482	401
833.576	1090
833.670	1115
833.765	1390
833.859	1410
833.954	2348
834.048	1072
834.142	1149
834.237	1607
834.331	1492
834.425	1322
834.519	191
834.613	1361
834.708	160
834.802	487
834.896	304
834.990	409
835.084	1573
835.178	764
835.272	847
835.366	503
835.460	1510
835.554	1190
835.648	873
835.742	-436
835.836	926
835.930	-92
836.024	1210
836.117	1468
836.211	1442
836.305	1997
836.399	2335
836.493	-135
836.586	1217
836.680	-51
836.774	227
836.867	1658
836.961	198
837.055	1023
837.148	97
837.242	802
837.335	915
837.429	648
837.522	1197
837.616	959
837.709	2643
837.803	1588
837.896	675
837.989	717
838.083	1339
838.176	2132
838.269	3133
838.363	1493
838.456	904
838.549	3127
838.642	4101
838.735	9960
838.829	3657
838.922	637
839.015	978
839.108	622
839.201	572
839.294	792
839.387	1017
839.480	-229
839.573	1088
839.666	1630
839.759	1306
839.852	-795
839.945	1133
840.038	-214
840.131	-12
840.223	1173
840.316	749
840.409	274
840.502	269
840.594	1994
840.687	-627
840.780	1244
840.873	739
840.965	1024
841.058	1041
841.150	2649
841.243	1200
841.336	1144
841.428	454
841.521	587
841.613	725
841.706	381
841.798	468
841.890	461
841.983	-674
842.075	1008
842.167	-24
842.260	564
842.352	1490
842.444	1198
842.537	2465
842.629	4543
842.721	854
842.813	587
842.905	450
842.997	1015
843.090	860
843.182	2166
843.274	2709
843.366	6821
843.458	13636
843.550	8943
843.642	1456
843.734	1031
843.826	1294
843.918	388
844.009	1486
844.101	560
844.193	278
844.285	574
844.377	539
844.469	990
844.560	88
844.652	589
844.744	1031
844.835	500
844.927	354
845.019	553
845.110	1288
845.202	554
845.293	155
845.385	267
845.476	-421
845.568	1558
845.659	1242
845.751	921
845.842	60
845.934	132
846.025	176
846.116	458
846.208	141
846.299	544
846.390	484
846.482	1164
846.573	1173
846.664	1438
846.755	1986
846.846	3434
846.937	-626
847.029	-212
847.120	-277
847.211	554
847.302	1133
847.393	-397
847.484	434
847.575	-355
847.666	478
847.757	624
847.847	617
847.938	430
848.029	982
848.120	542
848.211	104
848.302	-86
848.392	-127
848.483	513
848.574	-64
848.664	-174
848.755	449
848.846	473
848.936	331
849.027	882
849.118	342
849.208	396
849.299	1820
849.389	3340
849.480	8103
849.570	17640
849.661	31950
849.751	60226
849.841	22525
849.932	2214
850.022	1233
850.112	401
850.203	711
850.293	476
850.383	936
850.474	-327
850.564	-59
850.654	117
850.744	-467
850.834	501
850.924	80
851.014	297
851.104	214
851.194	403
851.284	1259
851.374	2192
851.464	708
851.554	946
851.644	13
851.734	1033
851.824	440
851.914	-744
852.004	544
852.094	-226
852.183	350
852.273	447
852.363	482
852.452	1028
852.542	814
852.632	-555
852.721	217
852.811	20
852.901	742
852.990	900
853.080	1032
853.169	1039
853.259	65
853.348	680
853.438	2478
853.527	2983
853.617	5472
853.706	11027
853.795	19757
853.885	46875
853.974	89832
854.063	158754
854.152	269513
854.242	114119
854.331	19477
854.420	7242
854.509	4398
854.598	4061
854.687	2238
854.777	3180
854.866	2488
854.955	2175
855.044	543
855.133	1447
855.222	888
855.311	216
855.400	886
855.488	-10
855.577	825
855.666	1257
855.755	463
855.844	957
855.933	-388
856.021	275
856.110	561
856.199	243
856.288	-86
856.376	251
856.465	-812
856.554	248
856.642	345
856.731	166
856.819	-4
856.908	887
856.996	-550
857.085	-147
857.173	-42
857.262	407
857.350	-376
857.438	-216
857.527	-264
857.615	-63
857.703	518
857.792	-1220
857.880	742
857.968	-668
858.056	-99
858.145	67
858.233	118
858.321	-22
858.409	416
858.497	-326
858.585	-277
858.673	14
858.761	411
858.849	160
858.937	-471
859.025	-705
859.113	62
859.201	-859
859.289	1214
859.377	312
859.465	-76
859.552	-899
859.640	85
859.728	892
859.816	558
859.903	-364
859.991	-708
860.079	181
860.166	-831
860.254	-921
860.342	678
860.429	176
860.517	-448
860.604	708
860.692	344
860.779	27
860.867	-728
860.954	162
861.042	113
861.129	834
861.216	186
861.304	148
861.391	-134
861.478	93
861.565	148
861.653	910
861.740	-348
861.827	-29
861.914	109
862.001	-99
862.089	34
862.176	-229
862.263	-344
862.350	-381
862.437	48
862.524	-334
862.611	-247
862.698	941
862.785	-199
862.871	80
862.958	851
863.045	604
863.132	-275
863.219	-121
863.306	-1367
863.392	207
863.479	-177
863.566	-148
863.652	374
863.739	69
863.826	762
863.912	383
863.999	-396
864.086	672
864.172	-682
864.259	487
864.345	-106
864.432	400
864.518	-23
864.604	-331
864.691	-300
864.777	835
864.863	933
864.950	1261
865.036	954
865.122	2700
865.209	3434
865.295	2074
865.381	3003
865.467	3295
865.553	4336
865.639	6238
865.726	11627
865.812	24509
865.898	48942
865.984	72110
866.070	129132
866.156	157437
866.242	45117
866.328	9174
866.414	4953
866.499	4217
866.585	3379
866.671	3590
866.757	2843
866.843	3363
866.928	1998
867.014	1793
867.100	2448
867.186	2010
867.271	2590
867.357	3861
867.442	2859
867.528	2139
867.614	1055
867.699	2303
867.785	2105
867.870	1309
867.956	1076
868.041	1531
868.127	1984
868.212	1874
868.297	1753
868.383	1754
868.468	2946
868.553	5461
868.639	5813
868.724	11576
868.809	11879
868.894	2908
868.979	1300
869.065	1688
869.150	300
869.235	1099
869.320	1270
869.405	105
869.490	873
869.575	930
869.660	1397
869.745	1320
869.830	872
869.915	730
870.000	1016
870.085	860
870.169	1481
870.254	1192
870.339	575
870.424	470
870.509	1830
870.593	1312
870.678	1493
870.763	771
870.847	1397
870.932	851
871.016	999
871.101	701
871.186	1117
871.270	1797
871.355	45
871.439	1106
871.523	621
871.608	937
871.692	1117
871.777	1355
871.861	1037
871.945	984
872.030	640
872.114	330
872.198	208
872.282	899
872.367	801
872.451	163
872.535	306
872.619	865
872.703	-48
872.787	530
872.871	483
872.955	1100
873.039	-665
873.123	568
873.207	1783
873.291	627
873.375	229
873.459	1214
873.543	632
873.627	674
873.711	159
873.794	85
873.878	-46
873.962	-135
874.045	119
874.129	67
874.137	135
874.213	812
874.245	511
874.296	16
874.352	444
874.380	666
874.460	202
874.464	182
874.547	-65
874.568	113
874.631	664
874.676	620
874.714	577
874.784	549
874.798	545
874.881	1036
874.892	927
874.965	155
874.999	468
875.048	918
875.107	205
875.131	-105
875.215	842
875.215	841
875.298	-289
875.323	-227
875.381	-38
875.430	507
875.465	873
875.538	1029
875.548	1042
875.631	539
875.646	481
875.714	227
875.753	141
875.798	65
875.861	315
875.881	378
875.964	201
875.968	192
876.047	232
876.076	470
876.130	760
876.183	952
876.213	1090
876.291	1173
876.296	1179
876.379	146
876.398	117
876.462	25
876.506	-8
876.545	-68
876.613	569
876.628	701
876.711	318
876.721	356
876.794	820
876.828	645
876.877	346
876.935	455
876.960	463
877.043	499
877.043	499
877.125	552
877.150	713
877.208	1078
877.258	957
877.291	850
877.365	152
877.374	96
877.456	671
877.472	722
877.539	650
877.579	762
877.622	962
877.687	902
877.704	896
877.787	848
877.794	797
877.869	132
877.901	281
877.952	620
878.008	692
878.034	697
878.115	577
878.117	572
878.199	298
878.222	197
878.282	113
878.329	518
878.364	822
878.437	439
878.447	347
878.529	-281
878.544	-304
878.611	-198
878.651	-14
878.694	291
878.758	641
878.776	691
878.858	532
878.865	502
878.941	10
878.972	-101
879.023	-224
879.078	73
879.105	346
879.185	1297
879.187	1307
879.269	1121
879.292	910
879.351	315
879.399	28
879.433	-5
879.506	234
879.516	236
879.598	453
879.613	401
879.680	376
879.720	670
879.762	947
879.827	1090
879.844	1066
879.926	738
879.933	754
880.007	1144
880.040	1145
880.089	1182
880.147	2589
880.171	3249
880.253	7097
880.254	7123
880.335	9978
880.360	10615
880.417	13264
880.467	19698
880.499	24032
880.574	30460
880.580	30442
880.662	10514
880.680	8128
880.744	2254
880.787	1377
880.825	875
880.893	574
880.907	533
880.989	374
881.000	276
881.070	57
881.106	339
881.152	520
881.213	322
881.233	272
881.315	423
881.319	422
881.396	539
881.426	458
881.478	316
881.532	760
881.559	964
881.639	536
881.641	522
881.722	668
881.745	457
881.803	222
881.852	592
881.885	806
881.958	1040
881.966	1041
882.047	1004
882.064	924
882.129	858
882.171	1123
882.210	1491
882.277	2501
882.291	2579
882.372	1255
882.383	1036
882.454	-114
882.489	210
882.535	601
882.596	239
882.616	264
882.697	275
882.702	313
882.778	268
882.808	176
882.859	195
882.914	-38
882.940	-36
883.020	609
883.021	612
883.102	282
883.127	154
883.183	255
883.233	320
883.264	276
883.339	355
883.345	336
883.426	-348
883.445	-410
883.507	236
883.551	803
883.587	900
883.657	578
883.668	561
883.749	448
883.763	461
883.830	433
883.869	299
883.910	125
883.975	307
883.991	383
884.072	487
884.081	474
884.152	491
884.187	494
884.233	520
884.292	709
884.314	716
884.394	213
884.398	213
884.475	321
884.504	297
884.555	405
884.610	375
884.636	196
884.716	-108
884.716	-100
884.797	574
884.821	816
884.877	715
884.927	309
884.958	249
885.033	408
885.038	379
885.118	-142
885.139	-264
885.199	96
885.244	385
885.279	755
885.350	1241
885.359	1171
885.439	774
885.456	606
885.520	633
885.561	904
885.600	673
885.667	12
885.680	82
885.760	564
885.773	653
885.840	92
885.878	-266
885.920	-127
885.984	57
886.000	86
886.080	339
886.089	345
886.160	209
886.195	135
886.240	211
886.300	486
886.320	527
886.400	594
886.406	589
886.480	318
886.511	222
886.560	434
886.616	700
886.640	775
886.720	915
886.722	913
886.800	599
886.827	558
886.879	550
886.932	488
886.959	623
887.038	955
887.039	960
887.119	991
887.143	1073
887.198	1051
887.248	864
887.278	622
887.354	-90
887.358	-87
887.437	61
887.459	92
887.517	212
887.564	365
887.596	567
887.669	937
887.676	878
887.755	77
887.774	-112
887.835	28
887.880	172
887.914	335
887.985	584
887.994	569
888.073	375
888.090	363
888.153	505
888.195	495
888.232	417
888.300	354
888.311	422
888.391	847
888.405	926
888.470	1124
888.510	1210
888.549	997
888.615	702
888.628	747
888.708	885
888.720	910
888.787	533
888.825	294
888.866	549
888.930	965
888.945	905
889.024	539
889.035	493
889.103	690
889.140	754
889.182	586
889.245	384
889.261	425
889.340	565
889.349	582
889.419	472
889.454	413
889.498	111
889.559	-297
889.577	-171
889.656	384
889.664	440
889.735	569
889.768	629
889.814	581
889.873	517
889.978	97
890.083	56
890.187	617
890.292	779
890.397	-87
890.501	1143
890.606	550
890.710	315
890.815	1176
890.919	780
891.024	740
891.128	1338
891.233	63
891.337	872
891.442	462
891.546	750
891.650	205
891.755	993
891.859	1004
891.963	442
892.068	441
892.172	590
892.276	-58
892.380	571
892.484	1297
892.589	706
892.693	350
892.797	290
892.901	206
893.005	-466
893.109	340
893.213	462
893.317	1094
893.421	520
893.525	-506
893.629	254
893.733	839
893.837	275
893.941	830
894.045	1275
894.148	629
894.252	449
894.356	367
894.460	1500
894.564	521
894.667	1180
894.771	-124
894.875	-522
894.978	694
895.082	469
895.186	1335
895.289	1612
895.393	89
895.496	1016
895.600	189
895.703	52
895.807	1077
895.910	1328
896.014	186
896.117	715
896.221	515
896.324	618
896.427	217
896.531	229
896.634	325
896.737	23
896.840	109
896.944	861
897.047	625
897.150	331
897.253	-5
897.356	679
897.460	388
897.563	308
897.666	1281
897.769	239
897.872	574
897.975	-435
898.078	44
898.181	827
898.284	783
898.387	646
898.490	278
898.593	992
898.695	183
898.798	418
898.901	492
899.004	608
899.107	595
899.209	1646
899.312	527
899.415	360
899.518	677
899.620	456
899.723	544
899.826	273
899.928	1563
900.031	483
900.133	-347
900.236	324
900.338	694
900.441	927
900.543	935
900.646	748
900.748	798
900.851	565
900.953	686
901.055	1070
901.158	101
901.260	417
901.362	890
901.465	630
901.567	350
901.669	1123
901.771	-442
901.873	145
901.976	259
902.078	334
902.180	410
902.282	131
902.384	447
902.486	287
902.588	170
902.690	836
902.792	770
902.894	922
902.996	596
903.098	712
903.200	-623
903.302	844
903.404	369
903.505	151
903.607	59
903.709	283
903.811	144
903.913	707
904.014	479
904.116	-61
904.218	443
904.319	486
904.421	874
904.523	140
904.624	650
904.726	547
904.827	908
904.929	173
905.030	112
905.132	346
905.233	623
905.335	78
905.436	-68
905.537	-186
905.639	218
905.740	756
905.841	672
905.943	572
906.044	-134
906.145	196
906.247	145
906.348	251
906.449	341
906.550	251
906.651	950
906.752	495
906.854	463
906.955	759
907.056	157
907.157	205
907.258	438
907.359	358
907.460	65
907.561	474
907.662	431
907.762	17
907.863	199
907.964	1078
908.065	505
908.166	162
908.267	529
908.367	1076
908.468	186
908.569	365
908.670	1078
908.770	682
908.871	344
908.971	334
909.072	727
909.173	707
909.273	587
909.374	-10
909.474	336
909.575	-393
909.675	623
909.776	610
909.876	-70
909.977	152
910.077	950
910.177	-257
910.278	-519
910.378	-557
910.478	-436
910.579	1079
910.679	417
910.779	462
910.879	-55
910.980	-336
911.080	-292
911.180	570
911.280	270
911.380	419
911.480	218
911.580	321
911.680	114
911.780	548
911.880	278
911.980	-176
912.080	652
912.180	501
912.280	255
912.380	197
912.480	260
912.580	-35
912.679	166
912.779	1188
912.879	249
912.979	496
913.078	-89
913.178	747
913.278	-761
913.377	429
913.477	433
913.577	247
913.676	349
913.776	645
913.875	438
913.975	-150
914.074	-50
914.174	20
914.273	-523
914.373	523
914.472	622
914.572	513
914.671	-130
914.770	-452
914.870	-202
914.969	190
915.068	-211
915.167	1130
915.267	-256
915.366	64
915.465	-394
915.564	384
915.663	-179
915.763	562
915.862	829
915.961	-78
916.060	-560
916.159	-63
916.258	148
916.357	494
916.456	278
916.555	501
916.654	-415
916.752	250
916.851	1216
916.950	802
917.049	12
917.148	-210
917.247	-34
917.345	466
917.444	697
917.543	121
917.642	891
917.740	208
917.839	804
917.937	480
918.036	536
918.135	217
918.233	-317
918.332	912
918.430	-113
918.529	-214
918.627	-366
918.726	-51
918.824	352
918.923	250
919.021	70
919.119	-135
919.218	27
919.316	72
919.414	87
919.512	62
919.611	1164
919.709	-69
919.807	794
919.905	-269
920.003	466
920.102	263
920.200	413
920.298	839
920.396	1530
920.494	-218
920.592	-177
920.690	863
920.788	-133
920.886	8
920.984	517
921.082	364
921.180	1148
921.277	827
921.375	1000
921.473	512
921.571	761
921.669	841
921.766	567
921.864	764
921.962	27
922.060	131
922.157	1158
922.255	875
922.352	457
922.450	1273
922.548	334
922.645	1213
922.743	1431
922.840	2145
922.938	1728
923.035	2519
923.133	2429
923.230	2165
923.327	3145
923.425	3202
923.522	2629
923.619	2812
923.717	1809
923.814	2627
923.911	2172
924.008	3135
924.106	2419
924.203	2230
924.300	2001
924.397	2308
924.494	2391
924.591	2699
924.688	1486
924.786	2118
924.883	2989
924.979	2349
925.077	1970
925.173	2136
925.270	1995
925.367	2737
925.464	3059
925.561	2115
925.658	2685
925.755	2841
925.852	2740
925.948	2148
926.045	2515
926.142	1750
926.239	2347
926.335	1604
926.432	1697
926.529	1865
926.625	2232
926.722	1314
926.818	1439
926.915	2029
927.011	1953
927.108	2149
927.204	1393
927.301	1637
927.397	2367
927.494	1173
927.590	1124
927.687	1116
927.783	2255
927.879	2172
927.976	684
928.072	2277
928.168	1545
928.264	1946
928.361	1950
928.457	1547
928.553	1934
928.649	1356
928.745	1397
928.841	1893
928.937	1311
929.033	1549
929.129	1974
929.225	1888
929.321	819
929.417	1076
929.513	1865
929.609	1802
929.705	730
929.801	1245
929.897	1451
929.993	1940
930.089	1439
930.184	1688
930.280	1938
930.376	2186
930.471	1124
930.567	1386
930.663	1169
930.758	814
930.854	1075
930.950	1067
931.045	748
931.141	1476
931.236	1764
931.332	1481
931.427	1355
931.523	2292
931.618	1376
931.714	805
931.809	1201
931.905	2140
932.000	1050
932.095	928
932.191	635
932.286	2235
932.381	1107
932.476	1419
932.572	687
932.667	1436
932.762	626
932.857	1236
932.952	984
933.047	688
933.142	1593
933.237	1635
933.332	974
933.427	1545
933.522	932
933.617	1164
933.712	1618
933.807	2086
933.902	1984
933.997	1116
934.092	326
934.187	1473
934.282	1598
934.376	1439
934.471	1146
934.566	1496
934.661	693
934.755	1853
934.850	1196
934.945	455
935.039	929
935.134	918
935.228	824
935.323	1839
935.417	843
935.512	482
935.606	674
935.701	626
935.795	1286
935.890	412
935.984	1023
936.079	478
936.173	717
936.267	41
936.362	1209
936.456	353
936.550	1946
936.644	1362
936.738	679
936.833	725
936.927	957
937.021	1186
937.115	1119
937.209	566
937.303	1966
937.397	906
937.491	588
937.585	984
937.679	802
937.773	803
937.867	325
937.961	-250
938.055	1660
938.149	1546
938.243	684
938.337	490
938.430	956
938.524	1624
938.618	810
938.712	757
938.805	1023
938.899	817
938.993	1458
939.086	365
939.180	929
939.274	1009
939.367	733
939.461	1327
939.554	1011
939.648	-194
939.741	337
939.835	1027
939.928	730
940.022	388
940.115	760
940.208	1491
940.302	1453
940.395	1194
940.488	231
940.582	1066
940.675	199
940.768	427
940.861	928
940.954	995
941.048	258
941.141	606
941.234	483
941.327	1507
941.420	1091
941.513	738
941.606	619
941.699	725
941.792	425
941.885	1042
941.978	2263
942.071	613
942.164	256
942.257	207
942.349	352
942.442	278
942.535	131
942.628	551
942.721	648
942.813	-272
942.906	1323
942.999	-444
943.091	330
943.184	694
943.277	395
943.369	529
943.462	750
943.554	1101
943.647	479
943.739	1110
943.832	564
943.924	57
944.017	909
944.109	-212
944.201	475
944.294	1186
944.386	208
944.478	38
944.571	-335
944.663	685
944.755	647
944.847	1105
944.940	419
945.032	570
945.124	415
945.216	1309
945.308	152
945.400	959
945.492	787
945.584	336
945.676	1005
945.768	646
945.860	1176
945.952	644
946.044	946
946.136	-412
946.228	391
946.320	337
946.412	195
946.503	923
946.595	1192
946.687	359
946.779	-378
946.870	544
946.962	-729
947.054	833
947.145	877
947.237	150
947.329	487
947.420	482
947.512	683
947.603	316
947.695	905
947.786	1
947.878	305
947.969	-13
948.061	711
948.152	-90
948.243	-558
948.335	-71
948.426	330
948.517	198
948.609	190
948.700	-348
948.791	236
948.882	414
948.973	-319
949.065	641
949.156	-66
949.247	935
949.338	483
949.429	329
949.520	-460
949.611	-401
949.702	298
949.793	972
949.884	424
949.975	186
950.066	-435
950.157	-233
950.247	-316
950.338	-20
950.429	-59
950.520	832
950.611	484
950.701	-308
950.792	-253
950.883	104
950.973	-68
951.064	887
951.155	-137
951.245	896
951.336	-281
951.427	25
951.517	262
951.608	976
951.698	-66
951.788	618
951.879	-254
951.969	210
952.060	-132
952.150	75
952.240	63
952.331	-619
952.421	1925
952.511	-784
952.602	309
952.692	-1
952.782	48
952.872	74
952.962	113
953.052	-112
953.143	-600
953.233	176
953.323	-893
953.413	-414
953.503	-165
953.593	-183
953.683	338
953.773	-892
953.863	437
953.953	-402
954.042	-55
954.132	77
954.222	558
954.312	-609
954.402	153
954.492	-147
954.581	587
954.671	-54
954.761	159
954.850	811
954.940	-321
955.030	254
955.119	-329
955.209	-95
955.298	-286
955.388	-102
955.477	860
955.567	-256
955.656	637
955.746	1135
955.835	-281
955.925	-202
956.014	-852
956.103	-48
956.193	1061
956.282	236
956.371	311
956.461	-379
956.550	-465
956.639	417
956.728	-901
956.817	834
956.906	-278
956.995	897
957.085	-141
957.174	-100
957.263	-269
957.352	397
957.441	-144
957.530	-368
957.619	-128
957.708	361
957.796	-1092
957.885	-41
957.974	-578
958.063	45
958.152	-1178
958.241	-68
958.329	-462
958.418	-244
958.507	-1254
958.596	-142
958.684	-475
958.773	-125
958.861	-422
958.950	90
959.039	428
959.127	-540
959.216	-327
959.304	26
959.393	379
959.481	-441
959.570	-58
959.658	-555
959.746	-151
959.835	-807
959.923	188
960.011	-877
960.100	340
960.188	138
960.276	-718
960.365	-364
960.453	-149
960.541	-148
960.629	-72
960.717	-455
960.805	-121
960.893	-229
960.981	-664
961.069	754
961.158	192
961.245	104
961.333	446
961.421	-538
961.509	-269
961.597	974
961.685	-319
961.773	59
961.861	-286
961.949	174
962.036	-498
962.124	290
962.212	26
962.299	-244
962.387	-504
962.475	440
962.562	-863
962.650	-58
962.738	-374
962.825	117
962.913	366
963.000	-799
963.088	188
963.175	-620
963.263	-527
963.350	-24
963.438	246
963.525	-214
963.612	280
963.700	638
963.787	2343
963.874	339
963.962	-48
964.049	-126
964.136	169
964.223	-302
964.310	-915
964.398	-1094
964.485	-996
964.572	408
964.659	117
964.746	-928
964.833	121
964.920	-215
965.007	-98
965.094	70
965.181	-585
965.268	-570
965.355	-197
965.441	337
965.528	-1121
965.615	418
965.702	-550
965.789	-511
965.875	-111
965.962	121
966.049	-791
966.136	-374
966.222	-1220
966.309	79
966.395	-1045
966.482	-611
966.569	-416
966.655	8
966.742	-1028
966.828	-756
966.915	-929
967.001	-1091
967.087	-91
967.174	-1086
967.260	-202
967.347	-464
967.433	112
967.519	1791
967.605	590
967.692	-94
967.778	-468
967.864	-299
967.950	-723
968.036	149
968.123	-302
968.209	-390
968.295	-1030
968.381	591
968.467	324
968.553	-853
968.639	10
968.725	-1060
968.811	-482
968.897	-305
968.983	-1238
969.069	-839
969.154	274
969.240	31
969.326	-395
969.412	-685
969.497	-821
969.583	-782
969.669	220
969.755	193
969.840	-1094
969.926	-287
970.012	-1370
970.097	381
970.183	-100
970.268	255
970.354	-1099
970.439	-601
970.525	1056
970.610	-664
970.696	40
970.781	289
970.866	-525
970.952	161
971.037	-1290
971.122	-641
971.208	23
971.293	-833
971.378	-1753
971.463	-353
971.549	-446
971.634	-468
971.719	-173
971.804	-821
971.889	94
971.974	-1069
972.059	-414
972.144	-351
972.229	-695
972.314	-545
972.399	-534
972.484	-343
972.569	-578
972.654	-477
972.739	10
972.824	-249
972.908	-698
972.993	-486
973.078	-817
973.163	-409
973.247	-183
973.332	-1690
973.417	-188
973.501	-1011
973.586	-1007
973.671	-279
973.755	-1047
973.840	-570
973.924	128
974.009	-263
974.093	-691
974.178	577
974.262	394
974.346	-684
974.431	-288
974.515	-269
974.600	-312
974.684	-357
974.768	-904
974.852	110
974.937	-581
975.021	213
975.105	-958
975.189	-765
975.273	-278
975.358	-1340
975.442	-876
975.526	-31
975.610	-2029
975.694	-1001
975.778	62
975.862	-1274
975.946	-2242
976.030	189
976.114	-2068
976.198	-313
976.281	-600
976.365	-223
976.449	-865
976.533	-993
976.617	-1626
976.700	-304
976.784	-465
976.868	-265
976.951	-349
977.035	-938
977.119	-680
977.202	-460
977.286	-472
977.369	-483
977.453	-418
977.536	45
977.620	-850
977.703	-827
977.787	-1994
977.870	-117
977.953	517
978.037	-1141
978.120	314
978.203	-483
978.287	13
978.370	-657
978.453	-120
978.536	643
978.620	-79
978.703	-43
978.786	62
978.869	-321
978.952	-2116
979.035	673
979.118	-783
979.201	-1823
979.284	-239
979.367	-1531
979.450	-140
979.533	-1263
979.616	-448
979.699	-1697
979.782	-561
979.865	-159
979.948	-1168
980.030	-836
980.113	-1119
980.196	-923
980.279	-724
980.361	-694
980.444	-1055
980.526	-923
980.609	-560
980.692	204
980.774	-130
980.857	-1717
980.939	419
981.022	-1059
981.104	-1107
981.187	-782
981.269	-420
981.352	-1028
981.434	-1642
981.516	-915
981.599	-305
981.681	-163
981.763	-672
981.846	-1369
981.928	-119
982.010	-467
982.092	-985
982.174	-237
982.256	-895
982.339	-147
982.421	-689
982.503	-405
982.585	-1082
982.667	-1455
982.749	166
982.831	-319
982.913	-1845
982.995	67
983.077	-1206
983.158	271
983.240	-2059
983.322	-11
983.404	-508
983.486	-755
983.568	-226
983.649	-84
983.731	-715
983.813	-987
983.894	-1029
983.976	-444
984.058	-103
984.139	-376
984.221	-1629
984.302	258
984.384	-620
984.465	-874
984.547	334
984.628	-949
984.710	615
984.791	-1085
984.872	-488
984.954	-310
985.035	-909
985.116	-627
985.198	-802
985.279	458
985.360	-986
985.441	-876
985.522	-349
985.604	-771
985.685	-1514
985.766	27
985.847	-307
985.928	-655
986.009	-980
986.090	-875
986.171	-233
986.252	349
986.333	-747
986.414	-1237
986.495	-466
986.576	-477
986.656	-812
986.737	-73
986.818	-541
986.899	-745
986.980	-703
987.060	695
987.141	-516
987.222	-604
987.302	-254
987.383	227
987.464	-339
987.544	226
987.625	-737
987.705	-675
987.786	-506
987.866	-914
987.947	-593
988.027	-481
988.108	-571
988.188	-90
988.268	-122
988.349	266
988.429	-998
988.509	-617
988.589	-881
988.670	-697
988.750	-35
988.830	-748
988.910	96
988.990	169
989.070	-1194
989.151	-205
989.231	-358
989.311	-116
989.391	-745
989.471	-644
989.551	-1137
989.631	87
989.711	501
989.791	-1771
989.870	-1400
989.950	1265
990.030	-752
990.110	-419
990.190	-993
990.269	-1165
990.349	-792
990.429	-589
990.509	-307
990.588	-991
990.668	-276
990.747	-712
990.827	199
990.907	893
990.986	-818
991.066	-568
991.145	-853
991.225	-1016
991.304	-1646
991.383	-536
991.463	26
991.542	32
991.622	-430
991.701	-1506
991.780	-836
991.859	-523
991.939	-701
992.018	-901
992.097	-382
992.176	-1044
992.256	-783
992.335	-981
992.414	362
992.493	-1087
992.572	235
992.651	357
992.730	-1031
992.809	-307
992.888	-1699
992.967	-716
993.046	-633
993.125	-1783
993.203	-1229
993.282	-752
993.361	-181
993.440	-496
993.519	-1113
993.597	171
993.676	-886
993.755	-257
993.834	-592
993.912	-2145
993.991	-327
994.069	-855
994.148	-969
994.226	-870
994.305	-753
994.384	-1151
994.462	839
994.540	-832
994.619	-1335
994.697	-341
994.776	-845
994.854	-556
994.932	-758
995.011	-325
995.089	-887
995.167	-561
995.245	-828
995.324	-1064
995.402	-1029
995.480	-928
995.558	176
995.636	-1095
995.714	-1191
995.792	-359
995.870	-837
995.948	-579
996.026	-659
996.104	-1390
996.182	254
996.260	-1773
996.338	-767
996.416	-1946
996.494	-986
996.572	31
996.649	-1064
996.727	-1508
996.805	-358
996.883	-1191
996.960	-1042
997.038	-1511
997.116	-551
997.193	-1360
997.271	-773
997.348	-1178
997.426	-780
997.504	-979
997.581	5
997.658	-764
997.736	-1511
997.813	-1635
997.891	-432
997.968	-1442
998.046	52
998.123	-1138
998.200	-800
998.277	-894
998.355	-1001
998.432	-1720
998.509	-788
998.586	-597
998.663	-677
998.741	-469
998.818	-1187
998.895	-1586
998.972	-525
999.049	-731
999.126	-1583
999.203	-202
999.280	-524
999.357	-1104
999.434	-1553
999.511	-366
999.587	-143
999.664	-1965
999.741	-988
999.818	-550
999.895	-727
999.971	-1644
1000.048	-1146
1000.125	-96
1000.202	-1511
1000.278	-548
1000.355	-1074
1000.431	-1649
1000.508	-1779
1000.584	-723
1000.661	-607
1000.738	-1458
1000.814	-1498
1000.890	-503
1000.967	-1734
1001.043	-373
1001.120	-1154
1001.196	-948
1001.272	-1622
1001.349	-972
1001.425	-581
1001.501	-1465
1001.577	-1519
1001.654	-370
1001.730	-815
1001.806	-441
1001.882	-2232
1001.958	-1354
1002.034	-767
1002.110	-2162
1002.186	-1016
1002.262	-847
1002.338	-1999
1002.414	-425
1002.490	-500
1002.566	-1776
1002.642	-1833
1002.718	-449
1002.794	-1212
1002.870	-1028
1002.945	-1030
1003.021	-640
1003.097	-1440
1003.173	-385
1003.248	-1624
1003.324	-995
1003.400	-995
1003.475	-1702
1003.551	-1361
1003.626	-1087
1003.702	-989
1003.777	-1560
1003.853	-1435
1003.928	-1900
1004.004	-1080
1004.079	-1781
1004.155	-994
1004.230	-1305
1004.305	-1111
1004.381	-1731
1004.456	-1183
1004.531	-1401
1004.607	-870
1004.682	-1478
1004.757	-1061
1004.832	-1207
1004.907	-1103
1004.982	-717
1005.057	-1261
1005.133	-1640
1005.208	-1295
1005.283	-1584
1005.358	-740
1005.433	-2157
1005.508	-549
1005.583	-1705
1005.657	-1659
1005.732	-546
1005.807	-1189
1005.882	-917
1005.957	-1639
1006.032	-639
1006.106	-1833
1006.181	-1128
1006.256	-1450
1006.331	-1639
1006.405	-1033
1006.480	-1223
1006.554	-2076
1006.629	-1514
1006.704	-2209
1006.778	-599
1006.853	-903
1006.927	-1649
1007.002	-1367
1007.076	-1350
1007.150	-1156
1007.225	-951
1007.299	-371
1007.373	-1545
1007.448	-741
1007.522	-1184
1007.596	-1612
1007.671	-1468
1007.745	-843
1007.819	-1735
1007.893	-1484
1007.967	-908
1008.041	-1924
1008.115	-875
1008.190	-1674
1008.264	-359
1008.338	-1403
1008.412	-1087
1008.486	-1654
1008.560	-1214
1008.633	-1575
1008.707	-1501
1008.781	-1550
1008.855	-1644
1008.929	-1630
1009.003	-1617
1009.076	-1249
1009.150	-1017
1009.224	-1660
1009.298	-1621
1009.371	-1768
1009.445	-391
1009.519	-713
1009.592	-2229
1009.666	-1330
1009.739	-1429
1009.813	-2491
1009.886	-145
1009.960	-2089
1010.033	-1219
1010.107	-1448
1010.180	-1771
1010.253	-1235
1010.327	-2267
1010.400	-1811
1010.473	-1285
1010.547	-362
1010.620	-1521
1010.693	-1270
1010.766	-1819
1010.840	-2206
1010.913	-1104
1010.986	-1862
1011.059	-1287
1011.132	-1819
1011.205	-1223
1011.278	-1438
1011.351	-1106
1011.424	-1511
1011.497	-1499
1011.570	-1803
1011.643	-1312
1011.716	-1402
1011.789	-1416
1011.862	-1549
1011.934	-1181
1012.007	-2825
1012.080	-968
1012.153	-1324
1012.225	-1854
1012.298	-2038
1012.371	-1803
1012.443	-1452
1012.516	-1700
1012.588	-1734
1012.661	-865
1012.733	-2172
1012.806	-1025
1012.879	-1736
1012.951	-1293
1013.023	-1255
1013.096	-1471
1013.168	-1702
1013.241	-711
1013.313	-1434
1013.385	-2049
1013.458	-1144
1013.530	-1137
1013.602	-1820
1013.674	-639
1013.746	-1616
1013.819	-2193
1013.891	-1023
1013.963	-2235
1014.035	-1479
1014.107	-1696
1014.179	-1562
1014.251	-1913
1014.323	-1039
1014.395	-1023
1014.467	-1240
1014.539	-1381
1014.611	-1121
1014.683	-1573
1014.754	-1196
1014.826	-1994
1014.898	-954
1014.970	-2243
1015.042	-984
1015.113	-927
1015.185	-1540
1015.257	-1931
1015.328	-1836
1015.400	-1461
1015.471	-1311
1015.543	-2473
1015.615	-1635
1015.686	-2115
1015.757	-1052
1015.829	-1236
1015.901	-952
1015.972	-1277
1016.043	-2298
1016.115	-1726
1016.186	-1345
1016.257	-2559
1016.328	-1378
1016.400	-1361
1016.471	-1496
1016.542	-981
1016.613	-1735
1016.685	-1525
1016.756	-1210
1016.827	-2055
1016.898	-2064
1016.969	-1069
1017.040	-2331
1017.111	-2177
1017.182	-1717
1017.253	-1076
1017.324	-1240
1017.395	-1361
1017.466	-1882
1017.537	-1879
1017.608	-1159
1017.678	-1596
1017.749	-1977
1017.820	-1409
1017.891	-1695
1017.961	-1406
1018.032	-1672
1018.103	-1985
1018.173	-1631
1018.244	-1095
1018.315	-2514
1018.385	-1744
1018.456	-2288
1018.526	-2321
1018.597	-1513
1018.667	-791
1018.738	-2575
1018.808	-1719
1018.878	-2414
1018.949	-1482
1019.019	-1475
1019.089	-633
1019.160	-1311
1019.230	-1662
1019.300	-1197
1019.371	-2224
1019.441	-998
1019.511	-1437
1019.581	-1420
1019.651	-1220
1019.721	-1456
1019.791	-2335
1019.861	-1262
1019.931	-1171
1020.001	-1950
1020.071	-1589
1020.141	-1562
1020.211	-969
1020.281	-2181
1020.351	-1604
1020.421	-1376
1020.491	-1423
1020.560	-2397
1020.630	-1337
1020.700	-1708
1020.770	-1777
1020.839	-1795
1020.909	-481
1020.979	-2273
1021.048	-2072
1021.118	-1809
1021.187	-1540
1021.257	-1486
1021.326	-1661
1021.396	-1395
1021.465	-1539
1021.535	-2438
1021.604	-1699
1021.674	-1874
1021.743	-1885
1021.812	-1547
1021.882	-2322
1021.951	-1926
1022.020	-1094
1022.089	-1186
1022.159	-1493
1022.228	-1972
1022.297	-1300
1022.366	-1713
1022.435	-1645
1022.504	-1849
1022.573	-1917
1022.642	-735
1022.711	-2335
1022.781	-1205
1022.849	-1744
1022.918	-2290
1022.987	-1789
1023.056	-1356
1023.125	-2326
1023.194	-2084
1023.263	-1487
1023.331	-2525
1023.400	-2166
1023.469	-2240
1023.538	-993
1023.606	-2403
1023.675	-2027
1023.744	-1741
1023.812	-2162
1023.881	-1659
1023.949	-1489
1024.018	-2260
1024.086	-1822
1024.155	-833
1024.223	-1510
1024.292	-2025
1024.360	-2429
1024.429	-2138
1024.497	-2072
1024.565	-1477
1024.634	-1290
1024.702	-988
1024.770	-1825
1024.838	-1894
1024.907	-1526
1024.975	-2116
1025.043	-2396
1025.111	-2236
1025.179	-1355
1025.247	-2351
1025.315	-2165
1025.383	-1433
1025.451	-2080
1025.519	-1669
1025.587	-3279
1025.655	-1555
1025.723	-1800
1025.791	-1934
1025.859	-2130
1025.927	-1765
1025.995	-2109
1026.062	-1793
1026.130	-1356
1026.198	-1845
1026.266	-1396
1026.333	-607
1026.401	-1648
1026.469	-2062
1026.536	-1958
1026.604	-1905
1026.671	-2295
1026.739	-1964
1026.806	-1047
1026.874	-1695
1026.941	-1709
1027.009	-1273
1027.076	-1978
1027.144	-1452
1027.211	-2585
1027.278	-2128
1027.345	-1593
1027.413	-2454
1027.480	-2073
1027.547	-2080
1027.614	-2111
1027.682	-1561
1027.749	-1439
1027.816	-2034
1027.883	-1721
1027.950	-2267
1028.017	-2429
1028.084	-2216
1028.151	-2047
1028.218	-2213
1028.285	-1604
1028.352	-1665
1028.419	-2133
1028.486	-2309
1028.553	-1541
1028.619	-2666
1028.686	-2102
1028.753	-1673
1028.820	-2077
1028.886	-2616
1028.953	-1789
1029.020	-1876
1029.086	-1703
1029.153	-1709
1029.220	-1917
1029.286	-1978
1029.353	-1802
1029.419	-2417
1029.486	-2103
1029.552	-1762
1029.619	-2294
1029.685	-1881
1029.751	-1704
1029.818	-1327
1029.884	-2024
1029.951	-990
1030.017	-2028
1030.083	-1856
1030.149	-1785
1030.216	-2047
1030.282	-1451
1030.348	-2087
1030.414	-2114
1030.480	-1178
1030.546	-1709
1030.612	-859
1030.678	-2429
1030.744	-1514
1030.810	-2229
1030.876	-2073
1030.942	-1821
1031.008	-2367
1031.074	-2069
1031.140	-2293
1031.206	-1062
1031.272	-2148
1031.337	-2081
1031.403	-2043
1031.469	-1657
1031.534	-1973
1031.600	-1571
1031.666	-2730
1031.731	-1433
1031.797	-2871
1031.863	-1699
1031.928	-1782
1031.994	-2156
1032.059	-1600
1032.125	-2245
1032.190	-2362
1032.256	-2102
1032.321	-2239
1032.386	-1975
1032.452	-1899
1032.517	-1846
1032.582	-2293
1032.647	-1349
1032.713	-2514
1032.778	-1900
1032.843	-1486
1032.908	-1211
1032.974	-1907
1033.039	-1682
1033.104	-1902
1033.169	-2158
1033.234	-1901
1033.299	-1553
1033.364	-1584
1033.429	-2339
1033.494	-1238
1033.559	-2311
1033.624	-1571
1033.688	-2072
1033.753	-1515
1033.818	-1955
1033.883	-2316
1033.948	-1663
1034.013	-2629
1034.077	-1414
1034.142	-1879
1034.207	-821
1034.271	-1124
1034.336	-639
1034.400	-1358
1034.465	-1398
1034.530	-1260
1034.594	-1631
1034.658	-1844
1034.723	-2581
1034.787	-1763
1034.852	-2384
1034.916	-1672
1034.981	-2033
1035.045	-1723
1035.109	-2134
1035.173	-1497
1035.238	-2184
1035.302	-1487
1035.366	-2364
1035.430	-2577
1035.495	-2082
1035.559	-2345
1035.623	-1586
1035.687	-2581
1035.751	-2114
1035.815	-1214
1035.879	-1632
1035.943	-1970
1036.007	-2031
1036.071	-2039
1036.135	-1627
1036.198	-1673
1036.262	-2142
1036.326	-1610
1036.390	-2044
1036.454	-1628
1036.517	-1510
1036.581	-1591
1036.645	-1385
1036.709	-916
1036.772	-1703
1036.836	-1854
1036.900	-1793
1036.963	-2164
1037.026	-2525
1037.090	-2650
1037.154	-2725
1037.217	-2091
1037.280	-2273
1037.344	-1597
1037.407	-2089
1037.471	-2282
1037.534	-2329
1037.597	-971
1037.661	-1783
1037.724	-1952
1037.787	-2621
1037.850	-2115
1037.913	-2152
1037.977	-2614
1038.040	-2285
1038.103	-1867
1038.166	-2022
1038.229	-2906
1038.292	-2037
1038.355	-2348
1038.418	-2381
1038.481	-1946
1038.544	-2005
1038.607	-1699
1038.670	-1451
1038.732	-2305
1038.795	-2754
1038.858	-2176
1038.921	-1730
1038.984	-1719
1039.046	-1529
1039.109	-1788
1039.172	-2424
1039.234	-2101
1039.297	-1718
1039.360	-1820
1039.422	-1834
1039.485	-1748
1039.547	-2084
1039.610	-2436
1039.672	-1904
1039.734	-1973
1039.797	-1885
1039.859	-1756
1039.922	-2063
1039.984	-2265
1040.046	-2427
1040.109	-2315
1040.171	-2163
1040.233	-2288
1040.295	-1941
1040.358	-2798
1040.420	-1773
1040.482	-2585
1040.544	-1889
1040.606	-2079
1040.668	-2648
1040.730	-2377
1040.792	-2177
1040.854	-2191
1040.916	-1510
1040.978	-2091
1041.040	-1720
1041.102	-2138
1041.164	-2417
1041.225	-2041
1041.287	-1616
1041.349	-2073
1041.411	-2013
1041.472	-2181
1041.534	-1930
1041.596	-2516
1041.657	-2332
1041.719	-3062
1041.781	-2521
1041.842	-2315
1041.904	-1591
1041.965	-2027
1042.027	-2573
1042.088	-1145
1042.150	-1972
1042.211	-2738
1042.272	-2323
1042.334	-2335
1042.395	-1855
1042.456	-2237
1042.518	-1352
1042.579	-3300
1042.640	-2198
1042.701	-1469
1042.763	-2190
1042.824	-2578
1042.885	-2797
1042.946	-1828
1043.007	-1773
1043.068	-2655
1043.129	-1851
1043.190	-2502
1043.251	-2363
1043.312	-2349
1043.373	-1476
1043.434	-2189
1043.495	-2587
1043.556	-2202
1043.616	-2202
1043.677	-2648
1043.738	-1719
1043.799	-2369
1043.859	-1845
1043.920	-1448
1043.981	-2747
1044.041	-2026
1044.102	-1736
1044.162	-1765
1044.223	-2706
1044.284	-2205
1044.344	-2469
1044.405	-2675
1044.465	-1609
1044.525	-2046
1044.586	-2236
1044.646	-1471
1044.707	-2026
1044.767	-1675
1044.827	-1870
1044.887	-1695
1044.948	-1649
1045.008	-2714
1045.068	-2603
1045.128	-2280
1045.188	-2983
1045.249	-2144
1045.309	-1782
1045.369	-958
1045.429	-2074
1045.489	-1753
1045.549	-2154
1045.609	-2038
1045.669	-2524
1045.729	-2828
1045.789	-2048
1045.848	-2364
1045.908	-1497
1045.968	-1695
1046.028	-1978
1046.088	-2532
1046.147	-2045
1046.207	-1976
1046.267	-1744
1046.326	-1375
1046.386	-656
1046.446	-1348
1046.505	-589
1046.565	-1902
1046.624	-1104
1046.684	-972
1046.743	-1316
1046.803	-638
1046.862	-176
1046.922	0
