'Start Wavelength	183.907
'End Wavelength	1046.922
'Gate Delay	5.000
'Gate Width (ms)	1.050
'Laser Output Level	0.000
'X Position	0.000
'Y Position	0.000
'Z Position	0.000
'Grid Point Number	1.000
'Shot Number	100.000
183.907	718.000
183.977	75.000
184.047	-174
184.116	487
184.186	378
184.256	183
184.325	-236
184.395	-553
184.465	473
184.534	668
184.604	107
184.674	470
184.743	-186
184.813	591
184.883	-143
184.952	-232
185.022	-4
185.092	650
185.161	-519
185.231	-24
185.301	-16
185.370	359
185.440	-602
185.509	90
185.579	-149
185.649	379
185.718	-227
185.788	103
185.857	-393
185.927	-297
185.996	-642
186.066	-346
186.136	-226
186.205	79
186.275	706
186.344	182
186.414	505
186.483	-578
186.553	1021
186.622	627
186.692	-261
186.761	22
186.831	-238
186.900	360
186.970	6
187.039	38
187.109	766
187.178	327
187.248	785
187.317	474
187.387	188
187.456	320
187.526	251
187.595	113
187.664	77
187.734	623
187.803	1100
187.873	440
187.942	1054
188.012	534
188.081	181
188.150	338
188.220	1101
188.289	795
188.358	309
188.428	99
188.497	-526
188.567	818
188.636	172
188.705	45
188.775	5
188.844	24
188.913	539
188.983	905
189.052	203
189.121	27
189.191	623
189.260	1402
189.329	909
189.399	305
189.468	767
189.537	140
189.606	-143
189.676	570
189.745	795
189.814	-84
189.883	45
189.953	692
190.022	553
190.091	2593
190.161	1845
190.230	479
190.299	269
190.368	60
190.437	-582
190.507	-136
190.576	463
190.645	68
190.714	110
190.783	271
190.853	906
190.922	-316
190.991	893
191.060	275
191.129	186
191.198	807
191.268	243
191.337	565
191.406	23
191.475	215
191.544	307
191.613	486
191.682	-105
191.752	230
191.821	348
191.890	397
191.959	629
192.028	595
192.097	279
192.166	1126
192.235	430
192.304	-194
192.373	-426
192.442	168
192.511	356
192.580	-163
192.650	126
192.719	948
192.788	1202
192.857	299
192.926	396
192.995	1106
193.064	228
193.133	1255
193.202	1582
193.271	1159
193.340	388
193.409	1100
193.478	995
193.547	2163
193.615	2454
193.684	1991
193.753	853
193.822	1243
193.891	550
193.960	-90
194.029	94
194.098	1191
194.167	58
194.236	276
194.305	749
194.374	367
194.443	348
194.512	680
194.580	1337
194.649	713
194.718	888
194.787	621
194.856	-217
194.925	676
194.994	392
195.062	1381
195.131	998
195.200	1362
195.269	1588
195.338	965
195.407	713
195.475	999
195.544	1225
195.613	649
195.682	1038
195.751	988
195.819	802
195.888	805
195.957	1436
196.026	851
196.094	1450
196.163	1639
196.232	1840
196.301	546
196.369	1070
196.438	514
196.507	809
196.576	446
196.644	468
196.713	1244
196.782	1077
196.850	733
196.919	689
196.988	967
197.056	206
197.125	1274
197.194	935
197.262	255
197.331	279
197.400	567
197.468	378
197.537	645
197.606	945
197.674	825
197.743	2031
197.812	1096
197.880	2205
197.949	1504
198.017	2291
198.086	1538
198.155	588
198.223	1219
198.292	3067
198.360	1101
198.429	875
198.497	1256
198.566	2223
198.635	2269
198.703	928
198.772	1201
198.840	3983
198.909	2286
198.977	761
199.046	662
199.114	1186
199.183	1333
199.251	506
199.320	101
199.388	-18
199.457	221
199.525	819
199.594	1229
199.662	556
199.731	590
199.799	795
199.867	591
199.936	258
200.004	583
200.073	1186
200.141	464
200.210	620
200.278	1424
200.346	1534
200.415	1224
200.483	1586
200.552	1735
200.620	798
200.688	950
200.757	778
200.825	717
200.893	1033
200.962	1361
201.030	462
201.098	925
201.167	-83
201.235	281
201.303	1106
201.372	867
201.440	696
201.508	1832
201.577	1595
201.645	-34
201.713	753
201.781	1812
201.850	1720
201.918	1176
201.986	504
202.055	677
202.123	560
202.191	1394
202.259	803
202.327	1043
202.396	929
202.464	931
202.532	1807
202.600	4672
202.669	3004
202.737	1423
202.805	1169
202.873	928
202.941	731
203.009	854
203.078	446
203.146	1240
203.214	821
203.282	93
203.350	1230
203.418	1403
203.487	904
203.555	1209
203.623	784
203.691	976
203.759	392
203.827	793
203.895	907
203.963	1554
204.031	378
204.099	797
204.168	649
204.236	1456
204.304	1491
204.372	1160
204.440	502
204.508	1089
204.576	580
204.644	1141
204.712	417
204.780	1193
204.848	1096
204.916	246
204.984	859
205.052	1423
205.120	917
205.188	1166
205.256	103
205.324	979
205.392	971
205.460	1098
205.528	969
205.596	1004
205.664	1051
205.732	1246
205.799	4050
205.867	5093
205.935	1298
206.003	1068
206.071	1748
206.139	1155
206.207	1020
206.275	2133
206.343	729
206.411	1475
206.478	1640
206.546	531
206.614	877
206.682	2159
206.750	1624
206.818	2060
206.885	1267
206.953	1095
207.021	1416
207.089	1893
207.157	925
207.225	719
207.292	656
207.360	1744
207.428	1852
207.496	1160
207.563	1375
207.631	1439
207.699	848
207.767	1177
207.834	828
207.902	977
207.970	2105
208.038	712
208.105	876
208.173	897
208.241	2007
208.309	2301
208.376	2214
208.444	2947
208.512	1608
208.579	754
208.647	1310
208.715	2235
208.782	1889
208.850	1027
208.918	1335
208.985	1674
209.053	1393
209.120	1557
209.188	292
209.256	1668
209.323	1543
209.391	2881
209.459	1672
209.526	1962
209.594	1439
209.661	1570
209.729	1459
209.796	2073
209.864	1201
209.932	838
209.999	1829
210.067	1974
210.134	905
210.202	2091
210.269	1887
210.337	2569
210.404	1780
210.472	1689
210.539	1690
210.607	2170
210.674	1462
210.742	1311
210.809	1740
210.877	2605
210.944	2432
211.012	1999
211.079	2688
211.146	1626
211.214	2249
211.281	2332
211.349	1701
211.416	1931
211.484	2148
211.551	2195
211.618	1921
211.686	1724
211.753	1139
211.821	1718
211.888	1681
211.955	1984
212.023	1999
212.090	1608
212.157	1515
212.225	2167
212.292	4114
212.359	7823
212.427	14261
212.494	6359
212.561	2809
212.629	2706
212.696	2176
212.763	2320
212.831	2083
212.898	2346
212.965	1760
213.032	2560
213.100	2760
213.167	2742
213.234	2580
213.301	1401
213.369	1747
213.436	2807
213.503	1751
213.570	2197
213.638	1733
213.705	2152
213.772	964
213.839	1948
213.906	2720
213.973	3507
214.041	2346
214.108	1809
214.175	2367
214.242	2871
214.309	2555
214.376	1962
214.444	2554
214.511	2495
214.578	2376
214.645	3256
214.712	2860
214.779	2469
214.846	1619
214.913	2831
214.980	2660
215.048	3858
215.115	3798
215.182	2907
215.249	2275
215.316	1965
215.383	1952
215.450	2123
215.517	1956
215.584	2141
215.651	2372
215.718	1379
215.785	2364
215.852	2793
215.919	3101
215.986	2954
216.053	2060
216.120	1776
216.187	2027
216.254	3311
216.321	2037
216.388	2237
216.455	2635
216.522	2437
216.589	3785
216.656	5339
216.722	5003
216.789	3791
216.856	4103
216.923	3808
216.990	2731
217.057	3619
217.124	3841
217.191	4601
217.258	4417
217.324	5177
217.391	4724
217.458	4210
217.525	3937
217.592	3369
217.659	2411
217.725	3063
217.792	4003
217.859	4094
217.926	2160
217.993	2784
218.059	1814
218.126	2176
218.193	746
218.260	1828
218.327	1848
218.393	2201
218.460	1648
218.527	816
218.594	2265
218.660	3202
218.727	3526
218.794	2140
218.860	1441
218.927	1623
218.994	1902
219.061	2041
219.127	2453
219.194	3182
219.261	1734
219.327	1163
219.394	1559
219.461	897
219.527	1720
219.594	3020
219.661	2408
219.727	1308
219.794	2104
219.860	1401
219.927	1370
219.994	4456
220.060	6778
220.127	4374
220.193	2976
220.260	3435
220.326	4641
220.393	7387
220.460	8596
220.526	5462
220.593	3230
220.659	3994
220.726	4399
220.792	8814
220.859	8127
220.925	12475
220.992	13497
221.058	12829
221.125	10885
221.191	8622
221.258	4058
221.324	2263
221.391	2780
221.457	2344
221.524	2675
221.590	3814
221.657	10916
221.723	6787
221.789	7101
221.856	5325
221.922	3167
221.989	3523
222.055	2733
222.121	1794
222.188	3551
222.254	2784
222.321	2673
222.387	2066
222.453	1609
222.520	2220
222.586	1810
222.652	2259
222.719	1105
222.785	2678
222.851	1632
222.918	1606
222.984	1788
223.050	2188
223.116	272
223.183	2020
223.249	825
223.315	835
223.382	1336
223.448	1554
223.514	1540
223.580	1173
223.647	878
223.713	1193
223.779	545
223.845	2009
223.911	1429
223.978	1245
224.044	1646
224.110	966
224.176	1671
224.242	1290
224.309	783
224.375	1717
224.441	1224
224.507	554
224.573	1070
224.639	1546
224.705	1015
224.772	1677
224.838	1056
224.904	1789
224.970	831
225.036	1271
225.102	266
225.168	1931
225.234	1700
225.300	1489
225.366	1570
225.432	1132
225.499	1371
225.565	1497
225.631	2030
225.697	2370
225.763	3239
225.829	3096
225.895	3168
225.961	4005
226.027	3895
226.093	3574
226.159	3833
226.225	7457
226.291	15882
226.357	21472
226.423	11340
226.489	7045
226.554	4691
226.620	4144
226.686	5781
226.752	8011
226.818	14587
226.884	28598
226.950	21822
227.016	9551
227.082	5772
227.148	5323
227.214	4812
227.279	3558
227.345	3140
227.411	3514
227.477	3619
227.543	9740
227.609	8166
227.674	5096
227.740	3156
227.806	2701
227.872	2425
227.938	2873
228.003	3689
228.069	3270
228.135	1706
228.201	1320
228.267	2049
228.332	2709
228.398	3729
228.464	2460
228.530	1242
228.595	1605
228.661	1049
228.727	3616
228.792	2713
228.858	1628
228.924	1191
228.990	3626
229.055	2432
229.121	2767
229.187	1912
229.252	2965
229.318	1529
229.384	2321
229.449	2340
229.515	1193
229.581	41
229.646	2009
229.712	2193
229.777	5799
229.843	4667
229.909	4281
229.974	4633
230.040	3614
230.105	3093
230.171	3342
230.236	4660
230.302	6337
230.368	5039
230.433	3319
230.499	2800
230.564	3856
230.630	2348
230.695	2707
230.761	2612
230.826	1853
230.892	3007
230.957	2414
231.023	1890
231.088	2241
231.154	2458
231.219	2348
231.284	3854
231.350	3768
231.415	2000
231.481	2769
231.546	1526
231.612	1311
231.677	1676
231.742	836
231.808	2081
231.873	1783
231.939	1051
232.004	4637
232.069	3229
232.135	2563
232.200	2040
232.265	1951
232.331	1680
232.396	1576
232.461	435
232.527	1656
232.592	860
232.657	2386
232.723	2843
232.788	2440
232.853	1380
232.918	2443
232.984	962
233.049	1201
233.114	2445
233.179	3024
233.245	4400
233.310	3435
233.375	1807
233.440	1934
233.506	1476
233.571	1372
233.636	1433
233.701	1286
233.766	3107
233.832	3386
233.897	1940
233.962	2374
234.027	3022
234.092	2519
234.157	1933
234.222	3376
234.288	3466
234.353	8828
234.418	6798
234.483	5471
234.548	4024
234.613	3110
234.678	2899
234.743	3262
234.808	9741
234.873	5228
234.938	4215
235.004	2515
235.069	2785
235.134	2386
235.199	3517
235.264	2549
235.329	1600
235.394	3155
235.459	2704
235.524	2381
235.589	2765
235.654	2290
235.719	927
235.784	2791
235.849	2724
235.913	5099
235.978	5968
236.043	5360
236.108	2034
236.173	3280
236.238	2959
236.303	2579
236.368	2319
236.433	4618
236.498	6257
236.563	4639
236.627	12146
236.692	37758
236.757	25782
236.822	11216
236.887	7453
236.952	6363
237.017	5394
237.081	5028
237.146	8028
237.211	16000
237.276	37790
237.341	50268
237.405	23525
237.470	10630
237.535	7907
237.600	4098
237.664	3789
237.729	3545
237.794	5243
237.859	9743
237.923	6384
237.988	3508
238.053	5764
238.118	4879
238.182	12623
238.247	9368
238.312	5125
238.376	4243
238.441	3144
238.506	3435
238.570	1875
238.635	2954
238.700	2356
238.764	2562
238.829	6095
238.893	5608
238.958	4161
239.023	4653
239.087	2729
239.152	3094
239.216	2525
239.281	3386
239.346	1941
239.410	2531
239.475	2707
239.539	12119
239.604	7097
239.668	3550
239.733	2142
239.797	6226
239.862	14856
239.926	12328
239.991	5084
240.055	2980
240.120	2475
240.184	1995
240.249	1479
240.313	1924
240.378	2805
240.442	8248
240.507	9579
240.571	3515
240.635	4840
240.700	5563
240.764	2805
240.829	2402
240.893	457
240.957	2566
241.022	7440
241.086	10565
241.151	5123
241.215	1937
241.279	4208
241.344	5068
241.408	3902
241.472	3832
241.537	3881
241.601	3583
241.665	2783
241.730	3421
241.794	3382
241.858	3195
241.922	2623
241.987	3440
242.051	2544
242.115	3176
242.179	3018
242.244	1984
242.308	3088
242.372	3707
242.436	3838
242.501	3366
242.565	2183
242.629	2611
242.693	2985
242.757	2391
242.822	2021
242.886	3056
242.950	2465
243.014	2521
243.078	3977
243.142	3318
243.206	3897
243.271	2980
243.335	4076
243.399	5904
243.463	24065
243.527	45143
243.591	14180
243.655	6306
243.719	4392
243.783	4357
243.847	7856
243.911	9742
243.975	11584
244.040	5613
244.104	3915
244.168	3634
244.232	5964
244.296	8193
244.360	8338
244.424	4338
244.488	2945
244.552	3657
244.615	2298
244.679	2477
244.743	4306
244.807	3053
244.871	2385
244.935	2515
244.999	1520
245.063	3147
245.127	3491
245.191	7769
245.255	5582
245.319	5136
245.383	2871
245.446	3501
245.510	2257
245.574	3328
245.638	3523
245.702	3874
245.766	9348
245.829	5194
245.893	3800
245.957	2615
246.021	4158
246.085	3604
246.149	4593
246.212	13213
246.276	15084
246.340	7101
246.404	5449
246.467	5796
246.531	7166
246.595	5543
246.659	4919
246.722	3947
246.786	5728
246.850	6807
246.913	7675
246.977	3013
247.041	3514
247.104	3965
247.168	4388
247.232	12225
247.295	21964
247.359	9259
247.423	5842
247.486	10156
247.550	5694
247.614	4859
247.677	6330
247.741	3802
247.804	2954
247.868	4942
247.932	11859
247.995	18526
248.059	7749
248.122	3643
248.186	5605
248.249	10878
248.313	36976
248.376	33567
248.440	20395
248.503	7562
248.567	7559
248.630	10453
248.694	14679
248.757	19991
248.821	35713
248.884	19920
248.948	21043
249.011	28041
249.075	42022
249.138	31738
249.202	13831
249.265	8328
249.328	10291
249.392	8282
249.455	6803
249.519	5898
249.582	7551
249.645	11139
249.709	8987
249.772	5936
249.835	6205
249.899	6284
249.962	5778
250.025	5770
250.089	16139
250.152	17280
250.215	8680
250.279	7101
250.342	6724
250.405	6658
250.468	5800
250.532	8889
250.595	14336
250.658	53346
250.721	62939
250.785	25637
250.848	15055
250.911	8177
250.974	7607
251.038	12944
251.101	19695
251.164	11119
251.227	12378
251.290	11015
251.354	17778
251.417	66561
251.480	53353
251.543	50812
251.606	109088
251.669	73916
251.732	32586
251.795	32464
251.859	35045
251.922	69837
251.985	36146
252.048	16942
252.111	11522
252.174	11201
252.237	22993
252.300	41252
252.363	53392
252.426	82129
252.489	34294
252.552	18302
252.615	12336
252.678	14292
252.741	33825
252.804	49493
252.867	86984
252.930	50906
252.993	27363
253.056	18113
253.119	12378
253.182	10404
253.245	18647
253.308	12205
253.371	12094
253.434	11285
253.497	10983
253.559	20667
253.622	12579
253.685	18354
253.748	16819
253.811	8718
253.874	11060
253.937	10214
254.000	8345
254.062	15580
254.125	19371
254.188	21041
254.251	15058
254.314	8003
254.376	15454
254.439	15907
254.502	13222
254.565	16393
254.628	23188
254.690	14397
254.753	7920
254.816	7110
254.878	7052
254.941	17119
255.004	12438
255.067	7175
255.129	6942
255.192	4403
255.255	4020
255.317	5043
255.380	2711
255.443	2944
255.505	2755
255.568	3028
255.631	3192
255.693	4130
255.756	2067
255.819	3477
255.881	2281
255.944	2325
256.006	2563
256.069	3485
256.132	2953
256.194	4680
256.257	9655
256.319	7593
256.382	5806
256.444	5059
256.507	3853
256.569	3603
256.632	4581
256.694	6641
256.757	23580
256.819	53660
256.882	19798
256.944	9477
257.007	7778
257.069	7507
257.132	5629
257.194	5259
257.257	4465
257.319	3960
257.381	5262
257.444	15700
257.506	69418
257.569	62369
257.631	30384
257.693	15400
257.756	7768
257.818	6712
257.880	4530
257.943	4537
258.005	3868
258.067	3878
258.130	3091
258.192	5909
258.254	10587
258.317	4915
258.379	4850
258.441	14321
258.503	9634
258.566	14247
258.628	13278
258.690	4935
258.753	5715
258.815	10711
258.877	5156
258.939	3851
259.001	4060
259.064	3900
259.126	4387
259.188	5694
259.250	5818
259.312	6955
259.375	15202
259.437	8844
259.499	4278
259.561	4595
259.623	3743
259.685	5126
259.747	4463
259.809	13516
259.872	18299
259.934	35885
259.996	27281
260.058	8899
260.120	4898
260.182	3677
260.244	3047
260.306	3372
260.368	3703
260.430	3662
260.492	9340
260.554	14790
260.616	9212
260.678	21846
260.740	19546
260.802	6040
260.864	5045
260.926	3529
260.988	4119
261.050	4170
261.112	12666
261.174	28105
261.236	15003
261.298	5840
261.359	11619
261.421	11942
261.483	3523
261.545	4700
261.607	2884
261.669	3788
261.731	7104
261.793	16249
261.854	7016
261.916	5095
261.978	4846
262.040	4822
262.102	4030
262.164	6718
262.225	4993
262.287	4017
262.349	11539
262.411	7171
262.472	3667
262.534	8052
262.596	12203
262.658	5224
262.719	3558
262.781	5889
262.843	11217
262.904	6025
262.966	4506
263.028	5161
263.090	37192
263.151	65169
263.213	22540
263.275	13025
263.336	5681
263.398	4694
263.459	2593
263.521	4518
263.583	11757
263.644	6169
263.706	3255
263.767	2360
263.829	1834
263.891	2105
263.952	1774
264.014	2003
264.075	7180
264.137	13374
264.198	5901
264.260	2423
264.321	2475
264.383	11266
264.444	20395
264.506	5851
264.567	4427
264.629	10165
264.690	15760
264.752	6714
264.813	3506
264.875	2013
264.936	3893
264.998	2512
265.059	2089
265.120	2545
265.182	5755
265.243	34726
265.305	24416
265.366	6385
265.427	4101
265.489	4406
265.550	1664
265.611	4065
265.673	2971
265.734	2971
265.795	2652
265.857	2380
265.918	2807
265.979	9604
266.040	54331
266.102	32665
266.163	11499
266.224	8981
266.286	4789
266.347	2768
266.408	3478
266.469	3486
266.530	2357
266.592	2603
266.653	7955
266.714	10674
266.775	3955
266.836	2410
266.898	2951
266.959	5658
267.020	3667
267.081	3751
267.142	3353
267.203	2285
267.264	2242
267.326	3662
267.387	2727
267.448	1936
267.509	3287
267.570	2928
267.631	1772
267.692	2289
267.753	2791
267.814	2537
267.875	7643
267.936	13955
267.997	7989
268.058	6349
268.119	3640
268.180	3633
268.241	2349
268.302	2351
268.363	1711
268.424	3016
268.485	3625
268.546	1976
268.607	1621
268.668	1997
268.729	1744
268.790	2204
268.851	3265
268.912	10443
268.972	9428
269.033	4952
269.094	2085
269.155	3101
269.216	2488
269.277	2412
269.338	2074
269.398	2784
269.459	3045
269.520	5540
269.581	6722
269.642	6233
269.702	4570
269.763	4285
269.824	3118
269.885	5413
269.945	6023
270.006	3174
270.067	1988
270.128	2967
270.188	1412
270.249	2131
270.310	2264
270.370	3107
270.431	1806
270.492	1643
270.553	2514
270.613	7217
270.674	13427
270.734	4998
270.795	3107
270.856	6314
270.916	3300
270.977	2712
271.038	4408
271.098	3709
271.159	7253
271.219	5487
271.280	2840
271.340	3006
271.401	3273
271.462	7746
271.522	4898
271.583	3227
271.643	3427
271.704	2743
271.764	3907
271.825	11641
271.885	38473
271.946	38065
272.006	12470
272.066	23104
272.127	30246
272.187	10733
272.248	5328
272.308	7433
272.369	24100
272.429	10419
272.489	11299
272.550	8811
272.610	11511
272.671	7097
272.731	7808
272.791	10458
272.852	6508
272.912	5844
272.972	3205
273.033	4567
273.093	6796
273.153	6458
273.214	4398
273.274	5372
273.334	23833
273.394	31681
273.455	13283
273.515	16223
273.575	29896
273.635	11707
273.696	19023
273.756	29351
273.816	11844
273.876	7485
273.936	16934
273.997	20264
274.057	5891
274.117	5317
274.177	9897
274.237	44586
274.297	27805
274.358	20043
274.418	26562
274.478	17045
274.538	6489
274.598	5854
274.658	19863
274.718	20931
274.778	7869
274.838	4348
274.898	13469
274.958	30096
275.018	32272
275.078	18321
275.138	8275
275.198	4616
275.258	3535
275.318	5110
275.378	10556
275.438	10015
275.498	6083
275.558	18205
275.618	31996
275.678	19648
275.738	15490
275.798	10684
275.858	5358
275.918	2334
275.978	5242
276.038	4270
276.098	3289
276.157	9635
276.217	23890
276.277	8965
276.337	6622
276.397	4720
276.457	5917
276.517	4170
276.576	2800
276.636	2999
276.696	6384
276.756	16110
276.815	9179
276.875	4909
276.935	5885
276.995	4901
277.055	3639
277.114	3926
277.174	6926
277.234	19578
277.293	7562
277.353	4654
277.413	3857
277.472	4721
277.532	3948
277.592	4944
277.651	25783
277.711	31296
277.771	12136
277.830	49612
277.890	27918
277.950	29498
278.009	62032
278.069	20756
278.128	31858
278.188	33685
278.248	16323
278.307	46544
278.367	20810
278.426	7461
278.486	4683
278.545	4445
278.605	3474
278.664	3506
278.724	3701
278.783	17069
278.843	30064
278.902	9185
278.962	6570
279.021	7062
279.081	10688
279.140	8771
279.199	7088
279.259	7922
279.318	7660
279.378	10162
279.437	18566
279.496	68283
279.556	171869
279.615	105208
279.675	33897
279.734	21944
279.793	33873
279.853	41313
279.912	14899
279.971	9523
280.031	8354
280.090	20829
280.149	28000
280.208	27832
280.268	126377
280.327	90780
280.386	27005
280.445	22997
280.505	16434
280.564	8934
280.623	6825
280.682	14676
280.742	15816
280.801	6363
280.860	4995
280.919	4710
280.978	4006
281.037	4173
281.097	3437
281.156	3628
281.215	3339
281.274	5466
281.333	25739
281.392	12496
281.451	4777
281.510	3928
281.569	4014
281.628	3382
281.688	2895
281.747	4508
281.806	3526
281.865	3247
281.924	3370
281.983	2836
282.042	2170
282.101	2400
282.160	2617
282.219	2230
282.278	3743
282.337	14108
282.396	7217
282.454	4098
282.513	5080
282.572	20851
282.631	8641
282.690	4493
282.749	2779
282.808	4805
282.867	4860
282.926	4061
282.985	2991
283.043	2614
283.102	2926
283.161	3346
283.220	12724
283.279	19672
283.338	5301
283.396	4080
283.455	4323
283.514	5150
283.573	7943
283.631	5441
283.690	3997
283.749	4191
283.808	11284
283.866	9692
283.925	4561
283.984	4495
284.043	6386
284.101	5956
284.160	4917
284.219	6818
284.277	5168
284.336	10758
284.395	30501
284.453	19225
284.512	10348
284.570	14428
284.629	12027
284.688	11510
284.746	14235
284.805	17017
284.863	21157
284.922	25318
284.981	32213
285.039	45650
285.098	80421
285.156	157335
285.215	175712
285.273	189371
285.332	143242
285.390	87035
285.449	55436
285.507	36960
285.566	27444
285.624	19657
285.683	16763
285.741	13085
285.799	11464
285.858	9793
285.916	9016
285.975	7982
286.033	6411
286.091	6124
286.150	4807
286.208	5879
286.267	6014
286.325	6189
286.383	9873
286.442	7954
286.500	4020
286.558	4442
286.616	4219
286.675	5743
286.733	4489
286.791	4826
286.850	5297
286.908	8199
286.966	10391
287.024	4661
287.083	3869
287.141	2764
287.199	3473
287.257	6648
287.315	4450
287.374	5426
287.432	12263
287.490	6538
287.548	4854
287.606	4286
287.664	3962
287.723	6452
287.781	7411
287.839	4817
287.897	5285
287.955	6169
288.013	9059
288.071	22371
288.129	113458
288.187	213538
288.245	85971
288.303	33826
288.361	20380
288.419	14243
288.477	8682
288.535	6685
288.593	4398
288.651	4593
288.709	3097
288.767	3274
288.825	3790
288.883	3449
288.941	3068
288.999	3488
289.057	3393
289.115	3311
289.173	2313
289.231	3530
289.289	2668
289.346	2598
289.404	4129
289.462	7483
289.520	6008
289.578	3056
289.636	2168
289.694	2794
289.751	2434
289.809	2341
289.867	2295
289.925	4329
289.983	3934
290.040	2716
290.098	2293
290.156	3520
290.214	3338
290.271	2402
290.329	2896
290.387	2303
290.444	1363
290.502	1247
290.560	1749
290.617	2893
290.675	2347
290.733	2449
290.790	2696
290.848	2069
290.906	2689
290.963	2996
291.021	2082
291.078	2363
291.136	2857
291.194	14157
291.251	21049
291.309	5293
291.366	2528
291.424	3368
291.481	3474
291.539	3789
291.596	2472
291.654	1251
291.711	1793
291.769	3263
291.826	6318
291.884	3570
291.941	1614
291.999	2970
292.056	2989
292.114	3452
292.171	2290
292.228	3036
292.286	4551
292.343	7730
292.401	8887
292.458	4537
292.515	3932
292.573	4842
292.630	3409
292.687	4461
292.745	2719
292.802	5085
292.859	14668
292.917	24005
292.974	10376
293.031	3931
293.089	3253
293.146	2463
293.203	1641
293.260	1484
293.318	4079
293.375	5478
293.432	2192
293.489	2573
293.546	2087
293.604	3902
293.661	18001
293.718	35280
293.775	14702
293.832	8969
293.889	7144
293.947	6555
294.004	4279
294.061	4356
294.118	11993
294.175	24950
294.232	26923
294.289	10151
294.346	5628
294.403	4983
294.460	4378
294.517	3443
294.574	3366
294.631	2945
294.688	3252
294.745	12082
294.802	45115
294.859	37888
294.916	13658
294.973	9205
295.030	7524
295.087	5286
295.144	4384
295.201	3467
295.258	2706
295.315	4722
295.372	18432
295.429	25263
295.486	9781
295.542	6396
295.599	22986
295.656	28086
295.713	22563
295.770	25187
295.827	8973
295.883	5691
295.940	5189
295.997	10044
296.054	7326
296.111	3820
296.167	3292
296.224	2742
296.281	2240
296.338	3044
296.394	2045
296.451	3199
296.508	15756
296.564	21302
296.621	14469
296.678	37185
296.734	38789
296.791	13356
296.848	7297
296.904	9975
296.961	21289
297.018	33301
297.074	17975
297.131	7496
297.187	5816
297.244	8135
297.301	37921
297.357	46591
297.414	14118
297.470	7290
297.527	5510
297.583	3976
297.640	4975
297.696	3457
297.753	3074
297.809	2221
297.866	1856
297.922	2023
297.979	1973
298.035	3649
298.092	6452
298.148	20872
298.204	13963
298.261	6584
298.317	18834
298.374	38309
298.430	16913
298.486	9094
298.543	6181
298.599	6555
298.656	7905
298.712	17017
298.768	35959
298.824	18684
298.881	7851
298.937	5139
298.993	4282
299.050	6074
299.106	3417
299.162	3981
299.218	3754
299.275	2567
299.331	2805
299.387	9137
299.443	38802
299.500	32968
299.556	13834
299.612	7744
299.668	7389
299.724	13750
299.780	11050
299.837	4696
299.893	9329
299.949	36528
300.005	29922
300.061	34015
300.117	47672
300.173	18748
300.229	10692
300.285	14375
300.341	12844
300.397	6725
300.453	4572
300.510	4256
300.566	3728
300.622	5903
300.678	28061
300.734	35171
300.790	30495
300.845	31218
300.901	24387
300.957	35682
301.013	19636
301.069	8749
301.125	7499
301.181	6516
301.237	4868
301.293	3942
301.349	3640
301.405	3388
301.461	4883
301.516	6563
301.572	5582
301.628	9601
301.684	7081
301.740	16218
301.796	19223
301.851	13895
301.907	20917
301.963	16755
302.019	40534
302.074	94871
302.130	76804
302.186	33041
302.242	14972
302.297	10632
302.353	10369
302.409	21570
302.464	14075
302.520	14255
302.576	38328
302.631	33618
302.687	17343
302.743	8825
302.798	5746
302.854	4638
302.910	5122
302.965	6722
303.021	11542
303.076	10030
303.132	14457
303.187	14882
303.243	7877
303.299	4150
303.354	3605
303.410	3597
303.465	3553
303.521	2830
303.576	2448
303.632	3246
303.687	12893
303.743	32116
303.798	20208
303.853	8325
303.909	4410
303.964	4759
304.020	8998
304.075	10123
304.130	11665
304.186	21400
304.241	19008
304.297	14782
304.352	7809
304.358	7543
304.407	5388
304.449	5742
304.463	5864
304.518	5038
304.539	4837
304.573	4500
304.629	4663
304.630	4732
304.684	8076
304.720	20544
304.739	26881
304.794	29895
304.811	25296
304.850	13859
304.902	6564
304.905	6125
304.960	5500
304.992	5665
305.015	5813
305.071	5793
305.083	5481
305.126	4201
305.173	3208
305.181	3067
305.236	2899
305.264	3212
305.292	3581
305.347	5211
305.354	5331
305.402	5965
305.445	6436
305.457	6582
305.512	7532
305.535	6631
305.567	5358
305.622	6173
305.626	6557
305.678	14734
305.716	30610
305.733	36645
305.788	31771
305.807	28265
305.843	21694
305.897	32203
305.898	32335
305.953	25677
305.988	18151
306.008	14023
306.063	9211
306.078	8192
306.118	5984
306.168	3804
306.173	3637
306.228	3104
306.259	3054
306.283	3043
306.338	2736
306.349	2914
306.393	3930
306.440	5096
306.448	5247
306.503	4590
306.530	5342
306.558	7312
306.613	16687
306.620	17701
306.668	25210
306.711	33948
306.723	34804
306.778	24144
306.801	19086
306.833	12901
306.888	6547
306.892	6259
306.943	4727
306.982	4399
306.997	4485
307.052	4200
307.072	4286
307.107	4516
307.162	6106
307.163	6128
307.217	9214
307.253	11625
307.272	12427
307.327	12584
307.343	11766
307.381	9254
307.434	7609
307.436	7828
307.491	19242
307.524	28051
307.546	31624
307.600	29264
307.614	26916
307.655	15566
307.704	7726
307.710	7608
307.765	9065
307.795	12249
307.819	15832
307.874	23227
307.885	23145
307.929	17282
307.975	12413
307.984	12581
308.038	16779
308.065	20590
308.093	34397
308.148	81983
308.156	92284
308.202	161590
308.246	189019
308.257	178743
308.312	93209
308.336	63021
308.366	49816
308.421	32370
308.426	30875
308.475	20549
308.517	13838
308.530	12972
308.585	10981
308.607	10585
308.639	10552
308.694	11391
308.697	11640
308.748	21103
308.787	29369
308.803	29919
308.857	22897
308.877	20652
308.912	18443
308.967	17423
308.967	17407
309.021	24282
309.058	30816
309.076	38542
309.130	65907
309.148	77389
309.185	128098
309.238	220716
309.239	222035
309.293	259708
309.328	255170
309.348	217246
309.402	107642
309.418	79541
309.457	57637
309.508	35821
309.511	35575
309.566	35597
309.598	37338
309.620	46836
309.674	75967
309.688	82754
309.729	79935
309.778	68760
309.783	66781
309.837	42960
309.868	30549
309.892	31994
309.946	39665
309.959	42353
310.001	58212
310.049	71046
310.055	68392
310.109	39428
310.139	24497
310.163	20034
310.218	12284
310.229	10885
310.272	9320
310.319	7799
310.326	7615
310.381	6669
310.409	6300
310.435	5971
310.489	5198
310.499	5036
310.543	5342
310.589	6095
310.598	6127
310.652	6120
310.679	5862
310.706	5351
310.760	4875
310.769	4735
310.814	4361
310.859	4269
310.868	4231
310.923	3932
310.948	3750
310.977	4572
311.031	6293
311.038	6515
311.085	6111
311.128	5610
311.139	5496
311.193	4929
311.218	4645
311.247	4633
311.301	4619
311.308	4607
311.356	4976
311.398	5403
311.410	5321
311.464	4714
311.488	4455
311.518	4409
311.572	4350
311.578	4339
311.626	6344
311.668	8125
311.680	8005
311.734	7273
311.758	6937
311.788	7050
311.842	7294
311.847	7304
311.896	8224
311.937	9091
311.950	9218
312.004	9641
312.027	9809
312.058	8191
312.112	5299
312.117	5005
312.165	5251
312.207	5458
312.297	7372
312.386	7026
312.476	6237
312.566	12881
312.656	7565
312.745	4546
312.835	4403
312.925	6292
313.015	5353
313.104	5911
313.194	3961
313.284	5391
313.374	6790
313.463	7579
313.553	5191
313.643	4782
313.732	4215
313.822	4060
313.912	4820
314.001	6527
314.091	7341
314.180	8792
314.270	8729
314.360	8419
314.449	7883
314.539	6078
314.628	4807
314.718	6364
314.808	7046
314.897	5906
314.987	6019
315.076	7827
315.166	8947
315.255	7939
315.345	7703
315.434	7697
315.524	7234
315.613	8843
315.703	10734
315.792	17472
315.881	47980
315.971	22825
316.060	13373
316.150	17459
316.239	18348
316.328	8909
316.418	5675
316.507	5674
316.597	8084
316.686	6792
316.775	8638
316.865	19004
316.954	6635
317.043	4840
317.133	5423
317.222	5489
317.311	4660
317.400	4829
317.490	7013
317.579	9321
317.668	5801
317.757	10469
317.847	25659
317.936	84808
318.025	39415
318.114	19854
318.203	14201
318.293	15179
318.382	32588
318.471	25051
318.560	31897
318.649	52722
318.738	14388
318.828	8029
318.917	8981
319.006	8377
319.095	23551
319.184	63019
319.273	41082
319.362	22191
319.451	7064
319.540	6850
319.629	14486
319.718	27183
319.807	9712
319.896	21530
319.985	78168
320.074	34872
320.163	7693
320.252	13357
320.341	10232
320.430	10669
320.519	13188
320.608	8863
320.697	7279
320.786	7481
320.875	9243
320.964	12752
321.053	17936
321.142	25407
321.230	28341
321.319	19507
321.408	45897
321.497	23589
321.586	19543
321.675	19916
321.764	20414
321.852	13161
321.941	25465
322.030	19963
322.119	17251
322.207	46756
322.296	31576
322.385	17465
322.474	20047
322.562	56528
322.651	35422
322.740	19872
322.829	30816
322.917	25896
323.006	18651
323.095	15791
323.183	10807
323.272	13462
323.361	23484
323.449	70435
323.538	27348
323.626	47572
323.715	36017
323.804	12051
323.892	43189
323.981	31764
324.069	7898
324.158	22412
324.246	26821
324.335	10599
324.424	18163
324.512	7557
324.601	9949
324.689	24804
324.778	58846
324.866	22923
324.954	7457
325.043	5562
325.131	9911
325.220	18998
325.308	22387
325.397	15817
325.485	12646
325.574	4621
325.662	5446
325.750	5546
325.839	5885
325.927	4544
326.015	6377
326.104	6872
326.192	11879
326.280	5060
326.369	4725
326.457	7305
326.545	14488
326.634	7402
326.722	4069
326.810	5371
326.898	4543
326.987	6277
327.075	12068
327.163	13254
327.251	7823
327.340	19009
327.428	35738
327.516	8161
327.604	5307
327.692	5605
327.781	5262
327.869	8925
327.957	6765
328.045	6876
328.133	4565
328.221	5422
328.309	5031
328.397	4439
328.485	6386
328.574	8078
328.662	29314
328.750	17938
328.838	7215
328.926	4801
329.014	4475
329.102	6412
329.190	15562
329.278	13328
329.366	4104
329.454	3929
329.542	3584
329.630	3124
329.718	4697
329.806	5689
329.893	4928
329.981	4613
330.069	6516
330.157	23072
330.245	83293
330.333	52779
330.421	8674
330.509	7944
330.597	33021
330.684	27503
330.772	7779
330.860	10716
330.948	13221
331.036	7882
331.123	3765
331.211	3216
331.299	4468
331.387	9986
331.475	23090
331.562	8119
331.650	4350
331.738	5096
331.825	7056
331.913	3949
332.001	3039
332.089	5381
332.176	9922
332.264	20672
332.352	21144
332.439	7182
332.527	5956
332.614	5140
332.702	6655
332.790	5014
332.877	9860
332.965	26354
333.052	12171
333.140	9692
333.228	31210
333.315	10396
333.403	5254
333.490	13394
333.578	16932
333.665	39125
333.753	22035
333.840	5626
333.928	6445
334.015	13616
334.103	21171
334.190	79200
334.278	26985
334.365	12259
334.452	11404
334.540	7689
334.627	6889
334.715	10087
334.802	16040
334.889	72988
334.977	104629
335.064	22157
335.151	9358
335.239	7914
335.326	9008
335.413	33607
335.501	62530
335.588	9940
335.675	6643
335.762	8607
335.850	14702
335.937	11626
336.024	24171
336.111	97634
336.199	65393
336.286	16945
336.373	8312
336.460	6111
336.547	5572
336.635	7242
336.722	6365
336.809	5682
336.896	7424
336.983	21936
337.070	55450
337.157	84728
337.245	52821
337.332	45716
337.419	6122
337.506	4927
337.593	5880
337.680	14788
337.767	59136
337.854	18548
337.941	18192
338.028	21007
338.115	9437
338.202	9357
338.289	13760
338.376	53151
338.463	22761
338.550	28073
338.637	42140
338.724	9549
338.811	18458
338.898	5726
338.984	3916
339.071	5639
339.158	6559
339.245	17255
339.332	14536
339.419	10767
339.506	13416
339.593	4071
339.679	4311
339.766	4251
339.853	5260
339.940	13300
340.027	5845
340.113	4920
340.200	7773
340.287	5845
340.374	6738
340.460	12186
340.547	6405
340.634	7801
340.720	31143
340.807	25897
340.894	5229
340.980	5368
341.067	4655
341.154	5546
341.240	7645
341.327	19339
341.414	7983
341.500	11010
341.587	5516
341.674	4648
341.760	10387
341.847	14956
341.933	5936
342.020	2875
342.106	2063
342.193	4423
342.279	9604
342.366	7378
342.452	12306
342.539	6690
342.625	13239
342.712	38063
342.798	17806
342.885	7298
342.971	2808
343.058	3320
343.144	3513
343.230	4387
343.317	4653
343.403	5264
343.490	3003
343.576	3202
343.662	3461
343.749	4711
343.835	5786
343.921	8461
344.008	45585
344.094	146676
344.180	40813
344.267	11666
344.353	35251
344.439	50029
344.525	19125
344.612	9306
344.698	7842
344.784	5498
344.870	4777
344.957	4457
345.043	7403
345.129	4726
345.215	11507
345.301	8268
345.387	6516
345.474	2672
345.560	3689
345.646	4239
345.732	4326
345.818	6035
345.904	6134
345.990	5245
346.076	4478
346.162	10854
346.249	5469
346.335	3405
346.421	4057
346.507	13066
346.593	59357
346.679	20074
346.765	5399
346.851	5550
346.937	5525
347.023	3712
347.108	5488
347.194	4696
347.280	4660
347.366	4956
347.452	14525
347.538	68508
347.624	53512
347.710	48291
347.796	8921
347.882	4660
347.967	3393
348.053	5773
348.139	4528
348.225	4208
348.311	4479
348.397	3952
348.482	4998
348.568	7026
348.654	4295
348.740	7784
348.825	9193
348.911	7168
348.997	23898
349.083	67306
349.168	14236
349.254	5847
349.340	6615
349.425	3993
349.511	4730
349.597	7343
349.682	10709
349.768	41451
349.854	26390
349.939	4709
350.025	3452
350.110	4336
350.196	3322
350.282	4087
350.367	3144
350.453	4610
350.538	7369
350.624	5889
350.709	6611
350.795	3152
350.880	4470
350.966	4518
351.051	6498
351.137	5448
351.222	4929
351.308	11348
351.393	38481
351.479	14123
351.564	5756
351.649	4708
351.735	3849
351.820	2849
351.906	4351
351.991	5367
352.076	18831
352.162	41500
352.247	9682
352.332	6339
352.418	12308
352.503	14674
352.588	46141
352.673	52994
352.759	11409
352.844	5730
352.929	5832
353.014	9269
353.100	5531
353.185	9069
353.270	13735
353.355	15085
353.441	5094
353.526	5124
353.611	10380
353.696	15388
353.781	9207
353.866	4175
353.952	5002
354.037	10736
354.122	26287
354.207	24543
354.292	11970
354.377	4473
354.462	4038
354.547	6073
354.632	6083
354.717	7306
354.802	13200
354.887	6737
354.972	3861
355.057	4372
355.142	3178
355.227	4591
355.312	7257
355.397	15290
355.482	38445
355.567	26207
355.652	13449
355.737	15676
355.822	41638
355.907	50450
355.991	7574
356.076	4278
356.161	4388
356.246	4263
356.331	4611
356.416	9000
356.501	58920
356.585	93189
356.670	15853
356.755	8657
356.840	9569
356.924	39151
357.009	169273
357.094	89931
357.179	16393
357.263	12295
357.348	10274
357.433	11647
357.517	10083
357.602	9564
357.687	7851
357.771	13216
357.856	55208
357.941	41003
358.025	27948
358.110	150776
358.195	102399
358.279	14631
358.364	10099
358.448	26319
358.533	87513
358.617	74254
358.702	65758
358.787	31451
358.871	13044
358.956	13017
359.040	5460
359.125	4539
359.209	6047
359.294	21717
359.378	57124
359.462	17701
359.547	8954
359.631	5964
359.716	4316
359.800	5405
359.885	6648
359.969	5885
360.053	4568
360.138	4636
360.222	6839
360.306	13219
360.391	12032
360.475	22676
360.559	66605
360.644	37603
360.728	29318
360.812	30342
360.896	111707
360.981	54156
361.065	29736
361.149	8062
361.233	8359
361.318	6997
361.402	8045
361.486	6941
361.570	5111
361.654	6954
361.739	14374
361.823	55570
361.907	122031
361.991	28881
362.075	11440
362.159	25844
362.243	22426
362.327	22372
362.411	36720
362.495	19766
362.580	9588
362.664	6438
362.748	7154
362.832	9053
362.916	14696
363.000	47148
363.084	124691
363.168	158922
363.252	45157
363.336	13591
363.420	14662
363.503	46036
363.587	76337
363.671	16650
363.755	9697
363.839	14480
363.923	8864
364.007	14714
364.091	18509
364.175	19413
364.258	86130
364.342	91509
364.426	129404
364.510	87707
364.594	28016
364.677	21572
364.761	82570
364.845	87281
364.929	24146
365.013	22173
365.096	14731
365.180	20983
365.264	17326
365.347	80384
365.431	50810
365.515	12043
365.598	7181
365.682	6260
365.766	9390
365.849	13744
365.933	7379
366.017	8950
366.100	7006
366.184	3565
366.267	4947
366.351	5012
366.435	4147
366.518	3459
366.602	3691
366.685	4778
366.769	5128
366.852	8260
366.936	15746
367.019	10762
367.103	7493
367.186	14310
367.270	6221
367.353	4494
367.436	4751
367.520	4705
367.603	6229
367.687	8578
367.770	17007
367.853	11025
367.937	23638
368.020	56553
368.104	15939
368.187	11227
368.270	18142
368.353	16771
368.437	15873
368.520	33274
368.603	27481
368.687	28498
368.770	70924
368.853	22945
368.936	13831
369.020	15767
369.103	7187
369.186	5594
369.269	5799
369.352	9075
369.436	16199
369.519	11122
369.602	6932
369.685	5199
369.768	6350
369.851	5011
369.934	4334
370.018	5762
370.101	12719
370.184	12179
370.267	8252
370.350	13323
370.433	20130
370.516	45320
370.599	79776
370.682	27869
370.765	33717
370.848	42548
370.931	78972
371.014	41912
371.097	8820
371.180	6951
371.263	4705
371.346	3456
371.429	5051
371.511	5895
371.594	9532
371.677	14926
371.760	16571
371.843	13913
371.926	44064
372.009	138850
372.091	61866
372.174	27905
372.257	70777
372.340	40521
372.423	20309
372.505	27522
372.588	14531
372.671	20093
372.754	74023
372.836	53186
372.919	23070
373.002	54950
373.085	24975
373.167	13887
373.250	29840
373.332	70721
373.415	80990
373.498	181930
373.580	89928
373.663	77452
373.746	144944
373.828	39714
373.911	14877
373.993	12620
374.076	41403
374.159	56924
374.241	21548
374.324	61382
374.406	56948
374.489	41021
374.571	145883
374.654	88144
374.736	27281
374.819	83964
374.901	121565
374.983	151218
375.066	35876
375.148	11581
375.231	32169
375.313	81409
375.395	38335
375.478	11309
375.560	6910
375.643	8313
375.725	21333
375.807	100719
375.890	106151
375.972	39182
376.054	19988
376.136	28890
376.219	17722
376.301	25334
376.383	98365
376.465	53963
376.548	23642
376.630	27782
376.712	80923
376.794	58036
376.877	8200
376.959	4557
377.041	5563
377.123	9474
377.205	14860
377.287	4605
377.369	4121
377.452	4687
377.534	4798
377.616	4478
377.698	4748
377.780	3874
377.862	4949
377.944	5404
378.026	3624
378.108	3877
378.190	4059
378.272	4284
378.354	3270
378.436	3844
378.518	5938
378.600	20409
378.682	21406
378.764	40329
378.846	46299
378.928	11715
379.010	15529
379.091	11015
379.173	5085
379.255	4590
379.337	6943
379.419	17396
379.501	62601
379.583	38409
379.664	7943
379.746	15105
379.828	40758
379.910	62359
379.991	63035
380.073	15531
380.155	7181
380.237	6624
380.318	4782
380.400	5666
380.482	9560
380.564	17476
380.645	16982
380.727	18372
380.809	11174
380.890	7853
380.972	5920
381.053	6234
381.135	7714
381.217	12742
381.298	46287
381.380	32705
381.461	17913
381.543	68561
381.624	123877
381.706	30333
381.787	13910
381.869	14000
381.951	28004
382.032	124388
382.113	114301
382.195	28504
382.276	18322
382.358	27985
382.439	76448
382.521	88219
382.602	139038
382.684	79434
382.765	108680
382.846	167057
382.928	285985
383.009	212325
383.090	103653
383.172	306416
383.253	579937
383.334	243527
383.416	144072
383.497	102043
383.578	51487
383.659	85486
383.741	253923
383.822	683837
383.903	490747
383.984	140897
384.066	163442
384.147	127423
384.228	35032
384.309	21458
384.390	18901
384.471	14271
384.553	13773
384.634	16760
384.715	18353
384.796	11854
384.877	12804
384.958	36866
385.039	61702
385.120	26053
385.201	11366
385.282	12439
385.363	14474
385.444	14267
385.525	18564
385.606	55967
385.687	67663
385.768	18819
385.849	16537
385.930	49705
386.011	116961
386.092	46729
386.173	10910
386.254	8142
386.335	8239
386.416	9570
386.496	23218
386.577	51010
386.658	22804
386.739	11700
386.820	11302
386.901	8432
386.981	9112
387.062	7652
387.143	10719
387.224	39854
387.304	52545
387.385	19254
387.466	12124
387.547	15142
387.627	12294
387.708	16235
387.789	65354
387.869	106447
387.950	38987
388.031	7748
388.111	5826
388.192	12219
388.273	20670
388.353	15814
388.434	9740
388.514	13381
388.595	56168
388.676	99505
388.756	55442
388.837	39407
388.917	35569
388.998	7705
389.078	7739
389.159	6040
389.239	6524
389.320	9126
389.400	9186
389.480	15156
389.561	45858
389.641	34032
389.722	8978
389.802	14449
389.883	18363
389.963	51667
390.043	44958
390.124	13993
390.204	14531
390.284	48322
390.365	41024
390.445	32114
390.525	90215
390.605	104136
390.686	37742
390.766	14822
390.846	7950
390.927	6030
391.007	6125
391.087	6750
391.167	8976
391.247	7361
391.328	8044
391.408	12981
391.488	11526
391.568	6294
391.648	7831
391.728	12170
391.808	10641
391.888	13189
391.969	23842
392.049	48257
392.129	26475
392.209	20440
392.289	53787
392.369	40471
392.449	25008
392.529	20470
392.609	16098
392.689	18363
392.769	49815
392.849	61213
392.929	35848
393.009	78119
393.089	84874
393.169	72138
393.248	175527
393.328	564129
393.408	762136
393.488	315097
393.568	92161
393.648	44595
393.728	28194
393.807	20513
393.887	17400
393.967	15511
394.047	14906
394.127	17161
394.206	23296
394.286	54392
394.366	247099
394.446	379948
394.525	112085
394.605	25896
394.685	17639
394.764	29873
394.844	55355
394.924	52035
395.003	18480
395.083	11434
395.163	10534
395.242	9177
395.322	10200
395.402	8344
395.481	10501
395.561	19449
395.640	61881
395.720	65976
395.799	67599
395.879	66478
395.958	32549
396.038	79771
396.117	331690
396.197	496867
396.276	178913
396.356	53718
396.435	37903
396.515	30677
396.594	33935
396.673	57881
396.753	168511
396.832	533352
396.912	549697
396.991	174240
397.070	47896
397.150	24435
397.229	18722
397.308	22452
397.388	44103
397.467	27366
397.546	10742
397.625	7598
397.705	11407
397.784	9681
397.863	7350
397.942	6189
398.022	6210
398.101	14553
398.180	53222
398.259	38317
398.338	10429
398.417	7037
398.497	5022
398.576	6084
398.655	4402
398.734	4294
398.813	4648
398.892	12413
398.971	54398
399.050	42249
399.129	6928
399.208	3417
399.287	3946
399.366	3420
399.445	3835
399.524	3158
399.603	3416
399.682	6711
399.761	16413
399.840	54314
399.919	61429
399.998	11472
400.077	3116
400.156	2422
400.235	5123
400.313	3350
400.392	3581
400.471	17331
400.550	41500
400.629	15128
400.708	5688
400.786	4706
400.865	11543
400.944	15904
401.023	9149
401.102	2949
401.180	2748
401.259	2855
401.338	3110
401.416	4873
401.495	5013
401.574	4283
401.652	2720
401.731	4546
401.810	4962
401.888	3670
401.967	2489
402.046	3759
402.124	4431
402.203	5819
402.281	5166
402.360	5884
402.438	14871
402.517	14821
402.596	6061
402.674	4715
402.753	3147
402.831	2839
402.910	3500
402.988	11905
403.066	57455
403.145	50664
403.223	16608
403.302	47858
403.380	44755
403.459	40116
403.537	22265
403.615	7157
403.694	2405
403.772	3226
403.850	1855
403.929	1955
404.007	1603
404.085	6222
404.164	8660
404.242	4234
404.320	4429
404.398	10619
404.477	20586
404.555	85085
404.633	112925
404.711	25211
404.789	7852
404.868	4405
404.946	3225
405.024	1928
405.102	1675
405.180	2023
405.258	1717
405.336	2047
405.415	1341
405.493	6276
405.571	7968
405.649	3163
405.727	1691
405.805	5036
405.883	4737
405.961	5294
406.039	4807
406.117	3340
406.195	5220
406.273	17525
406.351	80800
406.429	74650
406.507	12051
406.585	4347
406.663	3238
406.740	4519
406.818	4346
406.896	3081
406.974	2673
407.052	5711
407.130	39696
407.208	86104
407.285	24509
407.363	4327
407.441	3779
407.519	2349
407.596	3598
407.674	7886
407.752	27911
407.830	36204
407.907	13958
407.985	5293
408.063	2926
408.141	1589
408.218	2952
408.296	5624
408.373	4658
408.451	3521
408.529	3847
408.606	2128
408.684	1512
408.762	2342
408.839	1957
408.917	1862
408.994	2126
409.072	2084
409.149	2331
409.227	5619
409.304	7687
409.382	7182
409.459	7928
409.537	10867
409.614	10266
409.692	7073
409.769	5898
409.846	10560
409.924	15477
410.001	12305
410.079	6863
410.156	6394
410.233	4259
410.311	3845
410.388	4067
410.465	4036
410.543	4515
410.620	3603
410.697	2816
410.775	4474
410.852	2921
410.929	4532
411.006	6693
411.083	4294
411.161	8717
411.238	11469
411.315	5522
411.392	2262
411.469	3759
411.547	5773
411.624	2566
411.701	3250
411.778	2993
411.855	6326
411.932	5524
412.009	2779
412.086	3115
412.163	2876
412.240	3428
412.317	4411
412.394	4782
412.471	3024
412.548	1656
412.625	2175
412.702	2295
412.779	6302
412.856	5245
412.933	1711
413.010	1952
413.087	3106
413.164	16232
413.241	35072
413.318	10688
413.395	4088
413.471	7176
413.548	4537
413.625	2442
413.702	2157
413.779	3325
413.855	1681
413.932	785
414.009	987
414.086	1778
414.162	1871
414.239	2469
414.316	15138
414.393	47115
414.469	26157
414.546	3472
414.623	1301
414.699	1166
414.776	1960
414.853	1417
414.929	1815
415.006	1650
415.082	2109
415.159	2810
415.236	2020
415.312	2048
415.389	4310
415.465	7058
415.542	4234
415.618	1570
415.695	4277
415.771	3051
415.848	2533
415.924	2150
416.000	1533
416.077	2318
416.153	877
416.230	622
416.306	247
416.383	995
416.459	1047
416.535	686
416.612	1490
416.688	1574
416.764	963
416.841	1329
416.917	1885
416.993	1947
417.069	1709
417.146	2784
417.222	4831
417.298	3112
417.374	2212
417.451	1739
417.527	3156
417.603	2873
417.679	2945
417.755	2183
417.831	984
417.908	1763
417.984	480
418.060	712
418.136	4524
418.212	8263
418.288	4226
418.364	2487
418.440	1452
418.516	3813
418.592	4350
418.668	8834
418.744	14135
418.820	12729
418.896	3741
418.972	1087
419.048	2167
419.124	5808
419.200	5993
419.276	1521
419.352	593
419.428	1111
419.504	1444
419.579	3348
419.655	2484
419.731	2126
419.807	7172
419.883	16293
419.959	14905
420.034	4365
420.110	5860
420.186	24901
420.262	30742
420.337	6068
420.413	3761
420.489	2739
420.565	2464
420.640	1138
420.716	2747
420.792	1631
420.867	3421
420.943	2152
421.019	4764
421.094	4506
421.170	2494
421.245	2617
421.321	2824
421.397	2862
421.472	6641
421.548	16531
421.623	18058
421.699	7911
421.774	6898
421.850	5774
421.925	8870
422.001	10488
422.076	8687
422.152	9927
422.227	16495
422.302	21349
422.378	28357
422.453	51377
422.529	110452
422.604	264405
422.679	403966
422.755	360971
422.830	189581
422.905	76863
422.981	42015
423.056	25408
423.131	19193
423.207	14397
423.282	11419
423.357	15116
423.432	13538
423.508	9926
423.583	16158
423.658	17316
423.733	7168
423.808	6829
423.883	7286
423.959	7224
424.034	7395
424.109	6108
424.184	4516
424.259	3426
424.334	3482
424.409	2451
424.484	3029
424.559	2985
424.634	3603
424.709	4047
424.784	4923
424.859	4020
424.934	4840
425.009	15939
425.084	35162
425.159	19597
425.234	4283
425.309	2846
425.384	11645
425.459	33003
425.534	14003
425.609	2834
425.683	2125
425.758	1894
425.833	2597
425.908	3681
425.983	8259
426.058	32739
426.132	22906
426.207	3701
426.282	5411
426.357	5066
426.431	2215
426.506	1953
426.581	1918
426.655	2046
426.730	2633
426.805	1385
426.879	2471
426.954	2224
427.029	3907
427.103	22822
427.178	76216
427.253	53777
427.327	7255
427.402	6399
427.476	26070
427.551	23044
427.625	4742
427.700	3966
427.774	1384
427.849	2886
427.923	1967
427.998	1882
428.072	2491
428.147	6306
428.221	23131
428.296	90573
428.370	79243
428.444	10551
428.519	6122
428.593	11081
428.667	12625
428.742	12213
428.816	14221
428.890	47066
428.965	119890
429.039	55503
429.113	17968
429.188	9023
429.262	3140
429.336	4110
429.410	15073
429.485	15714
429.559	9778
429.633	10902
429.707	4732
429.781	8201
429.855	48642
429.930	114566
430.004	54386
430.078	52648
430.152	59754
430.226	100060
430.300	153373
430.374	36251
430.448	7729
430.522	13631
430.596	49162
430.670	43976
430.744	76777
430.818	164129
430.892	50364
430.966	7092
431.040	2821
431.114	1712
431.188	2039
431.262	1783
431.336	1733
431.410	5063
431.484	14239
431.557	14532
431.631	3502
431.705	3014
431.779	12371
431.853	73854
431.927	86512
432.000	13189
432.074	3626
432.148	2342
432.222	3194
432.295	1857
432.369	1407
432.443	2751
432.516	19775
432.590	74925
432.664	46541
432.737	4570
432.811	1398
432.885	596
432.958	614
433.032	206
433.106	533
433.179	717
433.253	950
433.326	825
433.400	620
433.473	592
433.547	-227
433.620	564
433.694	2747
433.767	5276
433.841	1740
433.914	833
433.988	668
434.061	1263
434.134	927
434.208	514
434.281	411
434.355	215
434.428	1390
434.501	1623
434.575	959
434.648	812
434.721	286
434.795	113
434.868	711
434.941	620
435.014	916
435.088	1102
435.161	3389
435.234	6176
435.307	7060
435.381	4761
435.454	3391
435.527	5034
435.600	6145
435.673	5617
435.746	3229
435.819	1886
435.892	1593
435.966	1614
436.039	921
436.112	1464
436.185	815
436.258	334
436.331	294
436.404	250
436.477	-116
436.550	166
436.623	264
436.696	525
436.769	1422
436.842	1056
436.915	359
436.987	2240
437.060	2350
437.133	666
437.206	1129
437.279	1756
437.352	676
437.425	853
437.498	1283
437.570	3335
437.643	5074
437.716	1293
437.789	568
437.861	2345
437.934	11095
438.007	8455
438.080	1313
438.152	1448
438.225	4097
438.298	23983
438.370	102349
438.443	70168
438.516	15331
438.588	3904
438.661	1271
438.734	1425
438.806	1362
438.879	2672
438.951	2571
439.024	6666
439.096	2918
439.169	971
439.241	1082
439.314	-24
439.386	958
439.459	3403
439.531	6265
439.604	3807
439.676	1101
439.749	617
439.821	107
439.893	666
439.966	368
440.038	1755
440.110	2521
440.183	1171
440.255	274
440.327	2744
440.400	10495
440.472	57687
440.544	63693
440.617	9212
440.689	4539
440.761	5644
440.833	9705
440.905	8848
440.978	2266
441.050	477
441.122	538
441.194	1027
441.266	1331
441.338	974
441.411	2223
441.483	14685
441.555	36642
441.627	11152
441.699	3080
441.771	3965
441.843	1946
441.915	1295
441.987	1303
442.059	977
442.131	2646
442.203	4281
442.275	4905
442.347	4835
442.419	6798
442.491	32235
442.563	119795
442.635	77854
442.706	20905
442.778	17231
442.850	5059
442.922	2422
442.994	2709
443.066	4776
443.137	4527
443.209	3415
443.281	5570
443.353	11277
443.425	38825
443.496	172519
443.568	239271
443.640	111745
443.711	21782
443.783	6302
443.855	4563
443.926	2279
443.998	3196
444.070	3134
444.141	3479
444.213	4242
444.285	6119
444.356	4086
444.428	4492
444.499	2475
444.571	851
444.642	855
444.714	1872
444.785	3772
444.857	5203
444.928	9984
445.000	9227
445.071	6839
445.143	11893
445.214	8764
445.285	11268
445.357	29033
445.428	91705
445.500	278827
445.571	230649
445.642	133009
445.714	47835
445.785	26128
445.856	11184
445.928	7097
445.999	6295
446.070	5860
446.141	4540
446.213	6267
446.284	3884
446.355	2955
446.426	2757
446.497	2218
446.569	2972
446.640	5792
446.711	5536
446.782	1715
446.853	1986
446.924	2786
446.995	2334
447.066	2051
447.138	3179
447.209	2898
447.280	507
447.351	881
447.422	1052
447.493	1118
447.564	2256
447.635	3250
447.706	1682
447.777	780
447.847	491
447.918	101
447.989	1339
448.060	2678
448.131	5544
448.202	7809
448.273	4903
448.344	2947
448.414	805
448.485	362
448.556	880
448.627	183
448.698	982
448.768	174
448.839	513
448.910	2486
448.981	4519
449.051	1471
449.122	574
449.193	346
449.263	1001
449.334	-118
449.405	1504
449.475	4925
449.546	4812
449.616	3693
449.687	4626
449.758	2658
449.828	1024
449.899	1115
449.969	281
450.040	-389
450.110	1114
450.181	1822
450.251	977
450.322	290
450.392	1047
450.463	462
450.533	1168
450.604	390
450.674	709
450.744	1101
450.815	455
450.885	1228
450.955	737
451.026	656
451.096	523
451.166	1427
451.237	2904
451.307	11074
451.377	7658
451.447	1167
451.518	564
451.588	393
451.658	590
451.728	1591
451.799	8755
451.869	15436
451.939	4842
452.009	553
452.079	91
452.149	385
452.219	2118
452.289	10701
452.360	13078
452.430	3735
452.500	1223
452.570	3271
452.640	4852
452.710	12782
452.780	23643
452.850	15167
452.920	12520
452.990	6037
453.060	2769
453.129	3141
453.199	3780
453.269	8435
453.339	35283
453.409	62184
453.479	42396
453.549	70508
453.619	79708
453.688	45169
453.758	6796
453.828	2002
453.898	1250
453.968	841
454.037	997
454.087	650
454.107	493
454.168	872
454.177	916
454.247	254
454.249	267
454.316	220
454.330	459
454.386	1192
454.411	2455
454.456	4320
454.492	7960
454.525	11179
454.574	7096
454.595	5371
454.655	1889
454.665	1324
454.734	1359
454.736	1452
454.804	3571
454.817	4779
454.873	8878
454.898	11167
454.943	15126
454.979	10403
455.013	6328
455.060	3717
455.082	2686
455.141	3245
455.152	3284
455.221	6881
455.222	7095
455.291	17198
455.303	16425
455.360	12788
455.384	14444
455.430	16447
455.465	14943
455.499	13755
455.546	11943
455.569	10727
455.627	8975
455.638	8778
455.707	2972
455.708	2971
455.777	675
455.789	923
455.846	1791
455.869	1597
455.916	1334
455.950	1102
455.985	785
456.031	1090
456.054	1260
456.112	1769
456.124	1876
456.193	1255
456.193	1236
456.262	1874
456.274	1922
456.332	2184
456.355	2234
456.401	1865
456.436	1556
456.470	1303
456.516	822
456.540	672
456.597	1094
456.609	1123
456.678	1246
456.678	1236
456.747	753
456.759	763
456.817	752
456.840	733
456.886	593
456.920	942
456.955	1465
457.001	1531
457.024	1536
457.082	1966
457.093	2103
457.162	3137
457.163	3163
457.232	3748
457.243	3554
457.301	2673
457.324	1968
457.370	1016
457.405	1280
457.439	1578
457.485	1827
457.508	1949
457.566	2303
457.577	2452
457.646	3899
457.647	3933
457.715	7052
457.727	7728
457.784	12488
457.808	15648
457.853	18645
457.889	23380
457.922	25120
457.969	18311
457.991	18463
458.050	19788
458.060	20139
458.129	32154
458.130	32669
458.198	36265
458.211	32884
458.267	21487
458.292	15122
458.336	8728
458.372	8153
458.405	10298
458.453	15612
458.474	19397
458.533	32242
458.543	33010
458.611	53059
458.614	53616
458.680	41593
458.694	33425
458.749	15959
458.775	11267
458.818	5576
458.855	4186
458.887	3225
458.936	3088
458.955	3014
459.016	2604
459.024	2569
459.093	2919
459.097	2925
459.162	2980
459.177	3010
459.230	3418
459.257	3812
459.299	3773
459.338	3553
459.368	3634
459.418	4087
459.437	3982
459.499	3946
459.505	3993
459.574	2961
459.579	2958
459.643	2890
459.659	2791
459.711	2625
459.740	2604
459.780	2516
459.820	3012
459.849	3220
459.900	3009
459.917	3068
459.981	3248
459.986	3220
460.054	3310
460.061	3291
460.123	2987
460.141	2970
460.191	3790
460.222	4069
460.260	3857
460.302	4372
460.328	4426
460.382	4005
460.397	4144
460.462	4072
460.465	4193
460.534	7832
460.543	8271
460.602	19101
460.623	23306
460.671	36231
460.703	47910
460.739	41483
460.783	34575
460.808	32364
460.864	10362
460.876	8126
460.944	3662
460.945	3609
461.013	3176
461.024	3157
461.081	3399
461.104	3613
461.150	3636
461.184	3505
461.218	3623
461.264	3385
461.286	3146
461.345	2977
461.355	3076
461.423	4392
461.425	4391
461.491	4112
461.505	4205
461.559	7171
461.585	8650
461.628	13040
461.665	17412
461.696	18560
461.745	22063
461.764	19542
461.825	8007
461.832	8008
461.901	5092
461.905	5068
461.969	3576
461.985	3494
462.037	4243
462.065	4341
462.105	4786
462.145	5428
462.173	6938
462.225	9734
462.241	10485
462.305	14358
462.310	13935
462.378	8601
462.385	7563
462.446	5421
462.465	4898
462.514	4007
462.545	4015
462.582	4075
462.625	4154
462.650	4085
462.705	4071
462.718	4167
462.785	4138
462.786	4169
462.854	6438
462.865	6731
462.922	7774
462.945	8544
462.990	6877
463.025	4928
463.058	4506
463.104	3876
463.126	3694
463.184	3488
463.194	3495
463.262	3839
463.264	3840
463.330	4259
463.344	4395
463.398	5206
463.424	5460
463.466	4890
463.504	4494
463.533	4548
463.583	4652
463.601	4819
463.663	5286
463.669	5497
463.737	7556
463.743	7825
463.805	12328
463.823	13484
463.873	18497
463.903	21612
463.940	21850
463.982	22958
464.008	18477
464.062	7627
464.076	7463
464.142	5099
464.144	5059
464.211	4714
464.221	4662
464.279	4221
464.301	4294
464.347	5130
464.381	5492
464.414	6152
464.461	7294
464.482	7594
464.540	8219
464.550	8092
464.617	7301
464.620	7260
464.685	7447
464.699	7430
464.753	7948
464.779	8276
464.820	9430
464.859	10562
464.888	10083
464.938	9134
464.956	9310
465.018	9863
465.023	9716
465.091	7486
465.098	7259
465.158	7095
465.177	7081
465.226	7415
465.257	7533
465.293	7591
465.336	7626
465.361	8464
465.416	10349
465.428	10949
465.495	14213
465.496	14286
465.563	22282
465.575	23618
465.631	27241
465.654	29113
465.698	18753
465.734	9478
465.765	8746
465.813	7230
465.833	7160
465.893	7605
465.900	7551
465.968	6934
465.972	6881
466.035	6408
466.052	6325
466.102	6698
466.131	6804
466.170	7073
466.210	7330
466.237	7656
466.290	8304
466.304	8214
466.369	7761
466.372	7820
466.439	9125
466.449	9300
466.506	10344
466.528	10755
466.573	14900
466.607	17914
466.641	24876
466.687	34523
466.708	37191
466.766	44512
466.775	41183
466.842	15745
466.845	14503
466.909	11360
466.925	10625
466.977	9983
467.004	9734
467.044	10186
467.083	10600
467.111	11219
467.163	12338
467.178	12762
467.242	14420
467.245	14358
467.312	12552
467.321	12289
467.379	12401
467.400	12412
467.446	13786
467.480	14735
467.559	11329
467.638	10512
467.717	11189
467.796	12267
467.875	12755
467.955	12305
468.034	19582
468.113	39689
468.192	55491
468.271	15383
468.350	13690
468.429	15938
468.508	17562
468.588	13237
468.667	11749
468.746	10994
468.825	11200
468.904	9228
468.983	12327
469.062	16603
469.141	18814
469.220	8914
469.299	9015
469.378	10274
469.456	11330
469.535	10638
469.614	9903
469.693	11600
469.772	14519
469.851	19858
469.930	13086
470.009	10595
470.088	11873
470.166	14073
470.245	21747
470.324	24723
470.403	15409
470.482	11596
470.560	10699
470.639	10329
470.718	11309
470.797	9795
470.875	13044
470.954	16421
471.033	16434
471.111	8756
471.190	8458
471.269	8145
471.347	6497
471.426	9182
471.505	10379
471.583	10001
471.662	9756
471.740	8690
471.819	9189
471.898	8725
471.976	8878
472.055	8414
472.133	10744
472.212	13205
472.290	13028
472.369	9340
472.447	8207
472.526	8028
472.604	8161
472.683	8732
472.761	10119
472.839	8672
472.918	8809
472.996	9221
473.075	9631
473.153	9818
473.231	8982
473.310	10162
473.388	10170
473.466	8997
473.545	10942
473.623	12943
473.701	12308
473.780	9325
473.858	9611
473.936	11129
474.014	9512
474.093	10280
474.171	13186
474.249	19196
474.327	12279
474.405	7989
474.484	7403
474.562	8253
474.640	8203
474.718	8550
474.796	8877
474.874	8457
474.952	7369
475.030	8397
475.108	8468
475.187	9309
475.265	10152
475.343	14365
475.421	14735
475.499	8009
475.577	9122
475.655	12303
475.733	21985
475.811	36585
475.889	33129
475.966	20276
476.044	8923
476.122	10843
476.200	13105
476.278	10592
476.356	7548
476.434	8879
476.512	10046
476.590	13322
476.667	12129
476.745	7428
476.823	8695
476.901	8534
476.979	8101
477.056	8861
477.134	8922
477.212	9367
477.290	8049
477.367	7406
477.445	8110
477.523	6921
477.601	7870
477.678	7359
477.756	9394
477.834	10586
477.911	7287
477.989	8059
478.066	7935
478.144	9266
478.222	11314
478.299	16320
478.377	14328
478.454	7518
478.532	7095
478.609	7865
478.687	7775
478.764	6414
478.842	7476
478.919	7936
478.997	8082
479.074	7914
479.152	8799
479.229	10992
479.307	6610
479.384	7005
479.461	6937
479.539	6708
479.616	9028
479.694	7887
479.771	8741
479.848	8979
479.926	10809
480.003	11605
480.080	7356
480.157	7010
480.235	6071
480.312	6473
480.389	8237
480.467	12087
480.544	15393
480.621	8129
480.698	8278
480.775	9406
480.853	9503
480.930	7574
481.007	7408
481.084	8736
481.161	10287
481.238	9334
481.315	7045
481.392	8034
481.470	8139
481.547	8133
481.624	6828
481.701	6664
481.778	6969
481.855	8275
481.932	12768
482.009	20173
482.086	14123
482.163	8910
482.240	12890
482.317	20172
482.393	15125
482.470	8151
482.547	8056
482.624	6490
482.701	8600
482.778	7219
482.855	6717
482.932	7040
483.009	6025
483.085	8749
483.162	11297
483.239	10570
483.316	8276
483.393	8077
483.469	7322
483.546	9007
483.623	8614
483.699	7530
483.776	7464
483.853	8046
483.930	13391
484.006	31139
484.083	53165
484.160	26147
484.236	36348
484.313	28315
484.389	22879
484.466	20573
484.543	18935
484.619	20136
484.696	22266
484.772	21292
484.849	21791
484.925	17465
485.002	17967
485.078	19572
485.155	19782
485.231	17007
485.308	16797
485.384	17170
485.461	21203
485.537	33282
485.614	38071
485.690	16615
485.766	16625
485.843	17482
485.919	22195
485.995	22494
486.072	15090
486.148	15705
486.224	14396
486.301	16491
486.377	18535
486.453	18113
486.530	17717
486.606	22291
486.682	25887
486.758	29709
486.835	33685
486.911	27606
486.987	42781
487.063	42720
487.139	49156
487.215	36731
487.292	19783
487.368	17828
487.444	19943
487.520	24521
487.596	29586
487.672	53811
487.748	138766
487.824	197232
487.900	56722
487.976	24301
488.052	21262
488.128	24085
488.204	19974
488.280	17032
488.356	21996
488.432	39894
488.508	55872
488.584	19717
488.660	14762
488.736	14431
488.812	15516
488.888	19282
488.964	25751
489.039	48558
489.115	71450
489.191	39524
489.267	15790
489.343	14996
489.418	13111
489.494	12938
489.570	12451
489.646	13779
489.722	12536
489.797	14753
489.873	22105
489.949	43562
490.024	34229
490.100	11866
490.176	13276
490.251	15203
490.327	20182
490.403	13495
490.478	12801
490.554	10446
490.629	11274
490.705	10878
490.781	11158
490.856	11017
490.932	13598
491.007	13060
491.083	12641
491.158	12348
491.234	17021
491.309	31342
491.385	31924
491.460	12638
491.536	12556
491.611	10438
491.686	11778
491.762	16159
491.837	31716
491.913	52898
491.988	70566
492.063	84365
492.139	25940
492.214	16578
492.289	9851
492.365	9629
492.440	11578
492.515	11685
492.590	12242
492.666	9794
492.741	13678
492.816	19336
492.891	10937
492.967	9569
493.042	8400
493.117	9169
493.192	10832
493.267	17932
493.342	41424
493.418	52531
493.493	12098
493.568	8102
493.643	9149
493.718	10773
493.793	17594
493.868	17554
493.943	11102
494.018	9537
494.093	9312
494.168	8350
494.243	8549
494.318	7328
494.393	7953
494.468	7742
494.543	7733
494.618	8573
494.693	8750
494.768	9052
494.842	8335
494.917	7500
494.992	8419
495.067	7197
495.142	7578
495.217	7332
495.292	7446
495.366	9277
495.441	11198
495.516	14469
495.591	22917
495.665	66629
495.740	147846
495.815	53386
495.890	11944
495.964	9660
496.039	11407
496.114	10679
496.188	12303
496.263	13006
496.338	9616
496.412	12115
496.487	13458
496.561	13284
496.636	13393
496.710	11674
496.785	12306
496.860	14835
496.934	10909
497.009	11047
497.083	11164
497.158	11563
497.232	13570
497.307	16421
497.381	14385
497.455	16283
497.530	20405
497.604	14220
497.679	15837
497.753	25167
497.827	30385
497.902	27831
497.976	37367
498.050	94376
498.125	304526
498.199	282008
498.273	43880
498.348	32560
498.422	26714
498.496	23978
498.570	21939
498.645	15503
498.719	16549
498.793	18938
498.867	29605
498.941	45743
499.016	129656
499.090	322491
499.164	95416
499.238	13071
499.312	12030
499.386	14938
499.460	14375
499.534	13366
499.609	16204
499.683	23669
499.757	24815
499.831	61801
499.905	212888
499.979	183668
500.053	26860
500.127	26196
500.201	17843
500.275	11577
500.349	12449
500.422	14837
500.496	22280
500.570	49130
500.644	119572
500.718	214556
500.792	40657
500.866	11445
500.940	15893
501.013	12814
501.087	12810
501.161	21646
501.235	32612
501.309	72520
501.382	188225
501.456	150643
501.530	34241
501.603	57333
501.677	21655
501.751	8848
501.825	12875
501.898	27815
501.972	72147
502.046	40238
502.119	13507
502.193	33105
502.266	77429
502.340	35748
502.413	34835
502.487	65713
502.561	36027
502.634	11355
502.708	9843
502.781	8763
502.855	7812
502.928	6012
503.002	7417
503.075	7097
503.149	7503
503.222	7354
503.295	7864
503.369	10677
503.442	18044
503.516	57112
503.589	132747
503.662	79217
503.736	27196
503.809	63956
503.882	51553
503.956	77905
504.029	76904
504.102	78344
504.175	103269
504.249	32788
504.322	16900
504.395	12390
504.468	8383
504.542	8809
504.615	6016
504.688	6875
504.761	6581
504.834	8469
504.907	9359
504.980	15422
505.053	8124
505.127	9146
505.200	12848
505.273	11817
505.346	7884
505.419	5621
505.492	6176
505.565	5445
505.638	5124
505.711	5665
505.784	5238
505.857	4104
505.930	5338
506.003	4731
506.076	7319
506.149	8619
506.221	11458
506.294	11808
506.367	32576
506.440	98341
506.513	47426
506.586	11755
506.659	6807
506.731	6511
506.804	8186
506.877	10279
506.950	7920
507.022	6177
507.095	7899
507.168	9701
507.241	6357
507.313	5005
507.386	5595
507.459	8012
507.531	5481
507.604	5525
507.677	5437
507.749	4527
507.822	7541
507.894	14549
507.967	16697
508.040	10557
508.112	8946
508.185	8239
508.257	8556
508.330	11865
508.402	7469
508.475	8700
508.547	7955
508.620	8405
508.692	13206
508.765	8781
508.837	6280
508.909	6912
508.982	6386
509.054	7163
509.127	6228
509.199	6212
509.271	6519
509.344	5906
509.416	5708
509.488	6004
509.560	6430
509.633	7080
509.705	7511
509.777	7854
509.849	10451
509.922	6507
509.994	6500
510.066	7064
510.138	7344
510.210	14892
510.283	13482
510.355	11658
510.427	9487
510.499	9092
510.571	9957
510.643	9627
510.715	13688
510.787	11358
510.859	9688
510.931	10868
511.003	13602
511.076	12091
511.148	7524
511.219	9172
511.291	14315
511.363	15046
511.435	7751
511.507	7408
511.579	7906
511.651	7603
511.723	6721
511.795	6566
511.867	8172
511.939	10290
512.010	18969
512.082	13552
512.154	7267
512.226	8946
512.298	11488
512.369	16979
512.441	13507
512.513	12932
512.585	9952
512.656	9725
512.728	10630
512.800	9012
512.871	9284
512.943	8868
513.015	6865
513.086	8029
513.158	10298
513.230	10354
513.301	13241
513.373	14646
513.444	9185
513.516	8155
513.588	7289
513.659	8820
513.731	11655
513.802	10831
513.874	20448
513.945	29838
514.016	11021
514.088	8098
514.159	9877
514.231	12126
514.302	15372
514.374	11982
514.445	11855
514.516	22022
514.588	15751
514.659	12073
514.730	19802
514.802	14537
514.873	11878
514.944	12768
515.016	10513
515.087	12212
515.158	16095
515.229	19191
515.301	12846
515.372	15436
515.443	10222
515.514	9313
515.585	8036
515.656	8620
515.728	8083
515.799	8265
515.870	8690
515.941	8239
516.012	9209
516.083	11354
516.154	13379
516.225	17158
516.296	14428
516.367	13524
516.438	15301
516.509	22192
516.580	41904
516.651	130518
516.722	393771
516.793	154006
516.864	25614
516.935	25505
517.006	32291
517.077	54567
517.148	142884
517.219	484884
517.289	674440
517.360	161311
517.431	43754
517.502	15202
517.573	14338
517.643	14088
517.714	15834
517.785	16289
517.856	16134
517.926	18101
517.997	22647
518.068	30192
518.138	48610
518.209	101159
518.280	347215
518.350	1012467
518.421	361672
518.492	40266
518.562	23787
518.633	25055
518.703	27771
518.774	53649
518.845	130567
518.915	118915
518.986	35030
519.056	23166
519.127	34873
519.197	52366
519.268	108968
519.338	66455
519.408	17424
519.479	20213
519.549	15468
519.620	11534
519.690	8807
519.760	9042
519.831	9713
519.901	8528
519.971	7689
520.042	8795
520.112	10533
520.182	11301
520.253	13095
520.323	10140
520.393	16700
520.463	26994
520.534	19269
520.604	38815
520.674	15596
520.744	17284
520.814	44188
520.885	39292
520.955	41468
521.025	123567
521.095	45679
521.165	9694
521.235	8240
521.305	6666
521.375	7703
521.445	8655
521.515	10377
521.585	11858
521.655	11259
521.725	9776
521.795	9618
521.865	7597
521.935	12193
522.005	11089
522.075	7633
522.145	7545
522.215	9356
522.285	13703
522.355	17999
522.424	31444
522.494	26120
522.564	15203
522.634	26809
522.704	68526
522.774	26705
522.843	7863
522.913	7235
522.983	10837
523.053	7655
523.122	8873
523.192	13430
523.262	37547
523.331	34590
523.401	9290
523.471	6179
523.540	7223
523.610	5962
523.680	6928
523.749	6577
523.819	8760
523.888	8750
523.958	5452
524.027	7361
524.097	8046
524.166	6779
524.236	6432
524.305	8140
524.375	7034
524.444	5885
524.514	8208
524.583	7612
524.653	8602
524.722	10431
524.791	7388
524.861	7805
524.930	5748
524.999	7228
525.069	9371
525.138	8612
525.207	9833
525.277	7324
525.346	7522
525.415	7566
525.484	8811
525.554	9417
525.623	9122
525.692	9531
525.761	9335
525.830	10222
525.900	14145
525.969	24865
526.038	44562
526.107	96366
526.176	253601
526.245	200057
526.314	65786
526.383	136455
526.452	188955
526.522	286614
526.591	271234
526.660	54396
526.729	28241
526.797	40087
526.867	90234
526.935	300569
527.004	589473
527.073	319749
527.142	26986
527.211	12936
527.280	12530
527.349	10794
527.418	6906
527.487	7390
527.555	6112
527.624	6041
527.693	5412
527.762	6337
527.831	5436
527.899	6922
527.968	6384
528.037	5284
528.106	7769
528.174	12735
528.243	11881
528.312	15723
528.380	18112
528.449	6276
528.518	6534
528.586	3857
528.655	5573
528.723	4697
528.792	4049
528.861	5842
528.929	3824
528.998	5338
529.066	4232
529.135	4471
529.203	4452
529.272	3463
529.340	5905
529.409	6026
529.477	5229
529.545	6950
529.614	8877
529.682	8323
529.751	9817
529.819	11290
529.887	7151
529.956	5463
530.024	5399
530.092	4643
530.161	7439
530.229	9515
530.297	6148
530.365	6067
530.434	3997
530.502	4589
530.570	5326
530.638	3617
530.707	5480
530.775	6851
530.843	4434
530.911	4788
530.979	4858
531.047	5133
531.115	5667
531.183	4634
531.252	5233
531.320	5067
531.388	4598
531.456	5190
531.524	3557
531.592	5222
531.660	7044
531.728	4254
531.796	4193
531.864	4426
531.932	5160
532.000	4973
532.067	5639
532.135	6666
532.203	7655
532.271	7883
532.339	13207
532.407	28596
532.475	16385
532.542	9637
532.610	11445
532.678	17708
532.746	60790
532.814	133632
532.881	33194
532.949	8291
533.017	6826
533.084	7108
533.152	4740
533.220	6057
533.287	6345
533.355	5968
533.423	5014
533.490	5442
533.558	5539
533.625	5658
533.693	6786
533.761	6450
533.828	8089
533.896	7227
533.963	13104
534.031	14698
534.098	19031
534.166	10713
534.233	6887
534.300	7981
534.368	7674
534.435	7011
534.503	8026
534.570	9788
534.637	9447
534.705	10993
534.772	17563
534.840	34064
534.907	115687
534.974	143099
535.041	18473
535.109	10316
535.176	6412
535.243	7473
535.310	7557
535.378	6033
535.445	6396
535.512	6675
535.579	6654
535.646	6427
535.714	7517
535.781	8658
535.848	8541
535.915	7022
535.982	7015
536.049	7264
536.116	8714
536.183	7539
536.250	7173
536.317	8101
536.384	9370
536.451	12254
536.518	11723
536.585	8097
536.652	11507
536.719	14764
536.786	12077
536.853	10189
536.920	15163
536.987	21852
537.053	23159
537.120	70857
537.187	58774
537.254	9502
537.321	7606
537.388	8971
537.454	6659
537.521	6911
537.588	7272
537.654	8900
537.721	9803
537.788	9827
537.855	7737
537.921	7783
537.988	7264
538.055	8891
538.121	7571
538.188	9469
538.254	11108
538.321	20590
538.388	14189
538.454	8617
538.521	8854
538.587	8436
538.654	8176
538.720	7307
538.787	7641
538.853	8483
538.920	9989
538.986	10589
539.053	8557
539.119	8627
539.185	8460
539.252	10277
539.318	12707
539.385	12498
539.451	10691
539.517	11396
539.583	12870
539.650	25041
539.716	51893
539.782	17861
539.849	8772
539.915	9053
539.981	8402
540.047	9923
540.114	9285
540.180	10435
540.246	8717
540.312	12503
540.378	20902
540.444	23762
540.510	24932
540.576	57756
540.643	20603
540.709	7948
540.775	8412
540.841	8540
540.907	12816
540.973	19475
541.039	15372
541.105	14040
541.171	10505
541.237	8673
541.303	10097
541.369	11954
541.435	12979
541.500	19151
541.566	12326
541.632	9133
541.698	8176
541.764	9060
541.830	9079
541.896	7021
541.961	7705
542.027	8348
542.093	9071
542.159	9352
542.224	11120
542.290	14185
542.356	19634
542.421	20979
542.487	10854
542.553	9492
542.618	9828
542.684	9483
542.750	10117
542.815	12753
542.881	20020
542.947	50170
543.012	38188
543.078	9460
543.143	6905
543.209	9298
543.274	9892
543.340	11483
543.405	21687
543.471	31813
543.536	10640
543.602	8979
543.667	8388
543.732	9430
543.798	8184
543.863	8891
543.928	8849
543.994	8340
544.059	8285
544.124	8747
544.190	8469
544.255	8449
544.320	9717
544.386	9255
544.451	12541
544.516	14332
544.581	15653
544.646	33974
544.712	50384
544.777	14484
544.842	11621
544.907	11687
544.972	10327
545.037	9636
545.102	11607
545.168	11540
545.233	12141
545.298	12903
545.363	14115
545.428	16334
545.493	23766
545.558	43716
545.623	20709
545.688	12722
545.753	12344
545.818	11766
545.883	13166
545.947	12631
546.012	13620
546.077	13763
546.142	14430
546.207	13921
546.272	17537
546.337	16757
546.401	15671
546.466	14497
546.531	14818
546.596	17189
546.661	17289
546.725	16936
546.790	15969
546.855	18511
546.919	18261
546.984	21029
547.049	22525
547.113	26226
547.178	27398
547.243	30541
547.307	35412
547.372	38703
547.436	39444
547.501	39175
547.565	41353
547.630	40213
547.695	40536
547.759	39903
547.823	38268
547.888	37992
547.952	38661
548.017	40434
548.081	43764
548.146	46150
548.210	44758
548.274	43796
548.339	42473
548.403	38476
548.468	36848
548.532	36079
548.596	38239
548.660	38778
548.725	41766
548.789	47371
548.853	47311
548.917	42771
548.982	44654
549.046	42373
549.110	33695
549.174	34120
549.238	40625
549.303	42322
549.367	45086
549.431	42874
549.495	39206
549.559	40657
549.623	46652
549.687	52186
549.751	54167
549.815	59084
549.879	60838
549.943	55456
550.007	60261
550.071	59050
550.135	55305
550.199	51272
550.263	49855
550.327	48819
550.391	52889
550.455	54112
550.519	56146
550.582	61098
550.646	70686
550.710	72045
550.774	66766
550.838	66699
550.901	67952
550.965	73907
551.029	77372
551.093	84628
551.156	94120
551.220	118652
551.284	135786
551.347	96797
551.411	97425
551.475	97734
551.538	75003
551.602	68017
551.666	63545
551.729	60544
551.793	59981
551.856	60275
551.920	56971
551.983	57589
552.047	55682
552.110	57511
552.174	57652
552.237	58809
552.301	54853
552.364	52819
552.428	52259
552.491	52862
552.554	54905
552.618	54726
552.681	59082
552.745	58971
552.808	70513
552.871	82456
552.934	65972
552.998	57512
553.061	54569
553.124	52661
553.187	51998
553.251	53430
553.314	55493
553.377	55202
553.440	62803
553.503	77582
553.567	94211
553.630	60693
553.693	57830
553.756	58005
553.819	56350
553.882	55171
553.945	55242
554.008	54959
554.071	55130
554.134	55360
554.197	53643
554.260	52904
554.323	53623
554.386	54269
554.449	54673
554.512	55903
554.575	53248
554.638	53631
554.701	52078
554.764	51434
554.827	50285
554.889	47185
554.952	45383
555.015	44832
555.078	45020
555.141	46804
555.203	44871
555.266	45081
555.329	45685
555.391	43467
555.454	43711
555.517	43014
555.580	40762
555.642	38522
555.705	37243
555.768	39230
555.830	37431
555.893	35836
555.955	34163
556.018	32952
556.080	34255
556.143	34972
556.206	34048
556.268	34753
556.330	34193
556.393	32863
556.455	33341
556.518	35061
556.580	35689
556.643	30583
556.705	28643
556.767	28262
556.830	28236
556.892	29069
556.955	32729
557.017	29415
557.079	26907
557.142	26026
557.204	27213
557.266	34805
557.328	31485
557.391	23263
557.453	22577
557.515	23013
557.577	23584
557.639	23922
557.701	23261
557.764	20879
557.826	22574
557.888	25960
557.950	26466
558.012	30860
558.074	41360
558.136	77923
558.198	180517
558.260	68074
558.322	24229
558.384	23997
558.446	26840
558.508	30557
558.570	40686
558.632	60454
558.694	92967
558.756	136296
558.818	319054
558.880	742630
558.942	247901
559.003	179845
559.065	91856
559.127	32391
559.189	36900
559.251	51269
559.312	81957
559.374	160854
559.436	492048
559.498	248311
559.559	39307
559.621	38994
559.683	52262
559.744	88602
559.806	232944
559.868	359808
559.929	70695
559.991	43584
560.052	65744
560.114	174446
560.176	122344
560.237	96689
560.299	161383
560.360	37753
560.422	15820
560.483	16540
560.545	14607
560.606	14491
560.667	13466
560.729	13776
560.790	12917
560.852	12982
560.913	13043
560.974	12298
561.036	12929
561.097	12409
561.158	12450
561.220	12924
561.281	12891
561.342	12446
561.403	14868
561.465	17605
561.526	28250
561.587	36401
561.648	14647
561.709	12121
561.771	11925
561.832	11229
561.893	11712
561.954	11087
562.015	11090
562.076	11315
562.137	11042
562.198	10770
562.259	11917
562.320	11101
562.381	13001
562.442	14710
562.503	13468
562.564	11319
562.625	11182
562.686	10650
562.747	12026
562.808	11976
562.869	10724
562.930	12415
562.991	13092
563.051	12305
563.112	10630
563.173	10716
563.234	10267
563.294	10510
563.355	10747
563.416	11359
563.477	10705
563.537	10356
563.598	11802
563.659	11075
563.720	10571
563.780	10889
563.841	11591
563.901	11090
563.962	10294
564.023	10818
564.083	11325
564.144	10710
564.204	11214
564.265	12149
564.325	12648
564.386	18979
564.446	18991
564.507	10282
564.567	9822
564.628	10340
564.688	11197
564.749	11180
564.809	10755
564.869	13125
564.930	10473
564.990	11034
565.050	9491
565.111	10909
565.171	10218
565.231	8171
565.292	10831
565.352	9747
565.412	10539
565.472	9678
565.532	11216
565.593	10622
565.653	9886
565.713	10377
565.773	11126
565.833	11944
565.893	14907
565.953	11929
566.013	10147
566.074	11244
566.134	13377
566.194	17792
566.254	19025
566.314	13685
566.374	11050
566.434	11368
566.494	10838
566.554	10478
566.614	11360
566.673	11017
566.733	10844
566.793	11765
566.853	12695
566.913	12321
566.973	13504
567.033	13721
567.092	12716
567.152	13096
567.212	13096
567.272	13321
567.331	13083
567.391	12899
567.451	14134
567.511	16855
567.570	18329
567.630	13366
567.690	12790
567.749	12433
567.809	12667
567.868	14190
567.928	15034
567.988	17435
568.047	20092
568.107	23871
568.166	31826
568.226	47579
568.285	66485
568.345	51390
568.404	38059
568.464	32720
568.523	29785
568.582	32757
568.642	36865
568.701	48029
568.761	69495
568.820	110134
568.879	102488
568.939	69702
568.998	49241
569.057	34436
569.116	28255
569.176	23386
569.235	20433
569.294	17530
569.353	16006
569.413	15333
569.472	14893
569.531	13407
569.590	12554
569.649	13066
569.708	11634
569.767	14125
569.827	13855
569.886	11530
569.945	10901
570.004	11366
570.063	10230
570.122	11759
570.181	11877
570.240	12317
570.299	13409
570.358	13104
570.417	10855
570.475	10133
570.534	10905
570.593	10999
570.652	11476
570.711	12168
570.770	10835
570.829	11163
570.887	10821
570.946	11645
571.005	10659
571.064	10279
571.122	10885
571.181	12034
571.240	9330
571.299	8463
571.357	10418
571.416	10342
571.475	11139
571.533	10849
571.592	9874
571.650	10671
571.709	9478
571.768	10058
571.826	10503
571.885	9714
571.943	8949
572.002	8705
572.060	9792
572.119	8395
572.177	8417
572.236	9156
572.294	7930
572.352	9430
572.411	8834
572.469	8471
572.528	8253
572.586	8628
572.644	10020
572.703	11276
572.761	9494
572.819	8277
572.877	8924
572.936	8314
572.994	8155
573.052	8386
573.110	8160
573.169	9438
573.227	8217
573.285	8002
573.343	7868
573.401	7386
573.459	8922
573.517	8182
573.576	9617
573.634	8407
573.692	8162
573.750	7885
573.808	8519
573.866	9594
573.924	9939
573.982	10081
574.040	8090
574.098	7401
574.155	7668
574.213	6866
574.271	7398
574.329	8164
574.387	7464
574.445	7099
574.503	7155
574.560	7184
574.618	7736
574.676	7335
574.734	7034
574.792	7450
574.849	7155
574.907	5795
574.965	6772
575.022	6150
575.080	6938
575.138	6960
575.195	6854
575.253	7066
575.311	7032
575.368	6812
575.426	6517
575.483	7166
575.541	7983
575.598	7048
575.656	6424
575.713	7883
575.771	6415
575.828	6340
575.886	6985
575.943	6994
576.001	7358
576.058	6694
576.115	8090
576.173	8991
576.230	9348
576.287	9645
576.345	8819
576.402	7412
576.459	7428
576.517	7378
576.574	8050
576.631	9008
576.688	7441
576.746	7388
576.803	7515
576.860	7797
576.917	7164
576.974	7846
577.031	7693
577.089	6408
577.146	7734
577.203	7231
577.260	8314
577.317	7883
577.374	8482
577.431	7585
577.488	7374
577.545	6357
577.602	7158
577.659	6914
577.716	7423
577.773	7885
577.830	7378
577.886	6674
577.943	6403
578.000	7366
578.057	6477
578.114	7058
578.171	7006
578.227	6679
578.284	6822
578.341	7228
578.398	7446
578.454	7156
578.511	8284
578.568	9071
578.625	7879
578.681	7039
578.738	7023
578.794	6515
578.851	7413
578.908	6806
578.964	7848
579.021	7419
579.077	7044
579.134	6497
579.190	7620
579.247	7596
579.303	7017
579.360	6653
579.416	7242
579.473	6738
579.529	6086
579.586	7006
579.642	6997
579.698	6724
579.755	8154
579.811	6481
579.867	6803
579.924	6179
579.980	6450
580.036	7670
580.093	7332
580.149	7829
580.205	8309
580.261	7490
580.317	7870
580.374	8099
580.430	9457
580.486	8520
580.542	7876
580.598	8595
580.619	8225
580.654	7587
580.692	7216
580.710	7034
580.765	7888
580.767	7918
580.823	8253
580.838	8095
580.879	7664
580.911	7900
580.935	8083
580.984	7667
580.991	7617
581.047	7583
581.057	7585
581.103	7602
581.130	7958
581.159	8319
581.203	7710
581.215	7555
581.270	7897
581.276	7831
581.326	7215
581.349	7332
581.382	7521
581.422	7920
581.438	8086
581.494	7686
581.494	7688
581.550	7979
581.567	8178
581.606	8569
581.640	8811
581.661	8966
581.713	8455
581.717	8415
581.773	8509
581.786	8479
581.829	8447
581.859	8449
581.885	8458
581.932	8907
581.940	8973
581.996	8624
582.004	8655
582.052	8768
582.077	8319
582.107	7908
582.150	8484
582.163	8607
582.219	8693
582.223	8668
582.274	8455
582.296	8603
582.330	8811
582.368	8679
582.386	8673
582.441	9236
582.441	9234
582.497	8629
582.514	8764
582.552	9323
582.587	9555
582.608	9564
582.659	9108
582.663	9086
582.719	8389
582.732	8538
582.774	8936
582.805	8760
582.830	8648
582.877	9027
582.885	9087
582.941	8708
582.950	8816
582.996	9357
583.023	9657
583.052	9968
583.095	9403
583.107	9298
583.162	9934
583.168	10081
583.218	10989
583.240	10209
583.273	9300
583.313	9676
583.328	9784
583.384	9675
583.385	9692
583.439	10196
583.458	9964
583.494	9440
583.531	9519
583.549	9652
583.603	10110
583.605	10120
583.660	10554
583.676	10579
583.715	10757
583.748	10860
583.770	10852
583.820	10473
583.825	10441
583.881	10396
583.893	10423
583.936	10501
583.965	10603
583.991	10833
584.038	10963
584.046	10945
584.101	10969
584.110	10980
584.156	11109
584.183	10933
584.211	10791
584.255	11111
584.266	11181
584.321	11046
584.328	11115
584.376	11675
584.400	11690
584.431	11871
584.472	12056
584.486	12019
584.541	11848
584.545	11817
584.596	11595
584.617	11959
584.651	12869
584.689	13302
584.706	13307
584.761	13043
584.762	13032
584.816	13036
584.834	13316
584.871	13888
584.906	13996
584.926	14069
584.978	14590
584.980	14625
585.035	15299
585.051	15517
585.090	16187
585.123	16621
585.145	16988
585.195	18193
585.200	18326
585.254	19322
585.267	19831
585.309	22231
585.340	24274
585.364	25565
585.412	28514
585.419	29055
585.473	35326
585.484	37002
585.528	45251
585.556	52075
585.583	64559
585.628	89797
585.637	102438
585.692	212158
585.700	233374
585.747	345564
585.772	326436
585.801	215200
585.845	81356
585.856	65473
585.910	33384
585.917	29844
585.965	25327
585.989	23627
586.019	22785
586.061	22460
586.074	22454
586.128	21673
586.133	21688
586.183	22764
586.205	22699
586.237	22666
586.277	22760
586.292	22848
586.346	23514
586.349	23511
586.401	23411
586.421	23528
586.455	24400
586.493	25213
586.509	25933
586.564	28636
586.565	28750
586.618	38425
586.637	39642
586.672	37496
586.709	34251
586.727	32961
586.781	32009
586.781	32047
586.835	28659
586.853	28212
586.889	28008
586.925	27299
586.944	27361
586.996	27841
586.998	27906
587.052	28787
587.068	29189
587.106	30241
587.140	30320
587.161	30418
587.212	31155
587.215	31254
587.269	32453
587.284	32640
587.323	33540
587.356	34553
587.377	35304
587.427	36352
587.431	36496
587.485	37814
587.499	38236
587.539	39695
587.571	40563
587.593	41572
587.643	43482
587.648	43706
587.702	45805
587.715	46291
587.755	48702
587.786	49994
587.810	50972
587.858	53151
587.864	53655
587.917	58291
587.930	59204
587.971	63108
588.001	65944
588.025	68575
588.073	73537
588.079	74517
588.133	82506
588.145	84219
588.187	91692
588.217	96812
588.241	102490
588.288	113792
588.295	115883
588.348	133620
588.360	137245
588.402	154077
588.431	166155
588.456	179476
588.503	207596
588.510	212954
588.564	256387
588.575	266301
588.617	317207
588.646	354560
588.671	402189
588.718	501257
588.725	526572
588.778	729457
588.789	773583
588.832	1068778
588.861	1279109
588.886	1465790
588.932	1778626
588.939	1776241
588.993	1628043
589.004	1611286
589.047	1663623
589.075	1643316
589.100	1430959
589.147	1014410
589.154	976565
589.207	697252
589.218	642808
589.261	572416
589.290	529884
589.314	540609
589.361	568793
589.368	588811
589.421	761427
589.433	801122
589.475	1109012
589.504	1330806
589.528	1477132
589.576	1686675
589.582	1675387
589.635	1533702
589.647	1486869
589.689	1104704
589.718	833688
589.742	687394
589.790	414002
589.795	401979
589.849	291917
589.861	266907
589.902	228627
589.932	200132
589.955	185149
590.004	153458
590.009	151796
590.062	131345
590.075	126090
590.115	115487
590.146	107263
590.168	103846
590.218	95523
590.222	95176
590.275	87612
590.289	85566
590.328	83012
590.360	80553
590.381	78764
590.431	73619
590.435	73622
590.488	71113
590.503	70052
590.541	67717
590.574	65682
590.594	65025
590.645	62774
590.647	62867
590.700	60756
590.716	60016
590.753	58935
590.787	57502
590.806	57561
590.859	57448
590.859	57591
590.912	56243
590.930	55706
590.965	55164
591.001	54341
591.018	54260
591.071	53512
591.072	53351
591.124	53103
591.143	52777
591.177	52528
591.214	51957
591.230	52302
591.283	53073
591.285	52939
591.336	52591
591.356	52276
591.389	51601
591.427	50358
591.442	50310
591.495	49450
591.498	49252
591.547	48879
591.569	48459
591.600	48678
591.640	48560
591.653	48630
591.706	48433
591.711	48253
591.759	49282
591.782	49588
591.811	50205
591.853	50764
591.864	50751
591.917	49786
591.924	49484
591.969	49337
591.995	49022
592.022	49193
592.066	49110
592.075	49422
592.127	50311
592.137	50337
592.180	53257
592.208	54802
592.233	53870
592.279	51599
592.285	51680
592.338	50931
592.350	50594
592.390	49670
592.421	48684
592.443	49336
592.491	50287
592.495	50491
592.548	50986
592.562	50963
592.600	50474
592.633	49732
592.653	49531
592.704	48318
592.705	48633
592.775	50472
592.846	50204
592.916	52746
592.987	52219
593.058	51463
593.128	49054
593.199	49898
593.270	49225
593.341	50252
593.411	50571
593.482	52444
593.553	52622
593.623	53317
593.694	52973
593.764	54522
593.835	54356
593.906	52980
593.976	54159
594.047	55945
594.117	58105
594.188	59620
594.258	56160
594.329	56478
594.399	57262
594.470	58293
594.540	59139
594.611	60439
594.681	59322
594.751	61291
594.822	61296
594.892	64322
594.963	65273
595.033	65637
595.103	67932
595.174	67978
595.244	73507
595.314	81198
595.384	73231
595.455	71203
595.525	74217
595.595	75731
595.665	77041
595.736	74323
595.806	75309
595.876	76293
595.946	74876
596.016	78095
596.087	80837
596.157	81213
596.227	80123
596.297	84426
596.367	88911
596.437	95348
596.507	97676
596.577	101667
596.647	97298
596.717	97905
596.787	100988
596.857	99076
596.927	100783
596.997	101770
597.067	101589
597.137	104154
597.207	104722
597.277	106252
597.347	100908
597.417	100212
597.487	99227
597.557	100742
597.626	103204
597.696	103821
597.766	107010
597.836	107531
597.906	97364
597.975	92569
598.045	92828
598.115	96266
598.185	101224
598.254	111173
598.324	122337
598.394	125880
598.464	123724
598.533	120512
598.603	113263
598.672	109313
598.742	109372
598.812	111161
598.881	113726
598.951	113264
599.020	112857
599.090	114792
599.159	118634
599.229	115562
599.299	112340
599.368	113895
599.437	115039
599.507	107679
599.576	103973
599.646	100470
599.715	100141
599.785	99279
599.854	97983
599.924	98762
599.993	96277
600.062	95995
600.132	99153
600.201	102543
600.270	117024
600.340	128070
600.409	122759
600.478	123154
600.547	122818
600.617	122614
600.686	99138
600.755	87959
600.824	85280
600.894	81217
600.963	80369
601.032	80751
601.101	78536
601.170	75581
601.239	74534
601.308	75390
601.378	74481
601.447	72715
601.516	74004
601.585	75336
601.654	77097
601.723	77544
601.792	77235
601.861	78433
601.930	82908
601.999	84874
602.068	81888
602.137	85225
602.206	86696
602.275	85943
602.343	87110
602.412	89775
602.481	86460
602.550	87477
602.619	88755
602.688	91374
602.756	90455
602.825	91382
602.894	92664
602.963	93897
603.032	95820
603.100	95905
603.169	96068
603.238	98144
603.307	98135
603.375	97730
603.444	99212
603.513	102151
603.581	101497
603.650	103925
603.719	100942
603.787	101073
603.856	104317
603.924	107905
603.993	110255
604.061	114105
604.130	118536
604.198	121022
604.267	122910
604.335	126305
604.404	126982
604.472	128214
604.541	128574
604.609	130421
604.678	131093
604.746	130700
604.815	136476
604.883	138890
604.951	136988
605.020	139882
605.088	141965
605.156	144983
605.225	146907
605.293	147608
605.361	145856
605.429	148673
605.498	150158
605.566	154292
605.634	160349
605.702	167517
605.771	171227
605.839	173815
605.907	172232
605.975	164586
606.043	160891
606.111	161061
606.180	160135
606.248	159106
606.316	158625
606.384	157197
606.452	161210
606.520	165300
606.588	169597
606.656	168583
606.724	168137
606.792	157919
606.860	144245
606.928	129856
606.996	124664
607.064	120392
607.132	123240
607.200	128153
607.267	135705
607.335	138170
607.403	140417
607.471	140185
607.539	132404
607.607	136583
607.674	120039
607.742	119531
607.810	118418
607.878	118896
607.946	119828
608.013	126643
608.081	127396
608.149	129041
608.216	130651
608.284	138080
608.352	138314
608.419	137617
608.487	136707
608.555	133425
608.622	132860
608.690	140969
608.757	153477
608.825	163138
608.893	157982
608.960	154160
609.028	148458
609.095	147028
609.163	146622
609.230	133855
609.298	116733
609.365	121857
609.432	131267
609.500	141085
609.567	161018
609.635	183069
609.702	197422
609.769	195206
609.837	162331
609.904	129626
609.971	129465
610.039	141027
610.106	167085
610.173	273960
610.241	612154
610.308	550288
610.375	184379
610.442	141867
610.509	131934
610.577	133198
610.644	133940
610.711	137679
610.778	143171
610.845	147027
610.912	155094
610.980	163234
611.047	164735
611.114	163112
611.181	158105
611.248	153806
611.315	160940
611.382	165382
611.449	171527
611.516	174264
611.583	174003
611.650	172385
611.717	174209
611.784	178999
611.851	184063
611.918	195247
611.984	220218
612.051	279081
612.118	479633
612.185	1121317
612.252	1132857
612.319	308685
612.386	228067
612.452	213623
612.519	200346
612.586	198434
612.653	200897
612.719	203903
612.786	202398
612.853	187187
612.919	179687
612.986	183844
613.053	175413
613.120	164928
613.186	158709
613.253	158884
613.319	158480
613.386	159070
613.453	160887
613.519	166394
613.586	163704
613.652	176547
613.719	167816
613.785	168868
613.852	164504
613.918	164240
613.985	163515
614.051	173681
614.118	176486
614.184	177751
614.250	161486
614.317	168154
614.383	163524
614.449	169106
614.516	166908
614.582	167873
614.648	167191
614.715	163955
614.781	162368
614.847	159955
614.914	161603
614.980	158808
615.046	155152
615.112	159792
615.179	162066
615.245	164922
615.311	166513
615.377	176888
615.443	186613
615.509	172711
615.575	173638
615.642	170802
615.708	174435
615.774	181554
615.840	193107
615.906	204962
615.972	236210
616.038	333603
616.104	584839
616.170	1250273
616.236	1612865
616.302	444412
616.368	284526
616.434	223518
616.500	200341
616.565	205975
616.631	252060
616.697	226892
616.763	215033
616.829	272998
616.895	467897
616.961	545786
617.026	270504
617.092	182287
617.158	172754
617.224	169834
617.289	161099
617.355	153743
617.421	151294
617.487	152120
617.552	143337
617.618	142547
617.684	142910
617.749	144645
617.815	139451
617.880	135335
617.946	135965
618.012	137923
618.077	141950
618.143	137187
618.208	136118
618.274	143970
618.339	150807
618.405	130679
618.470	122890
618.536	126892
618.601	126122
618.667	120438
618.732	112960
618.798	111717
618.863	112018
618.928	110327
618.994	111122
619.059	111943
619.124	118360
619.190	115564
619.255	110264
619.320	109877
619.386	110918
619.451	110602
619.516	107321
619.581	108580
619.647	111305
619.712	113620
619.777	107704
619.842	108751
619.907	111112
619.972	111159
620.038	112929
620.103	108108
620.168	108442
620.233	109839
620.298	109064
620.363	111187
620.428	112821
620.493	116535
620.558	117011
620.623	118460
620.688	117983
620.753	116091
620.818	119190
620.883	120284
620.948	121040
621.013	117432
621.078	117777
621.143	117745
621.207	121436
621.272	119820
621.337	119548
621.402	116013
621.467	118364
621.532	121028
621.596	120943
621.661	116744
621.726	112200
621.791	113133
621.855	114600
621.920	114987
621.985	114796
622.049	117669
622.114	119072
622.179	117458
622.243	119812
622.308	123687
622.373	126109
622.437	127740
622.502	120181
622.566	117611
622.631	116958
622.695	120447
622.760	120277
622.824	119407
622.889	118332
622.953	122512
623.018	130646
623.082	140252
623.147	125240
623.211	122006
623.276	122950
623.340	120335
623.404	114529
623.469	115153
623.533	115869
623.597	113450
623.662	111785
623.726	108735
623.790	102619
623.854	98980
623.919	100576
623.983	101216
624.047	103108
624.111	102342
624.176	106454
624.240	107039
624.304	111923
624.368	104507
624.432	104375
624.496	105612
624.560	110028
624.625	114310
624.689	109856
624.753	113653
624.817	111345
624.881	107165
624.945	100614
625.009	94187
625.073	98654
625.137	100036
625.201	105925
625.265	110445
625.329	101171
625.393	100031
625.456	101112
625.520	102934
625.584	106296
625.648	109379
625.712	116981
625.776	139623
625.839	151800
625.903	114839
625.967	86599
626.031	92967
626.095	118172
626.158	106507
626.222	80413
626.286	73069
626.349	72455
626.413	68672
626.477	66871
626.540	66610
626.604	66972
626.668	65795
626.731	64215
626.795	65492
626.858	65063
626.922	63647
626.986	63389
627.049	61769
627.113	63947
627.176	63085
627.240	60189
627.303	61318
627.366	59480
627.430	60431
627.493	61465
627.557	60494
627.620	60598
627.684	61379
627.747	61998
627.810	60235
627.874	53482
627.937	52809
628.000	53016
628.064	53924
628.127	48003
628.190	47462
628.253	46124
628.317	45968
628.380	43567
628.443	42668
628.506	42324
628.569	42198
628.632	38564
628.696	38485
628.759	38643
628.822	38244
628.885	36613
628.948	36744
629.011	35707
629.074	35214
629.137	33798
629.200	34459
629.263	35465
629.326	33753
629.389	32663
629.452	33196
629.515	33302
629.578	32070
629.641	32236
629.704	32197
629.767	31863
629.830	31782
629.892	30458
629.955	30309
630.018	32166
630.081	31727
630.144	35235
630.207	31910
630.269	31744
630.332	31401
630.395	30265
630.458	28581
630.520	27988
630.583	29340
630.646	27727
630.708	28327
630.771	27646
630.834	29457
630.896	28907
630.959	29605
631.021	28110
631.084	27965
631.146	27787
631.209	29638
631.272	27891
631.334	27708
631.397	27716
631.459	28233
631.522	28538
631.584	29214
631.646	30955
631.709	32598
631.771	33357
631.834	32309
631.896	30265
631.958	28573
632.021	27824
632.083	27147
632.145	26460
632.208	26804
632.270	26534
632.332	25981
632.395	25961
632.457	27022
632.519	25798
632.581	26118
632.643	25932
632.706	26885
632.768	24716
632.830	25190
632.892	25548
632.954	26110
633.016	26704
633.078	26020
633.141	25221
633.203	25668
633.265	25793
633.327	24752
633.389	25285
633.451	26192
633.513	27745
633.575	28290
633.637	26851
633.698	28477
633.760	27165
633.822	28312
633.884	27109
633.946	27639
634.008	28304
634.070	27879
634.132	29664
634.193	30514
634.255	31713
634.317	33862
634.379	32776
634.441	30858
634.502	28087
634.564	27194
634.626	25479
634.687	25389
634.749	24513
634.811	24553
634.873	23457
634.934	24183
634.996	23063
635.057	24016
635.119	24399
635.181	25219
635.242	24484
635.304	23626
635.365	25550
635.427	24118
635.488	24159
635.550	23900
635.611	24190
635.673	22820
635.734	25422
635.796	25797
635.857	27161
635.918	28284
635.980	29465
636.041	31696
636.102	32879
636.164	34762
636.225	33978
636.286	30132
636.348	27588
636.409	25653
636.470	23188
636.531	24160
636.593	23806
636.654	24283
636.715	22021
636.776	21974
636.838	21363
636.899	21352
636.960	21006
637.021	21445
637.082	20412
637.143	20623
637.204	19885
637.265	20430
637.326	20532
637.387	21283
637.448	19937
637.509	20933
637.570	19896
637.631	20543
637.692	18614
637.753	19041
637.814	19358
637.875	20334
637.936	19189
637.997	18843
638.058	19759
638.119	19788
638.179	18674
638.240	18967
638.301	19054
638.362	19774
638.423	18282
638.483	18777
638.544	18152
638.605	18884
638.666	17885
638.726	18938
638.787	18183
638.848	17743
638.908	18143
638.969	17882
639.030	18075
639.090	17807
639.151	16697
639.211	19130
639.272	19578
639.332	23877
639.393	22127
639.453	18793
639.514	20023
639.574	18434
639.635	16784
639.695	17046
639.756	16643
639.816	17457
639.877	17624
639.937	20492
639.997	26318
640.058	19564
640.118	16577
640.178	17334
640.239	16539
640.299	16143
640.359	16544
640.420	16958
640.480	17895
640.540	19003
640.600	20669
640.661	18896
640.721	17477
640.781	20313
640.841	18586
640.901	16733
640.961	16985
641.021	17743
641.082	18581
641.142	21239
641.202	19018
641.262	14879
641.322	16133
641.382	15834
641.442	16685
641.502	16058
641.562	15669
641.622	15768
641.682	16396
641.742	18293
641.802	16962
641.861	16567
641.921	16229
641.981	17283
642.041	16078
642.101	17814
642.161	15836
642.221	15322
642.280	15022
642.340	14725
642.400	14022
642.460	16158
642.519	15151
642.579	15242
642.639	15912
642.698	13984
642.758	16418
642.818	15179
642.877	14487
642.937	16321
642.997	16302
643.056	19050
643.116	17416
643.175	16519
643.235	16490
643.294	16407
643.354	17535
643.414	18221
643.473	19479
643.532	23308
643.592	29766
643.651	44345
643.711	72420
643.770	132002
643.830	281972
643.889	804022
643.948	394126
644.008	51023
644.067	26860
644.126	22349
644.186	19667
644.245	18203
644.304	14973
644.363	17161
644.423	15053
644.482	16253
644.541	16010
644.600	15285
644.659	19932
644.719	22077
644.778	30166
644.837	46881
644.896	82691
644.955	220426
645.014	147606
645.073	26306
645.132	17859
645.191	17708
645.250	15490
645.309	17361
645.368	17356
645.427	20911
645.486	25812
645.545	54411
645.604	28964
645.663	15348
645.722	15282
645.781	16790
645.840	17907
645.898	21188
645.957	27541
646.016	40317
646.075	68675
646.134	128501
646.192	286216
646.251	686750
646.310	196373
646.369	34695
646.427	23755
646.486	20228
646.545	17220
646.603	16588
646.662	14308
646.721	14215
646.779	13207
646.838	13783
646.896	16413
646.955	20684
647.014	29347
647.072	48126
647.131	126789
647.189	125170
647.248	19435
647.306	14042
647.365	13291
647.423	10914
647.481	12669
647.540	10499
647.598	10738
647.657	11189
647.715	11977
647.773	9881
647.832	11213
647.890	9971
647.948	10254
648.007	10701
648.065	9637
648.123	9627
648.181	10064
648.240	9623
648.298	9908
648.356	10257
648.414	9899
648.472	9721
648.531	9397
648.589	9811
648.647	8709
648.705	9367
648.763	8853
648.821	9860
648.879	9286
648.937	11762
648.995	13120
649.053	14851
649.111	20124
649.169	32514
649.227	57395
649.285	104350
649.343	316310
649.401	316945
649.459	43907
649.516	27146
649.574	14769
649.632	17001
649.690	18710
649.748	17979
649.806	21514
649.863	36776
649.921	82410
649.979	111620
650.037	19864
650.094	9199
650.152	9129
650.210	8917
650.268	8942
650.325	8473
650.383	8820
650.440	7228
650.498	7556
650.556	7628
650.613	6030
650.671	7814
650.728	7425
650.786	7816
650.843	8254
650.901	8192
650.958	7092
651.016	6550
651.073	6339
651.131	6314
651.188	5829
651.246	6624
651.303	5816
651.360	6729
651.418	4389
651.475	7709
651.532	4997
651.590	6576
651.647	5317
651.704	6608
651.762	5677
651.819	5514
651.876	5886
651.933	5892
651.990	5649
652.048	4954
652.105	4956
652.162	5675
652.219	5044
652.276	5450
652.333	6715
652.390	4168
652.448	5231
652.505	5339
652.562	5764
652.619	5276
652.676	5251
652.733	7179
652.790	6184
652.847	4169
652.904	4088
652.961	4325
653.017	4475
653.074	5915
653.131	5950
653.188	4807
653.245	5021
653.302	5262
653.359	5186
653.415	5396
653.472	4266
653.529	5286
653.586	4086
653.642	5016
653.699	5275
653.756	4390
653.813	4378
653.869	4563
653.926	4544
653.983	4453
654.039	4334
654.096	4282
654.152	4485
654.209	3863
654.266	5558
654.322	3733
654.379	4721
654.435	6326
654.492	4350
654.548	5744
654.605	8039
654.661	7599
654.717	3718
654.774	5564
654.830	5041
654.887	4554
654.943	4303
655.000	6048
655.056	5672
655.112	4806
655.168	3648
655.225	4835
655.281	5117
655.337	4942
655.394	7172
655.450	7663
655.506	5040
655.562	6366
655.618	8060
655.675	4932
655.731	4387
655.787	4109
655.843	4831
655.899	3901
655.955	5206
656.011	5405
656.067	4343
656.123	4578
656.179	3675
656.235	5668
656.291	3592
656.347	5889
656.403	4746
656.459	5291
656.515	4377
656.571	4944
656.627	4593
656.683	4946
656.739	5352
656.795	4640
656.850	4957
656.906	4804
656.962	5851
657.018	4885
657.074	5189
657.129	5418
657.185	7735
657.241	15226
657.297	15296
657.352	5650
657.408	3558
657.464	6225
657.519	4192
657.575	4132
657.630	3900
657.686	3929
657.742	3490
657.797	3570
657.853	3026
657.908	5665
657.964	3478
658.019	3763
658.075	3701
658.130	4768
658.186	2761
658.241	3566
658.297	3399
658.352	4131
658.407	4188
658.463	4481
658.518	3562
658.573	3891
658.629	4014
658.684	3961
658.739	4584
658.795	3318
658.850	4095
658.905	3383
658.960	4286
659.016	3094
659.071	3205
659.126	4497
659.181	4180
659.236	5881
659.291	6878
659.346	4898
659.401	4840
659.457	4751
659.512	4669
659.567	6100
659.622	3730
659.677	3816
659.732	3423
659.787	4515
659.842	3999
659.897	4963
659.952	3901
660.007	5100
660.061	3378
660.116	4153
660.171	3542
660.226	3785
660.281	4226
660.336	3485
660.391	3584
660.445	3832
660.500	3843
660.555	4040
660.610	3491
660.664	3905
660.719	4013
660.774	4904
660.828	3903
660.883	4449
660.938	3585
660.992	2813
661.047	3649
661.101	3254
661.156	3760
661.211	3287
661.265	3643
661.320	3802
661.374	3502
661.429	3943
661.483	4123
661.538	3371
661.592	2903
661.647	3006
661.701	3952
661.755	4106
661.810	3903
661.864	3594
661.919	3033
661.973	3671
662.027	1820
662.081	3374
662.136	3177
662.190	3400
662.244	4658
662.299	3117
662.353	4015
662.407	3370
662.461	2945
662.515	4302
662.569	3623
662.624	3752
662.678	3523
662.732	3507
662.786	3662
662.840	3741
662.894	3293
662.948	3105
663.002	4395
663.056	3480
663.110	2477
663.164	3252
663.218	3100
663.272	3843
663.326	3946
663.380	4016
663.434	3810
663.488	3500
663.542	3593
663.595	4424
663.649	2970
663.703	4053
663.757	2901
663.811	2769
663.864	2971
663.918	4148
663.972	3146
664.026	3566
664.079	3030
664.133	4285
664.187	3002
664.240	3391
664.294	2988
664.348	3211
664.401	3680
664.455	4596
664.508	2696
664.562	3778
664.615	2857
664.669	2664
664.722	3135
664.776	3736
664.829	2814
664.883	3546
664.936	3445
664.990	3789
665.043	4348
665.097	4119
665.150	3767
665.203	3543
665.257	4222
665.310	4627
665.363	3396
665.417	4395
665.470	3889
665.523	3173
665.576	3419
665.630	3072
665.683	3873
665.736	3916
665.789	4087
665.842	3450
665.895	3445
665.949	4001
666.002	3444
666.055	4423
666.108	3899
666.161	4223
666.214	4426
666.267	4430
666.320	4292
666.373	4543
666.426	3373
666.479	3382
666.532	4183
666.585	4769
666.638	3930
666.691	4773
666.744	3494
666.796	4377
666.849	4186
666.902	4745
666.955	3605
667.008	2891
667.060	3131
667.113	3224
667.166	3128
667.219	3474
667.271	3768
667.324	3811
667.377	3685
667.430	3889
667.482	2753
667.535	4569
667.587	4129
667.640	4264
667.693	3724
667.745	5402
667.798	7854
667.850	4760
667.903	3995
667.955	4325
668.008	3445
668.060	4245
668.113	3414
668.165	4723
668.218	3780
668.270	4167
668.322	3513
668.375	3729
668.427	3884
668.479	2891
668.532	4055
668.584	4111
668.636	3974
668.689	3410
668.741	4248
668.793	4187
668.845	2645
668.898	3773
668.950	2796
669.002	4684
669.054	4071
669.106	4165
669.158	4441
669.211	3370
669.263	3647
669.315	4282
669.367	3807
669.419	4033
669.471	4204
669.523	4325
669.575	5257
669.627	4880
669.679	3794
669.731	3883
669.783	3987
669.835	3771
669.886	3827
669.938	3735
669.990	4129
670.042	3141
670.094	4181
670.146	3183
670.197	3430
670.249	4327
670.301	4127
670.353	5461
670.404	6718
670.456	9025
670.508	12917
670.560	18726
670.611	32644
670.663	56354
670.715	108092
670.766	267812
670.818	136389
670.869	18722
670.921	9129
670.972	6943
671.024	5784
671.075	5448
671.127	4542
671.178	4512
671.230	3982
671.281	5194
671.333	4531
671.384	4284
671.436	5166
671.487	7347
671.538	9225
671.590	12588
671.641	18914
671.692	28932
671.744	66225
671.795	66515
671.846	19732
671.897	9254
671.949	6569
672.000	5298
672.051	4705
672.102	4764
672.153	4028
672.204	4359
672.256	3679
672.307	4410
672.358	3320
672.409	4122
672.460	2915
672.511	3092
672.562	2990
672.613	3306
672.664	3087
672.715	4040
672.766	3399
672.817	3271
672.868	2825
672.919	3227
672.970	3320
673.021	3365
673.071	2394
673.122	3260
673.173	2897
673.224	3211
673.275	3282
673.326	2990
673.376	2733
673.427	2068
673.478	3287
673.528	3473
673.579	2667
673.630	2502
673.680	3112
673.731	2747
673.782	2075
673.832	3920
673.883	3245
673.934	2988
673.984	1895
674.035	2132
674.085	2869
674.136	3184
674.186	2559
674.237	3472
674.287	4602
674.338	4667
674.388	3258
674.438	2975
674.489	3132
674.539	2996
674.589	2493
674.640	2698
674.690	2681
674.740	2817
674.791	2553
674.841	3582
674.891	2917
674.942	3014
674.992	2140
675.042	2789
675.092	1677
675.142	2517
675.193	2833
675.243	2797
675.293	2181
675.343	2923
675.393	3022
675.443	3790
675.493	2076
675.543	2669
675.593	2613
675.643	3530
675.693	2540
675.743	2620
675.793	2621
675.843	1996
675.893	3053
675.943	3135
675.993	1722
676.043	2677
676.093	2786
676.142	2182
676.192	2975
676.242	2563
676.292	2616
676.341	2338
676.391	1756
676.441	2808
676.491	1443
676.540	2941
676.590	2901
676.640	2337
676.689	2507
676.739	1782
676.789	1081
676.838	2023
676.888	2029
676.937	2138
676.987	1501
677.037	2484
677.086	1336
677.136	1932
677.185	1873
677.235	1902
677.284	1888
677.333	1517
677.383	678
677.432	1401
677.482	1109
677.531	2246
677.580	1713
677.630	1895
677.679	2371
677.728	2232
677.778	1580
677.827	1545
677.876	1442
677.925	2060
677.975	1395
678.024	2409
678.073	1816
678.122	2029
678.171	1394
678.220	2533
678.269	1953
678.319	3262
678.368	2164
678.417	2902
678.466	2670
678.515	2287
678.564	1692
678.613	2248
678.662	1934
678.711	2176
678.760	1963
678.809	2237
678.857	1305
678.906	2052
678.955	1794
679.004	2088
679.053	1528
679.102	1953
679.151	2398
679.199	2282
679.248	1565
679.297	2461
679.346	1628
679.394	2164
679.443	2127
679.492	1561
679.540	2354
679.589	2263
679.638	2002
679.686	1584
679.735	1745
679.784	2782
679.832	1657
679.881	2103
679.929	2131
679.978	1415
680.026	2073
680.075	1991
680.123	696
680.172	1927
680.220	1340
680.268	2180
680.317	1288
680.365	1221
680.414	1346
680.462	1825
680.510	1906
680.559	1987
680.607	1832
680.655	1552
680.703	1715
680.752	1118
680.800	1618
680.848	1816
680.896	1807
680.945	1350
680.993	1199
681.041	2128
681.089	1092
681.137	1654
681.185	1525
681.233	1696
681.258	1458
681.281	1214
681.329	1120
681.377	1414
681.380	1452
681.425	1786
681.473	1340
681.502	2072
681.521	2540
681.569	1647
681.617	2196
681.624	2062
681.665	1029
681.713	2252
681.745	1975
681.761	1818
681.809	1163
681.857	2380
681.867	2288
681.904	1887
681.952	2102
681.989	2064
682.000	2028
682.048	2453
682.096	2391
682.111	2106
682.143	1445
682.191	2326
682.233	2296
682.239	2267
682.286	2343
682.334	1591
682.354	2098
682.382	2744
682.430	1891
682.476	1988
682.477	1973
682.525	2150
682.572	2641
682.598	2375
682.620	2106
682.667	2640
682.715	2746
682.720	2785
682.763	2956
682.810	2536
682.841	2677
682.857	2748
682.905	2565
682.952	2947
682.963	2820
683.000	2220
683.047	2772
683.085	3071
683.095	3143
683.142	2802
683.190	2761
683.206	2856
683.237	2985
683.284	3593
683.328	2758
683.332	2670
683.379	3393
683.426	3744
683.449	3401
683.473	3060
683.521	3495
683.568	3646
683.571	3669
683.615	3675
683.662	3565
683.693	3399
683.709	3307
683.757	2716
683.804	3359
683.814	3328
683.851	3175
683.898	3995
683.936	3804
683.945	3746
683.992	3886
684.039	2987
684.057	3579
684.086	4511
684.133	3563
684.179	4035
684.180	4033
684.227	3693
684.274	4428
684.300	4052
684.321	3725
684.368	4393
684.415	3397
684.422	3506
684.462	4079
684.509	3739
684.543	3740
684.556	3742
684.603	4234
684.649	3534
684.665	3533
684.696	3503
684.743	4378
684.786	3748
684.790	3689
684.837	4122
684.883	5025
684.908	4906
684.930	4788
684.977	5028
685.023	4605
685.029	4574
685.070	4121
685.117	4892
685.150	4780
685.164	4736
685.210	4764
685.257	4938
685.272	5050
685.303	5346
685.350	4871
685.393	5447
685.396	5484
685.443	5090
685.490	5847
685.514	5700
685.536	5472
685.583	5864
685.629	5218
685.636	5251
685.675	5413
685.722	5235
685.757	5327
685.768	5371
685.815	4837
685.861	5707
685.878	5536
685.908	5219
685.954	5303
686.000	5580
686.000	5582
686.047	5539
686.093	5900
686.121	6358
686.139	6603
686.185	5955
686.232	6155
686.242	6128
686.278	5812
686.324	5554
686.363	5624
686.370	5655
686.416	5977
686.463	5609
686.484	5644
686.509	5718
686.555	5973
686.601	5711
686.606	5721
686.647	5766
686.693	6062
686.727	5686
686.739	5549
686.785	6036
686.831	5258
686.848	5517
686.877	5857
686.923	4912
686.969	4985
686.969	4986
687.015	5148
687.061	5708
687.090	5504
687.107	5326
687.153	6240
687.199	5915
687.211	5806
687.245	5531
687.291	5938
687.332	5629
687.336	5614
687.382	6292
687.428	6013
687.453	6344
687.474	6449
687.520	6363
687.565	5793
687.574	5799
687.611	6053
687.657	5787
687.695	6282
687.702	6392
687.748	6678
687.794	7370
687.816	7270
687.839	7006
687.885	7434
687.931	6617
687.937	6594
687.976	6535
688.022	6736
688.058	6440
688.067	6405
688.113	6841
688.158	7091
688.179	6782
688.204	6261
688.249	6170
688.295	6267
688.300	6274
688.340	6730
688.386	7192
688.421	7371
688.431	7357
688.477	7022
688.522	7147
688.542	7009
688.567	6963
688.613	7174
688.658	6850
688.663	6872
688.703	7055
688.749	7252
688.784	7022
688.794	6896
688.839	6707
688.884	6766
688.905	6706
688.930	6840
688.975	7071
689.020	6886
689.026	6920
689.065	7234
689.110	6958
689.146	7149
689.155	7157
689.201	6940
689.246	6912
689.267	6889
689.291	6993
689.336	7241
689.381	7195
689.388	7203
689.426	7212
689.471	7511
689.509	7462
689.516	7460
689.561	7660
689.606	7211
689.630	7175
689.651	7106
689.696	7182
689.741	7149
689.750	7137
689.785	7312
689.830	7146
689.871	7741
689.875	7784
689.920	7087
689.965	7170
689.992	7003
690.010	7063
690.054	7341
690.099	7108
690.112	7356
690.144	7749
690.189	7266
690.233	7336
690.233	7347
690.278	6944
690.323	7378
690.354	7151
690.367	7082
690.412	7072
690.457	7094
690.474	7097
690.501	7151
690.546	7191
690.590	7346
690.595	7290
690.635	6996
690.680	7319
690.716	7008
690.724	6913
690.769	7606
690.813	7624
690.836	7428
690.857	7442
690.902	7588
690.946	8537
690.957	8508
690.991	8722
691.035	9740
691.077	10074
691.080	10097
691.124	10744
691.168	10883
691.198	11126
691.213	10979
691.257	10661
691.301	9873
691.318	9684
691.346	9389
691.390	8987
691.434	7999
691.439	7943
691.478	8087
691.522	7995
691.559	8083
691.567	8167
691.611	8417
691.655	8865
691.680	8944
691.699	8819
691.743	8701
691.787	8320
691.800	8233
691.831	8373
691.875	8544
691.919	8773
691.921	8764
691.964	8843
692.008	8499
692.041	8614
692.052	8652
692.096	8871
692.139	8745
692.162	8806
692.183	8827
692.227	8523
692.271	8285
692.282	8282
692.315	8637
692.359	8621
692.402	8656
692.403	8674
692.447	9206
692.490	9085
692.523	9357
692.534	9483
692.578	9709
692.622	9660
692.643	9728
692.666	9571
692.709	9171
692.753	8769
692.763	8702
692.797	8782
692.840	8421
692.884	8917
692.884	8940
692.928	8754
692.971	8602
693.004	8876
693.015	8950
693.059	8974
693.102	8895
693.124	8911
693.146	9038
693.189	8911
693.233	9294
693.245	9207
693.276	9127
693.320	9562
693.363	9628
693.365	9612
693.407	9555
693.450	9479
693.485	9440
693.493	9488
693.537	9815
693.580	9649
693.605	9769
693.624	9988
693.667	10487
693.710	10821
693.725	10859
693.753	11723
693.797	13414
693.840	15340
693.845	15474
693.883	15971
693.926	16539
693.966	17014
693.970	16844
694.013	14886
694.056	12669
694.086	11167
694.099	11003
694.142	10696
694.185	10359
694.206	9972
694.229	9895
694.272	9984
694.315	9971
694.326	10023
694.358	10271
694.401	10343
694.444	10635
694.446	10593
694.487	10360
694.530	10956
694.566	10985
694.573	10894
694.616	10164
694.659	9556
694.686	9138
694.702	9173
694.745	9259
694.787	9373
694.806	9279
694.830	9177
694.873	9238
694.916	9153
694.926	9161
694.959	9321
695.002	9136
695.044	9236
695.046	9216
695.087	9378
695.130	9622
695.166	9489
695.172	9527
695.215	9894
695.258	10121
695.286	10276
695.301	10268
695.343	10333
695.386	10337
695.406	10249
695.428	10170
695.471	10156
695.514	9827
695.526	9817
695.556	10279
695.599	10738
695.641	11107
695.646	11133
695.684	11088
695.726	10931
695.766	10738
695.769	10765
695.811	10936
695.854	10786
695.886	10916
695.896	10950
695.938	10625
695.981	10620
696.005	10471
696.023	10490
696.065	10680
696.108	10646
696.125	10677
696.150	10934
696.192	11102
696.235	11555
696.245	11577
696.277	11424
696.319	11350
696.361	11202
696.365	11164
696.404	11307
696.446	11247
696.485	11442
696.488	11482
696.530	11345
696.572	11391
696.604	11299
696.614	11285
696.656	11361
696.698	11141
696.724	11058
696.740	11140
696.783	11155
696.825	11375
696.844	11345
696.867	11260
696.909	11264
696.951	11077
696.964	11020
696.992	11129
697.034	11189
697.076	11239
697.083	11230
697.118	11359
697.160	11532
697.202	11472
697.203	11444
697.244	11637
697.286	11761
697.323	11859
697.327	11875
697.369	11685
697.411	11595
697.442	11406
697.453	11413
697.494	11354
697.536	11266
697.562	11249
697.578	11471
697.620	11810
697.661	12289
697.682	12454
697.703	12692
697.744	13165
697.786	13618
697.801	13751
697.828	13912
697.869	14069
697.911	14224
697.921	14237
697.952	13762
697.994	13034
698.035	12292
698.040	12174
698.077	12117
698.118	11987
698.160	11891
698.160	11859
698.201	11771
698.243	11707
698.279	11624
698.284	11717
698.325	12300
698.367	12858
698.399	13246
698.408	13227
698.449	12995
698.491	12787
698.518	12601
698.532	12802
698.573	13294
698.614	13824
698.638	14081
698.656	14028
698.697	13824
698.738	13605
698.757	13471
698.779	13587
698.820	13733
698.862	13880
698.877	13898
698.903	14138
698.944	14464
698.985	14786
698.996	14837
699.026	14646
699.067	14326
699.116	13908
699.235	13606
699.354	13841
699.474	13719
699.593	13625
699.713	14198
699.832	12438
699.951	13605
700.070	13057
700.190	12515
700.309	12291
700.428	12463
700.547	12791
700.667	12873
700.786	12739
700.905	12560
701.024	11986
701.143	12608
701.262	11493
701.381	11758
701.500	12438
701.619	13014
701.738	11387
701.857	11245
701.976	11845
702.095	11650
702.214	12209
702.333	13052
702.452	11801
702.571	10877
702.690	11741
702.809	11322
702.928	11374
703.047	10911
703.165	11200
703.284	11431
703.403	11342
703.522	11768
703.640	11515
703.759	10948
703.878	14631
703.997	11915
704.115	10934
704.234	11102
704.353	11667
704.471	10270
704.590	10227
704.708	9972
704.827	9772
704.946	10640
705.064	10311
705.183	10201
705.301	10995
705.420	13458
705.538	13795
705.656	12323
705.775	11236
705.893	12760
706.012	16875
706.130	12423
706.249	12364
706.367	12177
706.485	12115
706.604	11725
706.722	11734
706.840	13896
706.958	15042
707.077	14313
707.195	11535
707.313	11390
707.431	10716
707.549	10934
707.668	11081
707.786	11710
707.904	11035
708.022	10266
708.140	11222
708.258	10065
708.376	10680
708.494	10508
708.612	10940
708.730	13862
708.848	15674
708.966	13335
709.084	12922
709.202	11592
709.320	13399
709.438	11966
709.556	12269
709.674	11498
709.791	12879
709.909	11789
710.027	11599
710.145	10916
710.263	11775
710.380	11869
710.498	12155
710.616	12192
710.733	10572
710.851	11185
710.969	12488
711.086	11407
711.204	11933
711.322	11293
711.439	11450
711.557	12066
711.674	10800
711.792	9979
711.909	10632
712.027	10569
712.144	10541
712.262	11214
712.379	10765
712.497	14241
712.614	16329
712.732	13892
712.849	12536
712.966	12753
713.084	15243
713.201	14534
713.318	12767
713.436	13283
713.553	13416
713.670	12888
713.787	14450
713.905	14722
714.022	12939
714.139	12600
714.256	15963
714.373	18462
714.490	28504
714.608	56300
714.725	220442
714.842	587797
714.959	79086
715.076	19033
715.193	15985
715.310	14068
715.427	12417
715.544	11109
715.661	11441
715.778	11159
715.895	11658
716.011	12685
716.128	11684
716.245	11498
716.362	12267
716.479	14087
716.596	11747
716.713	11563
716.829	10425
716.946	11394
717.063	10678
717.180	10608
717.296	10560
717.413	9336
717.530	10184
717.646	9930
717.763	8630
717.880	9083
717.996	8854
718.113	9133
718.229	9511
718.346	9145
718.462	8797
718.579	11171
718.695	14507
718.812	15447
718.928	11676
719.045	12052
719.161	8843
719.277	9639
719.394	9242
719.510	9306
719.626	9491
719.743	11940
719.859	14686
719.975	22899
720.092	67022
720.208	255939
720.324	98576
720.440	13080
720.557	11800
720.673	13380
720.789	17470
720.905	24746
721.021	22292
721.137	9245
721.253	8838
721.369	8323
721.486	8847
721.602	12000
721.718	9938
721.834	7582
721.950	7816
722.066	7372
722.181	8072
722.297	7939
722.413	8826
722.529	6997
722.645	8104
722.761	7156
722.877	7627
722.993	7309
723.108	8857
723.224	8711
723.340	7842
723.456	7733
723.571	7120
723.687	7220
723.803	7534
723.918	7022
724.034	7036
724.150	6919
724.265	7153
724.381	9202
724.497	18662
724.612	9437
724.728	6966
724.843	6284
724.959	7896
725.074	9596
725.190	17083
725.305	8191
725.421	6348
725.536	6230
725.651	5933
725.767	6747
725.882	5621
725.997	6405
726.113	6767
726.228	6231
726.343	6179
726.459	5445
726.574	6402
726.689	6430
726.804	5949
726.920	5137
727.035	6277
727.150	6553
727.265	5790
727.380	5895
727.495	6355
727.610	5771
727.725	5559
727.841	6254
727.956	6764
728.071	9126
728.186	6456
728.301	4688
728.416	6343
728.531	6119
728.645	5302
728.760	5675
728.875	6418
728.990	6509
729.105	5767
729.220	5918
729.335	6524
729.449	5626
729.564	5005
729.679	4869
729.794	5859
729.908	5927
730.023	5224
730.138	5016
730.253	5984
730.367	4942
730.482	4883
730.596	4798
730.711	5612
730.826	5619
730.940	6445
731.055	5334
731.169	5172
731.284	5241
731.398	5301
731.513	6260
731.627	5704
731.742	6747
731.856	7933
731.970	7558
732.085	9151
732.199	10738
732.313	15711
732.428	30689
732.542	105053
732.656	152510
732.771	25713
732.885	10025
732.999	8855
733.113	8961
733.227	8798
733.342	7601
733.456	8159
733.570	7671
733.684	6565
733.798	6703
733.912	6903
734.026	7451
734.140	6189
734.254	7373
734.368	8155
734.482	12969
734.596	7560
734.710	6496
734.824	6373
734.938	6791
735.052	5823
735.166	6954
735.280	6954
735.393	6407
735.507	5945
735.621	7531
735.735	9075
735.849	8571
735.962	6986
736.076	6272
736.190	6370
736.303	6615
736.417	9580
736.531	6735
736.644	6606
736.758	5667
736.872	6390
736.985	5321
737.099	6027
737.212	4830
737.326	5642
737.439	5448
737.553	6161
737.666	5470
737.780	4709
737.893	6095
738.007	5449
738.120	5420
738.233	6166
738.347	4767
738.460	4717
738.573	5640
738.687	5883
738.800	5484
738.913	5834
739.026	6636
739.140	5365
739.253	5420
739.366	4763
739.479	4232
739.592	4580
739.705	5377
739.818	5053
739.932	5372
740.045	5423
740.158	4637
740.271	4719
740.384	5129
740.497	4245
740.610	5084
740.723	5169
740.836	5075
740.949	4847
741.062	5945
741.174	6352
741.287	5048
741.400	4446
741.513	4656
741.626	5439
741.739	5535
741.851	3907
741.964	4806
742.077	4996
742.189	4627
742.302	5631
742.415	5511
742.527	4308
742.640	5427
742.753	4463
742.865	3757
742.978	4700
743.090	4516
743.203	5104
743.316	4107
743.428	4275
743.541	4401
743.653	3721
743.766	3522
743.878	4261
743.990	4313
744.103	5213
744.215	3782
744.327	3957
744.440	5192
744.552	6199
744.664	5361
744.777	4159
744.889	3992
745.001	4201
745.113	3623
745.226	3626
745.338	4178
745.450	3725
745.562	4168
745.674	3437
745.786	4084
745.898	3991
746.010	3218
746.122	3760
746.234	3982
746.347	3714
746.459	3835
746.570	4111
746.682	3722
746.794	4234
746.906	3778
747.018	2637
747.130	3219
747.242	3563
747.354	3158
747.466	4356
747.577	3775
747.689	3756
747.801	3120
747.913	2406
748.024	2859
748.136	2397
748.248	3070
748.359	3183
748.471	3418
748.583	3282
748.694	2994
748.806	3724
748.918	3450
749.029	4307
749.141	3217
749.252	4427
749.364	3498
749.475	5381
749.587	5908
749.698	3041
749.809	3514
749.921	3253
750.032	2519
750.144	2828
750.255	2811
750.366	2545
750.478	3300
750.589	3153
750.700	3645
750.811	3758
750.923	3620
751.034	4900
751.145	9268
751.256	3524
751.367	3031
751.479	2925
751.590	2152
751.701	3233
751.812	2764
751.923	3142
752.034	3188
752.145	2943
752.256	2712
752.367	2419
752.478	3559
752.589	2896
752.700	2367
752.811	2758
752.922	3417
753.032	3430
753.143	4579
753.254	3058
753.365	3410
753.476	3401
753.586	3411
753.697	2564
753.808	3624
753.919	2233
754.029	2371
754.140	2868
754.251	2798
754.361	2976
754.472	3578
754.582	3047
754.693	3337
754.804	3399
754.914	2805
755.025	2512
755.135	2473
755.246	3007
755.356	2478
755.466	2993
755.577	2630
755.687	2583
755.798	1811
755.908	3138
756.018	1882
756.129	1944
756.239	2980
756.349	2314
756.460	2174
756.570	3170
756.680	2516
756.790	2441
756.900	3467
757.011	2759
757.121	2634
757.231	2371
757.341	2683
757.451	2957
757.561	2865
757.671	2348
757.781	2279
757.891	2376
758.001	2674
758.111	3193
758.221	2197
758.331	3156
758.441	3592
758.551	3451
758.661	4151
758.771	3296
758.880	4195
758.990	3008
759.100	3031
759.210	3039
759.320	3338
759.429	2909
759.539	2424
759.649	2934
759.758	3225
759.868	5179
759.978	3389
760.087	4161
760.197	4073
760.307	3919
760.416	3495
760.526	3374
760.635	3532
760.745	3766
760.854	3502
760.964	4630
761.073	4446
761.182	4216
761.292	3779
761.401	4149
761.511	3650
761.620	3576
761.729	3307
761.839	3108
761.948	3134
762.057	3286
762.166	3571
762.276	2159
762.385	2980
762.494	2776
762.603	2485
762.712	2592
762.822	3683
762.931	3355
763.040	2164
763.149	3027
763.258	2739
763.367	3382
763.476	2971
763.585	3702
763.694	3338
763.803	3855
763.912	4107
764.021	3749
764.130	3113
764.238	2890
764.347	3659
764.456	2831
764.565	4156
764.674	4095
764.783	4265
764.891	3539
765.000	4353
765.109	5068
765.217	5188
765.326	6064
765.435	6457
765.543	7834
765.652	8095
765.761	9350
765.869	13783
765.978	20717
766.086	34481
766.195	68536
766.303	161188
766.412	447147
766.520	599955
766.629	233183
766.737	67427
766.846	33952
766.954	22197
767.062	16468
767.171	13023
767.279	10651
767.387	8263
767.496	7309
767.604	6120
767.712	5669
767.820	4886
767.928	4942
768.037	3982
768.145	4167
768.253	5238
768.361	4638
768.469	3724
768.577	4159
768.685	4590
768.793	4486
768.901	4770
769.009	6111
769.117	5175
769.225	6929
769.333	10405
769.441	15891
769.549	27352
769.657	60120
769.765	169732
769.873	462416
769.981	305696
770.088	63806
770.196	24692
770.304	14538
770.412	11260
770.519	8649
770.627	7087
770.735	6452
770.842	5604
770.950	5657
771.058	5047
771.165	4978
771.273	5202
771.380	4677
771.488	4194
771.595	5497
771.703	4789
771.810	5094
771.918	4464
772.025	4991
772.133	5142
772.240	4896
772.348	5425
772.455	4972
772.562	3869
772.670	4684
772.777	5353
772.884	5125
772.991	3866
773.099	4674
773.206	4056
773.313	4988
773.420	4074
773.528	4910
773.635	3592
773.742	3470
773.849	3795
773.956	4533
774.063	3745
774.170	4522
774.277	4642
774.384	4366
774.491	4295
774.598	5096
774.705	3357
774.812	4842
774.919	4908
775.026	4927
775.133	4104
775.239	4194
775.346	4001
775.453	4047
775.560	3510
775.667	3848
775.773	3997
775.880	4174
775.987	3473
776.093	4064
776.200	4146
776.307	3763
776.413	3312
776.520	3381
776.627	4798
776.733	3411
776.840	3260
776.946	4964
777.053	3208
777.159	4043
777.266	3373
777.372	4268
777.478	4185
777.585	4448
777.691	3679
777.798	3243
777.904	3879
778.010	3931
778.117	4625
778.223	3784
778.329	3002
778.435	2927
778.542	2919
778.648	3310
778.754	3517
778.860	3087
778.966	2806
779.072	3355
779.178	2786
779.284	3464
779.391	2604
779.497	3369
779.603	4154
779.708	2796
779.815	4917
779.920	7593
780.026	19082
780.132	8282
780.238	3128
780.344	3010
780.450	3379
780.556	3233
780.661	2094
780.767	3334
780.873	3172
780.979	2856
781.085	3019
781.190	2040
781.296	2751
781.402	2790
781.507	2688
781.613	2578
781.719	2268
781.824	3315
781.930	2781
782.035	2330
782.141	3841
782.246	2639
782.352	2577
782.457	2773
782.563	2144
782.668	2378
782.773	2668
782.879	3061
782.984	2619
783.090	3385
783.195	3716
783.300	3734
783.405	2850
783.511	2574
783.616	2986
783.721	2623
783.826	2529
783.932	2947
784.037	3379
784.142	2717
784.247	3058
784.352	3038
784.457	2633
784.562	2644
784.667	3332
784.772	2246
784.877	2494
784.982	2115
785.087	1810
785.192	2719
785.297	1672
785.402	2591
785.507	2726
785.611	2345
785.716	1200
785.821	2818
785.926	2169
786.031	1823
786.135	2002
786.240	2069
786.345	1329
786.450	2016
786.554	2388
786.659	2833
786.763	1695
786.868	2488
786.973	1569
787.077	2339
787.182	1855
787.286	1703
787.391	2509
787.495	1413
787.600	1536
787.704	2455
787.809	1876
787.913	2733
788.017	1540
788.122	1428
788.226	1505
788.330	1147
788.435	2025
788.539	1914
788.643	2255
788.747	2130
788.852	1822
788.956	2344
789.060	1396
789.164	2314
789.268	1319
789.372	2426
789.476	1684
789.580	1620
789.684	1401
789.788	2064
789.892	1562
789.996	1126
790.100	1272
790.204	1355
790.308	2426
790.412	1658
790.516	1161
790.620	1407
790.724	2390
790.828	2135
790.931	1223
791.035	1773
791.139	1641
791.242	1255
791.346	2397
791.450	1378
791.554	1256
791.657	1338
791.761	1915
791.864	2081
791.968	1654
792.072	1874
792.175	1533
792.279	1909
792.382	861
792.486	1027
792.589	1663
792.693	2126
792.796	1549
792.899	1869
793.003	1821
793.106	718
793.209	1839
793.313	2305
793.416	1263
793.519	956
793.623	1787
793.726	3765
793.829	2186
793.932	2141
794.035	884
794.138	1951
794.242	1611
794.345	1503
794.448	1849
794.551	2257
794.654	4536
794.757	8598
794.860	5031
794.963	1933
795.066	1185
795.169	1750
795.272	722
795.375	1563
795.477	1609
795.580	1166
795.683	418
795.786	1687
795.889	825
795.991	1556
796.094	1961
796.197	416
796.300	1690
796.402	1563
796.505	823
796.608	695
796.710	1099
796.813	1110
796.915	784
797.018	1337
797.120	861
797.223	827
797.326	2062
797.428	1045
797.530	1074
797.633	602
797.735	1872
797.838	2458
797.940	2426
798.042	1470
798.145	1212
798.247	1482
798.349	323
798.452	789
798.554	357
798.656	1018
798.758	1676
798.860	763
798.962	1453
799.065	963
799.167	432
799.269	920
799.371	1346
799.473	2199
799.575	1230
799.677	1152
799.779	1678
799.881	1874
799.983	1890
800.085	1280
800.187	1321
800.289	406
800.390	293
800.492	1134
800.594	1856
800.696	705
800.798	342
800.899	963
801.001	1334
801.103	1152
801.205	1480
801.306	1119
801.408	1238
801.509	1463
801.611	802
801.713	947
801.814	167
801.916	694
802.017	332
802.119	-346
802.220	1085
802.322	336
802.423	1772
802.525	366
802.626	928
802.727	819
802.829	1043
802.930	-736
803.031	1149
803.133	591
803.234	352
803.335	1224
803.436	592
803.538	205
803.639	703
803.740	241
803.841	578
803.942	1159
804.043	559
804.144	632
804.245	900
804.346	693
804.447	82
804.548	806
804.649	1743
804.750	919
804.851	217
804.952	539
805.053	614
805.154	-10
805.255	569
805.355	560
805.456	205
805.557	467
805.658	-52
805.758	377
805.859	556
805.960	179
806.061	-390
806.161	144
806.262	-153
806.362	556
806.463	1294
806.564	284
806.664	607
806.765	858
806.865	881
806.966	737
807.066	394
807.166	770
807.267	782
807.367	247
807.468	1237
807.568	1158
807.668	1260
807.769	802
807.869	339
807.969	-94
808.069	824
808.170	513
808.270	-4
808.370	1308
808.470	-65
808.570	698
808.670	193
808.770	683
808.870	572
808.970	1130
809.070	210
809.170	366
809.271	31
809.370	909
809.470	710
809.570	477
809.670	1058
809.770	-30
809.870	720
809.970	1363
810.070	654
810.169	268
810.269	45
810.369	1572
810.469	627
810.568	1510
810.668	485
810.768	210
810.867	450
810.967	338
811.066	339
811.166	581
811.265	824
811.365	-18
811.464	386
811.564	545
811.663	65
811.763	-518
811.862	470
811.962	1094
812.061	672
812.160	893
812.260	607
812.359	676
812.458	137
812.557	494
812.657	960
812.756	1153
812.855	-230
812.954	703
813.053	811
813.153	337
813.252	230
813.351	853
813.450	-195
813.549	259
813.648	456
813.747	693
813.846	74
813.945	392
814.044	978
814.143	711
814.242	933
814.341	43
814.439	268
814.538	1522
814.637	447
814.736	1161
814.835	951
814.933	890
815.032	1303
815.131	789
815.229	1483
815.328	3213
815.427	3064
815.525	2030
815.624	2533
815.722	1777
815.821	1962
815.919	2396
816.018	2288
816.116	2122
816.215	2080
816.313	2939
816.412	2188
816.510	2583
816.609	3332
816.707	3117
816.805	3039
816.904	3089
817.002	3510
817.100	4265
817.198	4305
817.296	3436
817.395	3916
817.493	4848
817.591	4388
817.689	5445
817.787	7165
817.885	9415
817.983	17627
818.081	33125
818.179	74548
818.277	181874
818.375	282307
818.473	104997
818.571	30243
818.669	16695
818.767	13420
818.865	12333
818.963	14647
819.061	18381
819.158	31492
819.256	62892
819.354	136913
819.452	317536
819.549	366762
819.647	127291
819.745	40449
819.842	21183
819.940	14594
820.038	10989
820.135	7035
820.233	7286
820.330	5262
820.428	3749
820.525	4865
820.623	3921
820.720	2790
820.818	2500
820.915	2778
821.012	2042
821.110	2059
821.207	2925
821.304	2210
821.402	2577
821.499	2723
821.596	2884
821.693	1977
821.791	2324
821.888	2032
821.985	3773
822.082	3600
822.179	3048
822.276	1857
822.373	2052
822.470	866
822.567	1732
822.664	1410
822.761	2145
822.858	1492
822.955	1815
823.052	1114
823.149	1720
823.246	916
823.343	1621
823.440	1591
823.536	1794
823.633	755
823.730	1290
823.827	1879
823.923	951
824.020	2439
824.117	1242
824.213	141
824.310	1288
824.407	403
824.503	600
824.600	1497
824.696	1391
824.793	1361
824.889	349
824.986	399
825.082	913
825.179	568
825.275	564
825.371	1592
825.468	1079
825.564	106
825.660	308
825.757	925
825.853	1645
825.949	698
826.045	232
826.142	-166
826.238	1759
826.334	505
826.430	747
826.526	514
826.622	139
826.718	-118
826.814	584
826.910	1098
827.006	126
827.102	477
827.198	1300
827.294	628
827.390	1673
827.486	750
827.582	-281
827.678	417
827.774	908
827.869	59
827.965	369
828.061	321
828.157	513
828.252	450
828.348	-409
828.444	1524
828.539	117
828.635	194
828.731	564
828.826	-358
828.922	-94
829.017	-202
829.113	870
829.208	548
829.304	282
829.399	1145
829.495	1088
829.590	877
829.685	697
829.781	795
829.876	872
829.971	193
830.066	828
830.162	-10
830.257	1036
830.352	632
830.447	810
830.543	622
830.638	593
830.733	1108
830.828	1254
830.923	1304
831.018	808
831.113	519
831.208	592
831.303	279
831.398	454
831.493	644
831.588	1064
831.683	278
831.778	732
831.873	280
831.967	1009
832.062	753
832.157	-277
832.252	1401
832.346	773
832.441	521
832.536	1038
832.631	3215
832.725	3595
832.820	865
832.914	596
833.009	442
833.104	478
833.198	830
833.293	-148
833.387	692
833.482	281
833.576	447
833.670	875
833.765	231
833.859	732
833.954	1669
834.048	39
834.142	1240
834.237	-731
834.331	241
834.425	826
834.519	-297
834.613	705
834.708	253
834.802	352
834.896	372
834.990	675
835.084	824
835.178	231
835.272	475
835.366	512
835.460	1153
835.554	471
835.648	340
835.742	-715
835.836	255
835.930	-885
836.024	515
836.117	342
836.211	369
836.305	468
836.399	1123
836.493	2
836.586	579
836.680	-62
836.774	-30
836.867	391
836.961	0
837.055	-146
837.148	-45
837.242	325
837.335	661
837.429	794
837.522	-447
837.616	290
837.709	787
837.803	996
837.896	675
837.989	399
838.083	1035
838.176	889
838.269	2015
838.363	1123
838.456	-852
838.549	959
838.642	824
838.735	2857
838.829	2871
838.922	560
839.015	-111
839.108	-656
839.201	-429
839.294	251
839.387	604
839.480	-489
839.573	791
839.666	749
839.759	-84
839.852	-21
839.945	200
840.038	18
840.131	-692
840.223	78
840.316	1211
840.409	-42
840.502	156
840.594	130
840.687	-234
840.780	-457
840.873	257
840.965	-216
841.058	495
841.150	1607
841.243	576
841.336	664
841.428	-145
841.521	-38
841.613	-345
841.706	987
841.798	-10
841.890	-110
841.983	-442
842.075	438
842.167	-88
842.260	186
842.352	1432
842.444	1346
842.537	667
842.629	2405
842.721	1049
842.813	-93
842.905	-842
842.997	6
843.090	-159
843.182	700
843.274	669
843.366	3071
843.458	5739
843.550	8322
843.642	1584
843.734	538
843.826	-71
843.918	855
844.009	14
844.101	-84
844.193	-467
844.285	126
844.377	493
844.469	92
844.560	-492
844.652	-11
844.744	180
844.835	-102
844.927	-192
845.019	581
845.110	-15
845.202	-234
845.293	-20
845.385	-690
845.476	-168
845.568	611
845.659	-808
845.751	-49
845.842	-762
845.934	-43
846.025	-423
846.116	-191
846.208	-691
846.299	-18
846.390	752
846.482	-41
846.573	29
846.664	362
846.755	181
846.846	680
846.937	-1408
847.029	-133
847.120	-216
847.211	-20
847.302	-270
847.393	-83
847.484	-355
847.575	-167
847.666	-833
847.757	261
847.847	-740
847.938	-87
848.029	-427
848.120	383
848.211	-639
848.302	-671
848.392	-158
848.483	-102
848.574	-808
848.664	-398
848.755	-99
848.846	105
848.936	-319
849.027	-830
849.118	193
849.208	172
849.299	186
849.389	975
849.480	2596
849.570	6845
849.661	12949
849.751	28378
849.841	24884
849.932	3028
850.022	309
850.112	115
850.203	25
850.293	-248
850.383	-398
850.474	-937
850.564	-1068
850.654	-918
850.744	-650
850.834	-77
850.924	-252
851.014	-117
851.104	-19
851.194	111
851.284	-35
851.374	-128
851.464	-89
851.554	-143
851.644	-685
851.734	68
851.824	54
851.914	-403
852.004	252
852.094	-299
852.183	-360
852.273	-301
852.363	-578
852.452	-310
852.542	-47
852.632	-206
852.721	-452
852.811	35
852.901	-423
852.990	883
853.080	-513
853.169	-203
853.259	-471
853.348	429
853.438	531
853.527	1906
853.617	1682
853.706	4099
853.795	9012
853.885	18998
853.974	42249
854.063	69485
854.152	139654
854.242	115289
854.331	22020
854.420	4372
854.509	2341
854.598	1894
854.687	1333
854.777	918
854.866	848
854.955	623
855.044	-3
855.133	216
855.222	117
855.311	-398
855.400	39
855.488	-679
855.577	-876
855.666	-354
855.755	283
855.844	56
855.933	-647
856.021	-427
856.110	9
856.199	154
856.288	-702
856.376	-910
856.465	-595
856.554	502
856.642	-362
856.731	591
856.819	-109
856.908	154
856.996	-532
857.085	-596
857.173	-677
857.262	439
857.350	-394
857.438	-322
857.527	-831
857.615	189
857.703	-41
857.792	-796
857.880	-350
857.968	-664
858.056	-660
858.145	521
858.233	-532
858.321	-891
858.409	-530
858.497	-812
858.585	-463
858.673	-20
858.761	-690
858.849	-582
858.937	-660
859.025	51
859.113	-834
859.201	-605
859.289	-405
859.377	-577
859.465	-317
859.552	-281
859.640	-926
859.728	-333
859.816	-364
859.903	-129
859.991	-775
860.079	399
860.166	-1397
860.254	-677
860.342	444
860.429	-858
860.517	-1015
860.604	-668
860.692	43
860.779	-707
860.867	-607
860.954	-395
861.042	-591
861.129	-227
861.216	-85
861.304	-647
861.391	-53
861.478	-620
861.565	118
861.653	-548
861.740	-556
861.827	303
861.914	-95
862.001	-389
862.089	-679
862.176	-4
862.263	228
862.350	-151
862.437	-721
862.524	-428
862.611	140
862.698	-86
862.785	-306
862.871	-488
862.958	-323
863.045	-714
863.132	-431
863.219	-942
863.306	-1469
863.392	93
863.479	-1082
863.566	-379
863.652	-23
863.739	-181
863.826	-172
863.912	-99
863.999	-841
864.086	-315
864.172	-168
864.259	-768
864.345	-514
864.432	78
864.518	240
864.604	-347
864.691	35
864.777	-288
864.863	-228
864.950	40
865.036	570
865.122	1317
865.209	2316
865.295	2176
865.381	1925
865.467	2442
865.553	2365
865.639	3375
865.726	5898
865.812	10834
865.898	22703
865.984	35357
866.070	51272
866.156	96839
866.242	52912
866.328	10338
866.414	3153
866.499	2837
866.585	2116
866.671	2190
866.757	1764
866.843	1273
866.928	1355
867.014	1057
867.100	2231
867.186	1242
867.271	1637
867.357	614
867.442	772
867.528	2052
867.614	587
867.699	905
867.785	1113
867.870	1005
867.956	445
868.041	1450
868.127	1260
868.212	1056
868.297	1061
868.383	1329
868.468	1307
868.553	2299
868.639	2866
868.724	2909
868.809	5626
868.894	3085
868.979	427
869.065	563
869.150	-235
869.235	905
869.320	-19
869.405	-1
869.490	144
869.575	411
869.660	690
869.745	710
869.830	609
869.915	801
870.000	516
870.085	387
870.169	890
870.254	817
870.339	-114
870.424	154
870.509	64
870.593	1098
870.678	1290
870.763	-459
870.847	879
870.932	-133
871.016	787
871.101	80
871.186	797
871.270	974
871.355	756
871.439	410
871.523	-314
871.608	-146
871.692	475
871.777	395
871.861	985
871.945	348
872.030	2
872.114	249
872.198	-964
872.282	14
872.367	324
872.451	-574
872.535	-119
872.619	-59
872.703	-90
872.787	-1
872.871	279
872.955	-303
873.039	-417
873.123	223
873.207	599
873.291	-201
873.375	533
873.459	182
873.543	684
873.627	-49
873.711	-310
873.794	-281
873.878	118
873.962	-58
874.045	243
874.129	16
874.137	60
874.213	500
874.245	155
874.296	-405
874.352	-636
874.380	-750
874.460	120
874.464	154
874.547	-17
874.568	151
874.631	640
874.676	502
874.714	397
874.784	211
874.798	173
874.881	1325
874.892	1167
874.965	70
874.999	-54
875.048	-222
875.107	-161
875.131	-156
875.215	160
875.215	159
875.298	-1120
875.323	-814
875.381	-78
875.430	86
875.465	166
875.538	-165
875.548	-202
875.631	-385
875.646	-330
875.714	-128
875.753	-403
875.798	-667
875.861	319
875.881	619
875.964	-325
875.968	-297
876.047	185
876.076	110
876.130	-35
876.183	-225
876.213	-335
876.291	639
876.296	709
876.379	-2
876.398	53
876.462	137
876.506	44
876.545	30
876.613	102
876.628	123
876.711	49
876.721	42
876.794	-59
876.828	268
876.877	692
876.935	385
876.960	257
877.043	90
877.043	88
877.125	-351
877.150	-221
877.208	98
877.258	541
877.291	792
877.365	335
877.374	293
877.456	336
877.472	330
877.539	230
877.579	552
877.622	831
877.687	-274
877.704	-511
877.787	442
877.794	438
877.869	191
877.901	144
877.952	96
878.008	-93
878.034	-164
878.115	1
878.117	5
878.199	-130
878.222	16
878.282	437
878.329	110
878.364	-77
878.437	408
878.447	450
878.529	-496
878.544	-449
878.611	-176
878.651	-128
878.694	22
878.758	199
878.776	200
878.858	262
878.865	256
878.941	7
878.972	-330
879.023	-573
879.078	-365
879.105	-289
879.185	362
879.187	371
879.269	123
879.292	204
879.351	511
879.399	247
879.433	69
879.506	12
879.516	24
879.598	272
879.613	258
879.680	55
879.720	254
879.762	486
879.827	-72
879.844	-197
879.926	-59
879.933	-22
880.007	151
880.040	213
880.089	394
880.147	586
880.171	746
880.253	2222
880.254	2229
880.335	3060
880.360	3324
880.417	4306
880.467	5382
880.499	6638
880.574	12665
880.580	12905
880.662	7709
880.680	6457
880.744	2194
880.787	1054
880.825	541
880.893	127
880.907	73
880.989	81
881.000	145
881.070	603
881.106	357
881.152	92
881.213	245
881.233	308
881.315	-383
881.319	-325
881.396	615
881.426	364
881.478	-74
881.532	162
881.559	288
881.639	7
881.641	-2
881.722	36
881.745	-29
881.803	199
881.852	367
881.885	258
881.958	445
881.966	487
882.047	542
882.064	446
882.129	309
882.171	663
882.210	962
882.277	1460
882.291	1486
882.372	1089
882.383	957
882.454	421
882.489	646
882.535	541
882.596	-252
882.616	-285
882.697	79
882.702	96
882.778	384
882.808	419
882.859	206
882.914	208
882.940	279
883.020	499
883.021	504
883.102	275
883.127	417
883.183	612
883.233	406
883.264	378
883.339	650
883.345	637
883.426	-201
883.445	-201
883.507	207
883.551	215
883.587	240
883.657	587
883.668	617
883.749	485
883.763	506
883.830	249
883.869	-102
883.910	-126
883.975	-21
883.991	-21
884.072	-49
884.081	-8
884.152	521
884.187	554
884.233	638
884.292	957
884.314	958
884.394	635
884.398	623
884.475	267
884.504	49
884.555	-162
884.610	-159
884.636	15
884.716	857
884.716	859
884.797	471
884.821	335
884.877	44
884.927	-144
884.958	-105
885.033	268
885.038	287
885.118	347
885.139	322
885.199	244
885.244	396
885.279	461
885.350	256
885.359	231
885.439	124
885.456	108
885.520	127
885.561	159
885.600	422
885.667	731
885.680	705
885.760	594
885.773	563
885.840	409
885.878	350
885.920	355
885.984	561
886.000	582
886.080	280
886.089	269
886.160	757
886.195	920
886.240	618
886.300	91
886.320	143
886.400	689
886.406	718
886.480	796
886.511	770
886.560	553
886.616	399
886.640	492
886.720	557
886.722	561
886.800	611
886.827	516
886.879	717
886.932	1077
886.959	943
887.038	420
887.039	424
887.119	321
887.143	355
887.198	434
887.248	375
887.278	357
887.354	430
887.358	450
887.437	743
887.459	795
887.517	700
887.564	598
887.596	626
887.669	654
887.676	638
887.755	572
887.774	509
887.835	449
887.880	466
887.914	552
887.985	538
887.994	524
888.073	463
888.090	457
888.153	608
888.195	677
888.232	950
888.300	1445
888.311	1334
888.391	502
888.405	347
888.470	357
888.510	328
888.549	423
888.615	668
888.628	752
888.708	1145
888.720	1215
888.787	1180
888.825	1106
888.866	585
888.930	-216
888.945	-100
889.024	555
889.035	636
889.103	755
889.140	789
889.182	999
889.245	1367
889.261	1257
889.340	664
889.349	593
889.419	740
889.454	810
889.498	909
889.559	1047
889.577	851
889.656	-22
889.664	-107
889.735	541
889.768	852
889.814	888
889.873	927
889.978	1064
890.083	1167
890.187	427
890.292	57
890.397	830
890.501	962
890.606	1133
890.710	1061
890.815	653
890.919	515
891.024	784
891.128	1025
891.233	513
891.337	1097
891.442	439
891.546	789
891.650	381
891.755	434
891.859	1191
891.963	1309
892.068	918
892.172	503
892.276	234
892.380	578
892.484	366
892.589	528
892.693	213
892.797	628
892.901	624
893.005	48
893.109	891
893.213	1029
893.317	629
893.421	989
893.525	-44
893.629	162
893.733	690
893.837	1185
893.941	270
894.045	1330
894.148	-4
894.252	1063
894.356	792
894.460	891
894.564	125
894.667	667
894.771	109
894.875	197
894.978	145
895.082	1205
895.186	1136
895.289	710
895.393	855
895.496	1076
895.600	305
895.703	1039
895.807	583
895.910	634
896.014	1145
896.117	-82
896.221	818
896.324	545
896.427	129
896.531	564
896.634	742
896.737	660
896.840	204
896.944	1218
897.047	546
897.150	1073
897.253	454
897.356	831
897.460	497
897.563	698
897.666	328
897.769	369
897.872	371
897.975	955
898.078	569
898.181	178
898.284	-198
898.387	944
898.490	680
898.593	1133
898.695	999
898.798	719
898.901	415
899.004	584
899.107	306
899.209	443
899.312	600
899.415	888
899.518	524
899.620	590
899.723	468
899.826	389
899.928	1269
900.031	1003
900.133	7
900.236	748
900.338	690
900.441	1296
900.543	481
900.646	766
900.748	390
900.851	764
900.953	95
901.055	1248
901.158	-204
901.260	468
901.362	59
901.465	931
901.567	296
901.669	905
901.771	169
901.873	851
901.976	126
902.078	510
902.180	509
902.282	-146
902.384	-192
902.486	384
902.588	411
902.690	1146
902.792	245
902.894	1241
902.996	546
903.098	594
903.200	209
903.302	653
903.404	706
903.505	-124
903.607	141
903.709	918
903.811	176
903.913	295
904.014	310
904.116	530
904.218	791
904.319	396
904.421	1310
904.523	1601
904.624	518
904.726	412
904.827	793
904.929	125
905.030	401
905.132	937
905.233	1096
905.335	368
905.436	560
905.537	206
905.639	924
905.740	590
905.841	-122
905.943	765
906.044	634
906.145	765
906.247	204
906.348	677
906.449	286
906.550	803
906.651	426
906.752	611
906.854	900
906.955	903
907.056	8
907.157	1106
907.258	177
907.359	353
907.460	419
907.561	-332
907.662	261
907.762	-165
907.863	472
907.964	889
908.065	-138
908.166	442
908.267	400
908.367	-644
908.468	-207
908.569	1130
908.670	627
908.770	502
908.871	319
908.971	244
909.072	1107
909.173	712
909.273	-15
909.374	43
909.474	364
909.575	1066
909.675	399
909.776	288
909.876	1094
909.977	961
910.077	66
910.177	229
910.278	-525
910.378	27
910.478	511
910.579	-125
910.679	-247
910.779	-267
910.879	363
910.980	644
911.080	167
911.180	-20
911.280	289
911.380	100
911.480	361
911.580	691
911.680	-22
911.780	-210
911.880	264
911.980	723
912.080	222
912.180	83
912.280	106
912.380	-332
912.480	-186
912.580	156
912.679	-440
912.779	1157
912.879	1118
912.979	317
913.078	376
913.178	8
913.278	274
913.377	406
913.477	-3
913.577	-356
913.676	141
913.776	569
913.875	490
913.975	698
914.074	-323
914.174	-362
914.273	-152
914.373	928
914.472	275
914.572	291
914.671	305
914.770	1
914.870	312
914.969	248
915.068	-486
915.167	508
915.267	191
915.366	-103
915.465	293
915.564	-157
915.663	373
915.763	993
915.862	245
915.961	-29
916.060	-730
916.159	-206
916.258	308
916.357	165
916.456	318
916.555	340
916.654	-71
916.752	-382
916.851	557
916.950	449
917.049	23
917.148	-404
917.247	-455
917.345	549
917.444	-545
917.543	212
917.642	-427
917.740	319
917.839	-28
917.937	-3
918.036	568
918.135	1099
918.233	-731
918.332	-44
918.430	1331
918.529	100
918.627	-716
918.726	-73
918.824	-284
918.923	33
919.021	69
919.119	203
919.218	77
919.316	502
919.414	194
919.512	-297
919.611	47
919.709	678
919.807	560
919.905	125
920.003	470
920.102	1007
920.200	-69
920.298	590
920.396	664
920.494	89
920.592	448
920.690	88
920.788	-30
920.886	227
920.984	-274
921.082	168
921.180	1136
921.277	422
921.375	376
921.473	14
921.571	235
921.669	55
921.766	1211
921.864	925
921.962	599
922.060	775
922.157	726
922.255	424
922.352	320
922.450	1177
922.548	239
922.645	105
922.743	1022
922.840	2345
922.938	2187
923.035	2598
923.133	1650
923.230	2911
923.327	2429
923.425	2141
923.522	2738
923.619	2275
923.717	1991
923.814	2958
923.911	1465
924.008	2161
924.106	2132
924.203	1943
924.300	2147
924.397	2602
924.494	1997
924.591	2758
924.688	1465
924.786	2210
924.883	1591
924.979	1357
925.077	1788
925.173	1269
925.270	851
925.367	1617
925.464	2237
925.561	1766
925.658	2765
925.755	1891
925.852	1876
925.948	1963
926.045	1582
926.142	1387
926.239	1902
926.335	925
926.432	1150
926.529	1925
926.625	1824
926.722	2688
926.818	1327
926.915	2220
927.011	2861
927.108	1783
927.204	1134
927.301	2213
927.397	1670
927.494	2326
927.590	1564
927.687	1316
927.783	2274
927.879	2233
927.976	1688
928.072	2031
928.168	1525
928.264	1556
928.361	1617
928.457	2614
928.553	1391
928.649	602
928.745	1357
928.841	1059
928.937	1234
929.033	2229
929.129	1705
929.225	1919
929.321	2072
929.417	1271
929.513	1293
929.609	1855
929.705	1511
929.801	1123
929.897	996
929.993	1460
930.089	1440
930.184	1814
930.280	1918
930.376	1645
930.471	1190
930.567	1196
930.663	1075
930.758	1506
930.854	1101
930.950	1355
931.045	1584
931.141	1661
931.236	1058
931.332	1482
931.427	265
931.523	1995
931.618	1462
931.714	454
931.809	906
931.905	1267
932.000	1105
932.095	1026
932.191	1261
932.286	2147
932.381	1774
932.476	354
932.572	784
932.667	1397
932.762	792
932.857	1957
932.952	1449
933.047	1261
933.142	1372
933.237	901
933.332	1017
933.427	1563
933.522	1298
933.617	790
933.712	716
933.807	1234
933.902	1797
933.997	1658
934.092	347
934.187	993
934.282	1664
934.376	1695
934.471	2162
934.566	1470
934.661	1121
934.755	1994
934.850	1036
934.945	2018
935.039	1160
935.134	714
935.228	1371
935.323	2049
935.417	1224
935.512	1438
935.606	363
935.701	16
935.795	1379
935.890	2241
935.984	1321
936.079	403
936.173	881
936.267	1395
936.362	130
936.456	773
936.550	1285
936.644	957
936.738	682
936.833	1059
936.927	366
937.021	680
937.115	1074
937.209	991
937.303	1323
937.397	452
937.491	782
937.585	1116
937.679	608
937.773	1113
937.867	1513
937.961	663
938.055	665
938.149	917
938.243	138
938.337	785
938.430	617
938.524	1137
938.618	1616
938.712	1158
938.805	631
938.899	1183
938.993	1467
939.086	661
939.180	669
939.274	952
939.367	-95
939.461	1517
939.554	1101
939.648	596
939.741	1150
939.835	1412
939.928	1575
940.022	2084
940.115	834
940.208	1635
940.302	1119
940.395	2205
940.488	592
940.582	144
940.675	401
940.768	854
940.861	1008
940.954	1386
941.048	351
941.141	425
941.234	1148
941.327	968
941.420	2012
941.513	1019
941.606	827
941.699	570
941.792	777
941.885	1238
941.978	405
942.071	727
942.164	598
942.257	705
942.349	1211
942.442	1108
942.535	901
942.628	1084
942.721	564
942.813	297
942.906	1456
942.999	684
943.091	355
943.184	132
943.277	714
943.369	816
943.462	579
943.554	1026
943.647	1017
943.739	1163
943.832	948
943.924	-124
944.017	441
944.109	-629
944.201	956
944.294	705
944.386	980
944.478	611
944.571	1262
944.663	940
944.755	618
944.847	-7
944.940	378
945.032	957
945.124	-266
945.216	1023
945.308	1038
945.400	990
945.492	129
945.584	1219
945.676	579
945.768	651
945.860	1316
945.952	1282
946.044	1174
946.136	776
946.228	296
946.320	517
946.412	153
946.503	1208
946.595	1215
946.687	569
946.779	115
946.870	-214
946.962	342
947.054	480
947.145	695
947.237	910
947.329	817
947.420	401
947.512	356
947.603	824
947.695	259
947.786	431
947.878	519
947.969	554
948.061	181
948.152	149
948.243	378
948.335	416
948.426	-387
948.517	763
948.609	1030
948.700	1175
948.791	543
948.882	330
948.973	571
949.065	422
949.156	1185
949.247	121
949.338	-43
949.429	369
949.520	-20
949.611	10
949.702	1068
949.793	400
949.884	-265
949.975	208
950.066	720
950.157	589
950.247	-30
950.338	-10
950.429	-208
950.520	906
950.611	902
950.701	1099
950.792	664
950.883	1403
950.973	788
951.064	286
951.155	1147
951.245	617
951.336	965
951.427	719
951.517	729
951.608	820
951.698	863
951.788	317
951.879	391
951.969	439
952.060	-232
952.150	143
952.240	362
952.331	-401
952.421	1399
952.511	137
952.602	212
952.692	190
952.782	190
952.872	230
952.962	-167
953.052	497
953.143	72
953.233	140
953.323	169
953.413	343
953.503	34
953.593	78
953.683	300
953.773	-357
953.863	-387
953.953	909
954.042	389
954.132	971
954.222	683
954.312	660
954.402	-114
954.492	1248
954.581	963
954.671	676
954.761	-653
954.850	555
954.940	81
955.030	6
955.119	-288
955.209	42
955.298	-184
955.388	490
955.477	806
955.567	-100
955.656	439
955.746	188
955.835	661
955.925	80
956.014	-288
956.103	143
956.193	826
956.282	480
956.371	623
956.461	-136
956.550	327
956.639	63
956.728	-327
956.817	625
956.906	-147
956.995	-56
957.085	13
957.174	568
957.263	324
957.352	119
957.441	-250
957.530	181
957.619	-509
957.708	-225
957.796	285
957.885	272
957.974	-518
958.063	351
958.152	-8
958.241	-219
958.329	-360
958.418	657
958.507	-433
958.596	975
958.684	-381
958.773	455
958.861	-60
958.950	444
959.039	682
959.127	-572
959.216	76
959.304	-105
959.393	422
959.481	174
959.570	-24
959.658	1124
959.746	-622
959.835	-74
959.923	1281
960.011	1465
960.100	-236
960.188	-122
960.276	339
960.365	446
960.453	-354
960.541	-454
960.629	-522
960.717	-89
960.805	-867
960.893	258
960.981	-361
961.069	5
961.158	-196
961.245	844
961.333	-226
961.421	197
961.509	-373
961.597	535
961.685	144
961.773	-237
961.861	-599
961.949	140
962.036	66
962.124	-210
962.212	-394
962.299	-483
962.387	-980
962.475	288
962.562	-518
962.650	332
962.738	-639
962.825	-225
962.913	-446
963.000	-723
963.088	-152
963.175	880
963.263	-353
963.350	-1024
963.438	-569
963.525	82
963.612	783
963.700	951
963.787	4140
963.874	4453
963.962	-3
964.049	150
964.136	-118
964.223	-558
964.310	-632
964.398	-87
964.485	-587
964.572	-845
964.659	-495
964.746	102
964.833	284
964.920	-659
965.007	-79
965.094	-349
965.181	-272
965.268	433
965.355	75
965.441	8
965.528	-1055
965.615	-107
965.702	-298
965.789	-615
965.875	-458
965.962	221
966.049	-681
966.136	-280
966.222	250
966.309	884
966.395	-553
966.482	198
966.569	-446
966.655	194
966.742	111
966.828	27
966.915	-777
967.001	48
967.087	-853
967.174	-563
967.260	-136
967.347	317
967.433	730
967.519	2985
967.605	1216
967.692	227
967.778	-1209
967.864	-40
967.950	24
968.036	627
968.123	-383
968.209	-900
968.295	-1407
968.381	113
968.467	170
968.553	-610
968.639	37
968.725	-800
968.811	239
968.897	900
968.983	396
969.069	-161
969.154	-654
969.240	-305
969.326	-715
969.412	-972
969.497	-715
969.583	-1424
969.669	54
969.755	-267
969.840	-977
969.926	-199
970.012	-393
970.097	947
970.183	390
970.268	-179
970.354	-192
970.439	-546
970.525	1492
970.610	537
970.696	181
970.781	-672
970.866	-1070
970.952	173
971.037	-852
971.122	658
971.208	-644
971.293	-381
971.378	-928
971.463	-736
971.549	862
971.634	-863
971.719	429
971.804	54
971.889	64
971.974	-227
972.059	-145
972.144	-827
972.229	-483
972.314	-683
972.399	-815
972.484	-450
972.569	-905
972.654	-859
972.739	629
972.824	791
972.908	212
972.993	-659
973.078	-1439
973.163	16
973.247	-586
973.332	-711
973.417	-157
973.501	-514
973.586	-409
973.671	-773
973.755	-259
973.840	-341
973.924	-1099
974.009	-1184
974.093	-842
974.178	261
974.262	-538
974.346	356
974.431	-256
974.515	-109
974.600	-567
974.684	-725
974.768	-585
974.852	-605
974.937	-946
975.021	-943
975.105	-379
975.189	-687
975.273	-1067
975.358	59
975.442	-586
975.526	-1095
975.610	-849
975.694	-1275
975.778	-276
975.862	-284
975.946	-1717
976.030	409
976.114	-1324
976.198	-1551
976.281	-865
976.365	-164
976.449	-327
976.533	-744
976.617	-708
976.700	-415
976.784	-1509
976.868	-545
976.951	-820
977.035	-304
977.119	-378
977.202	-569
977.286	-727
977.369	-563
977.453	-462
977.536	-902
977.620	-1491
977.703	276
977.787	-936
977.870	-16
977.953	50
978.037	-1251
978.120	-802
978.203	-647
978.287	-254
978.370	148
978.453	-328
978.536	-735
978.620	-929
978.703	-188
978.786	257
978.869	-574
978.952	-1339
979.035	-354
979.118	215
979.201	-542
979.284	-947
979.367	-1170
979.450	-44
979.533	-1393
979.616	-1122
979.699	-580
979.782	-728
979.865	-348
979.948	-796
980.030	-948
980.113	-529
980.196	-1305
980.279	-895
980.361	-758
980.444	-947
980.526	-797
980.609	-754
980.692	-1190
980.774	-689
980.857	-1758
980.939	-849
981.022	-654
981.104	-747
981.187	-502
981.269	-120
981.352	71
981.434	-2064
981.516	-331
981.599	-165
981.681	-127
981.763	-972
981.846	-929
981.928	-1123
982.010	-606
982.092	-1257
982.174	-650
982.256	-1082
982.339	181
982.421	-488
982.503	-1150
982.585	-1202
982.667	-557
982.749	-917
982.831	-368
982.913	-1033
982.995	92
983.077	-1196
983.158	-325
983.240	-1882
983.322	-1110
983.404	-618
983.486	-446
983.568	-463
983.649	-349
983.731	-340
983.813	-1291
983.894	-558
983.976	-1514
984.058	-750
984.139	-347
984.221	-638
984.302	331
984.384	-863
984.465	-1356
984.547	-419
984.628	-1105
984.710	-180
984.791	-454
984.872	-668
984.954	-1119
985.035	-838
985.116	-769
985.198	-587
985.279	165
985.360	-1083
985.441	-822
985.522	-404
985.604	-563
985.685	-1829
985.766	-95
985.847	-1201
985.928	-1280
986.009	-1036
986.090	-1074
986.171	-1646
986.252	-725
986.333	-654
986.414	-565
986.495	-302
986.576	-1162
986.656	-1099
986.737	-32
986.818	-1092
986.899	-402
986.980	-660
987.060	-134
987.141	-1260
987.222	-1064
987.302	-1033
987.383	-375
987.464	-271
987.544	-118
987.625	-1120
987.705	-238
987.786	69
987.866	-864
987.947	-750
988.027	-770
988.108	-572
988.188	-310
988.268	-941
988.349	-891
988.429	-534
988.509	-421
988.589	-778
988.670	-1572
988.750	146
988.830	-233
988.910	-1602
988.990	-351
989.070	-431
989.151	-576
989.231	-1073
989.311	-222
989.391	-79
989.471	-468
989.551	-1263
989.631	-505
989.711	-1054
989.791	-1136
989.870	-1150
989.950	-85
990.030	-919
990.110	-1354
990.190	-554
990.269	-965
990.349	-359
990.429	-155
990.509	-581
990.588	-1200
990.668	-836
990.747	-182
990.827	-396
990.907	-1035
990.986	-808
991.066	-330
991.145	-655
991.225	-322
991.304	-1479
991.383	-293
991.463	-1416
991.542	-672
991.622	-1509
991.701	-1268
991.780	-1137
991.859	-207
991.939	93
992.018	-1447
992.097	13
992.176	-556
992.256	-984
992.335	-1144
992.414	437
992.493	-1042
992.572	-1428
992.651	-152
992.730	-1032
992.809	-25
992.888	-526
992.967	-369
993.046	-563
993.125	-1251
993.203	-1278
993.282	-992
993.361	-704
993.440	-879
993.519	-617
993.597	-1061
993.676	-991
993.755	-1009
993.834	-408
993.912	-1000
993.991	-779
994.069	-1264
994.148	-255
994.226	-623
994.305	-568
994.384	-774
994.462	-336
994.540	-1318
994.619	-874
994.697	-654
994.776	-1520
994.854	-952
994.932	-625
995.011	-590
995.089	-447
995.167	-676
995.245	-1361
995.324	-1234
995.402	-570
995.480	-1165
995.558	-561
995.636	-1724
995.714	-1862
995.792	51
995.870	-889
995.948	-981
996.026	-758
996.104	-1486
996.182	-1057
996.260	-1247
996.338	-1196
996.416	-1575
996.494	-862
996.572	-567
996.649	-543
996.727	-1601
996.805	-249
996.883	-502
996.960	-1585
997.038	-1032
997.116	-1134
997.193	-1659
997.271	-787
997.348	-1423
997.426	-1557
997.504	-1797
997.581	-783
997.658	-1126
997.736	-1761
997.813	-1316
997.891	-154
997.968	-1346
998.046	-968
998.123	-1569
998.200	-1267
998.277	-1346
998.355	-566
998.432	-1756
998.509	-964
998.586	-374
998.663	-742
998.741	-1048
998.818	-1116
998.895	-885
998.972	-1341
999.049	-1262
999.126	-1464
999.203	-1163
999.280	-1314
999.357	-1456
999.434	-1436
999.511	-1274
999.587	-658
999.664	-1212
999.741	-1044
999.818	-822
999.895	-1543
999.971	-531
1000.048	-1287
1000.125	-1374
1000.202	-1284
1000.278	-1317
1000.355	-1224
1000.431	-1377
1000.508	-1314
1000.584	-342
1000.661	-701
1000.738	-1421
1000.814	-1617
1000.890	-629
1000.967	-1798
1001.043	-1371
1001.120	-1853
1001.196	-311
1001.272	-1264
1001.349	-1103
1001.425	-886
1001.501	-597
1001.577	-1887
1001.654	-892
1001.730	-1147
1001.806	-1938
1001.882	-1955
1001.958	-455
1002.034	-766
1002.110	-1304
1002.186	-1347
1002.262	-1563
1002.338	-2258
1002.414	-650
1002.490	-1077
1002.566	-1383
1002.642	-1655
1002.718	-443
1002.794	-1442
1002.870	-1140
1002.945	-1905
1003.021	-1929
1003.097	-1215
1003.173	-1194
1003.248	-650
1003.324	-979
1003.400	-1232
1003.475	-1274
1003.551	-1555
1003.626	-693
1003.702	-946
1003.777	-516
1003.853	-1200
1003.928	-1354
1004.004	-820
1004.079	-1068
1004.155	-1350
1004.230	-1838
1004.305	-1153
1004.381	-1765
1004.456	-1135
1004.531	-1458
1004.607	-926
1004.682	-1192
1004.757	-1253
1004.832	-1040
1004.907	-1939
1004.982	-583
1005.057	-1452
1005.133	-1225
1005.208	-978
1005.283	-758
1005.358	-252
1005.433	-1574
1005.508	-1435
1005.583	-2217
1005.657	-1508
1005.732	-707
1005.807	-1526
1005.882	-1699
1005.957	-1821
1006.032	-1538
1006.106	-1369
1006.181	-1540
1006.256	-1363
1006.331	-2012
1006.405	-1279
1006.480	-1081
1006.554	-769
1006.629	-1639
1006.704	-1266
1006.778	-1153
1006.853	-807
1006.927	-1947
1007.002	-1299
1007.076	-761
1007.150	-1631
1007.225	-816
1007.299	-1258
1007.373	-1791
1007.448	-1105
1007.522	-1044
1007.596	-1496
1007.671	-923
1007.745	-1068
1007.819	-1526
1007.893	-1571
1007.967	-1046
1008.041	-2367
1008.115	-1195
1008.190	-935
1008.264	-1169
1008.338	-1905
1008.412	-859
1008.486	-836
1008.560	-1244
1008.633	-2088
1008.707	-917
1008.781	-1562
1008.855	-732
1008.929	-1489
1009.003	-1251
1009.076	-1413
1009.150	-1531
1009.224	-1547
1009.298	-1081
1009.371	-1880
1009.445	-1047
1009.519	-1644
1009.592	-1991
1009.666	-1611
1009.739	-897
1009.813	-1889
1009.886	-851
1009.960	-1536
1010.033	-1209
1010.107	-1183
1010.180	-1368
1010.253	-465
1010.327	-1080
1010.400	-1428
1010.473	-1705
1010.547	-622
1010.620	-1626
1010.693	-1481
1010.766	-1885
1010.840	-1512
1010.913	-1125
1010.986	-1321
1011.059	-1483
1011.132	-2019
1011.205	-1114
1011.278	-1604
1011.351	-1724
1011.424	-1162
1011.497	-1777
1011.570	-1761
1011.643	-1183
1011.716	-1302
1011.789	-593
1011.862	-688
1011.934	-1306
1012.007	-2302
1012.080	-663
1012.153	-1300
1012.225	-489
1012.298	-1706
1012.371	-750
1012.443	-790
1012.516	-1229
1012.588	-1308
1012.661	-1034
1012.733	-2122
1012.806	-954
1012.879	-1923
1012.951	-1110
1013.023	-1826
1013.096	-964
1013.168	-2249
1013.241	-2098
1013.313	-1367
1013.385	-1589
1013.458	-1355
1013.530	-1147
1013.602	-2497
1013.674	-1472
1013.746	-1758
1013.819	-1896
1013.891	-1423
1013.963	-2157
1014.035	-1501
1014.107	-1150
1014.179	-1852
1014.251	-2015
1014.323	-643
1014.395	-1565
1014.467	-1715
1014.539	-1287
1014.611	-1998
1014.683	-808
1014.754	-1395
1014.826	-1219
1014.898	-1213
1014.970	-2375
1015.042	-1327
1015.113	-1623
1015.185	-1474
1015.257	-1742
1015.328	-2085
1015.400	-2024
1015.471	-1831
1015.543	-2116
1015.615	-1461
1015.686	-1332
1015.757	-1387
1015.829	-1475
1015.901	-1787
1015.972	-1554
1016.043	-1576
1016.115	-1819
1016.186	-1361
1016.257	-1584
1016.328	-1150
1016.400	-1278
1016.471	-2639
1016.542	-1279
1016.613	-1958
1016.685	-1061
1016.756	-721
1016.827	-1448
1016.898	-2068
1016.969	-667
1017.040	-1253
1017.111	-1350
1017.182	-1349
1017.253	-2200
1017.324	-1657
1017.395	-1213
1017.466	-1015
1017.537	-1548
1017.608	-1735
1017.678	-1945
1017.749	-1579
1017.820	-2471
1017.891	-2187
1017.961	-1970
1018.032	-1237
1018.103	-972
1018.173	-748
1018.244	-1335
1018.315	-2662
1018.385	-1829
1018.456	-1343
1018.526	-1953
1018.597	-1071
1018.667	-1475
1018.738	-2210
1018.808	-1614
1018.878	-1659
1018.949	-1583
1019.019	-1437
1019.089	-1658
1019.160	-748
1019.230	-2231
1019.300	-1693
1019.371	-2427
1019.441	-1824
1019.511	-1458
1019.581	-1880
1019.651	-1894
1019.721	-1876
1019.791	-1931
1019.861	-1880
1019.931	-1574
1020.001	-2946
1020.071	-1638
1020.141	-1554
1020.211	-827
1020.281	-1757
1020.351	-1794
1020.421	-1590
1020.491	-1158
1020.560	-1613
1020.630	-1956
1020.700	-1215
1020.770	-2263
1020.839	-2143
1020.909	-1474
1020.979	-2031
1021.048	-2094
1021.118	-999
1021.187	-1701
1021.257	-2006
1021.326	-1434
1021.396	-2106
1021.465	-1195
1021.535	-2305
1021.604	-2501
1021.674	-2440
1021.743	-1386
1021.812	-2127
1021.882	-2051
1021.951	-1707
1022.020	-2176
1022.089	-1241
1022.159	-2429
1022.228	-1461
1022.297	-1141
1022.366	-1505
1022.435	-2148
1022.504	-2274
1022.573	-1974
1022.642	-1199
1022.711	-1553
1022.781	-2636
1022.849	-1436
1022.918	-2201
1022.987	-1532
1023.056	-1985
1023.125	-1834
1023.194	-2043
1023.263	-1262
1023.331	-1726
1023.400	-1616
1023.469	-1631
1023.538	-1782
1023.606	-1480
1023.675	-1571
1023.744	-2125
1023.812	-1687
1023.881	-2010
1023.949	-1836
1024.018	-2275
1024.086	-1550
1024.155	-1463
1024.223	-2220
1024.292	-1782
1024.360	-1196
1024.429	-2334
1024.497	-2185
1024.565	-1929
1024.634	-1556
1024.702	-1975
1024.770	-1504
1024.838	-1692
1024.907	-1614
1024.975	-1625
1025.043	-2079
1025.111	-1770
1025.179	-2003
1025.247	-2047
1025.315	-2276
1025.383	-1609
1025.451	-2226
1025.519	-2002
1025.587	-2279
1025.655	-1593
1025.723	-1286
1025.791	-1802
1025.859	-1958
1025.927	-1526
1025.995	-1854
1026.062	-1457
1026.130	-2407
1026.198	-2630
1026.266	-1560
1026.333	-2102
1026.401	-1278
1026.469	-2387
1026.536	-1858
1026.604	-2720
1026.671	-1611
1026.739	-2252
1026.806	-1769
1026.874	-2516
1026.941	-2098
1027.009	-2048
1027.076	-2335
1027.144	-1411
1027.211	-1461
1027.278	-2303
1027.345	-2140
1027.413	-2076
1027.480	-1533
1027.547	-2179
1027.614	-1984
1027.682	-2294
1027.749	-1900
1027.816	-2743
1027.883	-1819
1027.950	-1611
1028.017	-3483
1028.084	-1938
1028.151	-2147
1028.218	-1450
1028.285	-2614
1028.352	-2129
1028.419	-2457
1028.486	-2849
1028.553	-1370
1028.619	-2821
1028.686	-1628
1028.753	-2308
1028.820	-2696
1028.886	-2257
1028.953	-2653
1029.020	-2329
1029.086	-1999
1029.153	-1955
1029.220	-2280
1029.286	-1953
1029.353	-1926
1029.419	-2741
1029.486	-2413
1029.552	-2991
1029.619	-2091
1029.685	-2169
1029.751	-2507
1029.818	-2030
1029.884	-2094
1029.951	-2207
1030.017	-2556
1030.083	-1742
1030.149	-1572
1030.216	-2642
1030.282	-1536
1030.348	-3413
1030.414	-2400
1030.480	-2383
1030.546	-2953
1030.612	-2452
1030.678	-2310
1030.744	-2768
1030.810	-2504
1030.876	-1729
1030.942	-2825
1031.008	-1769
1031.074	-2771
1031.140	-1826
1031.206	-1597
1031.272	-2171
1031.337	-2280
1031.403	-2196
1031.469	-2057
1031.534	-2468
1031.600	-2070
1031.666	-2512
1031.731	-1999
1031.797	-1809
1031.863	-2769
1031.928	-2185
1031.994	-2617
1032.059	-2006
1032.125	-2088
1032.190	-1721
1032.256	-2551
1032.321	-2471
1032.386	-1728
1032.452	-2587
1032.517	-2397
1032.582	-2965
1032.647	-2275
1032.713	-3048
1032.778	-2397
1032.843	-2243
1032.908	-2859
1032.974	-2426
1033.039	-2307
1033.104	-1789
1033.169	-2240
1033.234	-2491
1033.299	-766
1033.364	-1914
1033.429	-2627
1033.494	-2443
1033.559	-1990
1033.624	-1862
1033.688	-1888
1033.753	-2841
1033.818	-2130
1033.883	-2418
1033.948	-2465
1034.013	-1893
1034.077	-2171
1034.142	-1633
1034.207	-1441
1034.271	-646
1034.336	-1296
1034.400	-1439
1034.465	-1189
1034.530	-1350
1034.594	-1455
1034.658	-2012
1034.723	-2042
1034.787	-2362
1034.852	-1885
1034.916	-2943
1034.981	-2525
1035.045	-2177
1035.109	-2810
1035.173	-2051
1035.238	-1867
1035.302	-2112
1035.366	-2567
1035.430	-3213
1035.495	-3156
1035.559	-2168
1035.623	-2109
1035.687	-2891
1035.751	-3048
1035.815	-2604
1035.879	-2896
1035.943	-2886
1036.007	-3149
1036.071	-2829
1036.135	-2181
1036.198	-2879
1036.262	-2546
1036.326	-2613
1036.390	-1550
1036.454	-2602
1036.517	-2784
1036.581	-2132
1036.645	-1439
1036.709	-1656
1036.772	-1577
1036.836	-1426
1036.900	-2245
1036.963	-2005
1037.026	-3125
1037.090	-2525
1037.154	-2291
1037.217	-3487
1037.280	-2220
1037.344	-2780
1037.407	-2406
1037.471	-3211
1037.534	-2308
1037.597	-2762
1037.661	-2684
1037.724	-2704
1037.787	-2710
1037.850	-2672
1037.913	-2180
1037.977	-2320
1038.040	-2012
1038.103	-2668
1038.166	-2402
1038.229	-2495
1038.292	-2274
1038.355	-3064
1038.418	-2582
1038.481	-2282
1038.544	-2363
1038.607	-2146
1038.670	-2624
1038.732	-2019
1038.795	-2984
1038.858	-3091
1038.921	-2753
1038.984	-2718
1039.046	-2986
1039.109	-2720
1039.172	-2357
1039.234	-2882
1039.297	-2355
1039.360	-2638
1039.422	-2417
1039.485	-2550
1039.547	-2839
1039.610	-2963
1039.672	-3159
1039.734	-3176
1039.797	-2892
1039.859	-2524
1039.922	-2728
1039.984	-2242
1040.046	-2939
1040.109	-2482
1040.171	-2169
1040.233	-1959
1040.295	-3313
1040.358	-3156
1040.420	-2622
1040.482	-2069
1040.544	-2606
1040.606	-2656
1040.668	-2448
1040.730	-1985
1040.792	-1476
1040.854	-2633
1040.916	-2114
1040.978	-2076
1041.040	-2778
1041.102	-2261
1041.164	-2642
1041.225	-2499
1041.287	-2789
1041.349	-2844
1041.411	-2554
1041.472	-2824
1041.534	-2214
1041.596	-2960
1041.657	-2024
1041.719	-2481
1041.781	-2414
1041.842	-3040
1041.904	-2533
1041.965	-2668
1042.027	-2080
1042.088	-2255
1042.150	-2689
1042.211	-2957
1042.272	-2348
1042.334	-2906
1042.395	-2182
1042.456	-2607
1042.518	-1789
1042.579	-1655
1042.640	-2661
1042.701	-2842
1042.763	-2640
1042.824	-2601
1042.885	-2711
1042.946	-2864
1043.007	-2361
1043.068	-2707
1043.129	-2583
1043.190	-2574
1043.251	-1967
1043.312	-2156
1043.373	-2075
1043.434	-2680
1043.495	-2136
1043.556	-2111
1043.616	-2552
1043.677	-1715
1043.738	-2680
1043.799	-2189
1043.859	-2814
1043.920	-2237
1043.981	-2537
1044.041	-2401
1044.102	-3168
1044.162	-2262
1044.223	-2362
1044.284	-2688
1044.344	-2313
1044.405	-2638
1044.465	-2350
1044.525	-2417
1044.586	-2419
1044.646	-2571
1044.707	-2186
1044.767	-2243
1044.827	-1963
1044.887	-2102
1044.948	-2631
1045.008	-2325
1045.068	-2154
1045.128	-2343
1045.188	-2048
1045.249	-2115
1045.309	-2797
1045.369	-2735
1045.429	-2546
1045.489	-2601
1045.549	-1880
1045.609	-2328
1045.669	-2632
1045.729	-2492
1045.789	-2463
1045.848	-2772
1045.908	-2528
1045.968	-1447
1046.028	-2156
1046.088	-1740
1046.147	-1747
1046.207	-1860
1046.267	-1561
1046.326	-1960
1046.386	-2155
1046.446	-1160
1046.505	-1188
1046.565	-1449
1046.624	-1807
1046.684	-1529
1046.743	-1282
1046.803	-1438
1046.862	-1250
1046.922	0
