'Start Wavelength	183.907
'End Wavelength	1046.922
'Gate Delay	5.000
'Gate Width (ms)	1.050
'Laser Output Level	0.000
'X Position	0.000
'Y Position	0.000
'Z Position	0.000
'Grid Point Number	1.000
'Shot Number	100.000
183.907	421.000
183.977	-373.000
184.047	-104
184.116	165
184.186	132
184.256	-1184
184.325	200
184.395	-565
184.465	94
184.534	-350
184.604	603
184.674	-66
184.743	-215
184.813	-14
184.883	-252
184.952	-192
185.022	490
185.092	-543
185.161	-331
185.231	-451
185.301	779
185.370	231
185.440	-580
185.509	-579
185.579	-327
185.649	149
185.718	-169
185.788	285
185.857	-223
185.927	-318
185.996	-194
186.066	-315
186.136	-78
186.205	-459
186.275	-3
186.344	-744
186.414	-122
186.483	-998
186.553	290
186.622	732
186.692	-395
186.761	-220
186.831	-24
186.900	-589
186.970	449
187.039	-683
187.109	626
187.178	-368
187.248	484
187.317	-241
187.387	-158
187.456	-14
187.526	-21
187.595	-103
187.664	-492
187.734	-154
187.803	-428
187.873	-131
187.942	-95
188.012	396
188.081	-84
188.150	-565
188.220	-149
188.289	-447
188.358	-20
188.428	-341
188.497	-59
188.567	-148
188.636	-191
188.705	84
188.775	-247
188.844	-6
188.913	990
188.983	-521
189.052	-484
189.121	-214
189.191	-320
189.260	-402
189.329	571
189.399	-250
189.468	-161
189.537	-257
189.606	337
189.676	-483
189.745	35
189.814	-798
189.883	-77
189.953	-169
190.022	110
190.091	-215
190.161	-332
190.230	826
190.299	-1049
190.368	-518
190.437	-24
190.507	151
190.576	-112
190.645	-1171
190.714	-247
190.783	-487
190.853	-49
190.922	-339
190.991	-203
191.060	35
191.129	-399
191.198	-693
191.268	208
191.337	196
191.406	518
191.475	-65
191.544	-318
191.613	-743
191.682	335
191.752	217
191.821	50
191.890	163
191.959	-80
192.028	-189
192.097	-386
192.166	-286
192.235	-328
192.304	164
192.373	-44
192.442	-71
192.511	-450
192.580	-663
192.650	-124
192.719	-673
192.788	847
192.857	-202
192.926	443
192.995	-10
193.064	-20
193.133	470
193.202	714
193.271	-222
193.340	981
193.409	-227
193.478	107
193.547	266
193.615	287
193.684	-37
193.753	313
193.822	83
193.891	-718
193.960	676
194.029	-344
194.098	78
194.167	127
194.236	488
194.305	44
194.374	-297
194.443	-466
194.512	-80
194.580	552
194.649	-196
194.718	306
194.787	481
194.856	-375
194.925	630
194.994	-261
195.062	-362
195.131	60
195.200	-725
195.269	-23
195.338	-349
195.407	-195
195.475	-336
195.544	467
195.613	-503
195.682	-43
195.751	201
195.819	10
195.888	-271
195.957	58
196.026	-1085
196.094	259
196.163	73
196.232	-2
196.301	-900
196.369	73
196.438	-115
196.507	924
196.576	-162
196.644	-366
196.713	-495
196.782	-819
196.850	-348
196.919	480
196.988	-714
197.056	-464
197.125	-669
197.194	149
197.262	-461
197.331	-715
197.400	-677
197.468	-267
197.537	-522
197.606	488
197.674	572
197.743	-45
197.812	172
197.880	-256
197.949	-284
198.017	-400
198.086	58
198.155	-253
198.223	-76
198.292	-19
198.360	-321
198.429	-229
198.497	176
198.566	-448
198.635	-122
198.703	143
198.772	-196
198.840	-42
198.909	-269
198.977	-20
199.046	-266
199.114	-359
199.183	-668
199.251	-69
199.320	-383
199.388	-322
199.457	-678
199.525	-188
199.594	-587
199.662	355
199.731	-1205
199.799	555
199.867	-595
199.936	-843
200.004	882
200.073	449
200.141	-210
200.210	281
200.278	-209
200.346	360
200.415	-305
200.483	352
200.552	43
200.620	-288
200.688	-65
200.757	-17
200.825	-195
200.893	-788
200.962	-178
201.030	151
201.098	-520
201.167	-377
201.235	-106
201.303	148
201.372	-97
201.440	570
201.508	36
201.577	-80
201.645	150
201.713	-251
201.781	-255
201.850	478
201.918	-183
201.986	127
202.055	182
202.123	-413
202.191	-332
202.259	236
202.327	-328
202.396	-579
202.464	-486
202.532	-288
202.600	349
202.669	701
202.737	-504
202.805	-674
202.873	-641
202.941	778
203.009	-215
203.078	-309
203.146	-691
203.214	-249
203.282	-136
203.350	-202
203.418	-1085
203.487	-368
203.555	-107
203.623	-190
203.691	-360
203.759	342
203.827	-2
203.895	-157
203.963	99
204.031	-48
204.099	81
204.168	411
204.236	843
204.304	-537
204.372	-491
204.440	-322
204.508	-474
204.576	-146
204.644	232
204.712	-336
204.780	-466
204.848	-11
204.916	-609
204.984	-50
205.052	348
205.120	-437
205.188	-319
205.256	-353
205.324	-711
205.392	421
205.460	-496
205.528	-288
205.596	-635
205.664	-212
205.732	-168
205.799	556
205.867	713
205.935	-127
206.003	214
206.071	-209
206.139	-123
206.207	192
206.275	-311
206.343	149
206.411	-570
206.478	858
206.546	-24
206.614	-448
206.682	-560
206.750	145
206.818	-1085
206.885	654
206.953	-702
207.021	1095
207.089	77
207.157	196
207.225	-837
207.292	-367
207.360	-96
207.428	-391
207.496	-793
207.563	-384
207.631	-397
207.699	-318
207.767	-189
207.834	126
207.902	-519
207.970	-17
208.038	-206
208.105	-210
208.173	-473
208.241	61
208.309	-12
208.376	-108
208.444	-16
208.512	36
208.579	-1746
208.647	-304
208.715	59
208.782	-326
208.850	-321
208.918	254
208.985	-777
209.053	326
209.120	-311
209.188	-387
209.256	-934
209.323	-219
209.391	-418
209.459	1504
209.526	-941
209.594	-195
209.661	-459
209.729	-207
209.796	-173
209.864	441
209.932	-468
209.999	-88
210.067	-39
210.134	660
210.202	84
210.269	198
210.337	-220
210.404	331
210.472	-244
210.539	233
210.607	-380
210.674	-584
210.742	-461
210.809	144
210.877	-264
210.944	1242
211.012	-813
211.079	717
211.146	266
211.214	606
211.281	-603
211.349	310
211.416	86
211.484	293
211.551	-787
211.618	-84
211.686	259
211.753	53
211.821	245
211.888	43
211.955	-223
212.023	3
212.090	322
212.157	96
212.225	-745
212.292	1340
212.359	1087
212.427	2211
212.494	1080
212.561	745
212.629	-349
212.696	-41
212.763	-15
212.831	-34
212.898	239
212.965	-180
213.032	-66
213.100	1002
213.167	-731
213.234	-116
213.301	350
213.369	278
213.436	13
213.503	-480
213.570	680
213.638	709
213.705	-397
213.772	-372
213.839	346
213.906	430
213.973	617
214.041	-372
214.108	-335
214.175	211
214.242	-213
214.309	181
214.376	-83
214.444	-135
214.511	163
214.578	131
214.645	-98
214.712	574
214.779	-183
214.846	163
214.913	-224
214.980	-308
215.048	-67
215.115	1140
215.182	230
215.249	-26
215.316	8
215.383	417
215.450	-736
215.517	126
215.584	-546
215.651	-180
215.718	-788
215.785	84
215.852	-173
215.919	-306
215.986	-509
216.053	104
216.120	352
216.187	133
216.254	641
216.321	283
216.388	-789
216.455	407
216.522	229
216.589	262
216.656	445
216.722	297
216.789	-117
216.856	1033
216.923	-263
216.990	264
217.057	660
217.124	-132
217.191	243
217.258	810
217.324	1584
217.391	1282
217.458	356
217.525	267
217.592	-267
217.659	-250
217.725	378
217.792	-279
217.859	679
217.926	-56
217.993	-159
218.059	-89
218.126	33
218.193	150
218.260	-510
218.327	118
218.393	231
218.460	67
218.527	-338
218.594	133
218.660	98
218.727	950
218.794	-585
218.860	881
218.927	-763
218.994	-191
219.061	194
219.127	114
219.194	-508
219.261	206
219.327	-520
219.394	250
219.461	237
219.527	28
219.594	632
219.661	141
219.727	-292
219.794	711
219.860	-732
219.927	479
219.994	53
220.060	378
220.127	1106
220.193	980
220.260	125
220.326	549
220.393	868
220.460	2304
220.526	638
220.593	519
220.659	1168
220.726	-148
220.792	1171
220.859	1082
220.925	1796
220.992	3724
221.058	2289
221.125	2174
221.191	1049
221.258	-375
221.324	-128
221.391	59
221.457	-219
221.524	130
221.590	466
221.657	1889
221.723	150
221.789	587
221.856	1639
221.922	89
221.989	292
222.055	139
222.121	-793
222.188	774
222.254	357
222.321	64
222.387	-649
222.453	-41
222.520	-294
222.586	-800
222.652	-274
222.719	-792
222.785	181
222.851	406
222.918	641
222.984	420
223.050	204
223.116	-1238
223.183	523
223.249	191
223.315	-575
223.382	-85
223.448	-74
223.514	-494
223.580	-503
223.647	-304
223.713	-1143
223.779	-35
223.845	-904
223.911	640
223.978	-771
224.044	-101
224.110	-270
224.176	414
224.242	124
224.309	-354
224.375	114
224.441	305
224.507	-189
224.573	335
224.639	230
224.705	-657
224.772	-616
224.838	-168
224.904	-386
224.970	773
225.036	-515
225.102	-552
225.168	160
225.234	598
225.300	-483
225.366	151
225.432	97
225.499	183
225.565	287
225.631	-499
225.697	-716
225.763	378
225.829	-35
225.895	895
225.961	-162
226.027	1139
226.093	-422
226.159	630
226.225	1224
226.291	2660
226.357	4156
226.423	2853
226.489	860
226.554	354
226.620	896
226.686	353
226.752	762
226.818	2213
226.884	5700
226.950	4998
227.016	2041
227.082	1440
227.148	498
227.214	1759
227.279	435
227.345	697
227.411	545
227.477	262
227.543	1158
227.609	1130
227.674	468
227.740	-372
227.806	-233
227.872	-21
227.938	365
228.003	1318
228.069	-70
228.135	199
228.201	-435
228.267	437
228.332	-296
228.398	-134
228.464	-301
228.530	-764
228.595	-197
228.661	-480
228.727	336
228.792	1227
228.858	-1109
228.924	-1403
228.990	498
229.055	-1053
229.121	489
229.187	-160
229.252	-140
229.318	-437
229.384	-84
229.449	291
229.515	-1088
229.581	-570
229.646	420
229.712	431
229.777	-132
229.843	919
229.909	533
229.974	-60
230.040	76
230.105	-99
230.171	-57
230.236	1066
230.302	1298
230.368	-397
230.433	-1132
230.499	346
230.564	1039
230.630	-386
230.695	-228
230.761	584
230.826	-1259
230.892	1349
230.957	-430
231.023	-48
231.088	-508
231.154	1317
231.219	475
231.284	429
231.350	823
231.415	-1056
231.481	352
231.546	624
231.612	-32
231.677	-324
231.742	-458
231.808	594
231.873	-551
231.939	-512
232.004	197
232.069	-102
232.135	-899
232.200	37
232.265	210
232.331	75
232.396	-463
232.461	-175
232.527	-148
232.592	-1019
232.657	-348
232.723	95
232.788	-855
232.853	431
232.918	14
232.984	-245
233.049	-981
233.114	-666
233.179	139
233.245	398
233.310	588
233.375	-1014
233.440	190
233.506	-1095
233.571	-122
233.636	-284
233.701	-389
233.766	216
233.832	899
233.897	489
233.962	-986
234.027	192
234.092	-162
234.157	-21
234.222	-15
234.288	29
234.353	1522
234.418	1686
234.483	1053
234.548	436
234.613	123
234.678	535
234.743	-367
234.808	2109
234.873	493
234.938	1195
235.004	-81
235.069	688
235.134	-905
235.199	1128
235.264	-622
235.329	-1014
235.394	107
235.459	1085
235.524	-156
235.589	621
235.654	332
235.719	133
235.784	-230
235.849	661
235.913	321
235.978	1206
236.043	1046
236.108	152
236.173	-354
236.238	246
236.303	-29
236.368	22
236.433	895
236.498	471
236.563	761
236.627	2041
236.692	8417
236.757	5567
236.822	1514
236.887	1039
236.952	1049
237.017	-406
237.081	770
237.146	-97
237.211	3554
237.276	7281
237.341	11577
237.405	4938
237.470	1576
237.535	1321
237.600	219
237.664	1476
237.729	-440
237.794	196
237.859	2500
237.923	948
237.988	462
238.053	1042
238.118	439
238.182	2496
238.247	3362
238.312	462
238.376	213
238.441	-762
238.506	1286
238.570	-1296
238.635	1129
238.700	615
238.764	-591
238.829	1124
238.893	1094
238.958	1178
239.023	256
239.087	124
239.152	-300
239.216	-435
239.281	-327
239.346	308
239.410	93
239.475	426
239.539	3022
239.604	1086
239.668	739
239.733	15
239.797	166
239.862	2746
239.926	2593
239.991	1151
240.055	1044
240.120	589
240.184	148
240.249	17
240.313	-264
240.378	175
240.442	1369
240.507	2814
240.571	301
240.635	587
240.700	1474
240.764	500
240.829	461
240.893	-613
240.957	15
241.022	2295
241.086	2270
241.151	727
241.215	-723
241.279	1337
241.344	589
241.408	1211
241.472	-251
241.537	1036
241.601	206
241.665	1
241.730	-516
241.794	525
241.858	25
241.922	-312
241.987	215
242.051	136
242.115	-227
242.179	555
242.244	-759
242.308	1049
242.372	8
242.436	246
242.501	438
242.565	-100
242.629	-197
242.693	607
242.757	-793
242.822	-8
242.886	395
242.950	895
243.014	138
243.078	-98
243.142	629
243.206	109
243.271	-367
243.335	-212
243.399	445
243.463	3477
243.527	9244
243.591	2622
243.655	1228
243.719	220
243.783	1036
243.847	1463
243.911	1238
243.975	1914
244.040	-134
244.104	1585
244.168	820
244.232	521
244.296	1315
244.360	916
244.424	-579
244.488	379
244.552	135
244.615	-611
244.679	-712
244.743	153
244.807	-421
244.871	52
244.935	-147
244.999	-843
245.063	694
245.127	1296
245.191	1247
245.255	851
245.319	525
245.383	-1046
245.446	620
245.510	-409
245.574	495
245.638	173
245.702	-981
245.766	1950
245.829	1097
245.893	422
245.957	-230
246.021	1034
246.085	-238
246.149	712
246.212	2299
246.276	2918
246.340	1217
246.404	928
246.467	1383
246.531	695
246.595	1439
246.659	1435
246.722	126
246.786	995
246.850	696
246.913	832
246.977	-992
247.041	635
247.104	711
247.168	427
247.232	2285
247.295	4765
247.359	1657
247.423	523
247.486	767
247.550	1220
247.614	724
247.677	1188
247.741	122
247.804	739
247.868	500
247.932	1404
247.995	4332
248.059	874
248.122	-1042
248.186	1192
248.249	1968
248.313	7220
248.376	6516
248.440	4001
248.503	468
248.567	1603
248.630	1449
248.694	2960
248.757	3899
248.821	7348
248.884	4591
248.948	3413
249.011	6426
249.075	8663
249.138	7083
249.202	3037
249.265	705
249.328	2274
249.392	474
249.455	1600
249.519	923
249.582	2002
249.645	2751
249.709	1778
249.772	255
249.835	991
249.899	363
249.962	647
250.025	-135
250.089	2792
250.152	4119
250.215	2665
250.279	764
250.342	1590
250.405	935
250.468	-118
250.532	737
250.595	2475
250.658	9083
250.721	14983
250.785	5196
250.848	3737
250.911	310
250.974	1806
251.038	1168
251.101	4767
251.164	1734
251.227	2616
251.290	1212
251.354	2912
251.417	13361
251.480	11965
251.543	7847
251.606	25340
251.669	16565
251.732	6873
251.795	5885
251.859	6666
251.922	14590
251.985	8792
252.048	2740
252.111	2696
252.174	1188
252.237	4280
252.300	9302
252.363	9500
252.426	19878
252.489	6805
252.552	3301
252.615	1962
252.678	3028
252.741	5850
252.804	8242
252.867	20441
252.930	11050
252.993	5851
253.056	3491
253.119	2142
253.182	1714
253.245	2797
253.308	3230
253.371	1487
253.434	1479
253.497	2950
253.559	5327
253.622	2768
253.685	3355
253.748	3996
253.811	1499
253.874	2773
253.937	952
254.000	2218
254.062	2480
254.125	3851
254.188	5085
254.251	2989
254.314	301
254.376	3095
254.439	4325
254.502	3078
254.565	2440
254.628	5720
254.690	2931
254.753	1035
254.816	679
254.878	924
254.941	2269
255.004	2869
255.067	1132
255.129	1147
255.192	678
255.255	-154
255.317	585
255.380	-77
255.443	-72
255.505	257
255.568	-456
255.631	117
255.693	25
255.756	-484
255.819	657
255.881	-69
255.944	784
256.006	-229
256.069	-138
256.132	-181
256.194	582
256.257	1747
256.319	1061
256.382	28
256.444	665
256.507	894
256.569	318
256.632	-14
256.694	563
256.757	4843
256.819	13067
256.882	3658
256.944	1510
257.007	1553
257.069	523
257.132	236
257.194	427
257.257	794
257.319	-441
257.381	-74
257.444	3108
257.506	15091
257.569	14648
257.631	6723
257.693	3441
257.756	1458
257.818	223
257.880	625
257.943	727
258.005	113
258.067	-254
258.130	371
258.192	-80
258.254	1409
258.317	814
258.379	1082
258.441	2312
258.503	2338
258.566	3289
258.628	5119
258.690	0
258.753	1597
258.815	2309
258.877	428
258.939	-397
259.001	971
259.064	847
259.126	188
259.188	127
259.250	1016
259.312	378
259.375	3226
259.437	1044
259.499	1740
259.561	96
259.623	23
259.685	196
259.747	178
259.809	2582
259.872	5626
259.934	9468
259.996	9343
260.058	2265
260.120	572
260.182	107
260.244	-94
260.306	-589
260.368	700
260.430	-146
260.492	1769
260.554	3891
260.616	1739
260.678	5079
260.740	5513
260.802	231
260.864	1920
260.926	-679
260.988	835
261.050	23
261.112	2776
261.174	8902
261.236	4466
261.298	1095
261.359	2419
261.421	2988
261.483	32
261.545	1045
261.607	-363
261.669	568
261.731	1693
261.793	3695
261.854	446
261.916	1284
261.978	509
262.040	383
262.102	716
262.164	165
262.225	903
262.287	193
262.349	1814
262.411	1030
262.472	911
262.534	1490
262.596	2517
262.658	348
262.719	83
262.781	371
262.843	2041
262.904	851
262.966	763
263.028	-167
263.090	7408
263.151	17299
263.213	4364
263.275	2470
263.336	1106
263.398	556
263.459	-1278
263.521	-503
263.583	2474
263.644	1024
263.706	203
263.767	-764
263.829	108
263.891	-1153
263.952	-23
264.014	-1280
264.075	1505
264.137	3267
264.198	1307
264.260	-707
264.321	194
264.383	1845
264.444	6771
264.506	195
264.567	803
264.629	2477
264.690	4023
264.752	1083
264.813	480
264.875	592
264.936	946
264.998	-379
265.059	330
265.120	-387
265.182	-214
265.243	6865
265.305	6085
265.366	719
265.427	644
265.489	-519
265.550	-767
265.611	29
265.673	-265
265.734	-537
265.795	386
265.857	-926
265.918	-902
265.979	1465
266.040	11672
266.102	7259
266.163	1901
266.224	1640
266.286	-71
266.347	-616
266.408	-134
266.469	376
266.530	-259
266.592	-982
266.653	1002
266.714	1664
266.775	-65
266.836	-391
266.898	-1050
266.959	724
267.020	244
267.081	895
267.142	217
267.203	-706
267.264	-839
267.326	640
267.387	-664
267.448	-564
267.509	584
267.570	-97
267.631	-842
267.692	-812
267.753	46
267.814	-794
267.875	1691
267.936	3393
267.997	1584
268.058	438
268.119	23
268.180	130
268.241	92
268.302	-476
268.363	-643
268.424	-814
268.485	719
268.546	-457
268.607	200
268.668	-978
268.729	-20
268.790	-644
268.851	138
268.912	1624
268.972	2320
269.033	-631
269.094	-565
269.155	-341
269.216	-87
269.277	-352
269.338	-16
269.398	-526
269.459	-588
269.520	539
269.581	680
269.642	1154
269.702	75
269.763	-127
269.824	-261
269.885	-11
269.945	1486
270.006	-46
270.067	-821
270.128	-875
270.188	-222
270.249	-1001
270.310	-18
270.370	-774
270.431	-209
270.492	-1024
270.553	204
270.613	588
270.674	2727
270.734	270
270.795	568
270.856	352
270.916	160
270.977	-235
271.038	786
271.098	-278
271.159	491
271.219	5
271.280	343
271.340	-218
271.401	-660
271.462	236
271.522	938
271.583	5
271.643	461
271.704	91
271.764	266
271.825	1753
271.885	8642
271.946	9134
272.006	3113
272.066	3769
272.127	7238
272.187	1786
272.248	228
272.308	326
272.369	4728
272.429	3307
272.489	2342
272.550	1222
272.610	3153
272.671	386
272.731	1439
272.791	1490
272.852	302
272.912	476
272.972	-437
273.033	168
273.093	337
273.153	353
273.214	223
273.274	139
273.334	3768
273.394	7746
273.455	2430
273.515	2404
273.575	7369
273.635	2165
273.696	4236
273.756	6952
273.816	2650
273.876	1435
273.936	3382
273.997	6519
274.057	671
274.117	708
274.177	2082
274.237	9938
274.297	8017
274.358	5543
274.418	5689
274.478	4419
274.538	819
274.598	-147
274.658	5039
274.718	5792
274.778	1263
274.838	569
274.898	1909
274.958	8106
275.018	7254
275.078	3586
275.138	1279
275.198	-530
275.258	120
275.318	752
275.378	2018
275.438	1593
275.498	999
275.558	3600
275.618	7995
275.678	3958
275.738	3865
275.798	1813
275.858	790
275.918	77
275.978	122
276.038	-222
276.098	88
276.157	1369
276.217	5791
276.277	2372
276.337	1689
276.397	188
276.457	1583
276.517	-585
276.576	58
276.636	-642
276.696	286
276.756	3300
276.815	1547
276.875	187
276.935	1080
276.995	382
277.055	-107
277.114	-531
277.174	528
277.234	3595
277.293	967
277.353	141
277.413	539
277.472	466
277.532	215
277.592	51
277.651	5280
277.711	9356
277.771	1893
277.830	11987
277.890	8176
277.950	5068
278.009	18269
278.069	5477
278.128	7569
278.188	9384
278.248	3078
278.307	10864
278.367	6350
278.426	1012
278.486	416
278.545	-175
278.605	-186
278.664	-144
278.724	96
278.783	2224
278.843	7858
278.902	829
278.962	306
279.021	1532
279.081	1746
279.140	1332
279.199	832
279.259	1102
279.318	1126
279.378	1002
279.437	3391
279.496	15370
279.556	50971
279.615	36970
279.675	9952
279.734	4355
279.793	7366
279.853	10082
279.912	3276
279.971	1645
280.031	1793
280.090	2733
280.149	6706
280.208	4500
280.268	37534
280.327	33561
280.386	7895
280.445	4689
280.505	4302
280.564	2215
280.623	1372
280.682	2513
280.742	3957
280.801	429
280.860	557
280.919	172
280.978	-14
281.037	-305
281.097	200
281.156	-313
281.215	57
281.274	642
281.333	5401
281.392	3462
281.451	393
281.510	-362
281.569	-107
281.628	-210
281.688	689
281.747	-550
281.806	845
281.865	309
281.924	-353
281.983	-30
282.042	-1214
282.101	108
282.160	338
282.219	-420
282.278	-445
282.337	2777
282.396	780
282.454	94
282.513	708
282.572	4197
282.631	1534
282.690	274
282.749	533
282.808	166
282.867	749
282.926	298
282.985	-385
283.043	-382
283.102	-471
283.161	467
283.220	2435
283.279	4444
283.338	951
283.396	-20
283.455	660
283.514	-661
283.573	1357
283.631	-170
283.690	974
283.749	-618
283.808	2135
283.866	2090
283.925	-382
283.984	-87
284.043	426
284.101	989
284.160	345
284.219	1416
284.277	617
284.336	588
284.395	8141
284.453	5421
284.512	2419
284.570	2724
284.629	2274
284.688	2226
284.746	3028
284.805	2745
284.863	4969
284.922	6521
284.981	8053
285.039	9728
285.098	18777
285.156	39373
285.215	45290
285.273	46939
285.332	39180
285.390	23446
285.449	14312
285.507	8645
285.566	6706
285.624	4360
285.683	4009
285.741	1811
285.799	2299
285.858	1542
285.916	2051
285.975	884
286.033	1004
286.091	570
286.150	-199
286.208	576
286.267	710
286.325	142
286.383	1794
286.442	1079
286.500	246
286.558	-167
286.616	313
286.675	233
286.733	513
286.791	160
286.850	188
286.908	493
286.966	2264
287.024	70
287.083	773
287.141	-324
287.199	928
287.257	358
287.315	610
287.374	-550
287.432	2863
287.490	961
287.548	1034
287.606	-90
287.664	134
287.723	764
287.781	1004
287.839	-66
287.897	446
287.955	678
288.013	990
288.071	2108
288.129	21389
288.187	61509
288.245	23476
288.303	6333
288.361	3322
288.419	2363
288.477	1070
288.535	312
288.593	-276
288.651	13
288.709	-541
288.767	194
288.825	504
288.883	30
288.941	447
288.999	-755
289.057	486
289.115	37
289.173	300
289.231	83
289.289	-126
289.346	-703
289.404	-323
289.462	1534
289.520	748
289.578	37
289.636	-527
289.694	-1152
289.751	-813
289.809	-521
289.867	379
289.925	-90
289.983	83
290.040	33
290.098	-745
290.156	-540
290.214	577
290.271	-926
290.329	-452
290.387	-901
290.444	-567
290.502	-1244
290.560	-185
290.617	-698
290.675	-58
290.733	-307
290.790	-31
290.848	-567
290.906	3
290.963	-899
291.021	-100
291.078	-547
291.136	575
291.194	2548
291.251	6446
291.309	1069
291.366	-257
291.424	-286
291.481	292
291.539	-72
291.596	174
291.654	-1249
291.711	-359
291.769	-139
291.826	1386
291.884	-24
291.941	-852
291.999	-235
292.056	-299
292.114	-620
292.171	-410
292.228	-767
292.286	-143
292.343	867
292.401	816
292.458	585
292.515	-949
292.573	205
292.630	559
292.687	81
292.745	-153
292.802	10
292.859	4268
292.917	5642
292.974	3847
293.031	-214
293.089	-407
293.146	-264
293.203	-343
293.260	-606
293.318	301
293.375	1341
293.432	81
293.489	-459
293.546	-813
293.604	-144
293.661	3027
293.718	8729
293.775	5000
293.832	1624
293.889	1632
293.947	515
294.004	-128
294.061	-108
294.118	2205
294.175	6574
294.232	9945
294.289	3593
294.346	1201
294.403	146
294.460	189
294.517	-560
294.574	-723
294.631	-1033
294.688	-175
294.745	1887
294.802	12688
294.859	14342
294.916	5014
294.973	1889
295.030	1028
295.087	664
295.144	537
295.201	416
295.258	-192
295.315	-367
295.372	3862
295.429	6823
295.486	2287
295.542	643
295.599	6885
295.656	11530
295.713	6012
295.770	7292
295.827	2513
295.883	773
295.940	491
295.997	1935
296.054	1983
296.111	234
296.167	7
296.224	-244
296.281	-368
296.338	-755
296.394	-160
296.451	271
296.508	3140
296.564	6099
296.621	3806
296.678	8854
296.734	11648
296.791	3430
296.848	1854
296.904	1384
296.961	5839
297.018	8796
297.074	6111
297.131	1458
297.187	1013
297.244	1421
297.301	8800
297.357	13596
297.414	4640
297.470	1114
297.527	-14
297.583	517
297.640	666
297.696	-62
297.753	411
297.809	-646
297.866	-157
297.922	-373
297.979	-299
298.035	-911
298.092	1028
298.148	4863
298.204	4259
298.261	1329
298.317	3485
298.374	10446
298.430	5227
298.486	1845
298.543	1268
298.599	806
298.656	719
298.712	3871
298.768	8086
298.824	4802
298.881	554
298.937	441
298.993	392
299.050	291
299.106	811
299.162	595
299.218	533
299.275	247
299.331	-139
299.387	1629
299.443	10270
299.500	10320
299.556	3628
299.612	1258
299.668	1490
299.724	1591
299.780	2710
299.837	-14
299.893	1388
299.949	9210
300.005	9776
300.061	9850
300.117	13673
300.173	5598
300.229	2926
300.285	2874
300.341	3740
300.397	994
300.453	668
300.510	15
300.566	-76
300.622	713
300.678	5983
300.734	10552
300.790	9375
300.845	9301
300.901	6326
300.957	9974
301.013	6574
301.069	1851
301.125	1441
301.181	971
301.237	380
301.293	-405
301.349	249
301.405	-769
301.461	794
301.516	120
301.572	174
301.628	1427
301.684	1312
301.740	2864
301.796	5320
301.851	3448
301.907	6454
301.963	4553
302.019	10544
302.074	27463
302.130	25750
302.186	11274
302.242	4945
302.297	2250
302.353	2265
302.409	4764
302.464	3833
302.520	3029
302.576	9676
302.631	10854
302.687	6245
302.743	2166
302.798	761
302.854	268
302.910	1416
302.965	1117
303.021	3275
303.076	2285
303.132	4504
303.187	4386
303.243	2086
303.299	548
303.354	941
303.410	-159
303.465	318
303.521	-89
303.576	425
303.632	192
303.687	2293
303.743	8303
303.798	6770
303.853	2614
303.909	540
303.964	69
304.020	1435
304.075	2838
304.130	3450
304.186	6207
304.241	7023
304.297	4614
304.352	2419
304.358	2216
304.407	561
304.449	1026
304.463	1188
304.518	415
304.539	237
304.573	-69
304.629	1109
304.630	1124
304.684	1877
304.720	4790
304.739	6258
304.794	8644
304.811	7300
304.850	4009
304.902	1799
304.905	1663
304.960	638
304.992	776
305.015	887
305.071	1370
305.083	1271
305.126	884
305.173	-245
305.181	-425
305.236	101
305.264	21
305.292	-85
305.347	374
305.354	452
305.402	992
305.445	865
305.457	809
305.512	1481
305.535	1183
305.567	826
305.622	1125
305.626	1218
305.678	3214
305.716	8376
305.733	10337
305.788	10596
305.807	9113
305.843	6413
305.897	8813
305.898	8843
305.953	7563
305.988	5486
306.008	4279
306.063	2491
306.078	2051
306.118	1027
306.168	364
306.173	327
306.228	481
306.259	521
306.283	494
306.338	406
306.349	351
306.393	187
306.440	840
306.448	940
306.503	900
306.530	753
306.558	1089
306.613	4980
306.620	5474
306.668	8537
306.711	10570
306.723	10709
306.778	8358
306.801	6232
306.833	3750
306.888	1746
306.892	1666
306.943	799
306.982	485
306.997	540
307.052	242
307.072	403
307.107	738
307.162	1372
307.163	1385
307.217	3044
307.253	4244
307.272	4577
307.327	4418
307.343	4003
307.381	3198
307.434	2479
307.436	2542
307.491	6227
307.524	9632
307.546	10724
307.600	9844
307.614	8752
307.655	4960
307.704	1904
307.710	1823
307.765	2763
307.795	3982
307.819	5036
307.874	8650
307.885	8493
307.929	5964
307.975	3934
307.984	3916
308.038	4653
308.065	5670
308.093	9830
308.148	23449
308.156	26789
308.202	46422
308.246	55411
308.257	53439
308.312	28360
308.336	19517
308.366	15002
308.421	10091
308.426	9573
308.475	5623
308.517	3938
308.530	3623
308.585	2489
308.607	2197
308.639	2226
308.694	3079
308.697	3177
308.748	7173
308.787	10915
308.803	11087
308.857	8688
308.877	7369
308.912	5722
308.967	4578
308.967	4567
309.021	6908
309.058	9092
309.076	11205
309.130	19092
309.148	22151
309.185	37603
309.238	67575
309.239	67882
309.293	77951
309.328	73234
309.348	62403
309.402	29716
309.418	21347
309.457	14814
309.508	9568
309.511	9460
309.566	9484
309.598	10361
309.620	13190
309.674	22514
309.688	24755
309.729	23074
309.778	16993
309.783	16432
309.837	10138
309.868	7167
309.892	7877
309.946	11281
309.959	12470
310.001	16441
310.049	19621
310.055	19046
310.109	11430
310.139	7396
310.163	5468
310.218	2214
310.229	1695
310.272	2327
310.319	2795
310.326	2664
310.381	2064
310.409	1712
310.435	1686
310.489	1665
310.499	1685
310.543	1579
310.589	1454
310.598	1495
310.652	1623
310.679	1786
310.706	1659
310.760	1033
310.769	959
310.814	1149
310.859	1389
310.868	1351
310.923	1003
310.948	916
310.977	1265
311.031	1918
311.038	1995
311.085	1582
311.128	1100
311.139	1242
311.193	2104
311.218	2475
311.247	2191
311.301	1498
311.308	1415
311.356	1680
311.398	1912
311.410	1794
311.464	1208
311.488	932
311.518	1289
311.572	1965
311.578	2038
311.626	2189
311.668	2294
311.680	2356
311.734	2564
311.758	2664
311.788	2409
311.842	1931
311.847	1880
311.896	3042
311.937	4054
311.950	3957
312.004	3501
312.027	3295
312.058	2923
312.112	2235
312.117	2164
312.165	2011
312.207	1872
312.297	3065
312.386	2028
312.476	2182
312.566	3299
312.656	2141
312.745	1008
312.835	2289
312.925	1651
313.015	2444
313.104	1688
313.194	2240
313.284	1701
313.374	2204
313.463	1610
313.553	1619
313.643	1667
313.732	1521
313.822	1471
313.912	2088
314.001	2122
314.091	1781
314.180	2943
314.270	3438
314.360	3054
314.449	1817
314.539	1285
314.628	1802
314.718	1559
314.808	2453
314.897	2035
314.987	1739
315.076	1456
315.166	2906
315.255	2864
315.345	2415
315.434	1857
315.524	2639
315.613	2160
315.703	2894
315.792	3687
315.881	9892
315.971	3108
316.060	3885
316.150	6328
316.239	6113
316.328	2778
316.418	1475
316.507	1690
316.597	2549
316.686	2157
316.775	3451
316.865	6624
316.954	1965
317.043	1884
317.133	2090
317.222	1720
317.311	1856
317.400	124
317.490	2904
317.579	1792
317.668	1104
317.757	2997
317.847	6385
317.936	16159
318.025	7561
318.114	3809
318.203	3742
318.293	3996
318.382	9124
318.471	6664
318.560	9968
318.649	21087
318.738	4132
318.828	1296
318.917	2287
319.006	2834
319.095	9259
319.184	24104
319.273	13341
319.362	6103
319.451	1977
319.540	1045
319.629	4941
319.718	6900
319.807	3906
319.896	7688
319.985	30107
320.074	10007
320.163	2792
320.252	4698
320.341	4314
320.430	2653
320.519	4243
320.608	2576
320.697	2787
320.786	2121
320.875	2961
320.964	3179
321.053	5382
321.142	6382
321.230	7842
321.319	5285
321.408	14560
321.497	6585
321.586	5619
321.675	6788
321.764	6826
321.852	4578
321.941	8060
322.030	4550
322.119	5631
322.207	14474
322.296	11570
322.385	5278
322.474	6224
322.562	16757
322.651	9255
322.740	6199
322.829	8734
322.917	9943
323.006	5776
323.095	4498
323.183	3722
323.272	3794
323.361	9703
323.449	29564
323.538	9517
323.626	19477
323.715	12168
323.804	4008
323.892	18697
323.981	9567
324.069	3202
324.158	9623
324.246	10215
324.335	3414
324.424	5837
324.512	1792
324.601	2296
324.689	5552
324.778	13236
324.866	7069
324.954	1694
325.043	1419
325.131	4364
325.220	7797
325.308	9594
325.397	5627
325.485	3944
325.574	1245
325.662	1659
325.750	1294
325.839	2139
325.927	1044
326.015	1315
326.104	2881
326.192	4355
326.280	1539
326.369	1453
326.457	2096
326.545	4125
326.634	1244
326.722	1607
326.810	988
326.898	1231
326.987	2086
327.075	3112
327.163	3894
327.251	2256
327.340	5028
327.428	7954
327.516	1230
327.604	1907
327.692	685
327.781	1523
327.869	2288
327.957	2374
328.045	789
328.133	1430
328.221	1173
328.309	1307
328.397	790
328.485	1849
328.574	2002
328.662	8910
328.750	4564
328.838	1496
328.926	1004
329.014	643
329.102	1070
329.190	6711
329.278	3307
329.366	1407
329.454	985
329.542	808
329.630	102
329.718	1910
329.806	1524
329.893	2236
329.981	1205
330.069	1887
330.157	7128
330.245	24961
330.333	12959
330.421	2767
330.509	1922
330.597	9443
330.684	6544
330.772	2603
330.860	3177
330.948	5734
331.036	1693
331.123	324
331.211	659
331.299	1012
331.387	3651
331.475	9218
331.562	2922
331.650	838
331.738	869
331.825	2737
331.913	1022
332.001	1044
332.089	1287
332.176	3715
332.264	9337
332.352	7742
332.439	1998
332.527	1041
332.614	1198
332.702	2328
332.790	1119
332.877	3811
332.965	9181
333.052	2618
333.140	2490
333.228	8458
333.315	1794
333.403	1456
333.490	5359
333.578	5152
333.665	9790
333.753	4318
333.840	957
333.928	1676
334.015	5027
334.103	8748
334.190	30360
334.278	8744
334.365	3414
334.452	3325
334.540	1567
334.627	1899
334.715	2425
334.802	4830
334.889	32150
334.977	38458
335.064	5704
335.151	2248
335.239	1643
335.326	3177
335.413	13726
335.501	22329
335.588	2241
335.675	1648
335.762	1918
335.850	5569
335.937	2650
336.024	7924
336.111	41159
336.199	21242
336.286	4003
336.373	2210
336.460	1186
336.547	1438
336.635	1779
336.722	924
336.809	1490
336.896	2072
336.983	7337
337.070	22131
337.157	32290
337.245	22480
337.332	16639
337.419	1725
337.506	1305
337.593	1335
337.680	5934
337.767	24979
337.854	5395
337.941	7159
338.028	7741
338.115	2613
338.202	2968
338.289	5318
338.376	21927
338.463	7056
338.550	11984
338.637	15075
338.724	3431
338.811	7334
338.898	1404
338.984	1600
339.071	1223
339.158	1602
339.245	4549
339.332	3512
339.419	4760
339.506	5133
339.593	44
339.679	1671
339.766	561
339.853	1058
339.940	3023
340.027	1475
340.113	766
340.200	1526
340.287	1177
340.374	1853
340.460	2675
340.547	1037
340.634	1752
340.720	9549
340.807	6092
340.894	982
340.980	1264
341.067	881
341.154	1598
341.240	1730
341.327	4201
341.414	1957
341.500	1495
341.587	1108
341.674	303
341.760	3169
341.847	3735
341.933	1607
342.020	-41
342.106	1360
342.193	1095
342.279	2230
342.366	1220
342.452	3519
342.539	686
342.625	4049
342.712	10116
342.798	3765
342.885	1630
342.971	128
343.058	-43
343.144	751
343.230	717
343.317	974
343.403	302
343.490	708
343.576	-131
343.662	881
343.749	342
343.835	1761
343.921	2227
344.008	14284
344.094	37503
344.180	8126
344.267	2373
344.353	10483
344.439	13135
344.525	5056
344.612	1654
344.698	1648
344.784	1008
344.870	639
344.957	-475
345.043	1880
345.129	710
345.215	3546
345.301	1680
345.387	718
345.474	-906
345.560	144
345.646	667
345.732	201
345.818	171
345.904	1557
345.990	657
346.076	706
346.162	2254
346.249	2103
346.335	248
346.421	768
346.507	2644
346.593	15252
346.679	3069
346.765	1296
346.851	226
346.937	637
347.023	710
347.108	1050
347.194	407
347.280	915
347.366	969
347.452	4073
347.538	16930
347.624	14706
347.710	11862
347.796	1909
347.882	371
347.967	1180
348.053	1448
348.139	1773
348.225	233
348.311	399
348.397	154
348.482	1047
348.568	960
348.654	331
348.740	1173
348.825	733
348.911	2431
348.997	6965
349.083	17227
349.168	2956
349.254	442
349.340	1387
349.425	-642
349.511	960
349.597	1772
349.682	2924
349.768	10950
349.854	5175
349.939	548
350.025	899
350.110	352
350.196	414
350.282	-336
350.367	879
350.453	766
350.538	2152
350.624	751
350.709	2066
350.795	-207
350.880	315
350.966	1387
351.051	2220
351.137	662
351.222	789
351.308	2405
351.393	11151
351.479	2234
351.564	1191
351.649	831
351.735	540
351.820	-391
351.906	134
351.991	1124
352.076	5029
352.162	9852
352.247	2018
352.332	1193
352.418	2321
352.503	2687
352.588	15791
352.673	11838
352.759	2447
352.844	344
352.929	948
353.014	2054
353.100	1383
353.185	1814
353.270	2950
353.355	3426
353.441	655
353.526	305
353.611	2345
353.696	3063
353.781	2446
353.866	-387
353.952	1049
354.037	1731
354.122	7521
354.207	5849
354.292	2162
354.377	250
354.462	579
354.547	742
354.632	673
354.717	1596
354.802	2401
354.887	226
354.972	754
355.057	27
355.142	151
355.227	158
355.312	2112
355.397	3624
355.482	11150
355.567	5387
355.652	4162
355.737	3425
355.822	12225
355.907	11748
355.991	2275
356.076	535
356.161	1190
356.246	-448
356.331	435
356.416	1277
356.501	18098
356.585	23078
356.670	3176
356.755	1894
356.840	2163
356.924	11939
357.009	50566
357.094	21465
357.179	3834
357.263	2020
357.348	2473
357.433	2060
357.517	2873
357.602	1822
357.687	865
357.771	1825
357.856	7353
357.941	5249
358.025	8097
358.110	45498
358.195	24365
358.279	3276
358.364	2627
358.448	8098
358.533	25440
358.617	19417
358.702	18282
358.787	7552
358.871	3253
358.956	2013
359.040	810
359.125	-69
359.209	1271
359.294	2925
359.378	6056
359.462	2420
359.547	1984
359.631	697
359.716	496
359.800	557
359.885	2003
359.969	64
360.053	1409
360.138	758
360.222	1340
360.306	2794
360.391	2123
360.475	3605
360.559	10015
360.644	8475
360.728	6695
360.812	9592
360.896	33141
360.981	13561
361.065	7925
361.149	1738
361.233	1024
361.318	1006
361.402	1508
361.486	1194
361.570	1383
361.654	926
361.739	3817
361.823	17235
361.907	33127
361.991	6032
362.075	2441
362.159	5812
362.243	5462
362.327	4024
362.411	10072
362.495	4279
362.580	1489
362.664	768
362.748	995
362.832	1015
362.916	2474
363.000	12350
363.084	35036
363.168	42108
363.252	9647
363.336	3253
363.420	4412
363.503	18483
363.587	27724
363.671	3239
363.755	1860
363.839	3978
363.923	1225
364.007	3566
364.091	3615
364.175	4966
364.258	34789
364.342	25736
364.426	35500
364.510	20801
364.594	7411
364.677	6017
364.761	24423
364.845	22024
364.929	6274
365.013	4521
365.096	3378
365.180	4352
365.264	6193
365.347	34803
365.431	17392
365.515	3298
365.598	862
365.682	1397
365.766	2909
365.849	4327
365.933	1524
366.017	2088
366.100	2216
366.184	-158
366.267	1071
366.351	-249
366.435	758
366.518	100
366.602	865
366.685	888
366.769	506
366.852	1441
366.936	4483
367.019	2235
367.103	1257
367.186	5276
367.270	2183
367.353	-400
367.436	1198
367.520	606
367.603	1044
367.687	852
367.770	3412
367.853	2200
367.937	7058
368.020	13861
368.104	3338
368.187	2080
368.270	4883
368.353	3664
368.437	5385
368.520	13731
368.603	9157
368.687	8465
368.770	19928
368.853	4484
368.936	3911
369.020	5036
369.103	1815
369.186	380
369.269	361
369.352	2054
369.436	4781
369.519	2719
369.602	213
369.685	987
369.768	1177
369.851	588
369.934	759
370.018	819
370.101	2655
370.184	4049
370.267	1988
370.350	2363
370.433	5394
370.516	12565
370.599	18544
370.682	3786
370.765	9717
370.848	12527
370.931	22340
371.014	10482
371.097	1244
371.180	1104
371.263	952
371.346	-69
371.429	1662
371.511	25
371.594	2403
371.677	4396
371.760	5995
371.843	3047
371.926	13796
372.009	36743
372.091	16164
372.174	7655
372.257	20588
372.340	8838
372.423	6772
372.505	9287
372.588	3407
372.671	6434
372.754	21319
372.836	12974
372.919	9038
373.002	20723
373.085	6597
373.167	3690
373.250	8399
373.332	19574
373.415	23879
373.498	51469
373.580	23269
373.663	21473
373.746	35269
373.828	7873
373.911	3824
373.993	2960
374.076	18532
374.159	20595
374.241	5984
374.324	16942
374.406	14168
374.489	12419
374.571	42021
374.654	20856
374.736	7561
374.819	23931
374.901	37618
374.983	41255
375.066	8395
375.148	2718
375.231	13318
375.313	32519
375.395	12730
375.478	1819
375.560	1835
375.643	2069
375.725	6902
375.807	31936
375.890	32218
375.972	13042
376.054	7029
376.136	11091
376.219	5752
376.301	8056
376.383	29232
376.465	13549
376.548	6503
376.630	7429
376.712	24159
376.794	13969
376.877	2039
376.959	-225
377.041	1232
377.123	3065
377.205	5405
377.287	-86
377.369	471
377.452	184
377.534	304
377.616	-120
377.698	338
377.780	-247
377.862	560
377.944	602
378.026	163
378.108	0
378.190	1446
378.272	566
378.354	720
378.436	-22
378.518	1161
378.600	7165
378.682	6717
378.764	12219
378.846	11718
378.928	2727
379.010	4143
379.091	2577
379.173	895
379.255	-474
379.337	999
379.419	4324
379.501	18917
379.583	9316
379.664	1667
379.746	2963
379.828	12581
379.910	17747
379.991	16927
380.073	2866
380.155	2121
380.237	627
380.318	92
380.400	652
380.482	2736
380.564	3737
380.645	3390
380.727	4195
380.809	2867
380.890	1294
380.972	925
381.053	106
381.135	1683
381.217	3562
381.298	14066
381.380	7426
381.461	5238
381.543	22401
381.624	33996
381.706	6741
381.787	2713
381.869	3182
381.951	8453
382.032	36263
382.113	31135
382.195	5426
382.276	4706
382.358	6918
382.439	21379
382.521	24608
382.602	39951
382.684	20115
382.765	31509
382.846	43212
382.928	74902
383.009	47654
383.090	23403
383.172	84560
383.253	153167
383.334	54116
383.416	37231
383.497	22648
383.578	10407
383.659	18299
383.741	66673
383.822	193925
383.903	121678
383.984	31770
384.066	46522
384.147	32610
384.228	6714
384.309	3953
384.390	3626
384.471	2215
384.553	3344
384.634	3740
384.715	3952
384.796	1868
384.877	2832
384.958	11121
385.039	16192
385.120	5698
385.201	2388
385.282	2686
385.363	3770
385.444	2965
385.525	4648
385.606	15701
385.687	16594
385.768	3550
385.849	4088
385.930	16115
386.011	31873
386.092	9778
386.173	2443
386.254	716
386.335	2710
386.416	1089
386.496	8504
386.577	13769
386.658	4855
386.739	1978
386.820	2985
386.901	1179
386.981	2244
387.062	373
387.143	2511
387.224	11576
387.304	14307
387.385	4506
387.466	2132
387.547	4667
387.627	2476
387.708	3704
387.789	20254
387.869	28291
387.950	8229
388.031	520
388.111	-443
388.192	3917
388.273	7999
388.353	3672
388.434	1879
388.514	3179
388.595	16691
388.676	25877
388.756	14791
388.837	12375
388.917	9041
388.998	73
389.078	2179
389.159	804
389.239	39
389.320	2733
389.400	271
389.480	4243
389.561	13342
389.641	8346
389.722	1886
389.802	3319
389.883	5297
389.963	14971
390.043	11444
390.124	2434
390.204	4537
390.284	14429
390.365	10722
390.445	9983
390.525	25105
390.605	21617
390.686	7751
390.766	3677
390.846	1507
390.927	220
391.007	-97
391.087	1501
391.167	1968
391.247	107
391.328	2234
391.408	3948
391.488	3660
391.568	-612
391.648	928
391.728	2542
391.808	3000
391.888	1990
391.969	6523
392.049	11704
392.129	6197
392.209	5001
392.289	14339
392.369	8884
392.449	8371
392.529	4353
392.609	4255
392.689	3456
392.769	13551
392.849	14483
392.929	10181
393.009	22401
393.089	18494
393.169	14841
393.248	44876
393.328	179033
393.408	230767
393.488	68405
393.568	16567
393.648	7413
393.728	4208
393.807	1879
393.887	3024
393.967	1609
394.047	2710
394.127	2228
394.206	6305
394.286	17945
394.366	85690
394.446	112464
394.525	27899
394.605	5469
394.685	4692
394.764	10935
394.844	20866
394.924	16277
395.003	4684
395.083	2792
395.163	1669
395.242	1000
395.322	1653
395.402	19
395.481	3124
395.561	6061
395.640	23968
395.720	21020
395.799	24400
395.879	22311
395.958	8969
396.038	28128
396.117	113871
396.197	146640
396.276	46777
396.356	14426
396.435	9777
396.515	6969
396.594	6152
396.673	13506
396.753	47516
396.832	170187
396.912	154255
396.991	36355
397.070	8956
397.150	3145
397.229	3209
397.308	4137
397.388	9810
397.467	5249
397.546	1456
397.625	-1386
397.705	2774
397.784	1531
397.863	537
397.942	214
398.022	576
398.101	4958
398.180	22404
398.259	12199
398.338	3231
398.417	472
398.497	832
398.576	1096
398.655	-494
398.734	322
398.813	670
398.892	4931
398.971	22783
399.050	13818
399.129	1014
399.208	485
399.287	726
399.366	-173
399.445	-214
399.524	90
399.603	-618
399.682	295
399.761	4560
399.840	23220
399.919	23931
399.998	2698
400.077	84
400.156	-1407
400.235	2486
400.313	-46
400.392	309
400.471	5641
400.550	11281
400.629	3058
400.708	876
400.786	819
400.865	3444
400.944	5057
401.023	3511
401.102	-532
401.180	350
401.259	-191
401.338	646
401.416	394
401.495	-197
401.574	885
401.652	137
401.731	379
401.810	157
401.888	-459
401.967	-981
402.046	-591
402.124	1159
402.203	-20
402.281	324
402.360	690
402.438	6060
402.517	4223
402.596	1569
402.674	284
402.753	455
402.831	-343
402.910	1224
402.988	2579
403.066	17167
403.145	11721
403.223	5461
403.302	13334
403.380	11786
403.459	9781
403.537	4623
403.615	211
403.694	-1163
403.772	245
403.850	-41
403.929	-594
404.007	-270
404.085	1540
404.164	1185
404.242	-430
404.320	1220
404.398	1445
404.477	5249
404.555	28165
404.633	31887
404.711	5083
404.789	1573
404.868	-84
404.946	399
405.024	-562
405.102	182
405.180	-1017
405.258	-558
405.336	-10
405.415	-39
405.493	1853
405.571	1809
405.649	-1324
405.727	-1270
405.805	1080
405.883	352
405.961	347
406.039	1039
406.117	-85
406.195	1050
406.273	4392
406.351	27639
406.429	20931
406.507	2697
406.585	-36
406.663	703
406.740	758
406.818	143
406.896	-703
406.974	493
407.052	-513
407.130	14611
407.208	23916
407.285	5862
407.363	-942
407.441	-112
407.519	-510
407.596	947
407.674	2120
407.752	11480
407.830	12234
407.907	4296
407.985	142
408.063	-25
408.141	-1018
408.218	1408
408.296	-16
408.373	255
408.451	652
408.529	-4
408.606	-1195
408.684	-554
408.762	-921
408.839	-733
408.917	-598
408.994	-376
409.072	-1140
409.149	81
409.227	557
409.304	1500
409.382	1189
409.459	1029
409.537	2002
409.614	1137
409.692	377
409.769	72
409.846	1889
409.924	4243
410.001	422
410.079	766
410.156	491
410.233	789
410.311	-83
410.388	-77
410.465	18
410.543	-523
410.620	387
410.697	222
410.775	-250
410.852	-912
410.929	642
411.006	1517
411.083	-17
411.161	1361
411.238	2119
411.315	1115
411.392	295
411.469	585
411.547	857
411.624	-1367
411.701	-959
411.778	76
411.855	427
411.932	-310
412.009	-840
412.086	399
412.163	-232
412.240	203
412.317	757
412.394	367
412.471	-694
412.548	-250
412.625	-1913
412.702	858
412.779	1270
412.856	1208
412.933	-1225
413.010	-371
413.087	-371
413.164	5057
413.241	10339
413.318	1535
413.395	451
413.471	1838
413.548	-293
413.625	104
413.702	-1271
413.779	191
413.855	-383
413.932	-528
414.009	-737
414.086	-506
414.162	-960
414.239	484
414.316	4543
414.393	14505
414.469	4617
414.546	-86
414.623	-956
414.699	-500
414.776	-244
414.853	-67
414.929	-645
415.006	-259
415.082	73
415.159	-306
415.236	-173
415.312	764
415.389	130
415.465	1293
415.542	-468
415.618	-856
415.695	57
415.771	-190
415.848	-309
415.924	-322
416.000	-236
416.077	522
416.153	-822
416.230	-1648
416.306	-684
416.383	-1182
416.459	261
416.535	-988
416.612	-420
416.688	-432
416.764	-427
416.841	-874
416.917	-141
416.993	46
417.069	-465
417.146	57
417.222	-765
417.298	-267
417.374	-921
417.451	-33
417.527	-906
417.603	-214
417.679	-593
417.755	-56
417.831	-781
417.908	11
417.984	-1113
418.060	-1025
418.136	-254
418.212	1407
418.288	-43
418.364	-8
418.440	-1082
418.516	759
418.592	66
418.668	2012
418.744	3342
418.820	3543
418.896	-62
418.972	-905
419.048	-1211
419.124	1541
419.200	-572
419.276	26
419.352	-1057
419.428	-331
419.504	-1646
419.579	229
419.655	-780
419.731	405
419.807	986
419.883	3615
419.959	2727
420.034	345
420.110	632
420.186	7459
420.262	7807
420.337	409
420.413	-244
420.489	262
420.565	553
420.640	-360
420.716	59
420.792	-726
420.867	42
420.943	-918
421.019	-299
421.094	244
421.170	-181
421.245	-263
421.321	218
421.397	-14
421.472	1848
421.548	6116
421.623	4843
421.699	1382
421.774	1174
421.850	343
421.925	873
422.001	2334
422.076	1274
422.152	1570
422.227	3813
422.302	6567
422.378	7188
422.453	13984
422.529	33255
422.604	87978
422.679	138948
422.755	112627
422.830	48538
422.905	19925
422.981	9485
423.056	5732
423.131	3904
423.207	3145
423.282	2314
423.357	3601
423.432	2351
423.508	2567
423.583	3128
423.658	3975
423.733	1192
423.808	978
423.883	2046
423.959	1622
424.034	21
424.109	1066
424.184	-249
424.259	103
424.334	-577
424.409	-187
424.484	-943
424.559	572
424.634	-807
424.709	113
424.784	912
424.859	-371
424.934	-383
425.009	4832
425.084	10791
425.159	5170
425.234	984
425.309	-443
425.384	416
425.459	2603
425.534	574
425.609	-331
425.683	-674
425.758	-103
425.833	-578
425.908	519
425.983	1078
426.058	10437
426.132	4659
426.207	-40
426.282	825
426.357	1333
426.431	-423
426.506	687
426.581	-379
426.655	517
426.730	-455
426.805	-700
426.879	167
426.954	-153
427.029	3
427.103	7778
427.178	24042
427.253	14448
427.327	1330
427.402	866
427.476	3206
427.551	1718
427.625	708
427.700	420
427.774	-827
427.849	-167
427.923	-845
427.998	-539
428.072	-514
428.147	1501
428.221	7707
428.296	28405
428.370	19897
428.444	1984
428.519	1229
428.593	4087
428.667	3622
428.742	4164
428.816	4708
428.890	17010
428.965	33919
429.039	11869
429.113	5807
429.188	1919
429.262	-97
429.336	221
429.410	4352
429.485	4118
429.559	2878
429.633	3509
429.707	30
429.781	2305
429.855	17873
429.930	35652
430.004	17115
430.078	22842
430.152	21737
430.226	34111
430.300	44569
430.374	8070
430.448	1340
430.522	6217
430.596	20476
430.670	17326
430.744	26282
430.818	49543
430.892	11799
430.966	723
431.040	-90
431.114	-664
431.188	-1172
431.262	-34
431.336	-1127
431.410	1116
431.484	4245
431.557	4715
431.631	-473
431.705	468
431.779	3492
431.853	24249
431.927	22234
432.000	1828
432.074	-758
432.148	265
432.222	141
432.295	-615
432.369	-874
432.443	384
432.516	7274
432.590	25918
432.664	11626
432.737	1212
432.811	-946
432.885	-645
432.958	-174
433.032	-1173
433.106	-1322
433.179	-357
433.253	-1216
433.326	-918
433.400	-1046
433.473	-1073
433.547	-1339
433.620	-639
433.694	-178
433.767	1114
433.841	-1604
433.914	-764
433.988	-1368
434.061	214
434.134	-1802
434.208	-809
434.281	-1243
434.355	-105
434.428	-191
434.501	-350
434.575	-1501
434.648	-250
434.721	-702
434.795	-1522
434.868	-1748
434.941	-203
435.014	-2066
435.088	-648
435.161	-484
435.234	796
435.307	660
435.381	-506
435.454	-1022
435.527	1139
435.600	1103
435.673	363
435.746	-125
435.819	-328
435.892	-764
435.966	-850
436.039	-1207
436.112	566
436.185	-883
436.258	-242
436.331	-1847
436.404	-344
436.477	-1647
436.550	-652
436.623	-1089
436.696	-891
436.769	-1008
436.842	-541
436.915	-1223
436.987	-497
437.060	-1065
437.133	-1160
437.206	-1390
437.279	-36
437.352	-1359
437.425	-712
437.498	-712
437.570	294
437.643	608
437.716	-403
437.789	-1348
437.861	572
437.934	2990
438.007	2228
438.080	-836
438.152	-544
438.225	914
438.298	9409
438.370	36503
438.443	20663
438.516	4111
438.588	648
438.661	-1465
438.734	-82
438.806	-604
438.879	-52
438.951	-334
439.024	1833
439.096	-1139
439.169	-1028
439.241	-855
439.314	-284
439.386	15
439.459	455
439.531	1546
439.604	355
439.676	-769
439.749	-1223
439.821	-1265
439.893	-1110
439.966	-764
440.038	194
440.110	-15
440.183	-274
440.255	-1241
440.327	942
440.400	3275
440.472	21674
440.544	21011
440.617	2486
440.689	502
440.761	1025
440.833	2327
440.905	2214
440.978	-456
441.050	-957
441.122	-571
441.194	-1291
441.266	-317
441.338	-874
441.411	-385
441.483	5720
441.555	12638
441.627	3982
441.699	964
441.771	785
441.843	-254
441.915	-400
441.987	-912
442.059	-874
442.131	-336
442.203	1224
442.275	633
442.347	663
442.419	1916
442.491	11319
442.563	37276
442.635	20875
442.706	6636
442.778	6960
442.850	427
442.922	542
442.994	-193
443.066	586
443.137	445
443.209	978
443.281	1021
443.353	3274
443.425	14485
443.496	60233
443.568	73890
443.640	29845
443.711	4169
443.783	755
443.855	62
443.926	348
443.998	257
444.070	425
444.141	0
444.213	1102
444.285	1616
444.356	1609
444.428	393
444.499	-755
444.571	-556
444.642	-158
444.714	-358
444.785	1042
444.857	1598
444.928	3660
445.000	2520
445.071	2467
445.143	3337
445.214	2435
445.285	2695
445.357	10998
445.428	35016
445.500	97654
445.571	72699
445.642	39354
445.714	13151
445.785	10944
445.856	3160
445.928	2444
445.999	804
446.070	1284
446.141	644
446.213	2688
446.284	972
446.355	333
446.426	-275
446.497	551
446.569	-157
446.640	1772
446.711	1346
446.782	482
446.853	41
446.924	930
446.995	-130
447.066	346
447.138	836
447.209	845
447.280	-818
447.351	-388
447.422	-1423
447.493	-60
447.564	-241
447.635	1595
447.706	17
447.777	-417
447.847	-977
447.918	-192
447.989	-164
448.060	1174
448.131	2061
448.202	3206
448.273	1550
448.344	20
448.414	-920
448.485	89
448.556	609
448.627	354
448.698	-819
448.768	-360
448.839	-621
448.910	173
448.981	1227
449.051	417
449.122	-392
449.193	1
449.263	-838
449.334	-313
449.405	-449
449.475	2096
449.546	1882
449.616	1832
449.687	930
449.758	-113
449.828	-395
449.899	126
449.969	-1515
450.040	-358
450.110	560
450.181	213
450.251	-887
450.322	362
450.392	-744
450.463	825
450.533	-478
450.604	599
450.674	-1132
450.744	447
450.815	-980
450.885	206
450.955	-369
451.026	45
451.096	-540
451.166	820
451.237	501
451.307	5084
451.377	3008
451.447	-599
451.518	-411
451.588	560
451.658	-387
451.728	-599
451.799	4386
451.869	8033
451.939	1810
452.009	607
452.079	-829
452.149	402
452.219	72
452.289	6424
452.360	5746
452.430	943
452.500	-85
452.570	764
452.640	1479
452.710	5578
452.780	9599
452.850	5773
452.920	5401
452.990	2431
453.060	352
453.129	1041
453.199	1699
453.269	5477
453.339	18407
453.409	31393
453.479	23868
453.549	38408
453.619	42133
453.688	21425
453.758	3098
453.828	298
453.898	-17
453.968	-500
454.037	-234
454.087	137
454.107	285
454.168	-774
454.177	-940
454.247	-111
454.249	-110
454.316	-312
454.330	-50
454.386	907
454.411	1353
454.456	1958
454.492	4060
454.525	5952
454.574	3230
454.595	2053
454.655	282
454.665	1
454.734	177
454.736	227
454.804	1250
454.817	2141
454.873	5427
454.898	6680
454.943	9053
454.979	5847
455.013	2933
455.060	1223
455.082	505
455.141	680
455.152	658
455.221	3716
455.222	3802
455.291	8077
455.303	7382
455.360	4600
455.384	4418
455.430	3967
455.465	3964
455.499	3831
455.546	4866
455.569	5213
455.627	4883
455.638	4894
455.707	119
455.708	128
455.777	89
455.789	43
455.846	0
455.869	277
455.916	679
455.950	654
455.985	514
456.031	250
456.054	243
456.112	162
456.124	116
456.193	-166
456.193	-179
456.262	707
456.274	838
456.332	1441
456.355	1330
456.401	1023
456.436	596
456.470	218
456.516	278
456.540	251
456.597	-917
456.609	-1154
456.678	-102
456.678	-106
456.747	197
456.759	109
456.817	-404
456.840	-63
456.886	618
456.920	22
456.955	-560
457.001	106
457.024	427
457.082	654
457.093	705
457.162	1807
457.163	1815
457.232	1140
457.243	1113
457.301	1010
457.324	870
457.370	816
457.405	1005
457.439	1047
457.485	416
457.508	121
457.566	826
457.577	991
457.646	1933
457.647	1940
457.715	2550
457.727	2738
457.784	4079
457.808	5227
457.853	6186
457.889	7698
457.922	8644
457.969	5936
457.991	5692
458.050	6526
458.060	6598
458.129	11099
458.130	11241
458.198	11345
458.211	10061
458.267	6451
458.292	4667
458.336	2767
458.372	2797
458.405	3514
458.453	4762
458.474	5849
458.533	11408
458.543	11719
458.611	17269
458.614	17398
458.680	13587
458.694	10799
458.749	5006
458.775	3965
458.818	2278
458.855	1615
458.887	1248
458.936	1220
458.955	1106
459.016	937
459.024	953
459.093	1512
459.097	1490
459.162	966
459.177	1159
459.230	1908
459.257	2061
459.299	2340
459.338	2370
459.368	2022
459.418	1624
459.437	1531
459.499	1557
459.505	1590
459.574	966
459.579	967
459.643	1090
459.659	1176
459.711	1254
459.740	1408
459.780	1649
459.820	1513
459.849	1467
459.900	2008
459.917	2060
459.981	1490
459.986	1470
460.054	1511
460.061	1554
460.123	2412
460.141	2572
460.191	2795
460.222	2810
460.260	2636
460.302	2988
460.328	2886
460.382	2359
460.397	2576
460.462	3347
460.465	3406
460.534	4523
460.543	4714
460.602	10184
460.623	12429
460.671	19601
460.703	26764
460.739	23833
460.783	18932
460.808	17751
460.864	6021
460.876	4653
460.944	1575
460.945	1545
461.013	2060
461.024	2076
461.081	1616
461.104	1597
461.150	1486
461.184	1176
461.218	1246
461.264	1906
461.286	2069
461.345	1433
461.355	1390
461.423	1936
461.425	1946
461.491	1636
461.505	1663
461.559	3734
461.585	4452
461.628	6111
461.665	8225
461.696	8479
461.745	9713
461.764	8895
461.825	4089
461.832	4107
461.901	2195
461.905	2259
461.969	2149
461.985	1995
462.037	2169
462.065	2263
462.105	2371
462.145	2558
462.173	3132
462.225	4365
462.241	4817
462.305	6933
462.310	6738
462.378	3935
462.385	3401
462.446	1954
462.465	1818
462.514	2337
462.545	2651
462.582	2246
462.625	1878
462.650	1990
462.705	1910
462.718	1881
462.785	2410
462.786	2425
462.854	2796
462.865	2893
462.922	3318
462.945	3541
462.990	3207
463.025	2727
463.058	2318
463.104	1485
463.126	1509
463.184	2247
463.194	2231
463.262	1279
463.264	1274
463.330	1914
463.344	1986
463.398	2226
463.424	2313
463.466	2130
463.504	2016
463.533	2174
463.583	2402
463.601	2421
463.663	2237
463.669	2262
463.737	3030
463.743	3081
463.805	5134
463.823	5795
463.873	8754
463.903	10440
463.940	9929
463.982	9900
464.008	8262
464.062	3778
464.076	3668
464.142	2569
464.144	2540
464.211	2127
464.221	2094
464.279	2224
464.301	2160
464.347	2100
464.381	2327
464.414	2747
464.461	3096
464.482	3095
464.540	3501
464.550	3430
464.617	2177
464.620	2147
464.685	3350
464.699	3563
464.753	4295
464.779	4784
464.820	5042
464.859	5071
464.888	4514
464.938	3798
464.956	3967
465.018	4177
465.023	4192
465.091	4549
465.098	4565
465.158	4010
465.177	3877
465.226	4007
465.257	4068
465.293	3974
465.336	3869
465.361	4353
465.416	5339
465.428	5636
465.495	7378
465.496	7412
465.563	11077
465.575	11761
465.631	13039
465.654	13694
465.698	9172
465.734	4985
465.765	4598
465.813	3789
465.833	3776
465.893	4252
465.900	4176
465.968	3366
465.972	3311
466.035	3769
466.052	3877
466.102	3281
466.131	2940
466.170	3128
466.210	3327
466.237	3727
466.290	4470
466.304	4448
466.369	4350
466.372	4354
466.439	4347
466.449	4317
466.506	4763
466.528	4984
466.573	7981
466.607	10150
466.641	12804
466.687	16565
466.708	17594
466.766	20432
466.775	19018
466.842	8168
466.845	7638
466.909	5653
466.925	5226
466.977	5039
467.004	4954
467.044	5072
467.083	5227
467.111	6233
467.163	8075
467.178	7895
467.242	7126
467.245	7095
467.312	6324
467.321	6219
467.379	6463
467.400	6537
467.446	7187
467.480	7644
467.559	6094
467.638	6000
467.717	3858
467.796	6295
467.875	6474
467.955	6301
468.034	10652
468.113	19611
468.192	25838
468.271	7185
468.350	6150
468.429	7175
468.508	7461
468.588	5994
468.667	5572
468.746	5933
468.825	5403
468.904	4177
468.983	6410
469.062	8388
469.141	8425
469.220	4231
469.299	5476
469.378	4441
469.456	7007
469.535	6128
469.614	5525
469.693	5890
469.772	7798
469.851	9666
469.930	6004
470.009	5036
470.088	5736
470.166	6734
470.245	9837
470.324	9645
470.403	5608
470.482	5421
470.560	3638
470.639	4882
470.718	5956
470.797	5102
470.875	6857
470.954	7188
471.033	7581
471.111	4661
471.190	4265
471.269	3897
471.347	3833
471.426	3780
471.505	4675
471.583	5626
471.662	4737
471.740	5219
471.819	5675
471.898	4221
471.976	4718
472.055	5012
472.133	5371
472.212	6873
472.290	6024
472.369	4549
472.447	4772
472.526	4115
472.604	5272
472.683	5401
472.761	4898
472.839	4245
472.918	4714
472.996	4149
473.075	5193
473.153	5236
473.231	3591
473.310	5184
473.388	5558
473.466	4885
473.545	5412
473.623	6855
473.701	5518
473.780	5082
473.858	3363
473.936	5262
474.014	4323
474.093	5485
474.171	6796
474.249	8740
474.327	5234
474.405	4232
474.484	3750
474.562	2914
474.640	4166
474.718	4554
474.796	4117
474.874	4249
474.952	3125
475.030	3112
475.108	3283
475.187	4935
475.265	4887
475.343	6304
475.421	6024
475.499	5021
475.577	4455
475.655	6637
475.733	9358
475.811	15219
475.889	13945
475.966	7500
476.044	4356
476.122	4361
476.200	5417
476.278	4285
476.356	3343
476.434	4313
476.512	5444
476.590	5660
476.667	5038
476.745	3732
476.823	3655
476.901	4971
476.979	5100
477.056	3954
477.134	4776
477.212	4435
477.290	4086
477.367	3666
477.445	3318
477.523	3067
477.601	3373
477.678	3223
477.756	4586
477.834	4919
477.911	2904
477.989	4372
478.066	3479
478.144	4859
478.222	4320
478.299	6846
478.377	4714
478.454	3899
478.532	3290
478.609	3118
478.687	3863
478.764	2450
478.842	3030
478.919	3844
478.997	3173
479.074	3255
479.152	4368
479.229	4728
479.307	2240
479.384	2228
479.461	3690
479.539	2903
479.616	3956
479.694	3305
479.771	3491
479.848	3496
479.926	4237
480.003	5072
480.080	3494
480.157	2946
480.235	2739
480.312	3575
480.389	3533
480.467	5041
480.544	6805
480.621	3024
480.698	3666
480.775	4676
480.853	3771
480.930	3578
481.007	3748
481.084	4123
481.161	4973
481.238	4928
481.315	3155
481.392	2838
481.470	3871
481.547	3395
481.624	3229
481.701	3484
481.778	3667
481.855	4602
481.932	5702
482.009	8956
482.086	5298
482.163	3537
482.240	5041
482.317	8496
482.393	4956
482.470	4400
482.547	3432
482.624	2859
482.701	3435
482.778	2179
482.855	3438
482.932	2445
483.009	3111
483.085	3256
483.162	3070
483.239	4093
483.316	2734
483.393	3106
483.469	2897
483.546	3678
483.623	3585
483.699	2300
483.776	2711
483.853	3620
483.930	5798
484.006	14559
484.083	23806
484.160	13530
484.236	21429
484.313	14812
484.389	10426
484.466	10440
484.543	9130
484.619	10205
484.696	11595
484.772	11117
484.849	10948
484.925	8941
485.002	9227
485.078	10559
485.155	9615
485.231	8285
485.308	8542
485.384	9172
485.461	10416
485.537	15618
485.614	16409
485.690	8337
485.766	7633
485.843	9037
485.919	10397
485.995	10403
486.072	6423
486.148	7112
486.224	7081
486.301	8058
486.377	9256
486.453	9056
486.530	9178
486.606	11723
486.682	12983
486.758	14952
486.835	14889
486.911	12949
486.987	19226
487.063	18522
487.139	20362
487.215	15789
487.292	8978
487.368	8830
487.444	8980
487.520	11571
487.596	10799
487.672	20317
487.748	46685
487.824	56342
487.900	15427
487.976	9678
488.052	8787
488.128	11200
488.204	8653
488.280	8254
488.356	10040
488.432	16953
488.508	22531
488.584	8715
488.660	6569
488.736	7800
488.812	7746
488.888	9640
488.964	12651
489.039	20371
489.115	28704
489.191	14528
489.267	7290
489.343	7232
489.418	5661
489.494	6436
489.570	5125
489.646	7034
489.722	6458
489.797	7964
489.873	10946
489.949	18772
490.024	12721
490.100	6143
490.176	6158
490.251	6764
490.327	8293
490.403	5126
490.478	5498
490.554	5614
490.629	5000
490.705	4050
490.781	5649
490.856	5746
490.932	6764
491.007	5927
491.083	4844
491.158	5937
491.234	8040
491.309	14416
491.385	12301
491.460	5212
491.536	5417
491.611	4697
491.686	5954
491.762	7364
491.837	13679
491.913	20590
491.988	29269
492.063	29659
492.139	9703
492.214	6854
492.289	3767
492.365	5177
492.440	4618
492.515	4667
492.590	5463
492.666	4677
492.741	6139
492.816	7606
492.891	4114
492.967	4973
493.042	3097
493.117	3365
493.192	4230
493.267	5791
493.342	8609
493.418	8792
493.493	4467
493.568	3083
493.643	4130
493.718	5739
493.793	6884
493.868	7460
493.943	4327
494.018	4487
494.093	3335
494.168	3115
494.243	3397
494.318	3508
494.393	4159
494.468	3446
494.543	3650
494.618	5013
494.693	3136
494.768	3534
494.842	4540
494.917	3717
494.992	3281
495.067	3159
495.142	2497
495.217	3821
495.292	3411
495.366	4441
495.441	4750
495.516	7671
495.591	9565
495.665	29354
495.740	55878
495.815	16219
495.890	5087
495.964	3768
496.039	5567
496.114	5082
496.188	5613
496.263	5433
496.338	4689
496.412	5629
496.487	5612
496.561	6030
496.636	4986
496.710	5272
496.785	4983
496.860	6777
496.934	5147
497.009	5289
497.083	4420
497.158	5759
497.232	6677
497.307	7395
497.381	6804
497.455	7259
497.530	9282
497.604	6339
497.679	6435
497.753	11408
497.827	12706
497.902	12237
497.976	17110
498.050	45355
498.125	139098
498.199	107668
498.273	17630
498.348	13337
498.422	11148
498.496	10436
498.570	8036
498.645	5967
498.719	6014
498.793	9007
498.867	12855
498.941	21304
499.016	61224
499.090	137781
499.164	31786
499.238	4910
499.312	5663
499.386	6941
499.460	6544
499.534	5491
499.609	7127
499.683	10820
499.757	11674
499.831	29861
499.905	94986
499.979	67456
500.053	10855
500.127	10821
500.201	6374
500.275	5470
500.349	5141
500.422	6670
500.496	9641
500.570	22217
500.644	54200
500.718	86473
500.792	12927
500.866	5613
500.940	6735
501.013	5512
501.087	5613
501.161	9925
501.235	12759
501.309	35355
501.382	85958
501.456	54453
501.530	14633
501.603	23599
501.677	7283
501.751	3128
501.825	6969
501.898	13032
501.972	31929
502.046	14685
502.119	5854
502.193	15469
502.266	32817
502.340	13351
502.413	17301
502.487	27184
502.561	12657
502.634	4796
502.708	3973
502.781	2833
502.855	3188
502.928	3245
503.002	2826
503.075	2875
503.149	2597
503.222	3178
503.295	3779
503.369	5146
503.442	7909
503.516	26344
503.589	54714
503.662	29699
503.736	11935
503.809	26155
503.882	19933
503.956	34996
504.029	27703
504.102	26682
504.175	30673
504.249	7452
504.322	5812
504.395	3827
504.468	2723
504.542	2421
504.615	2336
504.688	3038
504.761	1699
504.834	4631
504.907	4007
504.980	6608
505.053	3120
505.127	3256
505.200	6689
505.273	4679
505.346	2848
505.419	2362
505.492	1761
505.565	1994
505.638	2011
505.711	2176
505.784	1720
505.857	1368
505.930	3013
506.003	857
506.076	3946
506.149	3116
506.221	3158
506.294	5872
506.367	16445
506.440	44270
506.513	16350
506.586	4824
506.659	2704
506.731	1732
506.804	2972
506.877	4020
506.950	3109
507.022	3238
507.095	2317
507.168	4101
507.241	1874
507.313	1942
507.386	2011
507.459	3724
507.531	1454
507.604	1692
507.677	1789
507.749	1294
507.822	3610
507.894	6223
507.967	6766
508.040	4161
508.112	3705
508.185	4372
508.257	3295
508.330	5459
508.402	2641
508.475	2533
508.547	4456
508.620	4141
508.692	6238
508.765	3285
508.837	1803
508.909	2690
508.982	3569
509.054	3823
509.127	2645
509.199	2434
509.271	2012
509.344	2147
509.416	1649
509.488	3415
509.560	2041
509.633	3044
509.705	3821
509.777	3081
509.849	3879
509.922	2661
509.994	2194
510.066	3431
510.138	3442
510.210	8653
510.283	6106
510.355	4914
510.427	4201
510.499	4311
510.571	3619
510.643	4189
510.715	6444
510.787	3102
510.859	4504
510.931	5395
511.003	6020
511.076	4904
511.148	2409
511.219	2806
511.291	6139
511.363	6905
511.435	2862
511.507	2229
511.579	3692
511.651	4225
511.723	2734
511.795	2924
511.867	2906
511.939	4011
512.010	7393
512.082	6036
512.154	1898
512.226	3651
512.298	6846
512.369	8136
512.441	5250
512.513	5510
512.585	3303
512.656	5553
512.728	4633
512.800	3103
512.871	4040
512.943	3001
513.015	2287
513.086	3691
513.158	3834
513.230	4022
513.301	4554
513.373	7183
513.444	3078
513.516	3614
513.588	3176
513.659	4501
513.731	4378
513.802	4443
513.874	8607
513.945	11261
514.016	3070
514.088	3709
514.159	2916
514.231	5234
514.302	5964
514.374	4773
514.445	3674
514.516	10919
514.588	4943
514.659	4850
514.730	8784
514.802	7072
514.873	3492
514.944	6352
515.016	5077
515.087	4609
515.158	6570
515.229	8778
515.301	5621
515.372	6630
515.443	3345
515.514	4524
515.585	3378
515.656	3799
515.728	3838
515.799	2625
515.870	3470
515.941	3282
516.012	2845
516.083	6706
516.154	4271
516.225	6385
516.296	6580
516.367	5506
516.438	6463
516.509	8701
516.580	16926
516.651	54234
516.722	141623
516.793	40888
516.864	9707
516.935	10599
517.006	13096
517.077	22510
517.148	57759
517.219	194563
517.289	211053
517.360	53968
517.431	15232
517.502	5749
517.573	6643
517.643	5903
517.714	6738
517.785	6737
517.856	5761
517.926	8274
517.997	9419
518.068	11530
518.138	19137
518.209	38486
518.280	142601
518.350	375931
518.421	90516
518.492	11423
518.562	7255
518.633	7940
518.703	7307
518.774	17884
518.845	39820
518.915	30966
518.986	9734
519.056	8009
519.127	13122
519.197	22336
519.268	47548
519.338	23403
519.408	6187
519.479	7941
519.549	5461
519.620	5242
519.690	3120
519.760	3868
519.831	3852
519.901	3855
519.971	3567
520.042	3617
520.112	3273
520.182	4191
520.253	6323
520.323	4154
520.393	4443
520.463	7494
520.534	3637
520.604	9824
520.674	5391
520.744	5101
520.814	9350
520.885	9832
520.955	19528
521.025	54914
521.095	14521
521.165	4268
521.235	2628
521.305	2642
521.375	2951
521.445	4294
521.515	3418
521.585	5278
521.655	2993
521.725	5303
521.795	3701
521.865	994
521.935	6101
522.005	3588
522.075	2184
522.145	3998
522.215	4132
522.285	6319
522.355	7573
522.424	13324
522.494	9004
522.564	6407
522.634	12324
522.704	27371
522.774	7445
522.843	3422
522.913	3244
522.983	3709
523.053	1977
523.122	3712
523.192	4306
523.262	15440
523.331	9386
523.401	3654
523.471	1851
523.540	3284
523.610	1163
523.680	3082
523.749	2771
523.819	3798
523.888	3314
523.958	2211
524.027	2414
524.097	3117
524.166	3001
524.236	2184
524.305	4087
524.375	1613
524.444	1196
524.514	3987
524.583	2412
524.653	3335
524.722	3716
524.791	1492
524.861	3107
524.930	1389
524.999	2070
525.069	4203
525.138	3112
525.207	3406
525.277	2252
525.346	2034
525.415	2865
525.484	2421
525.554	3241
525.623	3360
525.692	2781
525.761	3351
525.830	3089
525.900	4089
525.969	7279
526.038	13547
526.107	29424
526.176	73412
526.245	46522
526.314	19049
526.383	41777
526.452	48690
526.522	92025
526.591	66955
526.660	15556
526.729	8685
526.797	13976
526.867	34921
526.935	119490
527.004	191646
527.073	73964
527.142	6048
527.211	4007
527.280	4243
527.349	2718
527.418	1527
527.487	3077
527.555	1527
527.624	1792
527.693	716
527.762	3046
527.831	1400
527.899	2648
527.968	2735
528.037	523
528.106	2945
528.174	3935
528.243	4219
528.312	5750
528.380	5216
528.449	976
528.518	2765
528.586	58
528.655	2477
528.723	1296
528.792	1170
528.861	1165
528.929	887
528.998	2093
529.066	1356
529.135	1492
529.203	798
529.272	1064
529.340	2113
529.409	3323
529.477	1002
529.545	2156
529.614	4512
529.682	1823
529.751	2349
529.819	4792
529.887	1948
529.956	1662
530.024	2042
530.092	279
530.161	3474
530.229	2980
530.297	2227
530.365	2165
530.434	1270
530.502	786
530.570	2578
530.638	314
530.707	1640
530.775	3051
530.843	1720
530.911	1946
530.979	1633
531.047	1696
531.115	2324
531.183	1314
531.252	2474
531.320	1359
531.388	1146
531.456	1426
531.524	419
531.592	1970
531.660	3129
531.728	1371
531.796	1267
531.864	2140
531.932	1695
532.000	1370
532.067	2486
532.135	2883
532.203	3235
532.271	2484
532.339	5003
532.407	11175
532.475	5983
532.542	3893
532.610	4487
532.678	6576
532.746	29891
532.814	52182
532.881	8975
532.949	2413
533.017	2553
533.084	2185
533.152	2996
533.220	1689
533.287	1842
533.355	1178
533.423	2495
533.490	1500
533.558	1675
533.625	1767
533.693	2772
533.761	2645
533.828	3283
533.896	675
533.963	5292
534.031	5109
534.098	7873
534.166	2868
534.233	1941
534.300	3476
534.368	3044
534.435	1677
534.503	2908
534.570	3915
534.637	1960
534.705	4065
534.772	4600
534.840	9161
534.907	37685
534.974	33307
535.041	3986
535.109	2783
535.176	1825
535.243	3181
535.310	2311
535.378	2104
535.445	2906
535.512	2603
535.579	2647
535.646	1401
535.714	2663
535.781	2656
535.848	3299
535.915	3411
535.982	2501
536.049	1998
536.116	4006
536.183	2132
536.250	2318
536.317	1586
536.384	3039
536.451	4668
536.518	4880
536.585	1991
536.652	5395
536.719	5786
536.786	3095
536.853	3640
536.920	5768
536.987	8081
537.053	7948
537.120	31902
537.187	20225
537.254	2810
537.321	2391
537.388	2803
537.454	922
537.521	1808
537.588	2172
537.654	4024
537.721	3511
537.788	3851
537.855	2824
537.921	2461
537.988	1811
538.055	3441
538.121	2362
538.188	3093
538.254	4621
538.321	7398
538.388	4469
538.454	3035
538.521	2689
538.587	2371
538.654	2797
538.720	2337
538.787	2886
538.853	3069
538.920	3503
538.986	2744
539.053	2942
539.119	3303
539.185	3488
539.252	4558
539.318	4591
539.385	4757
539.451	2739
539.517	4818
539.583	6492
539.650	10375
539.716	20457
539.782	4859
539.849	2169
539.915	3503
539.981	2840
540.047	2983
540.114	3037
540.180	4557
540.246	2896
540.312	5089
540.378	7645
540.444	8921
540.510	11256
540.576	23367
540.643	5457
540.709	1379
540.775	3333
540.841	2572
540.907	4840
540.973	6144
541.039	4650
541.105	6135
541.171	3312
541.237	2880
541.303	4285
541.369	4743
541.435	4720
541.500	6759
541.566	2889
541.632	2272
541.698	2348
541.764	3141
541.830	2779
541.896	2130
541.961	3420
542.027	2439
542.093	3329
542.159	3502
542.224	2755
542.290	5220
542.356	7018
542.421	7542
542.487	4083
542.553	2464
542.618	4371
542.684	2965
542.750	3345
542.815	5686
542.881	8039
542.947	22185
543.012	12759
543.078	3975
543.143	3260
543.209	4339
543.274	3786
543.340	4743
543.405	9972
543.471	10993
543.536	3214
543.602	2741
543.667	2441
543.732	3386
543.798	2563
543.863	3564
543.928	2250
543.994	2135
544.059	3146
544.124	2825
544.190	3404
544.255	2938
544.320	3231
544.386	3527
544.451	5900
544.516	5301
544.581	6110
544.646	15087
544.712	18388
544.777	5352
544.842	4356
544.907	4014
544.972	3426
545.037	4422
545.102	5197
545.168	4555
545.233	5319
545.298	5288
545.363	4981
545.428	6385
545.493	11559
545.558	16954
545.623	7498
545.688	4153
545.753	4743
545.818	4604
545.883	5801
545.947	4345
546.012	5982
546.077	5144
546.142	5288
546.207	4555
546.272	8030
546.337	5585
546.401	6105
546.466	5841
546.531	5248
546.596	6910
546.661	6222
546.725	6802
546.790	5999
546.855	7197
546.919	6774
546.984	7224
547.049	7770
547.113	10015
547.178	9406
547.243	12003
547.307	13857
547.372	14289
547.436	14371
547.501	12854
547.565	14836
547.630	14780
547.695	14099
547.759	16332
547.823	13693
547.888	14138
547.952	13344
548.017	14658
548.081	16404
548.146	16489
548.210	16552
548.274	15862
548.339	15967
548.403	14860
548.468	13516
548.532	12676
548.596	13657
548.660	13132
548.725	16151
548.789	16004
548.853	16861
548.917	16112
548.982	15716
549.046	14734
549.110	13046
549.174	13215
549.238	15262
549.303	14918
549.367	16845
549.431	14436
549.495	14929
549.559	14864
549.623	18349
549.687	19517
549.751	20929
549.815	22373
549.879	22711
549.943	20012
550.007	22666
550.071	21575
550.135	20894
550.199	18208
550.263	18950
550.327	18142
550.391	19363
550.455	19360
550.519	22023
550.582	23284
550.646	27423
550.710	25717
550.774	25955
550.838	24623
550.901	26196
550.965	27822
551.029	27160
551.093	31251
551.156	34452
551.220	41629
551.284	45883
551.347	33600
551.411	37994
551.475	35333
551.538	27955
551.602	25951
551.666	22998
551.729	20593
551.793	23614
551.856	22445
551.920	21736
551.983	22182
552.047	22496
552.110	23423
552.174	22670
552.237	23175
552.301	21734
552.364	20832
552.428	21406
552.491	20476
552.554	21735
552.618	21594
552.681	22705
552.745	22113
552.808	27830
552.871	29317
552.934	23440
552.998	19826
553.061	21400
553.124	20251
553.187	20422
553.251	21000
553.314	20904
553.377	20765
553.440	24162
553.503	26572
553.567	28539
553.630	22216
553.693	23652
553.756	22865
553.819	23648
553.882	22513
553.945	22584
554.008	22109
554.071	21914
554.134	23131
554.197	21489
554.260	21607
554.323	23016
554.386	23337
554.449	23410
554.512	23908
554.575	21121
554.638	21691
554.701	21242
554.764	22194
554.827	20027
554.889	19147
554.952	19853
555.015	18681
555.078	18365
555.141	19587
555.203	19445
555.266	18002
555.329	18494
555.391	17330
555.454	18172
555.517	16398
555.580	16583
555.642	14738
555.705	15898
555.768	15839
555.830	16032
555.893	13997
555.955	13671
556.018	14558
556.080	14661
556.143	13646
556.206	14043
556.268	14860
556.330	14182
556.393	13685
556.455	13645
556.518	14769
556.580	14565
556.643	12114
556.705	12236
556.767	11274
556.830	12089
556.892	11973
556.955	12444
557.017	11707
557.079	11479
557.142	11059
557.204	11141
557.266	14220
557.328	12185
557.391	8845
557.453	9031
557.515	10242
557.577	10162
557.639	9536
557.701	9951
557.764	8867
557.826	8780
557.888	10228
557.950	10449
558.012	11716
558.074	15362
558.136	29732
558.198	53080
558.260	17278
558.322	9793
558.384	10579
558.446	11353
558.508	12322
558.570	17319
558.632	23322
558.694	33079
558.756	48567
558.818	126068
558.880	233560
558.942	60962
559.003	55036
559.065	23096
559.127	12018
559.189	14371
559.251	19068
559.312	28101
559.374	60721
559.436	160931
559.498	59176
559.559	13253
559.621	13839
559.683	19376
559.744	31838
559.806	86466
559.868	97608
559.929	18225
559.991	16172
560.052	24622
560.114	55579
560.176	32505
560.237	35564
560.299	45306
560.360	10627
560.422	7485
560.483	6625
560.545	6448
560.606	6263
560.667	6912
560.729	6249
560.790	6060
560.852	6346
560.913	6207
560.974	5875
561.036	6239
561.097	5418
561.158	6438
561.220	5727
561.281	5778
561.342	6845
561.403	7063
561.465	7701
561.526	14620
561.587	14891
561.648	6380
561.709	5949
561.771	6070
561.832	5848
561.893	5112
561.954	5227
562.015	5794
562.076	5390
562.137	5948
562.198	5385
562.259	6089
562.320	5330
562.381	6832
562.442	7368
562.503	6514
562.564	6073
562.625	5685
562.686	5826
562.747	5731
562.808	5416
562.869	6370
562.930	6569
562.991	6170
563.051	5594
563.112	5296
563.173	5971
563.234	5850
563.294	5572
563.355	5335
563.416	5391
563.477	5830
563.537	5644
563.598	5730
563.659	5223
563.720	5486
563.780	6022
563.841	5395
563.901	6616
563.962	6100
564.023	5553
564.083	5655
564.144	5990
564.204	5465
564.265	5821
564.325	6901
564.386	10225
564.446	8092
564.507	5026
564.567	5837
564.628	5383
564.688	5279
564.749	5116
564.809	6905
564.869	6932
564.930	5684
564.990	5994
565.050	5521
565.111	5385
565.171	5811
565.231	5125
565.292	6501
565.352	5583
565.412	6440
565.472	5341
565.532	5395
565.593	5037
565.653	5778
565.713	5625
565.773	6452
565.833	6222
565.893	8227
565.953	6292
566.013	5842
566.074	7074
566.134	8271
566.194	8956
566.254	9255
566.314	7140
566.374	6298
566.434	7136
566.494	6546
566.554	5373
566.614	7431
566.673	6017
566.733	7954
566.793	6755
566.853	7457
566.913	7442
566.973	7166
567.033	7349
567.092	7866
567.152	6989
567.212	8043
567.272	7495
567.331	8693
567.391	7560
567.451	8940
567.511	10281
567.570	9622
567.630	7972
567.690	7537
567.749	8226
567.809	8911
567.868	9404
567.928	10574
567.988	11140
568.047	12544
568.107	16335
568.166	20833
568.226	31935
568.285	39986
568.345	28971
568.404	22193
568.464	19902
568.523	18553
568.582	19768
568.642	25471
568.701	32676
568.761	47042
568.820	71287
568.879	57891
568.939	39661
568.998	28479
569.057	21733
569.116	17732
569.176	14842
569.235	12993
569.294	11434
569.353	9425
569.413	9726
569.472	10156
569.531	7640
569.590	8070
569.649	7483
569.708	8065
569.767	7683
569.827	7633
569.886	7004
569.945	6678
570.004	7660
570.063	7249
570.122	7417
570.181	7372
570.240	7954
570.299	6721
570.358	7229
570.417	6070
570.475	5832
570.534	7475
570.593	6933
570.652	7490
570.711	6196
570.770	6807
570.829	6584
570.887	7341
570.946	7296
571.005	6176
571.064	6546
571.122	7357
571.181	6346
571.240	6826
571.299	6338
571.357	7780
571.416	7080
571.475	7077
571.533	7958
571.592	6227
571.650	7120
571.709	6143
571.768	6988
571.826	6387
571.885	6990
571.943	6339
572.002	6594
572.060	6151
572.119	6717
572.177	6818
572.236	6156
572.294	6043
572.352	6246
572.411	6948
572.469	5795
572.528	5629
572.586	6000
572.644	7747
572.703	8125
572.761	6384
572.819	5985
572.877	6404
572.936	4750
572.994	6274
573.052	6158
573.110	5870
573.169	5956
573.227	5932
573.285	5842
573.343	5718
573.401	5691
573.459	6309
573.517	5650
573.576	5547
573.634	6203
573.692	5781
573.750	6293
573.808	5918
573.866	6585
573.924	6993
573.982	6017
574.040	6219
574.098	6213
574.155	5096
574.213	6789
574.271	5604
574.329	5763
574.387	6109
574.445	4823
574.503	5473
574.560	5283
574.618	4667
574.676	5364
574.734	5594
574.792	6173
574.849	5221
574.907	5053
574.965	5586
575.022	5217
575.080	5084
575.138	5813
575.195	4977
575.253	5476
575.311	6103
575.368	5711
575.426	4946
575.483	5635
575.541	6092
575.598	5834
575.656	6303
575.713	6062
575.771	5721
575.828	5853
575.886	5657
575.943	6660
576.001	5308
576.058	6183
576.115	6392
576.173	5650
576.230	7396
576.287	6875
576.345	7042
576.402	6068
576.459	6183
576.517	6157
576.574	6669
576.631	6161
576.688	6275
576.746	5283
576.803	6318
576.860	4981
576.917	7145
576.974	5837
577.031	5468
577.089	5783
577.146	5672
577.203	6304
577.260	6160
577.317	6297
577.374	6525
577.431	6491
577.488	5586
577.545	5550
577.602	6699
577.659	5523
577.716	6039
577.773	5838
577.830	5216
577.886	5589
577.943	6519
578.000	5369
578.057	5850
578.114	6125
578.171	6345
578.227	6428
578.284	5930
578.341	6385
578.398	6630
578.454	6101
578.511	6762
578.568	7084
578.625	5708
578.681	5940
578.738	5808
578.794	6828
578.851	7073
578.908	6524
578.964	6660
579.021	6800
579.077	6718
579.134	6247
579.190	6420
579.247	6080
579.303	6548
579.360	6221
579.416	5633
579.473	6097
579.529	5550
579.586	6277
579.642	6637
579.698	6236
579.755	6768
579.811	6465
579.867	7262
579.924	5697
579.980	6773
580.036	7101
580.093	5986
580.149	6757
580.205	5953
580.261	6080
580.317	6893
580.374	7034
580.430	7825
580.486	7061
580.542	6810
580.598	6868
580.619	6898
580.654	6954
580.692	6586
580.710	6417
580.765	6491
580.767	6498
580.823	6100
580.838	6282
580.879	6786
580.911	6847
580.935	6900
580.984	7038
580.991	7060
581.047	7421
581.057	7297
581.103	6793
581.130	7392
581.159	8015
581.203	8015
581.215	8019
581.270	6867
581.276	6847
581.326	6755
581.349	6736
581.382	6688
581.422	7516
581.438	7862
581.494	7543
581.494	7546
581.550	8128
581.567	7908
581.606	7486
581.640	7735
581.661	7860
581.713	7381
581.717	7355
581.773	7771
581.786	7647
581.829	7208
581.859	7883
581.885	8489
581.932	7889
581.940	7773
581.996	8745
582.004	8617
582.052	7918
582.077	7822
582.107	7726
582.150	8028
582.163	8108
582.219	7628
582.223	7619
582.274	7639
582.296	7995
582.330	8531
582.368	8421
582.386	8423
582.441	8659
582.441	8660
582.497	8340
582.514	8196
582.552	7989
582.587	8239
582.608	8372
582.659	8285
582.663	8283
582.719	8533
582.732	8467
582.774	8265
582.805	8130
582.830	8007
582.877	8109
582.885	8127
582.941	8813
582.950	8758
582.996	8525
583.023	8565
583.052	8708
583.095	9004
583.107	9019
583.162	9419
583.168	9424
583.218	9395
583.240	8894
583.273	8265
583.313	8839
583.328	9065
583.384	8481
583.385	8472
583.439	8218
583.458	8389
583.494	8689
583.531	8401
583.549	8280
583.603	8465
583.605	8469
583.660	9178
583.676	9076
583.715	8953
583.748	9501
583.770	9725
583.820	9163
583.825	9135
583.881	9447
583.893	9464
583.936	9301
583.965	9216
583.991	9292
584.038	9673
584.046	9719
584.101	9239
584.110	9377
584.156	10079
584.183	10168
584.211	10269
584.255	9749
584.266	9564
584.321	9514
584.328	9472
584.376	9505
584.400	9992
584.431	10594
584.472	10121
584.486	9918
584.541	10211
584.545	10229
584.596	10523
584.617	10635
584.651	11003
584.689	11156
584.706	11201
584.761	11408
584.762	11409
584.816	11479
584.834	11545
584.871	11727
584.906	11449
584.926	11351
584.978	12153
584.980	12188
585.035	12127
585.051	12601
585.090	13829
585.123	13638
585.145	13457
585.195	13450
585.200	13492
585.254	14545
585.267	14903
585.309	15743
585.340	15968
585.364	16291
585.412	18771
585.419	19176
585.473	21942
585.484	22757
585.528	26765
585.556	29544
585.583	35274
585.628	48535
585.637	54250
585.692	103023
585.700	110898
585.747	143886
585.772	129854
585.801	82639
585.845	33437
585.856	28885
585.910	20076
585.917	19166
585.965	18036
585.989	17482
586.019	17140
586.061	16782
586.074	16752
586.128	16925
586.133	16997
586.183	17817
586.205	17580
586.237	17514
586.277	18077
586.292	18134
586.346	17864
586.349	17884
586.401	18652
586.421	18762
586.455	19154
586.493	20214
586.509	20920
586.564	22080
586.565	22177
586.618	28879
586.637	29503
586.672	26979
586.709	24378
586.727	23534
586.781	23083
586.781	23091
586.835	22632
586.853	22310
586.889	21837
586.925	21706
586.944	21795
586.996	22521
586.998	22549
587.052	23166
587.068	23482
587.106	24364
587.140	24585
587.161	24804
587.212	25440
587.215	25474
587.269	26582
587.284	26813
587.323	27057
587.356	27424
587.377	28067
587.427	29873
587.431	30004
587.485	30732
587.499	31069
587.539	32120
587.571	33105
587.593	33581
587.643	34325
587.648	34524
587.702	37486
587.715	38158
587.755	39964
587.786	41296
587.810	42094
587.858	43631
587.864	43985
587.917	48315
587.930	49188
587.971	52641
588.001	55412
588.025	57012
588.073	60070
588.079	60686
588.133	68088
588.145	69301
588.187	74626
588.217	79187
588.241	83117
588.288	91924
588.295	93338
588.348	105472
588.360	108381
588.402	121587
588.431	131471
588.456	141111
588.503	161147
588.510	164680
588.564	196589
588.575	203757
588.617	240324
588.646	267452
588.671	299922
588.718	365330
588.725	379755
588.778	495683
588.789	520040
588.832	636926
588.861	713685
588.886	734610
588.932	744206
588.939	735564
588.993	644162
589.004	635483
589.047	731689
589.075	771011
589.100	716752
589.147	601398
589.154	584725
589.207	457643
589.218	432879
589.261	394745
589.290	373080
589.314	378873
589.361	397419
589.368	408206
589.421	502733
589.433	524185
589.475	633800
589.504	704584
589.528	708066
589.576	681839
589.582	681038
589.635	688246
589.647	682778
589.689	573241
589.718	490806
589.742	422152
589.790	290299
589.795	282513
589.849	213362
589.861	198144
589.902	171088
589.932	151302
589.955	139700
590.004	116287
590.009	114903
590.062	100730
590.075	97361
590.115	88710
590.146	81992
590.168	78843
590.218	71891
590.222	71478
590.275	66244
590.289	64801
590.328	61459
590.360	58863
590.381	57520
590.431	54277
590.435	54145
590.488	51266
590.503	50508
590.541	48969
590.574	47583
590.594	46969
590.645	45180
590.647	45130
590.700	42861
590.716	42169
590.753	41355
590.787	40520
590.806	40017
590.859	38717
590.859	38736
590.912	37734
590.930	37385
590.965	37002
591.001	36472
591.018	36360
591.071	36112
591.072	36072
591.124	35259
591.143	34986
591.177	34433
591.214	33871
591.230	33903
591.283	33859
591.285	33816
591.336	33456
591.356	33303
591.389	32966
591.427	32416
591.442	32213
591.495	31290
591.498	31193
591.547	30675
591.569	30415
591.600	30232
591.640	29736
591.653	29858
591.706	30414
591.711	30434
591.759	30032
591.782	29751
591.811	30478
591.853	31485
591.864	31429
591.917	30836
591.924	30714
591.969	30039
591.995	29576
592.022	29537
592.066	29372
592.075	29641
592.127	31105
592.137	31319
592.180	32470
592.208	33147
592.233	32048
592.279	29791
592.285	29781
592.338	29333
592.350	29190
592.390	28812
592.421	28446
592.443	28470
592.491	28399
592.495	28451
592.548	28585
592.562	28585
592.600	28107
592.633	27604
592.653	27733
592.704	27820
592.705	27981
592.775	28089
592.846	28746
592.916	28630
592.987	28530
593.058	27861
593.128	27173
593.199	27442
593.270	27308
593.341	27071
593.411	27647
593.482	27519
593.553	27997
593.623	28051
593.694	27974
593.764	28591
593.835	28722
593.906	28204
593.976	27363
594.047	28880
594.117	30920
594.188	31074
594.258	28417
594.329	28365
594.399	29006
594.470	28573
594.540	29171
594.611	29245
594.681	28951
594.751	29594
594.822	30427
594.892	30776
594.963	30711
595.033	31885
595.103	32278
595.174	34102
595.244	36539
595.314	41028
595.384	34391
595.455	32846
595.525	35126
595.595	34880
595.665	35342
595.736	34931
595.806	34957
595.876	36013
595.946	35112
596.016	35506
596.087	37328
596.157	36707
596.227	35934
596.297	38707
596.367	39014
596.437	42445
596.507	45523
596.577	48164
596.647	44106
596.717	42981
596.787	44264
596.857	43442
596.927	44509
596.997	44117
597.067	44396
597.137	45353
597.207	44838
597.277	46097
597.347	44549
597.417	43801
597.487	43123
597.557	43735
597.626	45961
597.696	46209
597.766	48166
597.836	49503
597.906	44373
597.975	40467
598.045	42156
598.115	41874
598.185	44783
598.254	48684
598.324	52150
598.394	52856
598.464	52300
598.533	51241
598.603	46762
598.672	47356
598.742	47211
598.812	47053
598.881	49064
598.951	47481
599.020	48258
599.090	50060
599.159	51770
599.229	48062
599.299	47549
599.368	49508
599.437	48768
599.507	45791
599.576	44367
599.646	44241
599.715	43470
599.785	42900
599.854	42842
599.924	43093
599.993	42628
600.062	42609
600.132	42192
600.201	45574
600.270	51522
600.340	53273
600.409	52516
600.478	52122
600.547	52647
600.617	50766
600.686	42087
600.755	39136
600.824	38181
600.894	36238
600.963	36164
601.032	35710
601.101	35923
601.170	34267
601.239	34457
601.308	34873
601.378	33847
601.447	33047
601.516	33548
601.585	33661
601.654	35531
601.723	35144
601.792	35425
601.861	35571
601.930	38180
601.999	39404
602.068	37260
602.137	37700
602.206	39033
602.275	37497
602.343	40141
602.412	40357
602.481	39026
602.550	38821
602.619	39881
602.688	39849
602.756	39641
602.825	41176
602.894	40538
602.963	42084
603.032	43053
603.100	42048
603.169	42046
603.238	43932
603.307	42002
603.375	42260
603.444	43088
603.513	43937
603.581	43991
603.650	45826
603.719	43375
603.787	44223
603.856	45889
603.924	45902
603.993	49225
604.061	48684
604.130	51512
604.198	51543
604.267	51730
604.335	53789
604.404	51877
604.472	53781
604.541	53721
604.609	55116
604.678	56104
604.746	55529
604.815	57632
604.883	57784
604.951	58452
605.020	57893
605.088	59093
605.156	59392
605.225	60524
605.293	60304
605.361	60879
605.429	60239
605.498	63298
605.566	62937
605.634	66552
605.702	68966
605.771	70858
605.839	70057
605.907	69106
605.975	66977
606.043	65556
606.111	66385
606.180	66157
606.248	64940
606.316	63426
606.384	64872
606.452	66719
606.520	67291
606.588	67427
606.656	67146
606.724	66179
606.792	63111
606.860	57317
606.928	51773
606.996	49338
607.064	48832
607.132	50825
607.200	52706
607.267	54585
607.335	54747
607.403	57320
607.471	54841
607.539	52531
607.607	54873
607.674	48976
607.742	48510
607.810	48185
607.878	48999
607.946	49943
608.013	50951
608.081	51819
608.149	52757
608.216	53598
608.284	56468
608.352	54925
608.419	55044
608.487	58049
608.555	55267
608.622	53788
608.690	57932
608.757	62945
608.825	63252
608.893	63212
608.960	61452
609.028	60614
609.095	61119
609.163	58001
609.230	53939
609.298	48104
609.365	48991
609.432	53731
609.500	57398
609.567	64468
609.635	74142
609.702	79317
609.769	75229
609.837	62676
609.904	52730
609.971	53353
610.039	60304
610.106	75658
610.173	132575
610.241	304586
610.308	254514
610.375	127994
610.442	65377
610.509	57302
610.577	55161
610.644	56229
610.711	55711
610.778	57425
610.845	59422
610.912	62466
610.980	64888
611.047	65057
611.114	64231
611.181	62355
611.248	60955
611.315	64130
611.382	66147
611.449	66978
611.516	70418
611.583	68110
611.650	69422
611.717	70706
611.784	71442
611.851	73205
611.918	79033
611.984	89324
612.051	121297
612.118	225796
612.185	533313
612.252	409300
612.319	112223
612.386	89417
612.452	82609
612.519	80135
612.586	81205
612.653	79311
612.719	81126
612.786	78473
612.853	72334
612.919	71209
612.986	72008
613.053	67731
613.120	64220
613.186	61186
613.253	63882
613.319	63175
613.386	62095
613.453	64268
613.519	64782
613.586	65711
613.652	71985
613.719	68323
613.785	68641
613.852	64846
613.918	63543
613.985	64700
614.051	68110
614.118	68108
614.184	67039
614.250	63826
614.317	65583
614.383	63709
614.449	65701
614.516	65393
614.582	65161
614.648	64716
614.715	63251
614.781	63713
614.847	64489
614.914	63352
614.980	61065
615.046	61486
615.112	62843
615.179	64579
615.245	65278
615.311	66341
615.377	74644
615.443	79237
615.509	69046
615.575	68609
615.642	68307
615.708	69038
615.774	73773
615.840	77040
615.906	83539
615.972	101762
616.038	157962
616.104	287853
616.170	616238
616.236	619906
616.302	159233
616.368	113279
616.434	86194
616.500	79643
616.565	84443
616.631	102480
616.697	87156
616.763	86570
616.829	117891
616.895	204265
616.961	206631
617.026	97741
617.092	70594
617.158	68946
617.224	66714
617.289	62503
617.355	59255
617.421	58967
617.487	60326
617.552	57428
617.618	55360
617.684	55538
617.749	58406
617.815	55117
617.880	53402
617.946	53612
618.012	55242
618.077	55988
618.143	54253
618.208	54863
618.274	58111
618.339	59175
618.405	50381
618.470	49558
618.536	50605
618.601	50703
618.667	48395
618.732	45659
618.798	45201
618.863	44335
618.928	43577
618.994	45275
619.059	45931
619.124	49840
619.190	47616
619.255	43467
619.320	44478
619.386	44830
619.451	43321
619.516	42676
619.581	43177
619.647	45035
619.712	44263
619.777	43728
619.842	44332
619.907	44711
619.972	44462
620.038	45380
620.103	42645
620.168	42026
620.233	43950
620.298	43454
620.363	44264
620.428	45758
620.493	45530
620.558	47225
620.623	46607
620.688	46488
620.753	46112
620.818	47896
620.883	47476
620.948	47612
621.013	47445
621.078	46534
621.143	46181
621.207	48739
621.272	47167
621.337	46476
621.402	46654
621.467	49800
621.532	49782
621.596	48282
621.661	46050
621.726	44515
621.791	45620
621.855	45636
621.920	46316
621.985	46619
622.049	48273
622.114	47972
622.179	48487
622.243	47693
622.308	49014
622.373	52458
622.437	51301
622.502	48368
622.566	47523
622.631	47406
622.695	48849
622.760	48595
622.824	48843
622.889	48317
622.953	49686
623.018	56136
623.082	56632
623.147	51245
623.211	49772
623.276	49988
623.340	47377
623.404	46913
623.469	46559
623.533	46954
623.597	46044
623.662	45358
623.726	43950
623.790	41191
623.854	40102
623.919	41940
623.983	40799
624.047	42133
624.111	41541
624.176	42858
624.240	43391
624.304	47180
624.368	42481
624.432	42403
624.496	42991
624.560	45359
624.625	46498
624.689	44898
624.753	45952
624.817	45115
624.881	43267
624.945	40551
625.009	39311
625.073	40131
625.137	40808
625.201	44525
625.265	45562
625.329	41186
625.393	42336
625.456	42779
625.520	42079
625.584	43601
625.648	46700
625.712	52367
625.776	70697
625.839	78484
625.903	49933
625.967	36554
626.031	44245
626.095	57641
626.158	42877
626.222	33085
626.286	30555
626.349	29271
626.413	27510
626.477	29924
626.540	28577
626.604	28266
626.668	28675
626.731	26762
626.795	28021
626.858	27657
626.922	27295
626.986	27501
627.049	25655
627.113	26950
627.176	26600
627.240	25946
627.303	26044
627.366	26293
627.430	26927
627.493	25590
627.557	25159
627.620	27430
627.684	27004
627.747	27390
627.810	24395
627.874	24181
627.937	21634
628.000	24296
628.064	23737
628.127	20643
628.190	20619
628.253	20430
628.317	19227
628.380	19194
628.443	19496
628.506	19729
628.569	17827
628.632	17989
628.696	17234
628.759	17109
628.822	16873
628.885	16364
628.948	15946
629.011	16401
629.074	15898
629.137	15991
629.200	15439
629.263	17679
629.326	15166
629.389	15443
629.452	15544
629.515	15505
629.578	14815
629.641	16193
629.704	15178
629.767	15643
629.830	15346
629.892	14586
629.955	14127
630.018	16269
630.081	15201
630.144	17436
630.207	14210
630.269	15740
630.332	14463
630.395	14792
630.458	14378
630.520	13169
630.583	14172
630.646	13237
630.708	13669
630.771	13370
630.834	14803
630.896	13349
630.959	12800
631.021	12727
631.084	13819
631.146	13512
631.209	14609
631.272	12910
631.334	12706
631.397	12979
631.459	12741
631.522	13275
631.584	14953
631.646	15429
631.709	14449
631.771	17802
631.834	14940
631.896	15052
631.958	11850
632.021	13929
632.083	11812
632.145	12962
632.208	13120
632.270	14096
632.332	12174
632.395	11534
632.457	12346
632.519	12312
632.581	12600
632.643	11357
632.706	12206
632.768	11568
632.830	12557
632.892	11705
632.954	12202
633.016	13016
633.078	11508
633.141	12411
633.203	10579
633.265	12141
633.327	11806
633.389	11185
633.451	12802
633.513	13470
633.575	12911
633.637	13362
633.698	12548
633.760	13320
633.822	13222
633.884	12682
633.946	12090
634.008	14239
634.070	12624
634.132	12674
634.193	13656
634.255	14637
634.317	14218
634.379	14827
634.441	13789
634.502	13519
634.564	12531
634.626	11371
634.687	11835
634.749	12292
634.811	10943
634.873	10392
634.934	10178
634.996	11940
635.057	10674
635.119	10607
635.181	11346
635.242	11620
635.304	10480
635.365	13111
635.427	10922
635.488	11200
635.550	10493
635.611	11989
635.673	9378
635.734	13337
635.796	11720
635.857	13229
635.918	12052
635.980	14134
636.041	13358
636.102	14459
636.164	15728
636.225	15185
636.286	11718
636.348	13051
636.409	11130
636.470	10547
636.531	10836
636.593	11184
636.654	11659
636.715	10245
636.776	10352
636.838	9136
636.899	10606
636.960	9845
637.021	9804
637.082	9182
637.143	9517
637.204	8959
637.265	8853
637.326	10324
637.387	9901
637.448	9039
637.509	8714
637.570	8833
637.631	9423
637.692	8915
637.753	7697
637.814	9285
637.875	8869
637.936	9602
637.997	8102
638.058	10265
638.119	9264
638.179	8499
638.240	8687
638.301	9229
638.362	8162
638.423	8924
638.483	9108
638.544	6871
638.605	9523
638.666	7805
638.726	8650
638.787	9424
638.848	7812
638.908	7912
638.969	8366
639.030	7993
639.090	7446
639.151	8166
639.211	8200
639.272	10323
639.332	13143
639.393	10484
639.453	7808
639.514	8449
639.574	8132
639.635	7033
639.695	8573
639.756	6435
639.816	8447
639.877	8073
639.937	11291
639.997	13333
640.058	8519
640.118	7737
640.178	7931
640.239	7314
640.299	7426
640.359	7503
640.420	7948
640.480	8552
640.540	8095
640.600	8463
640.661	8593
640.721	7846
640.781	10177
640.841	7968
640.901	8744
640.961	7543
641.021	7086
641.082	7779
641.142	9136
641.202	9524
641.262	6360
641.322	7918
641.382	6862
641.442	7678
641.502	6426
641.562	7763
641.622	6641
641.682	6742
641.742	7500
641.802	8434
641.861	7778
641.921	7617
641.981	7583
642.041	8049
642.101	8520
642.161	6281
642.221	5832
642.280	6968
642.340	6794
642.400	5621
642.460	7721
642.519	6062
642.579	7057
642.639	7562
642.698	4754
642.758	8686
642.818	7156
642.877	6845
642.937	7269
642.997	8436
643.056	10433
643.116	6533
643.175	8290
643.235	6823
643.294	6769
643.354	7467
643.414	7987
643.473	9052
643.532	9851
643.592	13586
643.651	20545
643.711	35639
643.770	67275
643.830	154842
643.889	382264
643.948	120153
644.008	19448
644.067	11945
644.126	8742
644.186	8227
644.245	7983
644.304	6420
644.363	8750
644.423	5988
644.482	7200
644.541	7398
644.600	6072
644.659	8373
644.719	8924
644.778	13493
644.837	20722
644.896	40767
644.955	105159
645.014	45826
645.073	10349
645.132	7671
645.191	7255
645.250	7060
645.309	7740
645.368	8255
645.427	9507
645.486	11827
645.545	24050
645.604	9788
645.663	7047
645.722	6285
645.781	7446
645.840	7908
645.898	9492
645.957	13709
646.016	18296
646.075	33581
646.134	64103
646.192	160185
646.251	297194
646.310	54002
646.369	13738
646.427	11234
646.486	7899
646.545	7221
646.603	7937
646.662	6580
646.721	6155
646.779	5565
646.838	5315
646.896	7917
646.955	8300
647.014	14185
647.072	22762
647.131	63001
647.189	40661
647.248	6909
647.306	6586
647.365	6457
647.423	3956
647.481	6589
647.540	4023
647.598	5839
647.657	4577
647.715	5838
647.773	3899
647.832	5059
647.890	3927
647.948	4253
648.007	4914
648.065	2938
648.123	4211
648.181	4986
648.240	4971
648.298	4026
648.356	4057
648.414	4173
648.472	4686
648.531	4749
648.589	3223
648.647	4734
648.705	3645
648.763	4363
648.821	4142
648.879	4621
648.937	4918
648.995	5919
649.053	6550
649.111	9696
649.169	15885
649.227	27362
649.285	52895
649.343	164245
649.401	103392
649.459	18490
649.516	12551
649.574	5971
649.632	6919
649.690	7784
649.748	8316
649.806	8532
649.863	17712
649.921	42630
649.979	37006
650.037	6576
650.094	3334
650.152	4882
650.210	3615
650.268	4325
650.325	4365
650.383	4590
650.440	2858
650.498	3818
650.556	3831
650.613	2998
650.671	4000
650.728	3945
650.786	3960
650.843	4533
650.901	2863
650.958	4011
651.016	3049
651.073	4023
651.131	3802
651.188	2456
651.246	2894
651.303	2188
651.360	3678
651.418	2648
651.475	3177
651.532	1773
651.590	3151
651.647	2527
651.704	3293
651.762	3011
651.819	2823
651.876	2450
651.933	2906
651.990	2930
652.048	1416
652.105	2485
652.162	2952
652.219	2245
652.276	2650
652.333	2632
652.390	1517
652.448	3135
652.505	2613
652.562	2422
652.619	2382
652.676	2994
652.733	2487
652.790	2521
652.847	1281
652.904	3054
652.961	1354
653.017	1588
653.074	3382
653.131	2563
653.188	1617
653.245	2763
653.302	2390
653.359	1613
653.415	2864
653.472	1783
653.529	2849
653.586	2230
653.642	2024
653.699	2667
653.756	1403
653.813	1401
653.869	3011
653.926	1865
653.983	1385
654.039	2627
654.096	2237
654.152	3255
654.209	1397
654.266	2793
654.322	1752
654.379	3399
654.435	2279
654.492	3401
654.548	3083
654.605	3700
654.661	4097
654.717	2361
654.774	3368
654.830	2751
654.887	2159
654.943	2202
655.000	3685
655.056	2099
655.112	2340
655.168	1476
655.225	3094
655.281	2524
655.337	2436
655.394	4726
655.450	3398
655.506	3252
655.562	4121
655.618	4780
655.675	1286
655.731	2725
655.787	1510
655.843	2961
655.899	1328
655.955	2214
656.011	3006
656.067	1601
656.123	2586
656.179	2092
656.235	3271
656.291	1286
656.347	2972
656.403	1205
656.459	2445
656.515	2024
656.571	2350
656.627	1590
656.683	2308
656.739	3134
656.795	1967
656.850	1900
656.906	3392
656.962	2468
657.018	1494
657.074	2131
657.129	2785
657.185	3958
657.241	7331
657.297	5169
657.352	2994
657.408	1746
657.464	2916
657.519	1842
657.575	1096
657.630	1260
657.686	2929
657.742	1864
657.797	1267
657.853	1945
657.908	3022
657.964	1832
658.019	1591
658.075	2636
658.130	2300
658.186	1799
658.241	1956
658.297	1369
658.352	1415
658.407	2034
658.463	1428
658.518	2640
658.573	2236
658.629	1783
658.684	1949
658.739	2120
658.795	1272
658.850	2256
658.905	1227
658.960	1636
659.016	607
659.071	2034
659.126	2152
659.181	1801
659.236	3364
659.291	4100
659.346	1998
659.401	1782
659.457	2776
659.512	1459
659.567	2718
659.622	1768
659.677	1471
659.732	1257
659.787	2270
659.842	2017
659.897	2579
659.952	2588
660.007	2355
660.061	2163
660.116	745
660.171	964
660.226	2279
660.281	2997
660.336	1986
660.391	2538
660.445	732
660.500	1690
660.555	1985
660.610	1486
660.664	2786
660.719	1869
660.774	2454
660.828	1886
660.883	1658
660.938	2169
660.992	712
661.047	3278
661.101	1722
661.156	1698
661.211	1282
661.265	1108
661.320	2343
661.374	977
661.429	686
661.483	1818
661.538	1700
661.592	1555
661.647	1145
661.701	2962
661.755	1709
661.810	2474
661.864	500
661.919	1338
661.973	1658
662.027	1658
662.081	589
662.136	1571
662.190	1258
662.244	1954
662.299	1843
662.353	2292
662.407	1388
662.461	2170
662.515	1585
662.569	885
662.624	2928
662.678	1233
662.732	1637
662.786	897
662.840	1359
662.894	1828
662.948	418
663.002	1713
663.056	1644
663.110	735
663.164	1344
663.218	1506
663.272	2061
663.326	2281
663.380	1236
663.434	1165
663.488	1584
663.542	2184
663.595	1668
663.649	1299
663.703	2041
663.757	1015
663.811	1292
663.864	1510
663.918	1608
663.972	901
664.026	1802
664.079	985
664.133	1991
664.187	1198
664.240	1154
664.294	1735
664.348	2163
664.401	1546
664.455	1928
664.508	1181
664.562	2008
664.615	1672
664.669	1413
664.722	968
664.776	939
664.829	1159
664.883	1153
664.936	1139
664.990	1903
665.043	1459
665.097	829
665.150	2553
665.203	1954
665.257	1515
665.310	1522
665.363	1322
665.417	1917
665.470	2428
665.523	1965
665.576	1568
665.630	1969
665.683	1412
665.736	1164
665.789	2322
665.842	1198
665.895	2412
665.949	1843
666.002	2010
666.055	1267
666.108	2392
666.161	2018
666.214	2780
666.267	1746
666.320	2090
666.373	1683
666.426	1310
666.479	755
666.532	1806
666.585	1774
666.638	3116
666.691	1209
666.744	2069
666.796	1113
666.849	1279
666.902	1786
666.955	1623
667.008	1644
667.060	1176
667.113	1465
667.166	1622
667.219	1941
667.271	1809
667.324	1760
667.377	1479
667.430	626
667.482	1594
667.535	1769
667.587	1858
667.640	2315
667.693	2407
667.745	3034
667.798	4093
667.850	1629
667.903	1497
667.955	1361
668.008	1058
668.060	1969
668.113	1314
668.165	1933
668.218	1394
668.270	1484
668.322	1870
668.375	1677
668.427	2160
668.479	1002
668.532	1952
668.584	1521
668.636	1974
668.689	1372
668.741	1474
668.793	2141
668.845	1768
668.898	2274
668.950	1112
669.002	2354
669.054	1393
669.106	1710
669.158	1307
669.211	1718
669.263	1799
669.315	1507
669.367	2281
669.419	750
669.471	2917
669.523	2175
669.575	3452
669.627	2118
669.679	1187
669.731	2225
669.783	1716
669.835	2212
669.886	2361
669.938	2695
669.990	2660
670.042	1542
670.094	1689
670.146	2010
670.197	3507
670.249	3226
670.301	4077
670.353	5559
670.404	8441
670.456	12136
670.508	18115
670.560	30835
670.611	52808
670.663	89528
670.715	191458
670.766	307991
670.818	142546
670.869	30147
670.921	13796
670.972	8695
671.024	6352
671.075	4679
671.127	4614
671.178	3191
671.230	3186
671.281	2634
671.333	2307
671.384	2243
671.436	3237
671.487	3564
671.538	4377
671.590	5701
671.641	8800
671.692	14688
671.744	31700
671.795	21763
671.846	6857
671.897	3353
671.949	2782
672.000	1687
672.051	2085
672.102	1825
672.153	1941
672.204	1079
672.256	1697
672.307	1427
672.358	1623
672.409	1924
672.460	1964
672.511	1567
672.562	911
672.613	579
672.664	1746
672.715	1702
672.766	1372
672.817	1955
672.868	1247
672.919	929
672.970	829
673.021	1691
673.071	751
673.122	594
673.173	1420
673.224	681
673.275	1420
673.326	1292
673.376	1164
673.427	692
673.478	568
673.528	1213
673.579	1293
673.630	778
673.680	2153
673.731	1121
673.782	1039
673.832	945
673.883	1291
673.934	215
673.984	869
674.035	1359
674.085	1314
674.136	2034
674.186	628
674.237	947
674.287	2065
674.338	1650
674.388	818
674.438	1562
674.489	1771
674.539	2008
674.589	744
674.640	1941
674.690	1507
674.740	1252
674.791	1996
674.841	698
674.891	1663
674.942	836
674.992	1332
675.042	914
675.092	1212
675.142	-4
675.193	1349
675.243	1061
675.293	1163
675.343	735
675.393	1233
675.443	1354
675.493	1549
675.543	307
675.593	1399
675.643	974
675.693	504
675.743	1754
675.793	535
675.843	992
675.893	-31
675.943	805
675.993	953
676.043	428
676.093	1554
676.142	443
676.192	926
676.242	656
676.292	861
676.341	757
676.391	619
676.441	1142
676.491	938
676.540	397
676.590	1566
676.640	932
676.689	195
676.739	-313
676.789	811
676.838	145
676.888	89
676.937	962
676.987	741
677.037	200
677.086	-91
677.136	-661
677.185	689
677.235	96
677.284	204
677.333	-158
677.383	598
677.432	845
677.482	755
677.531	343
677.580	669
677.630	-80
677.679	158
677.728	462
677.778	426
677.827	169
677.876	621
677.925	340
677.975	662
678.024	535
678.073	224
678.122	505
678.171	249
678.220	284
678.269	383
678.319	121
678.368	779
678.417	727
678.466	700
678.515	1807
678.564	-13
678.613	167
678.662	132
678.711	1243
678.760	633
678.809	-49
678.857	226
678.906	649
678.955	423
679.004	452
679.053	511
679.102	1000
679.151	264
679.199	427
679.248	118
679.297	14
679.346	686
679.394	258
679.443	653
679.492	928
679.540	469
679.589	392
679.638	-16
679.686	211
679.735	877
679.784	348
679.832	766
679.881	-163
679.929	291
679.978	734
680.026	-558
680.075	-144
680.123	-106
680.172	363
680.220	376
680.268	-88
680.317	-236
680.365	560
680.414	-121
680.462	-28
680.510	783
680.559	-418
680.607	147
680.655	-727
680.703	332
680.752	70
680.800	829
680.848	110
680.896	631
680.945	314
680.993	-141
681.041	122
681.089	501
681.137	593
681.185	290
681.233	-313
681.258	77
681.281	376
681.329	272
681.377	347
681.380	430
681.425	609
681.473	825
681.502	894
681.521	822
681.569	747
681.617	1228
681.624	1368
681.665	1757
681.713	1502
681.745	1597
681.761	1534
681.809	1630
681.857	1782
681.867	1796
681.904	1589
681.952	2662
681.989	2434
682.000	2275
682.048	2907
682.096	2379
682.111	2340
682.143	2084
682.191	3163
682.233	3145
682.239	3067
682.286	3027
682.334	3125
682.354	3145
682.382	3042
682.430	3435
682.476	4000
682.477	3954
682.525	3997
682.572	4007
682.598	3924
682.620	3735
682.667	4148
682.715	4420
682.720	4502
682.763	4599
682.810	4299
682.841	4490
682.857	4515
682.905	4852
682.952	4970
682.963	5145
683.000	5578
683.047	5518
683.085	5960
683.095	6008
683.142	5322
683.190	6257
683.206	6107
683.237	5674
683.284	6547
683.328	5675
683.332	5541
683.379	6740
683.426	6134
683.449	6386
683.473	6620
683.521	6389
683.568	6786
683.571	6843
683.615	6938
683.662	7254
683.693	7516
683.709	7574
683.757	7957
683.804	7461
683.814	7634
683.851	8048
683.898	8518
683.936	8427
683.945	8342
683.992	8180
684.039	7923
684.057	8268
684.086	8746
684.133	9095
684.179	9230
684.180	9194
684.227	9338
684.274	8890
684.300	9236
684.321	9435
684.368	8768
684.415	9513
684.422	9619
684.462	9964
684.509	9094
684.543	9252
684.556	9262
684.603	9690
684.649	9877
684.665	9981
684.696	10210
684.743	10492
684.786	10699
684.790	10683
684.837	10720
684.883	11641
684.908	11434
684.930	11195
684.977	12005
685.023	12007
685.029	12065
685.070	11851
685.117	11226
685.150	11820
685.164	12140
685.210	12218
685.257	12810
685.272	12937
685.303	13016
685.350	12764
685.393	13037
685.396	13035
685.443	13138
685.490	13666
685.514	13696
685.536	13610
685.583	13966
685.629	13614
685.636	13614
685.675	13427
685.722	13958
685.757	13751
685.768	13702
685.815	14288
685.861	14290
685.878	14401
685.908	14495
685.954	14810
686.000	15182
686.000	15176
686.047	15024
686.093	15389
686.121	15784
686.139	15908
686.185	16067
686.232	15652
686.242	15696
686.278	15611
686.324	15629
686.363	15570
686.370	15578
686.416	15485
686.463	15489
686.484	15567
686.509	15590
686.555	15304
686.601	15570
686.606	15578
686.647	15580
686.693	15724
686.727	15715
686.739	15742
686.785	16080
686.831	16061
686.848	15996
686.877	15841
686.923	15898
686.969	16310
686.969	16310
687.015	16377
687.061	16940
687.090	17365
687.107	17525
687.153	17310
687.199	17356
687.211	17316
687.245	17056
687.291	17174
687.332	16799
687.336	16806
687.382	17697
687.428	17349
687.453	17588
687.474	17545
687.520	17742
687.565	17131
687.574	17097
687.611	17388
687.657	18108
687.695	17867
687.702	17896
687.748	18989
687.794	20201
687.816	20428
687.839	20010
687.885	18885
687.931	18006
687.937	18006
687.976	18598
688.022	18523
688.058	18585
688.067	18665
688.113	18919
688.158	19017
688.179	19472
688.204	19799
688.249	19409
688.295	19089
688.300	19129
688.340	20022
688.386	20402
688.421	20574
688.431	20520
688.477	19977
688.522	20293
688.542	20365
688.567	20598
688.613	20367
688.658	20275
688.663	20263
688.703	20227
688.749	20747
688.784	20575
688.794	20564
688.839	20285
688.884	20684
688.905	20531
688.930	20273
688.975	20418
689.020	20296
689.026	20235
689.065	20501
689.110	21353
689.146	21814
689.155	21839
689.201	21434
689.246	21308
689.267	21191
689.291	21302
689.336	21426
689.381	21883
689.388	21858
689.426	21696
689.471	22027
689.509	21453
689.516	21354
689.561	21533
689.606	21616
689.630	21535
689.651	21615
689.696	21545
689.741	21553
689.750	21613
689.785	22215
689.830	22245
689.871	22746
689.875	22754
689.920	22225
689.965	22044
689.992	21844
690.010	21993
690.054	21552
690.099	21991
690.112	21983
690.144	22082
690.189	22385
690.233	22406
690.233	22437
690.278	22205
690.323	22257
690.354	22216
690.367	22348
690.412	22818
690.457	22995
690.474	23052
690.501	22905
690.546	22290
690.590	22342
690.595	22249
690.635	22066
690.680	22212
690.716	21953
690.724	21984
690.769	22677
690.813	23243
690.836	23309
690.857	23449
690.902	23587
690.946	23700
690.957	23874
690.991	25026
691.035	25618
691.077	26328
691.080	26394
691.124	26936
691.168	27595
691.198	27592
691.213	27236
691.257	27144
691.301	26168
691.318	25910
691.346	25848
691.390	24995
691.434	24618
691.439	24560
691.478	24848
691.522	24858
691.559	24649
691.567	24772
691.611	25539
691.655	26256
691.680	26541
691.699	26486
691.743	26552
691.787	26380
691.800	26194
691.831	26430
691.875	27238
691.919	27841
691.921	27808
691.964	27607
692.008	27397
692.041	27040
692.052	27077
692.096	27127
692.139	27051
692.162	27139
692.183	27329
692.227	27567
692.271	27489
692.282	27407
692.315	27132
692.359	27035
692.402	26758
692.403	26812
692.447	26720
692.490	26458
692.523	27044
692.534	27438
692.578	27671
692.622	28232
692.643	28241
692.666	27911
692.709	27881
692.753	27461
692.763	27334
692.797	27525
692.840	27686
692.884	27592
692.884	27648
692.928	27504
692.971	27447
693.004	27573
693.015	27718
693.059	27538
693.102	27705
693.124	27666
693.146	27728
693.189	27616
693.233	27802
693.245	27768
693.276	28200
693.320	28848
693.363	29204
693.365	29153
693.407	28906
693.450	28687
693.485	28632
693.493	28710
693.537	28602
693.580	28288
693.605	28249
693.624	28724
693.667	29528
693.710	30235
693.725	30475
693.753	32148
693.797	34732
693.840	37031
693.845	37254
693.883	37235
693.926	36900
693.966	36961
693.970	36836
694.013	34435
694.056	32112
694.086	30087
694.099	30046
694.142	30212
694.185	30284
694.206	30203
694.229	30051
694.272	29677
694.315	29358
694.326	29153
694.358	29549
694.401	30363
694.444	30928
694.446	30893
694.487	31398
694.530	31407
694.566	31698
694.573	31649
694.616	30598
694.659	29776
694.686	29115
694.702	29111
694.745	29053
694.787	28619
694.806	28526
694.830	28780
694.873	28987
694.916	29263
694.926	29217
694.959	29477
695.002	29934
695.044	30002
695.046	29948
695.087	30244
695.130	30378
695.166	30372
695.172	30466
695.215	30670
695.258	30722
695.286	30709
695.301	30806
695.343	30893
695.386	31129
695.406	31051
695.428	30961
695.471	30480
695.514	30681
695.526	30505
695.556	31033
695.599	31926
695.641	32701
695.646	32688
695.684	32185
695.726	31749
695.766	31314
695.769	31413
695.811	31587
695.854	31655
695.886	31717
695.896	31789
695.938	31792
695.981	31601
696.005	31584
696.023	31727
696.065	31747
696.108	31713
696.125	31646
696.150	32076
696.192	32575
696.235	33082
696.245	33159
696.277	33234
696.319	33129
696.361	33101
696.365	32997
696.404	32989
696.446	33167
696.485	33023
696.488	33107
696.530	33122
696.572	33168
696.604	33177
696.614	33213
696.656	32960
696.698	32665
696.724	32469
696.740	32606
696.783	32589
696.825	32676
696.844	32617
696.867	32880
696.909	33245
696.951	33464
696.964	33483
696.992	33526
697.034	33506
697.076	33386
697.083	33281
697.118	33773
697.160	34344
697.202	34826
697.203	34746
697.244	34294
697.286	33923
697.323	33453
697.327	33526
697.369	33277
697.411	33159
697.442	32946
697.453	33142
697.494	33620
697.536	34028
697.562	34221
697.578	34356
697.620	34426
697.661	34545
697.682	34517
697.703	34803
697.744	35109
697.786	35497
697.801	35526
697.828	35805
697.869	36101
697.911	36319
697.921	36311
697.952	35987
697.994	35312
698.035	34697
698.040	34528
698.077	34586
698.118	34540
698.160	34444
698.160	34350
698.201	34771
698.243	35015
698.279	35193
698.284	35288
698.325	35262
698.367	35259
698.399	35123
698.408	35308
698.449	35753
698.491	36186
698.518	36374
698.532	36488
698.573	36517
698.614	36576
698.638	36501
698.656	36594
698.697	36569
698.738	36565
698.757	36450
698.779	36717
698.820	37047
698.862	37376
698.877	37397
698.903	37506
698.944	37512
698.985	37512
698.996	37413
699.026	37352
699.067	37121
699.116	36748
699.235	37773
699.354	36426
699.474	35955
699.593	36007
699.713	37702
699.832	35498
699.951	36346
700.070	36376
700.190	35480
700.309	34668
700.428	34525
700.547	34512
700.667	34407
700.786	34769
700.905	33439
701.024	33473
701.143	33460
701.262	33061
701.381	32399
701.500	34177
701.619	35002
701.738	33573
701.857	32375
701.976	33044
702.095	31674
702.214	33973
702.333	33785
702.452	32578
702.571	31328
702.690	31923
702.809	32767
702.928	31087
703.047	31484
703.165	31237
703.284	30444
703.403	31295
703.522	31284
703.640	31793
703.759	31760
703.878	34113
703.997	31119
704.115	30210
704.234	29354
704.353	29471
704.471	28949
704.590	28939
704.708	28248
704.827	29557
704.946	28936
705.064	29329
705.183	28974
705.301	31177
705.420	38948
705.538	39200
705.656	33482
705.775	31725
705.893	34436
706.012	37974
706.130	34510
706.249	34548
706.367	33304
706.485	33672
706.604	33681
706.722	33235
706.840	35506
706.958	36793
707.077	34106
707.195	32426
707.313	31874
707.431	30679
707.549	31660
707.668	30232
707.786	32292
707.904	30984
708.022	30772
708.140	29681
708.258	30248
708.376	30674
708.494	29633
708.612	31321
708.730	37996
708.848	40051
708.966	36001
709.084	35129
709.202	33968
709.320	35282
709.438	33805
709.556	35005
709.674	33648
709.791	34925
709.909	32260
710.027	33506
710.145	32433
710.263	32695
710.380	32268
710.498	31279
710.616	32663
710.733	30890
710.851	31113
710.969	32551
711.086	32083
711.204	31106
711.322	30973
711.439	30607
711.557	30917
711.674	29572
711.792	30082
711.909	29908
712.027	28459
712.144	29946
712.262	30185
712.379	30747
712.497	38718
712.614	42669
712.732	36841
712.849	34032
712.966	34371
713.084	36923
713.201	36277
713.318	35281
713.436	34489
713.553	34503
713.670	33776
713.787	35160
713.905	36141
714.022	34111
714.139	33552
714.256	35354
714.373	38240
714.490	47182
714.608	72300
714.725	236311
714.842	388768
714.959	56843
715.076	35679
715.193	32573
715.310	32791
715.427	30493
715.544	30233
715.661	30545
715.778	29726
715.895	32493
716.011	31451
716.128	30317
716.245	29588
716.362	30562
716.479	31749
716.596	29060
716.713	29131
716.829	27702
716.946	28900
717.063	26601
717.180	27899
717.296	27432
717.413	27661
717.530	28284
717.646	27645
717.763	27500
717.880	26833
717.996	24941
718.113	26605
718.229	24911
718.346	25896
718.462	25177
718.579	27399
718.695	32802
718.812	30588
718.928	26836
719.045	25855
719.161	25631
719.277	25470
719.394	24860
719.510	24377
719.626	24687
719.743	29566
719.859	29755
719.975	36713
720.092	78066
720.208	216218
720.324	56700
720.440	27178
720.557	26229
720.673	29570
720.789	33395
720.905	45778
721.021	33373
721.137	23031
721.253	23709
721.369	24010
721.486	25042
721.602	27128
721.718	23646
721.834	21901
721.950	23668
722.066	21571
722.181	21676
722.297	22737
722.413	21959
722.529	21779
722.645	21461
722.761	20248
722.877	20870
722.993	20381
723.108	21800
723.224	21455
723.340	21556
723.456	20764
723.571	20206
723.687	18745
723.803	20590
723.918	19928
724.034	20078
724.150	19794
724.265	20469
724.381	24274
724.497	31039
724.612	21020
724.728	19492
724.843	18460
724.959	19697
725.074	23044
725.190	28627
725.305	19874
725.421	19378
725.536	17353
725.651	19141
725.767	18074
725.882	18944
725.997	18733
726.113	18408
726.228	18048
726.343	17927
726.459	17485
726.574	18122
726.689	18281
726.804	17124
726.920	17581
727.035	17578
727.150	17066
727.265	17485
727.380	17452
727.495	17600
727.610	16365
727.725	17362
727.841	16870
727.956	17701
728.071	19533
728.186	16920
728.301	16029
728.416	16910
728.531	16913
728.645	16521
728.760	16245
728.875	17565
728.990	15968
729.105	16415
729.220	16259
729.335	15920
729.449	15976
729.564	14946
729.679	15487
729.794	15769
729.908	15975
730.023	15981
730.138	15451
730.253	16015
730.367	14997
730.482	14675
730.596	15520
730.711	15933
730.826	15939
730.940	16004
731.055	15066
731.169	15239
731.284	14708
731.398	15179
731.513	16552
731.627	15349
731.742	16597
731.856	17381
731.970	15738
732.085	17678
732.199	19204
732.313	22618
732.428	37552
732.542	98339
732.656	91933
732.771	24457
732.885	18819
732.999	17603
733.113	17574
733.227	17809
733.342	17183
733.456	16289
733.570	16028
733.684	16121
733.798	15985
733.912	15372
734.026	15342
734.140	16126
734.254	16043
734.368	17260
734.482	21716
734.596	15356
734.710	15570
734.824	15525
734.938	14803
735.052	16018
735.166	15292
735.280	15598
735.393	14093
735.507	14505
735.621	17124
735.735	18589
735.849	16531
735.962	14858
736.076	15920
736.190	14343
736.303	15579
736.417	17359
736.531	14196
736.644	14838
736.758	13548
736.872	14661
736.985	13603
737.099	13178
737.212	13425
737.326	14076
737.439	13298
737.553	13971
737.666	14062
737.780	13200
737.893	12812
738.007	12906
738.120	13413
738.233	13357
738.347	13921
738.460	12989
738.573	13462
738.687	13647
738.800	13706
738.913	15104
739.026	13468
739.140	13058
739.253	12258
739.366	12760
739.479	11726
739.592	12993
739.705	12481
739.818	13192
739.932	11891
740.045	13073
740.158	12733
740.271	11859
740.384	12468
740.497	12233
740.610	12632
740.723	11250
740.836	12554
740.949	12039
741.062	13288
741.174	12607
741.287	12030
741.400	12679
741.513	11888
741.626	12609
741.739	11981
741.851	11287
741.964	11773
742.077	11426
742.189	11456
742.302	11753
742.415	11917
742.527	11049
742.640	11172
742.753	12031
742.865	11084
742.978	10563
743.090	11790
743.203	10417
743.316	11002
743.428	11178
743.541	11261
743.653	10852
743.766	11162
743.878	10180
743.990	11666
744.103	11780
744.215	10737
744.327	10546
744.440	11493
744.552	13956
744.664	11742
744.777	11117
744.889	10912
745.001	11110
745.113	10186
745.226	10097
745.338	10242
745.450	10100
745.562	11310
745.674	9662
745.786	10514
745.898	10411
746.010	10849
746.122	10185
746.234	11093
746.347	10206
746.459	9763
746.570	8511
746.682	9954
746.794	11273
746.906	10110
747.018	9678
747.130	11003
747.242	9739
747.354	9927
747.466	10125
747.577	9602
747.689	10062
747.801	9991
747.913	9173
748.024	9884
748.136	9307
748.248	8765
748.359	8738
748.471	8974
748.583	9026
748.694	8841
748.806	9776
748.918	10447
749.029	9345
749.141	10039
749.252	10689
749.364	8864
749.475	11865
749.587	11671
749.698	9056
749.809	9364
749.921	9271
750.032	8978
750.144	8688
750.255	8787
750.366	9250
750.478	8567
750.589	9249
750.700	8697
750.811	10043
750.923	10380
751.034	11962
751.145	15778
751.256	9633
751.367	8558
751.479	9145
751.590	9196
751.701	8733
751.812	8302
751.923	8369
752.034	9825
752.145	8431
752.256	7756
752.367	8065
752.478	8173
752.589	7727
752.700	8227
752.811	7821
752.922	7748
753.032	8405
753.143	9802
753.254	8949
753.365	8672
753.476	8058
753.586	7688
753.697	8470
753.808	8573
753.919	8004
754.029	8088
754.140	8624
754.251	8244
754.361	7876
754.472	8215
754.582	8050
754.693	8356
754.804	8911
754.914	7705
755.025	7530
755.135	7497
755.246	8019
755.356	8030
755.466	8353
755.577	7758
755.687	8068
755.798	7248
755.908	8221
756.018	8174
756.129	7689
756.239	7632
756.349	8095
756.460	7199
756.570	8588
756.680	7759
756.790	8447
756.900	8172
757.011	8103
757.121	7481
757.231	7131
757.341	8084
757.451	7903
757.561	6787
757.671	6961
757.781	7473
757.891	7393
758.001	7350
758.111	7871
758.221	6226
758.331	8000
758.441	7719
758.551	8304
758.661	8330
758.771	7718
758.880	8519
758.990	8181
759.100	7699
759.210	8357
759.320	7833
759.429	7727
759.539	7815
759.649	8074
759.758	8218
759.868	7959
759.978	7923
760.087	8640
760.197	8343
760.307	7757
760.416	7390
760.526	7621
760.635	8054
760.745	7207
760.854	7617
760.964	8205
761.073	8477
761.182	8636
761.292	8246
761.401	8620
761.511	7664
761.620	8533
761.729	8275
761.839	7483
761.948	8183
762.057	8260
762.166	8094
762.276	7715
762.385	8222
762.494	7385
762.603	7253
762.712	7733
762.822	8859
762.931	7961
763.040	7764
763.149	6640
763.258	7693
763.367	7468
763.476	8189
763.585	8692
763.694	8166
763.803	8546
763.912	8817
764.021	8890
764.130	8740
764.238	8706
764.347	7727
764.456	9166
764.565	9354
764.674	8465
764.783	9263
764.891	9302
765.000	9031
765.109	9376
765.217	10339
765.326	10111
765.435	12028
765.543	12948
765.652	13199
765.761	15139
765.869	19268
765.978	25892
766.086	40591
766.195	73414
766.303	166108
766.412	433655
766.520	524193
766.629	204272
766.737	70162
766.846	38541
766.954	26001
767.062	21153
767.171	16808
767.279	14899
767.387	12941
767.496	13042
767.604	11040
767.712	10865
767.820	9863
767.928	9888
768.037	9127
768.145	9638
768.253	9695
768.361	8940
768.469	9845
768.577	9013
768.685	9639
768.793	10397
768.901	9876
769.009	9897
769.117	11466
769.225	11883
769.333	15174
769.441	19436
769.549	31470
769.657	62431
769.765	172893
769.873	435539
769.981	260426
770.088	60669
770.196	27606
770.304	19827
770.412	15575
770.519	13522
770.627	12126
770.735	10716
770.842	9894
770.950	9587
771.058	9646
771.165	9223
771.273	9596
771.380	9303
771.488	9744
771.595	9860
771.703	8664
771.810	9571
771.918	8666
772.025	8428
772.133	9112
772.240	9406
772.348	10276
772.455	9739
772.562	8266
772.670	9248
772.777	10029
772.884	8451
772.991	8884
773.099	8724
773.206	9195
773.313	8460
773.420	8793
773.528	9282
773.635	8984
773.742	9368
773.849	9208
773.956	8991
774.063	7800
774.170	7886
774.277	8899
774.384	7889
774.491	8354
774.598	9313
774.705	7857
774.812	9246
774.919	9447
775.026	8897
775.133	8427
775.239	8624
775.346	7669
775.453	7202
775.560	8397
775.667	8239
775.773	8324
775.880	7356
775.987	7821
776.093	8450
776.200	8923
776.307	7712
776.413	7841
776.520	7435
776.627	8441
776.733	7904
776.840	7569
776.946	9927
777.053	7557
777.159	7457
777.266	6829
777.372	8111
777.478	6896
777.585	8718
777.691	7013
777.798	6298
777.904	8934
778.010	8469
778.117	9191
778.223	7118
778.329	7093
778.435	7615
778.542	7732
778.648	6168
778.754	6368
778.860	6671
778.966	7138
779.072	7704
779.178	7577
779.284	6969
779.391	6962
779.497	6117
779.603	8141
779.708	6591
779.815	8352
779.920	11552
780.026	24481
780.132	10945
780.238	7307
780.344	7359
780.450	7722
780.556	7381
780.661	5941
780.767	7185
780.873	6815
780.979	6712
781.085	6358
781.190	5864
781.296	5973
781.402	6105
781.507	6275
781.613	7452
781.719	6943
781.824	6017
781.930	6825
782.035	6138
782.141	6250
782.246	5852
782.352	6007
782.457	6580
782.563	6250
782.668	6437
782.773	6492
782.879	6315
782.984	6463
783.090	7008
783.195	7527
783.300	8208
783.405	6612
783.511	6916
783.616	6066
783.721	6816
783.826	6346
783.932	6760
784.037	6593
784.142	6223
784.247	6312
784.352	6454
784.457	6646
784.562	6708
784.667	5744
784.772	5469
784.877	4775
784.982	6411
785.087	5853
785.192	6128
785.297	5725
785.402	4913
785.507	5985
785.611	5444
785.716	6025
785.821	5858
785.926	6107
786.031	5811
786.135	6159
786.240	6135
786.345	5108
786.450	6084
786.554	6133
786.659	5770
786.763	5164
786.868	6641
786.973	6355
787.077	5548
787.182	5848
787.286	5360
787.391	5621
787.495	5494
787.600	5359
787.704	5567
787.809	5680
787.913	4678
788.017	5865
788.122	5452
788.226	5334
788.330	5077
788.435	4962
788.539	5607
788.643	4738
788.747	4988
788.852	5181
788.956	5347
789.060	4921
789.164	5501
789.268	5050
789.372	5773
789.476	5596
789.580	4928
789.684	4974
789.788	5277
789.892	4550
789.996	5285
790.100	4887
790.204	5520
790.308	5815
790.412	4957
790.516	4855
790.620	4047
790.724	5141
790.828	5106
790.931	4880
791.035	5765
791.139	5895
791.242	4776
791.346	5864
791.450	5343
791.554	5300
791.657	4581
791.761	5720
791.864	5009
791.968	5352
792.072	5176
792.175	4815
792.279	4574
792.382	4637
792.486	5571
792.589	4403
792.693	5719
792.796	3578
792.899	5311
793.003	4679
793.106	3190
793.209	4258
793.313	4431
793.416	3136
793.519	5127
793.623	6082
793.726	7341
793.829	5305
793.932	4770
794.035	4378
794.138	5630
794.242	5554
794.345	5265
794.448	5579
794.551	5763
794.654	8786
794.757	13365
794.860	7232
794.963	5499
795.066	5050
795.169	4679
795.272	4577
795.375	5283
795.477	4402
795.580	5471
795.683	3633
795.786	4752
795.889	3480
795.991	4666
796.094	4847
796.197	4549
796.300	5126
796.402	3908
796.505	3913
796.608	3386
796.710	4660
796.813	3882
796.915	4030
797.018	4523
797.120	4516
797.223	3602
797.326	4710
797.428	3838
797.530	4135
797.633	3686
797.735	5590
797.838	4541
797.940	5777
798.042	3505
798.145	3932
798.247	4684
798.349	2672
798.452	4354
798.554	3041
798.656	3828
798.758	5045
798.860	3871
798.962	4117
799.065	4334
799.167	3015
799.269	4310
799.371	4345
799.473	4791
799.575	4134
799.677	4197
799.779	4882
799.881	4223
799.983	5369
800.085	4559
800.187	4176
800.289	2616
800.390	3750
800.492	4550
800.594	4664
800.696	3713
800.798	4712
800.899	3133
801.001	3886
801.103	3645
801.205	3740
801.306	4040
801.408	3711
801.509	3954
801.611	3524
801.713	3895
801.814	3773
801.916	3913
802.017	3896
802.119	2466
802.220	2963
802.322	2570
802.423	5230
802.525	3182
802.626	3890
802.727	4813
802.829	3419
802.930	2438
803.031	4311
803.133	3906
803.234	3538
803.335	3586
803.436	3284
803.538	3501
803.639	2917
803.740	4769
803.841	3191
803.942	3979
804.043	4328
804.144	3128
804.245	3472
804.346	2864
804.447	3175
804.548	3651
804.649	5471
804.750	3766
804.851	4257
804.952	2894
805.053	4102
805.154	2641
805.255	3435
805.355	3328
805.456	3519
805.557	3388
805.658	3311
805.758	3280
805.859	3334
805.960	3638
806.061	2711
806.161	2501
806.262	3534
806.362	2906
806.463	3240
806.564	3793
806.664	3628
806.765	3062
806.865	4576
806.966	3866
807.066	3321
807.166	3630
807.267	3967
807.367	2579
807.468	3494
807.568	1923
807.668	3669
807.769	2932
807.869	3708
807.969	3420
808.069	3747
808.170	3464
808.270	3114
808.370	3978
808.470	4063
808.570	2872
808.670	3350
808.770	3648
808.870	2699
808.970	2715
809.070	2702
809.170	3093
809.271	3446
809.370	3053
809.470	3580
809.570	2643
809.670	2895
809.770	2677
809.870	4111
809.970	3349
810.070	3338
810.169	2942
810.269	2134
810.369	3789
810.469	3161
810.568	3332
810.668	2830
810.768	3189
810.867	3207
810.967	3164
811.066	2208
811.166	3430
811.265	3367
811.365	3497
811.464	3314
811.564	3784
811.663	4174
811.763	3302
811.862	3145
811.962	3798
812.061	3035
812.160	3849
812.260	2342
812.359	3816
812.458	5962
812.557	12084
812.657	22556
812.756	9871
812.855	4272
812.954	3257
813.053	4584
813.153	3121
813.252	3904
813.351	4010
813.450	2666
813.549	2948
813.648	3653
813.747	2600
813.846	3806
813.945	4125
814.044	3332
814.143	3413
814.242	3382
814.341	3443
814.439	4093
814.538	4316
814.637	3040
814.736	3699
814.835	4493
814.933	3888
815.032	4121
815.131	3754
815.229	4716
815.328	5476
815.427	5822
815.525	5177
815.624	4502
815.722	4373
815.821	4208
815.919	5135
816.018	5031
816.116	4849
816.215	4847
816.313	5680
816.412	5566
816.510	5456
816.609	7075
816.707	6073
816.805	6512
816.904	6571
817.002	7428
817.100	7953
817.198	8547
817.296	8418
817.395	8675
817.493	11154
817.591	11545
817.689	13710
817.787	17049
817.885	25788
817.983	40440
818.081	74144
818.179	154861
818.277	328446
818.375	367309
818.473	160276
818.571	67222
818.669	41664
818.767	34968
818.865	32946
818.963	37413
819.061	47725
819.158	73038
819.256	130356
819.354	248509
819.452	436909
819.549	397497
819.647	197464
819.745	93064
819.842	54628
819.940	37396
820.038	26988
820.135	20843
820.233	17792
820.330	14770
820.428	11901
820.525	11560
820.623	10440
820.720	8945
820.818	9846
820.915	9467
821.012	7903
821.110	6122
821.207	7118
821.304	6427
821.402	6652
821.499	6635
821.596	5602
821.693	5658
821.791	6698
821.888	7138
821.985	7538
822.082	7657
822.179	4851
822.276	5208
822.373	4381
822.470	3637
822.567	5095
822.664	4113
822.761	4857
822.858	3993
822.955	4657
823.052	4312
823.149	3637
823.246	4087
823.343	4438
823.440	4635
823.536	3801
823.633	3608
823.730	4242
823.827	4619
823.923	4202
824.020	4315
824.117	3647
824.213	3800
824.310	4546
824.407	4419
824.503	4065
824.600	3701
824.696	4032
824.793	4461
824.889	3783
824.986	4485
825.082	3269
825.179	3904
825.275	3423
825.371	4233
825.468	4639
825.564	2263
825.660	3583
825.757	4355
825.853	3898
825.949	3563
826.045	3087
826.142	2610
826.238	3161
826.334	3839
826.430	3318
826.526	2651
826.622	2692
826.718	2958
826.814	2834
826.910	4365
827.006	2889
827.102	1794
827.198	3331
827.294	3176
827.390	3533
827.486	3441
827.582	2868
827.678	1601
827.774	3757
827.869	2771
827.965	3644
828.061	3077
828.157	2751
828.252	2947
828.348	2415
828.444	3489
828.539	2233
828.635	2253
828.731	3692
828.826	1783
828.922	3660
829.017	2382
829.113	3396
829.208	2959
829.304	1683
829.399	4404
829.495	3296
829.590	2911
829.685	2251
829.781	3413
829.876	2717
829.971	2654
830.066	2762
830.162	2669
830.257	3063
830.352	2618
830.447	3105
830.543	2299
830.638	2353
830.733	3483
830.828	2290
830.923	3099
831.018	2702
831.113	3279
831.208	2620
831.303	2186
831.398	1794
831.493	3183
831.588	2754
831.683	1979
831.778	3114
831.873	2050
831.967	2697
832.062	1988
832.157	1494
832.252	3011
832.346	2050
832.441	3741
832.536	4101
832.631	6687
832.725	5860
832.820	2407
832.914	2400
833.009	2381
833.104	2306
833.198	2654
833.293	2240
833.387	3149
833.482	2950
833.576	2446
833.670	2847
833.765	2136
833.859	2020
833.954	2807
834.048	1603
834.142	2755
834.237	1925
834.331	1573
834.425	2071
834.519	2418
834.613	2757
834.708	1844
834.802	2416
834.896	2513
834.990	1748
835.084	2478
835.178	2888
835.272	2155
835.366	2440
835.460	2958
835.554	2583
835.648	2015
835.742	2107
835.836	2385
835.930	921
836.024	3361
836.117	3344
836.211	1684
836.305	2729
836.399	3087
836.493	921
836.586	2826
836.680	1501
836.774	2686
836.867	2439
836.961	1191
837.055	1197
837.148	1561
837.242	2076
837.335	2186
837.429	2559
837.522	2381
837.616	1997
837.709	3794
837.803	3646
837.896	2749
837.989	2263
838.083	2395
838.176	3220
838.269	3922
838.363	2811
838.456	2086
838.549	3338
838.642	4458
838.735	7753
838.829	5724
838.922	1888
839.015	1699
839.108	1046
839.201	2597
839.294	1934
839.387	1842
839.480	1525
839.573	2070
839.666	2510
839.759	2670
839.852	1798
839.945	2205
840.038	2372
840.131	2010
840.223	1862
840.316	2550
840.409	2141
840.502	2143
840.594	2739
840.687	694
840.780	2566
840.873	2173
840.965	1871
841.058	2739
841.150	4475
841.243	2640
841.336	1980
841.428	1727
841.521	1679
841.613	1511
841.706	2045
841.798	2100
841.890	1667
841.983	824
842.075	2787
842.167	1769
842.260	1842
842.352	2917
842.444	3190
842.537	3226
842.629	5356
842.721	2784
842.813	1832
842.905	1675
842.997	1742
843.090	1646
843.182	2495
843.274	3042
843.366	5750
843.458	10369
843.550	10576
843.642	2770
843.734	2411
843.826	1428
843.918	1801
844.009	2282
844.101	964
844.193	1353
844.285	1793
844.377	1337
844.469	2280
844.560	1829
844.652	1650
844.744	2075
844.835	1457
844.927	2080
845.019	2495
845.110	2211
845.202	2605
845.293	1769
845.385	455
845.476	1923
845.568	2227
845.659	1405
845.751	1605
845.842	1373
845.934	1506
846.025	1712
846.116	2705
846.208	2087
846.299	1846
846.390	2188
846.482	1646
846.573	1733
846.664	1890
846.755	2356
846.846	3013
846.937	691
847.029	943
847.120	1619
847.211	1550
847.302	2885
847.393	1049
847.484	2477
847.575	819
847.666	1765
847.757	1259
847.847	1857
847.938	1448
848.029	1774
848.120	1415
848.211	1858
848.302	1433
848.392	1226
848.483	2118
848.574	1462
848.664	1125
848.755	1265
848.846	1593
848.936	1442
849.027	2062
849.118	1317
849.208	1192
849.299	1609
849.389	2241
849.480	2662
849.570	5535
849.661	6441
849.751	12675
849.841	7675
849.932	2368
850.022	1458
850.112	1811
850.203	2053
850.293	2324
850.383	1620
850.474	809
850.564	1128
850.654	1684
850.744	688
850.834	1774
850.924	1588
851.014	960
851.104	1657
851.194	1551
851.284	1226
851.374	2629
851.464	2001
851.554	1723
851.644	1665
851.734	1940
851.824	1939
851.914	1400
852.004	2134
852.094	1225
852.183	1714
852.273	2135
852.363	1772
852.452	1145
852.542	1605
852.632	1419
852.721	1328
852.811	1033
852.901	2059
852.990	1751
853.080	1798
853.169	1206
853.259	1291
853.348	1733
853.438	2247
853.527	2438
853.617	2663
853.706	4114
853.795	5037
853.885	11860
853.974	20159
854.063	33581
854.152	65783
854.242	37820
854.331	6926
854.420	2708
854.509	2153
854.598	1796
854.687	2420
854.777	1743
854.866	867
854.955	1316
855.044	1690
855.133	1270
855.222	1609
855.311	1120
855.400	1038
855.488	1210
855.577	1375
855.666	1382
855.755	1730
855.844	1190
855.933	1624
856.021	2537
856.110	1306
856.199	950
856.288	248
856.376	1638
856.465	1054
856.554	1709
856.642	1251
856.731	1643
856.819	1294
856.908	1547
856.996	1110
857.085	1406
857.173	1416
857.262	531
857.350	1617
857.438	1476
857.527	2082
857.615	2041
857.703	2051
857.792	1164
857.880	897
857.968	496
858.056	1675
858.145	1295
858.233	1504
858.321	1037
858.409	1749
858.497	1752
858.585	1164
858.673	1482
858.761	856
858.849	1777
858.937	818
859.025	1249
859.113	884
859.201	708
859.289	2026
859.377	1231
859.465	1732
859.552	1511
859.640	776
859.728	1955
859.816	1125
859.903	1026
859.991	1290
860.079	1447
860.166	1195
860.254	923
860.342	2657
860.429	1099
860.517	1230
860.604	1370
860.692	1347
860.779	1090
860.867	809
860.954	1236
861.042	2208
861.129	1991
861.216	1864
861.304	626
861.391	1431
861.478	1608
861.565	454
861.653	2284
861.740	1295
861.827	1321
861.914	1396
862.001	1463
862.089	1254
862.176	1584
862.263	1245
862.350	867
862.437	1226
862.524	1616
862.611	869
862.698	803
862.785	1284
862.871	562
862.958	1753
863.045	1007
863.132	1239
863.219	1205
863.306	1007
863.392	1961
863.479	1309
863.566	978
863.652	1292
863.739	1720
863.826	2013
863.912	1459
863.999	-28
864.086	999
864.172	1711
864.259	988
864.345	1525
864.432	1832
864.518	1669
864.604	1010
864.691	1133
864.777	2114
864.863	2475
864.950	2250
865.036	2014
865.122	2831
865.209	3421
865.295	2947
865.381	3119
865.467	3254
865.553	3110
865.639	2882
865.726	4562
865.812	7494
865.898	12805
865.984	18107
866.070	26297
866.156	41767
866.242	16703
866.328	4550
866.414	2574
866.499	2820
866.585	2486
866.671	2062
866.757	1990
866.843	3088
866.928	2407
867.014	2715
867.100	2952
867.186	2450
867.271	2585
867.357	3048
867.442	2538
867.528	1872
867.614	2783
867.699	2247
867.785	2804
867.870	1150
867.956	2564
868.041	2815
868.127	2455
868.212	2152
868.297	2348
868.383	2742
868.468	2885
868.553	3933
868.639	5373
868.724	7359
868.809	8472
868.894	3474
868.979	2309
869.065	2590
869.150	1869
869.235	1763
869.320	2423
869.405	2084
869.490	1936
869.575	2096
869.660	1841
869.745	2280
869.830	1666
869.915	1744
870.000	1520
870.085	1995
870.169	834
870.254	2326
870.339	2186
870.424	668
870.509	1988
870.593	1599
870.678	2064
870.763	2332
870.847	2313
870.932	2041
871.016	2278
871.101	1053
871.186	1544
871.270	1928
871.355	1742
871.439	2184
871.523	2322
871.608	1969
871.692	1761
871.777	2444
871.861	2545
871.945	784
872.030	2017
872.114	2169
872.198	1010
872.282	1989
872.367	1975
872.451	1334
872.535	1497
872.619	1083
872.703	1059
872.787	1564
872.871	1289
872.955	1453
873.039	1342
873.123	2007
873.207	2546
873.291	2039
873.375	453
873.459	1982
873.543	914
873.627	1705
873.711	907
873.794	1892
873.878	1092
873.962	633
874.045	977
874.129	659
874.137	715
874.213	1268
874.245	1183
874.296	1053
874.352	995
874.380	960
874.460	1230
874.464	1242
874.547	873
874.568	950
874.631	1192
874.676	1736
874.714	2184
874.784	1521
874.798	1392
874.881	1690
874.892	1618
874.965	1126
874.999	1246
875.048	1417
875.107	1176
875.131	1080
875.215	1414
875.215	1413
875.298	849
875.323	754
875.381	560
875.430	879
875.465	1083
875.538	1557
875.548	1629
875.631	771
875.646	713
875.714	377
875.753	675
875.798	1049
875.861	922
875.881	870
875.964	909
875.968	921
876.047	1217
876.076	1059
876.130	740
876.183	1198
876.213	1455
876.291	978
876.296	936
876.379	1195
876.398	1074
876.462	851
876.506	1039
876.545	1154
876.613	1162
876.628	1157
876.711	1506
876.721	1409
876.794	716
876.828	900
876.877	1178
876.935	660
876.960	442
877.043	1608
877.043	1605
877.125	919
877.150	1208
877.208	1865
877.258	1549
877.291	1320
877.365	926
877.374	896
877.456	672
877.472	787
877.539	1087
877.579	1193
877.622	1352
877.687	1250
877.704	1238
877.787	986
877.794	977
877.869	618
877.901	613
877.952	770
878.008	590
878.034	489
878.115	650
878.117	656
878.199	1072
878.222	1165
878.282	1125
878.329	935
878.364	996
878.437	1783
878.447	1815
878.529	200
878.544	119
878.611	200
878.651	495
878.694	785
878.758	714
878.776	666
878.858	1195
878.865	1195
878.941	1185
878.972	944
879.023	522
879.078	846
879.105	969
879.185	426
879.187	421
879.269	1139
879.292	1018
879.351	445
879.399	443
879.433	532
879.506	704
879.516	731
879.598	985
879.613	1016
879.680	1030
879.720	819
879.762	497
879.827	683
879.844	835
879.926	720
879.933	780
880.007	773
880.040	622
880.089	749
880.147	1075
880.171	1142
880.253	1862
880.254	1868
880.335	2596
880.360	2890
880.417	3768
880.467	4950
880.499	5735
880.574	8101
880.580	8194
880.662	3676
880.680	2897
880.744	728
880.787	679
880.825	626
880.893	321
880.907	324
880.989	679
881.000	755
881.070	788
881.106	599
881.152	401
881.213	374
881.233	357
881.315	35
881.319	-2
881.396	-32
881.426	435
881.478	746
881.532	320
881.559	310
881.639	831
881.641	835
881.722	468
881.745	404
881.803	366
881.852	669
881.885	655
881.958	-133
881.966	-141
882.047	747
882.064	853
882.129	899
882.171	818
882.210	773
882.277	1201
882.291	1319
882.372	1124
882.383	1078
882.454	664
882.489	771
882.535	860
882.596	698
882.616	664
882.697	478
882.702	479
882.778	403
882.808	414
882.859	546
882.914	586
882.940	468
883.020	-174
883.021	-175
883.102	470
883.127	517
883.183	264
883.233	204
883.264	373
883.339	272
883.345	249
883.426	399
883.445	482
883.507	690
883.551	469
883.587	122
883.657	45
883.668	171
883.749	590
883.763	694
883.830	-39
883.869	-340
883.910	58
883.975	263
883.991	106
884.072	-522
884.081	-581
884.152	-193
884.187	116
884.233	299
884.292	506
884.314	553
884.394	189
884.398	184
884.475	-23
884.504	-114
884.555	49
884.610	484
884.636	488
884.716	139
884.716	139
884.797	238
884.821	287
884.877	256
884.927	-23
884.958	-24
885.033	565
885.038	582
885.118	542
885.139	524
885.199	174
885.244	-121
885.279	29
885.350	603
885.359	602
885.439	429
885.456	310
885.520	382
885.561	592
885.600	573
885.667	759
885.680	647
885.760	-387
885.773	-492
885.840	727
885.878	1275
885.920	684
885.984	-258
886.000	-272
886.080	-370
886.089	-338
886.160	81
886.195	212
886.240	502
886.300	914
886.320	853
886.400	430
886.406	410
886.480	213
886.511	108
886.560	185
886.616	357
886.640	493
886.720	697
886.722	706
886.800	201
886.827	-3
886.879	66
886.932	98
886.959	101
887.038	329
887.039	328
887.119	214
887.143	249
887.198	247
887.248	215
887.278	448
887.354	696
887.358	635
887.437	-217
887.459	-493
887.517	-200
887.564	11
887.596	127
887.669	391
887.676	412
887.755	721
887.774	789
887.835	25
887.880	-495
887.914	-353
887.985	-174
887.994	-197
888.073	-317
888.090	-344
888.153	31
888.195	290
888.232	87
888.300	-226
888.311	-119
888.391	604
888.405	726
888.470	240
888.510	-3
888.549	134
888.615	299
888.628	290
888.708	293
888.720	286
888.787	202
888.825	189
888.866	-117
888.930	-633
888.945	-541
889.024	8
889.035	81
889.103	-252
889.140	-409
889.182	14
889.245	637
889.261	510
889.340	-92
889.349	-158
889.419	-208
889.454	-221
889.498	-84
889.559	116
889.577	276
889.656	996
889.664	1069
889.735	295
889.768	-71
889.814	42
889.873	200
889.978	-570
890.083	461
890.187	455
890.292	390
890.397	-395
890.501	690
890.606	-185
890.710	340
890.815	-119
890.919	175
891.024	414
891.128	160
891.233	-27
891.337	30
891.442	-172
891.546	149
891.650	-128
891.755	-84
891.859	600
891.963	1099
892.068	-68
892.172	331
892.276	-441
892.380	139
892.484	195
892.589	399
892.693	308
892.797	130
892.901	-553
893.005	602
893.109	-231
893.213	219
893.317	350
893.421	332
893.525	296
893.629	1029
893.733	-118
893.837	-311
893.941	-686
894.045	313
894.148	531
894.252	448
894.356	372
894.460	334
894.564	578
894.667	-136
894.771	268
894.875	-97
894.978	-353
895.082	-124
895.186	-218
895.289	337
895.393	-303
895.496	803
895.600	-214
895.703	-332
895.807	-75
895.910	-222
896.014	-646
896.117	222
896.221	185
896.324	390
896.427	120
896.531	-249
896.634	-1075
896.737	540
896.840	410
896.944	313
897.047	156
897.150	-32
897.253	-1
897.356	267
897.460	-587
897.563	257
897.666	153
897.769	-84
897.872	-113
897.975	252
898.078	-214
898.181	355
898.284	-932
898.387	-458
898.490	265
898.593	279
898.695	-268
898.798	-217
898.901	-93
899.004	157
899.107	-387
899.209	473
899.312	-696
899.415	-377
899.518	-62
899.620	30
899.723	-387
899.826	191
899.928	42
900.031	-788
900.133	-80
900.236	658
900.338	232
900.441	-539
900.543	-900
900.646	601
900.748	-64
900.851	-70
900.953	-192
901.055	341
901.158	-632
901.260	276
901.362	-132
901.465	-835
901.567	-245
901.669	1277
901.771	123
901.873	109
901.976	460
902.078	48
902.180	-8
902.282	-128
902.384	179
902.486	573
902.588	192
902.690	80
902.792	14
902.894	530
902.996	-587
903.098	-231
903.200	-241
903.302	424
903.404	-446
903.505	-403
903.607	-243
903.709	-324
903.811	155
903.913	580
904.014	242
904.116	441
904.218	-1093
904.319	360
904.421	-681
904.523	549
904.624	219
904.726	-90
904.827	-324
904.929	-186
905.030	-221
905.132	1405
905.233	279
905.335	186
905.436	-389
905.537	-656
905.639	-247
905.740	63
905.841	-555
905.943	211
906.044	-366
906.145	-352
906.247	190
906.348	-141
906.449	-167
906.550	363
906.651	-130
906.752	571
906.854	-357
906.955	0
907.056	243
907.157	-392
907.258	395
907.359	-216
907.460	-271
907.561	-800
907.662	-360
907.762	-112
907.863	-745
907.964	187
908.065	721
908.166	237
908.267	-861
908.367	144
908.468	-165
908.569	730
908.670	-113
908.770	876
908.871	-1017
908.971	-201
909.072	-570
909.173	107
909.273	314
909.374	-58
909.474	-153
909.575	238
909.675	-715
909.776	618
909.876	192
909.977	20
910.077	-331
910.177	206
910.278	-521
910.378	141
910.478	6
910.579	-538
910.679	-302
910.779	-12
910.879	89
910.980	-76
911.080	-433
911.180	-99
911.280	-908
911.380	243
911.480	-889
911.580	-313
911.680	342
911.780	341
911.880	-189
911.980	170
912.080	154
912.180	-32
912.280	327
912.380	413
912.480	-461
912.580	183
912.679	-414
912.779	440
912.879	-401
912.979	107
913.078	-161
913.178	865
913.278	-75
913.377	-95
913.477	-562
913.577	-825
913.676	-194
913.776	-710
913.875	-553
913.975	439
914.074	-620
914.174	53
914.273	-817
914.373	512
914.472	-65
914.572	-636
914.671	-43
914.770	-355
914.870	-535
914.969	-502
915.068	-632
915.167	-290
915.267	-49
915.366	-159
915.465	2
915.564	-865
915.663	-341
915.763	-137
915.862	-767
915.961	335
916.060	-652
916.159	92
916.258	-518
916.357	-35
916.456	124
916.555	-189
916.654	-398
916.752	164
916.851	81
916.950	359
917.049	-23
917.148	-122
917.247	-767
917.345	-120
917.444	-827
917.543	440
917.642	-426
917.740	-849
917.839	-460
917.937	-196
918.036	368
918.135	-219
918.233	-715
918.332	562
918.430	321
918.529	-372
918.627	-388
918.726	-208
918.824	-659
918.923	-111
919.021	-74
919.119	-232
919.218	537
919.316	-1134
919.414	-1200
919.512	-846
919.611	-491
919.709	-282
919.807	-166
919.905	-613
920.003	-276
920.102	163
920.200	-781
920.298	-278
920.396	-513
920.494	-15
920.592	-100
920.690	564
920.788	-1020
920.886	-530
920.984	-83
921.082	70
921.180	-556
921.277	304
921.375	-458
921.473	215
921.571	46
921.669	-70
921.766	-591
921.864	823
921.962	654
922.060	75
922.157	158
922.255	302
922.352	-738
922.450	523
922.548	-226
922.645	113
922.743	-880
922.840	194
922.938	715
923.035	147
923.133	-321
923.230	-345
923.327	36
923.425	478
923.522	200
923.619	122
923.717	-440
923.814	199
923.911	38
924.008	412
924.106	28
924.203	707
924.300	61
924.397	-119
924.494	313
924.591	-338
924.688	-546
924.786	-50
924.883	-857
924.979	403
925.077	828
925.173	412
925.270	619
925.367	55
925.464	21
925.561	312
925.658	403
925.755	-625
925.852	-386
925.948	300
926.045	-494
926.142	-613
926.239	413
926.335	314
926.432	-287
926.529	-86
926.625	-710
926.722	-352
926.818	-197
926.915	46
927.011	545
927.108	1262
927.204	-182
927.301	8
927.397	186
927.494	384
927.590	-361
927.687	384
927.783	-648
927.879	11
927.976	-204
928.072	408
928.168	-311
928.264	216
928.361	-383
928.457	75
928.553	184
928.649	856
928.745	390
928.841	-12
928.937	-283
929.033	-475
929.129	-415
929.225	-460
929.321	66
929.417	218
929.513	-680
929.609	115
929.705	-179
929.801	-257
929.897	-16
929.993	805
930.089	-276
930.184	-757
930.280	-134
930.376	145
930.471	-509
930.567	875
930.663	-28
930.758	-304
930.854	-683
930.950	-275
931.045	-87
931.141	110
931.236	121
931.332	-482
931.427	-1483
931.523	88
931.618	-562
931.714	-80
931.809	-777
931.905	624
932.000	-255
932.095	-27
932.191	-697
932.286	694
932.381	-341
932.476	320
932.572	-522
932.667	574
932.762	3
932.857	-260
932.952	-902
933.047	168
933.142	-677
933.237	-258
933.332	-322
933.427	908
933.522	221
933.617	152
933.712	-498
933.807	-284
933.902	-663
933.997	171
934.092	-339
934.187	-203
934.282	321
934.376	-110
934.471	-462
934.566	-540
934.661	-268
934.755	796
934.850	-905
934.945	-215
935.039	-304
935.134	324
935.228	-1111
935.323	811
935.417	542
935.512	638
935.606	-381
935.701	21
935.795	-794
935.890	-30
935.984	-1017
936.079	476
936.173	-675
936.267	-309
936.362	-828
936.456	26
936.550	-177
936.644	-642
936.738	-592
936.833	1
936.927	-305
937.021	396
937.115	-712
937.209	-530
937.303	144
937.397	-298
937.491	204
937.585	-430
937.679	-834
937.773	-278
937.867	-788
937.961	-1610
938.055	-66
938.149	535
938.243	-133
938.337	-489
938.430	-1028
938.524	192
938.618	-78
938.712	-273
938.805	-584
938.899	261
938.993	-455
939.086	327
939.180	125
939.274	-138
939.367	-444
939.461	-127
939.554	-994
939.648	-989
939.741	-1034
939.835	133
939.928	-188
940.022	235
940.115	-1150
940.208	-460
940.302	-231
940.395	-212
940.488	-1317
940.582	-378
940.675	-867
940.768	-672
940.861	-454
940.954	30
941.048	-1008
941.141	-134
941.234	272
941.327	-752
941.420	-613
941.513	-401
941.606	-950
941.699	788
941.792	181
941.885	-1060
941.978	-527
942.071	-154
942.164	-1387
942.257	447
942.349	-48
942.442	185
942.535	-839
942.628	-164
942.721	-735
942.813	-362
942.906	328
942.999	-540
943.091	-1054
943.184	389
943.277	-980
943.369	21
943.462	-635
943.554	-138
943.647	-1232
943.739	404
943.832	204
943.924	-625
944.017	-795
944.109	-1206
944.201	-91
944.294	59
944.386	-780
944.478	51
944.571	-456
944.663	-397
944.755	-922
944.847	282
944.940	-718
945.032	-436
945.124	-1110
945.216	536
945.308	-166
945.400	-226
945.492	-362
945.584	7
945.676	-705
945.768	-144
945.860	-702
945.952	98
946.044	-569
946.136	-517
946.228	-102
946.320	-547
946.412	-338
946.503	-649
946.595	-451
946.687	-82
946.779	-7
946.870	-567
946.962	-1135
947.054	-175
947.145	-30
947.237	461
947.329	-316
947.420	-403
947.512	-522
947.603	-76
947.695	-741
947.786	-799
947.878	-639
947.969	-302
948.061	-675
948.152	-150
948.243	-538
948.335	-155
948.426	-71
948.517	-370
948.609	-454
948.700	-593
948.791	-458
948.882	-333
948.973	-551
949.065	-679
949.156	-623
949.247	-481
949.338	-291
949.429	146
949.520	-775
949.611	-945
949.702	-782
949.793	-254
949.884	-393
949.975	-514
950.066	-1058
950.157	-510
950.247	-766
950.338	-481
950.429	-283
950.520	-247
950.611	-589
950.701	-613
950.792	-618
950.883	-224
950.973	-704
951.064	-334
951.155	-218
951.245	-693
951.336	-692
951.427	-1312
951.517	108
951.608	247
951.698	-1536
951.788	-272
951.879	-754
951.969	-1295
952.060	-434
952.150	-1188
952.240	54
952.331	-818
952.421	505
952.511	-656
952.602	-702
952.692	65
952.782	-273
952.872	530
952.962	-895
953.052	-475
953.143	-1352
953.233	-52
953.323	-554
953.413	-389
953.503	-555
953.593	98
953.683	-714
953.773	13
953.863	-527
953.953	-1080
954.042	-648
954.132	-771
954.222	81
954.312	-995
954.402	-997
954.492	77
954.581	-440
954.671	-745
954.761	-1231
954.850	-485
954.940	-1080
955.030	-965
955.119	-1156
955.209	346
955.298	-871
955.388	-622
955.477	-27
955.567	-535
955.656	-289
955.746	-29
955.835	-1303
955.925	-325
956.014	-649
956.103	-479
956.193	-1007
956.282	298
956.371	-1114
956.461	-665
956.550	-869
956.639	-195
956.728	-608
956.817	-382
956.906	-973
956.995	329
957.085	-1549
957.174	-655
957.263	-958
957.352	149
957.441	-1023
957.530	-615
957.619	-393
957.708	-931
957.796	-1510
957.885	-333
957.974	-1152
958.063	193
958.152	-1470
958.241	-800
958.329	-1687
958.418	-23
958.507	-1093
958.596	26
958.684	-1215
958.773	-342
958.861	-1326
958.950	-428
959.039	-1225
959.127	-1253
959.216	-881
959.304	227
959.393	-798
959.481	-1160
959.570	-890
959.658	-1377
959.746	-653
959.835	-999
959.923	-725
960.011	-132
960.100	-77
960.188	-383
960.276	-1858
960.365	-572
960.453	-797
960.541	-620
960.629	-1760
960.717	-1060
960.805	-1332
960.893	-258
960.981	-701
961.069	-12
961.158	-871
961.245	41
961.333	-455
961.421	-1210
961.509	-1039
961.597	-704
961.685	-851
961.773	-726
961.861	-1046
961.949	-916
962.036	-1694
962.124	-533
962.212	-1174
962.299	-1144
962.387	-1064
962.475	-23
962.562	-1002
962.650	-222
962.738	-1430
962.825	-421
962.913	-63
963.000	-421
963.088	-1213
963.175	-945
963.263	-1377
963.350	-1510
963.438	-1080
963.525	-1226
963.612	-1075
963.700	-1002
963.787	1528
963.874	68
963.962	30
964.049	-526
964.136	-566
964.223	-365
964.310	-1343
964.398	-532
964.485	-1434
964.572	-337
964.659	-1023
964.746	-252
964.833	-1085
964.920	-1138
965.007	-1142
965.094	197
965.181	-1166
965.268	578
965.355	-499
965.441	-498
965.528	-1519
965.615	-307
965.702	-810
965.789	-850
965.875	-708
965.962	-769
966.049	-1434
966.136	106
966.222	-2173
966.309	-677
966.395	-1937
966.482	-101
966.569	-1397
966.655	-95
966.742	-952
966.828	-310
966.915	-1370
967.001	-727
967.087	-1632
967.174	-351
967.260	-1232
967.347	-1095
967.433	-651
967.519	493
967.605	-760
967.692	-178
967.778	-999
967.864	-806
967.950	-820
968.036	-1239
968.123	-1000
968.209	-984
968.295	-2073
968.381	-137
968.467	-258
968.553	-1859
968.639	-697
968.725	-954
968.811	-771
968.897	-82
968.983	-660
969.069	-1858
969.154	-409
969.240	-294
969.326	-1330
969.412	-1654
969.497	-991
969.583	-1886
969.669	-600
969.755	-673
969.840	-1004
969.926	-1283
970.012	-808
970.097	-283
970.183	-974
970.268	-1410
970.354	-872
970.439	-1047
970.525	470
970.610	-2019
970.696	-504
970.781	-658
970.866	-1408
970.952	-296
971.037	-761
971.122	-1317
971.208	-1616
971.293	-1104
971.378	-1019
971.463	-329
971.549	-1200
971.634	-1095
971.719	-682
971.804	-1118
971.889	-957
971.974	-1068
972.059	-1111
972.144	-1227
972.229	-955
972.314	-882
972.399	-844
972.484	-828
972.569	-653
972.654	-1567
972.739	-273
972.824	-373
972.908	-1633
972.993	-1404
973.078	-1782
973.163	-574
973.247	-1028
973.332	-1626
973.417	76
973.501	-1317
973.586	-1485
973.671	-883
973.755	-1144
973.840	-639
973.924	-1331
974.009	-259
974.093	-1295
974.178	-556
974.262	-1453
974.346	-882
974.431	-825
974.515	-940
974.600	-1039
974.684	-729
974.768	-1964
974.852	-64
974.937	-1149
975.021	-230
975.105	-1678
975.189	-665
975.273	-558
975.358	-716
975.442	-1289
975.526	-746
975.610	-1195
975.694	-1259
975.778	114
975.862	-218
975.946	-2458
976.030	-256
976.114	-828
976.198	-1026
976.281	-2031
976.365	-1362
976.449	-1133
976.533	-13
976.617	-2186
976.700	-876
976.784	-1040
976.868	-667
976.951	-1026
977.035	-303
977.119	-922
977.202	-651
977.286	-1020
977.369	-1127
977.453	-1147
977.536	-919
977.620	-1618
977.703	154
977.787	-2263
977.870	-635
977.953	-248
978.037	-1551
978.120	-1029
978.203	-857
978.287	-517
978.370	-491
978.453	-1384
978.536	-810
978.620	-513
978.703	-876
978.786	-1532
978.869	-592
978.952	-2323
979.035	210
979.118	-467
979.201	-1088
979.284	-1160
979.367	-1814
979.450	-1031
979.533	-568
979.616	-1190
979.699	-1274
979.782	-1280
979.865	-645
979.948	-1364
980.030	-1428
980.113	-612
980.196	-767
980.279	-1357
980.361	-708
980.444	-1484
980.526	-587
980.609	-1256
980.692	-1446
980.774	-1165
980.857	-1147
980.939	-579
981.022	-1038
981.104	-1588
981.187	-1304
981.269	-1209
981.352	-929
981.434	-2064
981.516	-1316
981.599	-504
981.681	-1060
981.763	-1282
981.846	-267
981.928	-1723
982.010	-1388
982.092	-1375
982.174	-219
982.256	-1865
982.339	-825
982.421	-1844
982.503	-791
982.585	-1206
982.667	-880
982.749	-1027
982.831	-876
982.913	-2083
982.995	-144
983.077	-1561
983.158	-400
983.240	-2072
983.322	-78
983.404	-1201
983.486	-1013
983.568	-406
983.649	-926
983.731	-563
983.813	-983
983.894	-900
983.976	-761
984.058	-1111
984.139	-629
984.221	-2595
984.302	-663
984.384	-1745
984.465	-1197
984.547	-1838
984.628	-837
984.710	-327
984.791	-958
984.872	-1713
984.954	-742
985.035	-1072
985.116	-1236
985.198	-1073
985.279	-306
985.360	-1770
985.441	-1564
985.522	-1286
985.604	-504
985.685	-2574
985.766	-335
985.847	-696
985.928	-1576
986.009	-848
986.090	-1097
986.171	-1030
986.252	-413
986.333	-1241
986.414	-1335
986.495	-736
986.576	-701
986.656	-1696
986.737	-234
986.818	-1260
986.899	-930
986.980	-1375
987.060	-355
987.141	-1244
987.222	-2076
987.302	-1048
987.383	-1375
987.464	-1296
987.544	-172
987.625	-1010
987.705	-445
987.786	-893
987.866	-858
987.947	-1848
988.027	-904
988.108	-812
988.188	-766
988.268	-893
988.349	-601
988.429	-1247
988.509	-817
988.589	-1237
988.670	-2949
988.750	-55
988.830	-912
988.910	-648
988.990	-1462
989.070	-1033
989.151	-560
989.231	-1608
989.311	-761
989.391	-599
989.471	-1542
989.551	-1519
989.631	-1037
989.711	-793
989.791	-2128
989.870	-2004
989.950	269
990.030	-1345
990.110	-1390
990.190	-1121
990.269	-383
990.349	-1846
990.429	-649
990.509	-1046
990.588	-1334
990.668	-1115
990.747	-400
990.827	-1265
990.907	-99
990.986	-1300
991.066	-481
991.145	-669
991.225	-1585
991.304	-1354
991.383	-1155
991.463	-1207
991.542	-1162
991.622	-1851
991.701	-1377
991.780	-1323
991.859	-725
991.939	-1944
992.018	-549
992.097	-940
992.176	-1153
992.256	-1927
992.335	-2435
992.414	-844
992.493	-1683
992.572	-445
992.651	421
992.730	-1138
992.809	-417
992.888	-2132
992.967	-580
993.046	-561
993.125	-1985
993.203	-1556
993.282	-753
993.361	-814
993.440	-815
993.519	-2241
993.597	-561
993.676	-1251
993.755	-887
993.834	-681
993.912	-1994
993.991	-984
994.069	-1508
994.148	-1529
994.226	-1525
994.305	-954
994.384	-1050
994.462	-1137
994.540	-1241
994.619	-1809
994.697	-27
994.776	-1490
994.854	-556
994.932	-1564
995.011	-155
995.089	-2051
995.167	-1210
995.245	-1410
995.324	-1008
995.402	-950
995.480	-761
995.558	-1228
995.636	-1940
995.714	-1475
995.792	-1256
995.870	-1575
995.948	-650
996.026	-1462
996.104	-896
996.182	-824
996.260	-1264
996.338	-1127
996.416	-1419
996.494	-1641
996.572	266
996.649	-2021
996.727	-1868
996.805	-1285
996.883	-1413
996.960	-2491
997.038	-1186
997.116	-538
997.193	-1924
997.271	-584
997.348	-1207
997.426	-1498
997.504	-1635
997.581	-945
997.658	-276
997.736	-1880
997.813	-1544
997.891	-1158
997.968	-1415
998.046	-883
998.123	-1434
998.200	-1725
998.277	-1864
998.355	-1446
998.432	-1932
998.509	-1425
998.586	-521
998.663	-653
998.741	-972
998.818	-1569
998.895	-994
998.972	-1704
999.049	-1408
999.126	-1500
999.203	-1056
999.280	-1522
999.357	-1201
999.434	-1963
999.511	-1012
999.587	-1428
999.664	-1766
999.741	-997
999.818	-1323
999.895	-2240
999.971	-1308
1000.048	-1734
1000.125	-494
1000.202	-1585
1000.278	-556
1000.355	-1805
1000.431	-1006
1000.508	-1580
1000.584	-1418
1000.661	-1218
1000.738	-1416
1000.814	-1082
1000.890	-1293
1000.967	-1418
1001.043	-1312
1001.120	-2273
1001.196	-915
1001.272	-2019
1001.349	-1446
1001.425	-549
1001.501	-1958
1001.577	-2282
1001.654	-1108
1001.730	-1749
1001.806	-509
1001.882	-2575
1001.958	-991
1002.034	-2639
1002.110	-1184
1002.186	-1636
1002.262	-1082
1002.338	-1934
1002.414	-1207
1002.490	-1356
1002.566	-1760
1002.642	-2406
1002.718	-805
1002.794	-2272
1002.870	-2018
1002.945	-1695
1003.021	-1092
1003.097	-1978
1003.173	-930
1003.248	-2112
1003.324	-1028
1003.400	-1699
1003.475	-1444
1003.551	-2263
1003.626	-557
1003.702	-1792
1003.777	-924
1003.853	-1777
1003.928	-1596
1004.004	-1446
1004.079	-1022
1004.155	-1666
1004.230	-2213
1004.305	-991
1004.381	-1112
1004.456	-1930
1004.531	-1179
1004.607	-1476
1004.682	-2251
1004.757	-1928
1004.832	-1870
1004.907	-1146
1004.982	-1049
1005.057	-1853
1005.133	-1297
1005.208	-1925
1005.283	-1947
1005.358	-1992
1005.433	-2092
1005.508	-1932
1005.583	-2789
1005.657	-1378
1005.732	-928
1005.807	-1936
1005.882	-1282
1005.957	-1521
1006.032	-1245
1006.106	-1857
1006.181	-1593
1006.256	-1712
1006.331	-1910
1006.405	-2059
1006.480	-1345
1006.554	-2119
1006.629	-1368
1006.704	-2433
1006.778	-1246
1006.853	-1560
1006.927	-1575
1007.002	-2095
1007.076	-1478
1007.150	-1673
1007.225	-1602
1007.299	-1496
1007.373	-2289
1007.448	-1953
1007.522	-955
1007.596	-2165
1007.671	-1490
1007.745	-2379
1007.819	-2587
1007.893	-1607
1007.967	-964
1008.041	-2530
1008.115	-972
1008.190	-2153
1008.264	-1412
1008.338	-2392
1008.412	-1826
1008.486	-1528
1008.560	-1217
1008.633	-1749
1008.707	-2417
1008.781	-1910
1008.855	-2282
1008.929	-2102
1009.003	-2267
1009.076	-1529
1009.150	-1294
1009.224	-1646
1009.298	-60
1009.371	-2304
1009.445	-853
1009.519	-2161
1009.592	-2094
1009.666	-1519
1009.739	-1690
1009.813	-2383
1009.886	-1763
1009.960	-2740
1010.033	-1466
1010.107	-1478
1010.180	-3132
1010.253	-1439
1010.327	-1572
1010.400	-2535
1010.473	-1364
1010.547	-857
1010.620	-1706
1010.693	-1851
1010.766	-2173
1010.840	-1415
1010.913	-1908
1010.986	-2256
1011.059	-1840
1011.132	-1691
1011.205	-751
1011.278	-2136
1011.351	-1900
1011.424	-1879
1011.497	-1951
1011.570	-2008
1011.643	-2558
1011.716	-2241
1011.789	-1481
1011.862	-1607
1011.934	-1431
1012.007	-2937
1012.080	-1018
1012.153	-1291
1012.225	-1466
1012.298	-2013
1012.371	-1875
1012.443	-1301
1012.516	-2488
1012.588	-1181
1012.661	-892
1012.733	-2171
1012.806	22
1012.879	-1816
1012.951	-1346
1013.023	-1732
1013.096	-1462
1013.168	-1618
1013.241	-1542
1013.313	-1482
1013.385	-2302
1013.458	-1835
1013.530	-1227
1013.602	-2544
1013.674	-966
1013.746	-2226
1013.819	-2440
1013.891	-1149
1013.963	-1835
1014.035	-1579
1014.107	-1192
1014.179	-2416
1014.251	-2378
1014.323	-2357
1014.395	-1148
1014.467	-1694
1014.539	-1654
1014.611	-2336
1014.683	-1821
1014.754	-1966
1014.826	-2021
1014.898	-2628
1014.970	-2019
1015.042	-1469
1015.113	-1184
1015.185	-3000
1015.257	-2286
1015.328	-1577
1015.400	-1937
1015.471	-2175
1015.543	-2226
1015.615	-1895
1015.686	-1628
1015.757	-1671
1015.829	-1824
1015.901	-2657
1015.972	-2013
1016.043	-1838
1016.115	-1746
1016.186	-1184
1016.257	-2724
1016.328	-1794
1016.400	-392
1016.471	-2781
1016.542	-1824
1016.613	-2360
1016.685	-1443
1016.756	-2561
1016.827	-2520
1016.898	-2675
1016.969	-1096
1017.040	-2721
1017.111	-1622
1017.182	-1984
1017.253	-1700
1017.324	-1807
1017.395	-1988
1017.466	-1207
1017.537	-2137
1017.608	-2608
1017.678	-2326
1017.749	-1749
1017.820	-2145
1017.891	-2194
1017.961	-2097
1018.032	-2273
1018.103	-1189
1018.173	-2028
1018.244	-2099
1018.315	-2161
1018.385	-1111
1018.456	-1726
1018.526	-2110
1018.597	-1957
1018.667	-1768
1018.738	-2332
1018.808	-1920
1018.878	-2171
1018.949	-863
1019.019	-1455
1019.089	-1201
1019.160	-2074
1019.230	-2238
1019.300	-2530
1019.371	-1882
1019.441	-2054
1019.511	-2085
1019.581	-2126
1019.651	-1726
1019.721	-2455
1019.791	-2287
1019.861	-2124
1019.931	-1856
1020.001	-2209
1020.071	-2330
1020.141	-1468
1020.211	-1397
1020.281	-2314
1020.351	-2728
1020.421	-2227
1020.491	-1860
1020.560	-1939
1020.630	-1771
1020.700	-1607
1020.770	-2250
1020.839	-1945
1020.909	-1613
1020.979	-3066
1021.048	-1346
1021.118	-2896
1021.187	-2063
1021.257	-2066
1021.326	-1274
1021.396	-2438
1021.465	-1468
1021.535	-1736
1021.604	-2911
1021.674	-1868
1021.743	-2071
1021.812	-2676
1021.882	-2141
1021.951	-2930
1022.020	-2159
1022.089	-2223
1022.159	-2225
1022.228	-2493
1022.297	-1634
1022.366	-2220
1022.435	-1831
1022.504	-2172
1022.573	-2338
1022.642	-1661
1022.711	-2850
1022.781	-1556
1022.849	-1385
1022.918	-2981
1022.987	-1311
1023.056	-2426
1023.125	-2544
1023.194	-2402
1023.263	-1754
1023.331	-2261
1023.400	-2458
1023.469	-2369
1023.538	-2054
1023.606	-2808
1023.675	-1052
1023.744	-2122
1023.812	-2674
1023.881	-2143
1023.949	-2247
1024.018	-2566
1024.086	-1543
1024.155	-2318
1024.223	-2085
1024.292	-2232
1024.360	-1295
1024.429	-2487
1024.497	-2610
1024.565	-2311
1024.634	-1756
1024.702	-1927
1024.770	-2285
1024.838	-2869
1024.907	-1635
1024.975	-2035
1025.043	-1172
1025.111	-2474
1025.179	-1880
1025.247	-2188
1025.315	-2777
1025.383	-2809
1025.451	-1804
1025.519	-2366
1025.587	-2615
1025.655	-1819
1025.723	-1198
1025.791	-2053
1025.859	-1814
1025.927	-1202
1025.995	-1097
1026.062	-2138
1026.130	-1772
1026.198	-2005
1026.266	-1743
1026.333	-1805
1026.401	-2231
1026.469	-2290
1026.536	-1698
1026.604	-2129
1026.671	-1632
1026.739	-2608
1026.806	-1800
1026.874	-2641
1026.941	-2243
1027.009	-2933
1027.076	-2899
1027.144	-2015
1027.211	-2487
1027.278	-2836
1027.345	-2314
1027.413	-2732
1027.480	-2121
1027.547	-2334
1027.614	-2795
1027.682	-1790
1027.749	-2074
1027.816	-2747
1027.883	-1955
1027.950	-2057
1028.017	-1758
1028.084	-2034
1028.151	-2707
1028.218	-2802
1028.285	-2754
1028.352	-2445
1028.419	-2026
1028.486	-2149
1028.553	-1291
1028.619	-2828
1028.686	-2091
1028.753	-2337
1028.820	-2062
1028.886	-2791
1028.953	-2414
1029.020	-2926
1029.086	-2224
1029.153	-2623
1029.220	-1663
1029.286	-3154
1029.353	-1438
1029.419	-2497
1029.486	-1588
1029.552	-1689
1029.619	-2173
1029.685	-2620
1029.751	-1979
1029.818	-1610
1029.884	-1633
1029.951	-2337
1030.017	-2467
1030.083	-2170
1030.149	-2093
1030.216	-2398
1030.282	-1583
1030.348	-2508
1030.414	-2010
1030.480	-2554
1030.546	-1478
1030.612	-2121
1030.678	-2290
1030.744	-2580
1030.810	-1992
1030.876	-2238
1030.942	-2187
1031.008	-2093
1031.074	-2229
1031.140	-2214
1031.206	-2219
1031.272	-2347
1031.337	-1986
1031.403	-1936
1031.469	-2442
1031.534	-2967
1031.600	-2351
1031.666	-2487
1031.731	-1870
1031.797	-2335
1031.863	-2279
1031.928	-2595
1031.994	-2085
1032.059	-2931
1032.125	-2239
1032.190	-3050
1032.256	-2198
1032.321	-2898
1032.386	-2560
1032.452	-1261
1032.517	-1990
1032.582	-1971
1032.647	-1861
1032.713	-2656
1032.778	-1559
1032.843	-2681
1032.908	-1268
1032.974	-2743
1033.039	-2666
1033.104	-1761
1033.169	-2408
1033.234	-3022
1033.299	-1795
1033.364	-1921
1033.429	-2043
1033.494	-2420
1033.559	-2077
1033.624	-2773
1033.688	-1462
1033.753	-2509
1033.818	-2167
1033.883	-2685
1033.948	-1443
1034.013	-2967
1034.077	-2235
1034.142	-3156
1034.207	-1995
1034.271	-2328
1034.336	-2037
1034.400	-2728
1034.465	-2382
1034.530	-2067
1034.594	-1512
1034.658	-1672
1034.723	-1689
1034.787	-3079
1034.852	-2316
1034.916	-2309
1034.981	-3109
1035.045	-2216
1035.109	-1695
1035.173	-2618
1035.238	-2337
1035.302	-1525
1035.366	-2123
1035.430	-1670
1035.495	-2993
1035.559	-2103
1035.623	-2033
1035.687	-2285
1035.751	-2348
1035.815	-2219
1035.879	-2337
1035.943	-2460
1036.007	-2295
1036.071	-2086
1036.135	-1999
1036.198	-1713
1036.262	-2679
1036.326	-2854
1036.390	-2551
1036.454	-2512
1036.517	-2395
1036.581	-2339
1036.645	-1750
1036.709	-2134
1036.772	-2788
1036.836	-2351
1036.900	-1925
1036.963	-2696
1037.026	-2364
1037.090	-2536
1037.154	-2098
1037.217	-3240
1037.280	-2601
1037.344	-2280
1037.407	-2421
1037.471	-2377
1037.534	-2752
1037.597	-2992
1037.661	-2242
1037.724	-2451
1037.787	-2487
1037.850	-2847
1037.913	-2314
1037.977	-2684
1038.040	-2689
1038.103	-2993
1038.166	-2310
1038.229	-2061
1038.292	-2522
1038.355	-2156
1038.418	-1698
1038.481	-2675
1038.544	-2817
1038.607	-3210
1038.670	-1660
1038.732	-1700
1038.795	-2926
1038.858	-3386
1038.921	-2073
1038.984	-2747
1039.046	-2818
1039.109	-2563
1039.172	-2032
1039.234	-2189
1039.297	-3058
1039.360	-2519
1039.422	-2431
1039.485	-2677
1039.547	-3461
1039.610	-2854
1039.672	-2804
1039.734	-2114
1039.797	-2544
1039.859	-2993
1039.922	-2416
1039.984	-2678
1040.046	-2118
1040.109	-3193
1040.171	-2273
1040.233	-2822
1040.295	-2076
1040.358	-3093
1040.420	-2827
1040.482	-3442
1040.544	-2660
1040.606	-2857
1040.668	-2386
1040.730	-3215
1040.792	-2733
1040.854	-2787
1040.916	-2595
1040.978	-2971
1041.040	-2172
1041.102	-2793
1041.164	-1991
1041.225	-3119
1041.287	-2747
1041.349	-2942
1041.411	-2348
1041.472	-1897
1041.534	-2802
1041.596	-3272
1041.657	-1828
1041.719	-2752
1041.781	-2066
1041.842	-3196
1041.904	-2902
1041.965	-2826
1042.027	-1749
1042.088	-2277
1042.150	-2721
1042.211	-3105
1042.272	-1473
1042.334	-2814
1042.395	-2432
1042.456	-2026
1042.518	-2267
1042.579	-2405
1042.640	-2249
1042.701	-2067
1042.763	-2642
1042.824	-2688
1042.885	-2615
1042.946	-3358
1043.007	-2930
1043.068	-2924
1043.129	-2973
1043.190	-2798
1043.251	-2173
1043.312	-2494
1043.373	-2130
1043.434	-2187
1043.495	-2180
1043.556	-1768
1043.616	-1273
1043.677	-2295
1043.738	-2106
1043.799	-3355
1043.859	-1470
1043.920	-2799
1043.981	-2194
1044.041	-2494
1044.102	-2310
1044.162	-2239
1044.223	-2815
1044.284	-2570
1044.344	-1957
1044.405	-2499
1044.465	-2062
1044.525	-2546
1044.586	-2820
1044.646	-2365
1044.707	-2621
1044.767	-2380
1044.827	-2105
1044.887	-2690
1044.948	-2653
1045.008	-1791
1045.068	-1747
1045.128	-2682
1045.188	-2206
1045.249	-1991
1045.309	-2270
1045.369	-2298
1045.429	-2812
1045.489	-2299
1045.549	-1668
1045.609	-2574
1045.669	-2271
1045.729	-2022
1045.789	-1641
1045.848	-2349
1045.908	-2062
1045.968	-2127
1046.028	-1830
1046.088	-2108
1046.147	-1463
1046.207	-1757
1046.267	-1916
1046.326	-2150
1046.386	-1826
1046.446	-1709
1046.505	-1572
1046.565	-1902
1046.624	-501
1046.684	-1610
1046.743	-1352
1046.803	-579
1046.862	-553
1046.922	0
