'Start Wavelength	183.907
'End Wavelength	1046.922
'Gate Delay	5.000
'Gate Width (ms)	1.050
'Laser Output Level	0.000
'X Position	0.000
'Y Position	0.000
'Z Position	0.000
'Grid Point Number	1.000
'Shot Number	100.000
183.907	524.000
183.977	-594.000
184.047	383
184.116	206
184.186	365
184.256	184
184.325	123
184.395	-226
184.465	84
184.534	24
184.604	-28
184.674	195
184.743	511
184.813	300
184.883	272
184.952	168
185.022	-16
185.092	329
185.161	-263
185.231	-350
185.301	-263
185.370	120
185.440	264
185.509	-886
185.579	392
185.649	-196
185.718	-193
185.788	89
185.857	293
185.927	103
185.996	180
186.066	-331
186.136	-466
186.205	-1235
186.275	1201
186.344	-116
186.414	-51
186.483	-183
186.553	1380
186.622	459
186.692	273
186.761	362
186.831	20
186.900	-371
186.970	64
187.039	-189
187.109	616
187.178	-616
187.248	443
187.317	51
187.387	345
187.456	-394
187.526	425
187.595	486
187.664	-773
187.734	213
187.803	170
187.873	-174
187.942	942
188.012	-48
188.081	820
188.150	-400
188.220	508
188.289	-154
188.358	499
188.428	216
188.497	104
188.567	273
188.636	1
188.705	-14
188.775	592
188.844	-473
188.913	733
188.983	305
189.052	362
189.121	-139
189.191	-97
189.260	-310
189.329	654
189.399	-433
189.468	299
189.537	-758
189.606	462
189.676	-410
189.745	760
189.814	-530
189.883	349
189.953	266
190.022	-106
190.091	740
190.161	955
190.230	-376
190.299	-529
190.368	-504
190.437	-417
190.507	-165
190.576	-545
190.645	532
190.714	696
190.783	-152
190.853	399
190.922	314
190.991	277
191.060	-114
191.129	-23
191.198	447
191.268	-720
191.337	-92
191.406	159
191.475	-284
191.544	-204
191.613	149
191.682	1155
191.752	116
191.821	369
191.890	-131
191.959	869
192.028	364
192.097	379
192.166	-179
192.235	-295
192.304	127
192.373	145
192.442	34
192.511	505
192.580	219
192.650	25
192.719	-170
192.788	360
192.857	57
192.926	-138
192.995	664
193.064	244
193.133	-160
193.202	593
193.271	-438
193.340	400
193.409	306
193.478	1129
193.547	269
193.615	940
193.684	426
193.753	-143
193.822	-92
193.891	-144
193.960	43
194.029	-30
194.098	270
194.167	531
194.236	919
194.305	145
194.374	-32
194.443	926
194.512	82
194.580	617
194.649	490
194.718	19
194.787	-20
194.856	316
194.925	157
194.994	-573
195.062	405
195.131	350
195.200	309
195.269	134
195.338	160
195.407	342
195.475	-86
195.544	632
195.613	76
195.682	270
195.751	7
195.819	277
195.888	-675
195.957	753
196.026	-19
196.094	637
196.163	228
196.232	359
196.301	-175
196.369	516
196.438	280
196.507	517
196.576	-117
196.644	301
196.713	-214
196.782	73
196.850	458
196.919	973
196.988	-148
197.056	2
197.125	90
197.194	748
197.262	-761
197.331	855
197.400	-141
197.468	1070
197.537	-148
197.606	542
197.674	377
197.743	148
197.812	114
197.880	360
197.949	245
198.017	1474
198.086	343
198.155	635
198.223	-317
198.292	1436
198.360	573
198.429	523
198.497	527
198.566	1184
198.635	353
198.703	998
198.772	243
198.840	955
198.909	707
198.977	303
199.046	-29
199.114	1105
199.183	593
199.251	242
199.320	-168
199.388	643
199.457	113
199.525	420
199.594	57
199.662	290
199.731	-513
199.799	471
199.867	26
199.936	-304
200.004	345
200.073	373
200.141	-138
200.210	145
200.278	-11
200.346	782
200.415	85
200.483	974
200.552	48
200.620	590
200.688	-464
200.757	211
200.825	-37
200.893	-260
200.962	101
201.030	-402
201.098	208
201.167	453
201.235	-129
201.303	-546
201.372	-178
201.440	579
201.508	150
201.577	77
201.645	-64
201.713	696
201.781	206
201.850	1138
201.918	78
201.986	703
202.055	-76
202.123	409
202.191	-234
202.259	483
202.327	71
202.396	302
202.464	728
202.532	423
202.600	1902
202.669	370
202.737	375
202.805	480
202.873	-177
202.941	1290
203.009	896
203.078	-179
203.146	57
203.214	1098
203.282	-377
203.350	474
203.418	210
203.487	807
203.555	-192
203.623	855
203.691	-247
203.759	-101
203.827	-212
203.895	1158
203.963	-159
204.031	710
204.099	296
204.168	328
204.236	710
204.304	648
204.372	-113
204.440	615
204.508	-220
204.576	-636
204.644	691
204.712	-214
204.780	-76
204.848	397
204.916	-60
204.984	828
205.052	1032
205.120	1715
205.188	464
205.256	725
205.324	29
205.392	263
205.460	-194
205.528	454
205.596	-180
205.664	-111
205.732	304
205.799	1340
205.867	1885
205.935	-51
206.003	1244
206.071	137
206.139	-148
206.207	386
206.275	-166
206.343	530
206.411	-466
206.478	604
206.546	-137
206.614	347
206.682	-18
206.750	-51
206.818	666
206.885	1021
206.953	-543
207.021	819
207.089	-85
207.157	331
207.225	530
207.292	1180
207.360	-320
207.428	-41
207.496	694
207.563	1188
207.631	399
207.699	610
207.767	69
207.834	-428
207.902	-192
207.970	274
208.038	-59
208.105	863
208.173	-30
208.241	924
208.309	293
208.376	835
208.444	1136
208.512	521
208.579	-432
208.647	1180
208.715	1015
208.782	399
208.850	467
208.918	817
208.985	-402
209.053	936
209.120	-148
209.188	424
209.256	951
209.323	493
209.391	558
209.459	1325
209.526	559
209.594	503
209.661	326
209.729	655
209.796	836
209.864	153
209.932	-132
209.999	922
210.067	1353
210.134	1592
210.202	216
210.269	1717
210.337	1495
210.404	730
210.472	-109
210.539	1363
210.607	133
210.674	1378
210.742	871
210.809	109
210.877	438
210.944	1016
211.012	906
211.079	1417
211.146	511
211.214	1236
211.281	729
211.349	1489
211.416	189
211.484	736
211.551	804
211.618	1150
211.686	674
211.753	660
211.821	-87
211.888	1386
211.955	762
212.023	162
212.090	199
212.157	937
212.225	1378
212.292	1438
212.359	3352
212.427	5839
212.494	2483
212.561	1367
212.629	571
212.696	898
212.763	496
212.831	568
212.898	777
212.965	901
213.032	349
213.100	947
213.167	488
213.234	1264
213.301	313
213.369	1596
213.436	482
213.503	873
213.570	767
213.638	1481
213.705	1074
213.772	643
213.839	895
213.906	999
213.973	1331
214.041	-165
214.108	376
214.175	709
214.242	-29
214.309	401
214.376	1039
214.444	1523
214.511	435
214.578	1114
214.645	1023
214.712	1395
214.779	1436
214.846	1088
214.913	686
214.980	1606
215.048	1897
215.115	2967
215.182	1139
215.249	1304
215.316	-166
215.383	985
215.450	822
215.517	1154
215.584	1155
215.651	568
215.718	-220
215.785	935
215.852	672
215.919	1836
215.986	1072
216.053	1059
216.120	-14
216.187	1576
216.254	664
216.321	697
216.388	1351
216.455	1388
216.522	175
216.589	1241
216.656	1629
216.722	1477
216.789	987
216.856	2020
216.923	1300
216.990	1196
217.057	1372
217.124	2136
217.191	728
217.258	1844
217.324	2520
217.391	2928
217.458	2749
217.525	1285
217.592	694
217.659	592
217.725	1271
217.792	1711
217.859	1557
217.926	898
217.993	656
218.059	664
218.126	541
218.193	846
218.260	636
218.327	-329
218.393	439
218.460	661
218.527	-186
218.594	912
218.660	492
218.727	2370
218.794	270
218.860	716
218.927	97
218.994	485
219.061	-192
219.127	1247
219.194	1224
219.261	627
219.327	1035
219.394	773
219.461	-467
219.527	1077
219.594	1035
219.661	642
219.727	-426
219.794	1574
219.860	-355
219.927	1357
219.994	1111
220.060	2947
220.127	1821
220.193	1714
220.260	786
220.326	2468
220.393	3313
220.460	4089
220.526	2960
220.593	2052
220.659	1915
220.726	1663
220.792	2978
220.859	3225
220.925	4680
220.992	7288
221.058	6374
221.125	5231
221.191	2803
221.258	2071
221.324	1163
221.391	1129
221.457	731
221.524	1622
221.590	1454
221.657	4545
221.723	2105
221.789	1945
221.856	1763
221.922	535
221.989	1246
222.055	857
222.121	-140
222.188	2161
222.254	472
222.321	918
222.387	961
222.453	544
222.520	111
222.586	1041
222.652	119
222.719	21
222.785	80
222.851	492
222.918	56
222.984	447
223.050	215
223.116	-764
223.183	743
223.249	333
223.315	450
223.382	516
223.448	147
223.514	-168
223.580	357
223.647	123
223.713	-169
223.779	-112
223.845	778
223.911	992
223.978	-243
224.044	408
224.110	-85
224.176	850
224.242	-153
224.309	67
224.375	-87
224.441	-5
224.507	15
224.573	64
224.639	180
224.705	422
224.772	382
224.838	943
224.904	326
224.970	194
225.036	-609
225.102	576
225.168	753
225.234	1047
225.300	431
225.366	337
225.432	873
225.499	338
225.565	865
225.631	691
225.697	189
225.763	952
225.829	1131
225.895	1140
225.961	1868
226.027	1253
226.093	1351
226.159	2169
226.225	2762
226.291	6601
226.357	10108
226.423	5806
226.489	2312
226.554	2370
226.620	1591
226.686	1830
226.752	1911
226.818	5598
226.884	14266
226.950	11559
227.016	4550
227.082	2798
227.148	1637
227.214	1687
227.279	1132
227.345	845
227.411	408
227.477	1868
227.543	4123
227.609	3639
227.674	1443
227.740	1016
227.806	1149
227.872	598
227.938	261
228.003	2076
228.069	-245
228.135	506
228.201	333
228.267	581
228.332	500
228.398	916
228.464	970
228.530	418
228.595	214
228.661	557
228.727	998
228.792	1888
228.858	279
228.924	518
228.990	1448
229.055	1181
229.121	807
229.187	515
229.252	310
229.318	417
229.384	849
229.449	1485
229.515	-565
229.581	-507
229.646	2015
229.712	742
229.777	1716
229.843	2211
229.909	1227
229.974	2288
230.040	508
230.105	1033
230.171	586
230.236	1486
230.302	2476
230.368	2104
230.433	400
230.499	1542
230.564	1929
230.630	393
230.695	901
230.761	1174
230.826	580
230.892	2027
230.957	396
231.023	578
231.088	-28
231.154	811
231.219	833
231.284	910
231.350	761
231.415	712
231.481	1361
231.546	1320
231.612	428
231.677	682
231.742	-475
231.808	2280
231.873	-14
231.939	-340
232.004	1975
232.069	1637
232.135	1203
232.200	99
232.265	1237
232.331	526
232.396	264
232.461	86
232.527	-97
232.592	229
232.657	-151
232.723	1212
232.788	164
232.853	937
232.918	235
232.984	569
233.049	-168
233.114	583
233.179	561
233.245	1556
233.310	1160
233.375	-443
233.440	627
233.506	323
233.571	679
233.636	940
233.701	242
233.766	965
233.832	995
233.897	577
233.962	-273
234.027	1005
234.092	471
234.157	953
234.222	-15
234.288	1996
234.353	2631
234.418	3203
234.483	2279
234.548	1268
234.613	246
234.678	874
234.743	191
234.808	4018
234.873	1287
234.938	1695
235.004	628
235.069	1605
235.134	121
235.199	844
235.264	1045
235.329	-25
235.394	496
235.459	1124
235.524	6
235.589	1484
235.654	440
235.719	-187
235.784	534
235.849	132
235.913	1419
235.978	2215
236.043	2479
236.108	913
236.173	979
236.238	864
236.303	171
236.368	1056
236.433	1406
236.498	2172
236.563	1920
236.627	4686
236.692	16638
236.757	11874
236.822	4374
236.887	3007
236.952	2807
237.017	1472
237.081	2172
237.146	2315
237.211	7046
237.276	16286
237.341	24654
237.405	10733
237.470	4073
237.535	2448
237.600	2266
237.664	1787
237.729	1236
237.794	2089
237.859	4622
237.923	2789
237.988	1918
238.053	2280
238.118	1774
238.182	5462
238.247	4378
238.312	1253
238.376	1405
238.441	840
238.506	1885
238.570	-236
238.635	1564
238.700	750
238.764	323
238.829	2609
238.893	2295
238.958	1880
239.023	765
239.087	672
239.152	1296
239.216	299
239.281	53
239.346	1105
239.410	789
239.475	-102
239.539	5011
239.604	2806
239.668	1326
239.733	963
239.797	2143
239.862	6320
239.926	5848
239.991	2187
240.055	264
240.120	815
240.184	889
240.249	657
240.313	309
240.378	847
240.442	2008
240.507	4067
240.571	964
240.635	1564
240.700	1829
240.764	829
240.829	-18
240.893	-415
240.957	470
241.022	2909
241.086	3848
241.151	1412
241.215	-401
241.279	2440
241.344	2763
241.408	1566
241.472	1160
241.537	1277
241.601	902
241.665	545
241.730	236
241.794	1656
241.858	531
241.922	1094
241.987	1351
242.051	618
242.115	-422
242.179	1327
242.244	-62
242.308	1376
242.372	1267
242.436	1751
242.501	1021
242.565	422
242.629	274
242.693	1458
242.757	61
242.822	841
242.886	1018
242.950	1590
243.014	392
243.078	921
243.142	1409
243.206	872
243.271	512
243.335	648
243.399	2117
243.463	8617
243.527	18522
243.591	5924
243.655	2874
243.719	1226
243.783	2226
243.847	2175
243.911	2599
243.975	3855
244.040	1289
244.104	2497
244.168	1163
244.232	1571
244.296	2444
244.360	3361
244.424	553
244.488	1357
244.552	771
244.615	84
244.679	27
244.743	1033
244.807	-151
244.871	1687
244.935	1458
244.999	15
245.063	187
245.127	1706
245.191	2884
245.255	2113
245.319	1851
245.383	569
245.446	1558
245.510	968
245.574	684
245.638	874
245.702	-251
245.766	3064
245.829	2384
245.893	651
245.957	254
246.021	1965
246.085	366
246.149	1600
246.212	4723
246.276	6980
246.340	2625
246.404	1664
246.467	1940
246.531	2396
246.595	1889
246.659	1138
246.722	245
246.786	3003
246.850	2435
246.913	3153
246.977	709
247.041	1942
247.104	727
247.168	1454
247.232	4148
247.295	8652
247.359	3716
247.423	1359
247.486	3321
247.550	2670
247.614	2052
247.677	2528
247.741	1261
247.804	1439
247.868	1144
247.932	3925
247.995	8167
248.059	2718
248.122	761
248.186	1698
248.249	3703
248.313	14914
248.376	14176
248.440	8055
248.503	1784
248.567	3553
248.630	2980
248.694	5733
248.757	7784
248.821	15869
248.884	8375
248.948	7272
249.011	11575
249.075	18167
249.138	13595
249.202	6467
249.265	2886
249.328	3346
249.392	1946
249.455	3500
249.519	1216
249.582	3071
249.645	4391
249.709	3953
249.772	1396
249.835	1828
249.899	2628
249.962	2959
250.025	845
250.089	6425
250.152	7287
250.215	3895
250.279	2172
250.342	2872
250.405	2868
250.468	1948
250.532	3225
250.595	4710
250.658	20389
250.721	29461
250.785	10611
250.848	5856
250.911	3162
250.974	3703
251.038	4031
251.101	8179
251.164	3773
251.227	5003
251.290	3757
251.354	6841
251.417	29019
251.480	23967
251.543	18778
251.606	49386
251.669	33311
251.732	14065
251.795	12867
251.859	13806
251.922	30473
251.985	16380
252.048	7439
252.111	5370
252.174	4149
252.237	8723
252.300	17985
252.363	20780
252.426	38665
252.489	15171
252.552	7620
252.615	5484
252.678	6094
252.741	13354
252.804	18498
252.867	39322
252.930	22303
252.993	12191
253.056	7432
253.119	5939
253.182	3671
253.245	6705
253.308	5346
253.371	4003
253.434	3685
253.497	5035
253.559	8579
253.622	5292
253.685	6673
253.748	6291
253.811	2586
253.874	3138
253.937	2456
254.000	2739
254.062	5533
254.125	7842
254.188	8730
254.251	5962
254.314	2709
254.376	5983
254.439	6348
254.502	5292
254.565	5092
254.628	9921
254.690	5091
254.753	2562
254.816	1246
254.878	2821
254.941	5494
255.004	6067
255.067	2628
255.129	1966
255.192	1704
255.255	325
255.317	1693
255.380	665
255.443	467
255.505	808
255.568	395
255.631	777
255.693	925
255.756	471
255.819	1360
255.881	567
255.944	115
256.006	275
256.069	959
256.132	80
256.194	875
256.257	3632
256.319	2580
256.382	1947
256.444	2323
256.507	1692
256.569	779
256.632	1227
256.694	1319
256.757	10047
256.819	25410
256.882	8119
256.944	3616
257.007	2964
257.069	1687
257.132	1466
257.194	1783
257.257	386
257.319	678
257.381	1927
257.444	5992
257.506	32153
257.569	29124
257.631	13905
257.693	7602
257.756	4208
257.818	1881
257.880	1914
257.943	2358
258.005	1344
258.067	757
258.130	1756
258.192	1333
258.254	4018
258.317	1393
258.379	2144
258.441	4876
258.503	4564
258.566	5015
258.628	6595
258.690	1120
258.753	1830
258.815	3432
258.877	1301
258.939	427
259.001	2013
259.064	1027
259.126	854
259.188	1344
259.250	1912
259.312	1794
259.375	6831
259.437	2763
259.499	1972
259.561	1237
259.623	1479
259.685	787
259.747	2195
259.809	4926
259.872	8787
259.934	14193
259.996	13427
260.058	3830
260.120	1239
260.182	775
260.244	577
260.306	-63
260.368	1813
260.430	240
260.492	4457
260.554	7515
260.616	4143
260.678	7988
260.740	8347
260.802	1847
260.864	2430
260.926	544
260.988	1944
261.050	1307
261.112	5376
261.174	12479
261.236	7560
261.298	1666
261.359	3551
261.421	5881
261.483	950
261.545	1558
261.607	195
261.669	1022
261.731	2794
261.793	5981
261.854	1864
261.916	2144
261.978	2203
262.040	879
262.102	1516
262.164	1802
262.225	1484
262.287	573
262.349	4313
262.411	2533
262.472	1802
262.534	1681
262.596	4507
262.658	1092
262.719	514
262.781	2049
262.843	4036
262.904	1855
262.966	1890
263.028	1316
263.090	13018
263.151	28230
263.213	9976
263.275	5230
263.336	2364
263.398	1339
263.459	-390
263.521	1279
263.583	4777
263.644	2767
263.706	761
263.767	-249
263.829	725
263.891	-94
263.952	-166
264.014	-510
264.075	2699
264.137	6358
264.198	2572
264.260	507
264.321	567
264.383	4252
264.444	11053
264.506	2290
264.567	1596
264.629	5116
264.690	8552
264.752	2077
264.813	1324
264.875	-213
264.936	1654
264.998	659
265.059	492
265.120	888
265.182	1588
265.243	14271
265.305	11547
265.366	3131
265.427	1537
265.489	1276
265.550	-430
265.611	832
265.673	1009
265.734	794
265.795	1558
265.857	-95
265.918	746
265.979	3379
266.040	24080
266.102	15281
266.163	5242
266.224	3059
266.286	2263
266.347	21
266.408	1561
266.469	476
266.530	613
266.592	-39
266.653	2765
266.714	3617
266.775	758
266.836	-277
266.898	819
266.959	1227
267.020	1037
267.081	822
267.142	660
267.203	382
267.264	206
267.326	1443
267.387	959
267.448	-1
267.509	1355
267.570	149
267.631	-74
267.692	-641
267.753	68
267.814	-805
267.875	2932
267.936	4084
267.997	3283
268.058	2246
268.119	477
268.180	662
268.241	-154
268.302	319
268.363	196
268.424	363
268.485	861
268.546	-491
268.607	-438
268.668	-195
268.729	11
268.790	-509
268.851	1030
268.912	3746
268.972	3575
269.033	1914
269.094	533
269.155	199
269.216	469
269.277	754
269.338	260
269.398	492
269.459	359
269.520	1693
269.581	1896
269.642	2274
269.702	1176
269.763	1379
269.824	436
269.885	1253
269.945	3265
270.006	496
270.067	-46
270.128	129
270.188	1
270.249	-599
270.310	-176
270.370	112
270.431	397
270.492	-620
270.553	885
270.613	2347
270.674	6163
270.734	1059
270.795	927
270.856	917
270.916	500
270.977	985
271.038	1501
271.098	669
271.159	2988
271.219	1493
271.280	518
271.340	532
271.401	637
271.462	1694
271.522	1665
271.583	691
271.643	1505
271.704	341
271.764	598
271.825	3178
271.885	15257
271.946	16434
272.006	5493
272.066	8128
272.127	13618
272.187	4424
272.248	2277
272.308	1650
272.369	10486
272.429	4333
272.489	3285
272.550	2940
272.610	4299
272.671	1914
272.731	3424
272.791	3834
272.852	2163
272.912	1476
272.972	617
273.033	284
273.093	1961
273.153	2049
273.214	1472
273.274	750
273.334	9093
273.394	14849
273.455	5740
273.515	6509
273.575	13563
273.635	4996
273.696	7234
273.756	12996
273.816	5037
273.876	2776
273.936	6280
273.997	8627
274.057	2514
274.117	1555
274.177	2857
274.237	19388
274.297	13829
274.358	7963
274.418	11089
274.478	7596
274.538	2556
274.598	1277
274.658	7956
274.718	8733
274.778	3780
274.838	774
274.898	4044
274.958	12416
275.018	13665
275.078	7283
275.138	3649
275.198	1544
275.258	1146
275.318	1240
275.378	4240
275.438	3875
275.498	2530
275.558	5540
275.618	13612
275.678	9326
275.738	6467
275.798	4245
275.858	2683
275.918	100
275.978	1560
276.038	807
276.098	863
276.157	3904
276.217	10527
276.277	4296
276.337	2915
276.397	1213
276.457	2903
276.517	985
276.576	1201
276.636	419
276.696	2500
276.756	6691
276.815	3320
276.875	1122
276.935	2175
276.995	1732
277.055	817
277.114	1729
277.174	2383
277.234	7713
277.293	2965
277.353	1858
277.413	1259
277.472	1042
277.532	1036
277.592	1851
277.651	10051
277.711	16006
277.771	4985
277.830	21242
277.890	13962
277.950	11418
278.009	32263
278.069	9584
278.128	12957
278.188	16510
278.248	7332
278.307	19698
278.367	10763
278.426	2778
278.486	2027
278.545	922
278.605	1388
278.664	547
278.724	1414
278.783	6415
278.843	15066
278.902	3952
278.962	2431
279.021	2100
279.081	3856
279.140	3369
279.199	2916
279.259	2325
279.318	3657
279.378	3408
279.437	6965
279.496	29603
279.556	81540
279.615	55037
279.675	14659
279.734	8502
279.793	13041
279.853	19695
279.912	7356
279.971	4494
280.031	3762
280.090	8819
280.149	15225
280.208	10772
280.268	57242
280.327	49818
280.386	12546
280.445	9804
280.505	6900
280.564	3237
280.623	2448
280.682	5126
280.742	7652
280.801	2004
280.860	1734
280.919	1270
280.978	2110
281.037	1426
281.097	882
281.156	1448
281.215	1344
281.274	1811
281.333	12683
281.392	7523
281.451	2205
281.510	1426
281.569	1951
281.628	481
281.688	920
281.747	1572
281.806	1410
281.865	1505
281.924	1466
281.983	914
282.042	-187
282.101	202
282.160	1036
282.219	14
282.278	1124
282.337	6250
282.396	3138
282.454	360
282.513	1748
282.572	9123
282.631	4803
282.690	1507
282.749	748
282.808	1077
282.867	1506
282.926	1224
282.985	956
283.043	283
283.102	813
283.161	1279
283.220	5238
283.279	11258
283.338	2674
283.396	802
283.455	2006
283.514	1647
283.573	2812
283.631	2004
283.690	1036
283.749	870
283.808	5112
283.866	4433
283.925	1289
283.984	1895
284.043	2961
284.101	2086
284.160	1793
284.219	3360
284.277	2183
284.336	3519
284.395	16105
284.453	11229
284.512	4389
284.570	5159
284.629	5027
284.688	4252
284.746	4938
284.805	5339
284.863	9450
284.922	9978
284.981	12409
285.039	16978
285.098	31856
285.156	76777
285.215	112765
285.273	114297
285.332	77870
285.390	41951
285.449	25728
285.507	15687
285.566	12161
285.624	8680
285.683	6111
285.741	4634
285.799	4660
285.858	3616
285.916	3698
285.975	3387
286.033	2625
286.091	1996
286.150	3002
286.208	2558
286.267	2894
286.325	1256
286.383	4212
286.442	2624
286.500	1667
286.558	943
286.616	1535
286.675	2000
286.733	2109
286.791	971
286.850	2204
286.908	2560
286.966	5176
287.024	2275
287.083	1670
287.141	1149
287.199	1620
287.257	2657
287.315	1573
287.374	1614
287.432	6011
287.490	2767
287.548	1792
287.606	1568
287.664	1504
287.723	1732
287.781	3597
287.839	1583
287.897	2457
287.955	2255
288.013	4136
288.071	9436
288.129	50804
288.187	124361
288.245	51931
288.303	17729
288.361	9440
288.419	6539
288.477	3455
288.535	2263
288.593	2712
288.651	1168
288.709	1114
288.767	2172
288.825	1108
288.883	949
288.941	839
288.999	452
289.057	1163
289.115	673
289.173	689
289.231	788
289.289	1047
289.346	547
289.404	1419
289.462	1795
289.520	3341
289.578	343
289.636	1187
289.694	92
289.751	204
289.809	375
289.867	391
289.925	1763
289.983	1895
290.040	226
290.098	490
290.156	959
290.214	2215
290.271	34
290.329	248
290.387	552
290.444	553
290.502	-379
290.560	558
290.617	372
290.675	555
290.733	-388
290.790	1392
290.848	452
290.906	1320
290.963	395
291.021	913
291.078	-114
291.136	779
291.194	6967
291.251	14092
291.309	3359
291.366	1773
291.424	360
291.481	1089
291.539	858
291.596	653
291.654	45
291.711	1199
291.769	481
291.826	3324
291.884	1451
291.941	226
291.999	984
292.056	1416
292.114	1489
292.171	130
292.228	1101
292.286	1377
292.343	3444
292.401	3362
292.458	2356
292.515	1120
292.573	1394
292.630	1990
292.687	484
292.745	894
292.802	1785
292.859	8309
292.917	14324
292.974	7339
293.031	2198
293.089	1493
293.146	694
293.203	1375
293.260	460
293.318	1503
293.375	3123
293.432	1028
293.489	831
293.546	1330
293.604	1474
293.661	8311
293.718	20649
293.775	10896
293.832	4766
293.889	3728
293.947	3070
294.004	2554
294.061	1769
294.118	6801
294.175	15566
294.232	19958
294.289	6695
294.346	3267
294.403	2207
294.460	2749
294.517	1281
294.574	1251
294.631	618
294.688	1734
294.745	5254
294.802	27019
294.859	28072
294.916	11192
294.973	4789
295.030	4636
295.087	2895
295.144	2033
295.201	2134
295.258	1386
295.315	1513
295.372	9427
295.429	16340
295.486	6317
295.542	4422
295.599	14675
295.656	22123
295.713	16142
295.770	17282
295.827	6290
295.883	2847
295.940	2817
295.997	5043
296.054	4329
296.111	2002
296.167	1706
296.224	1126
296.281	412
296.338	715
296.394	2198
296.451	1680
296.508	8349
296.564	13818
296.621	9475
296.678	20822
296.734	26034
296.791	9847
296.848	5031
296.904	4782
296.961	11706
297.018	21211
297.074	14795
297.131	4675
297.187	3531
297.244	4129
297.301	21190
297.357	32207
297.414	11653
297.470	4651
297.527	3080
297.583	1991
297.640	1558
297.696	2150
297.753	1562
297.809	1772
297.866	857
297.922	443
297.979	1352
298.035	596
298.092	3055
298.148	11808
298.204	10583
298.261	4020
298.317	9797
298.374	23485
298.430	12652
298.486	5650
298.543	3339
298.599	3106
298.656	3880
298.712	7919
298.768	19577
298.824	13598
298.881	5145
298.937	2486
298.993	2027
299.050	3178
299.106	2847
299.162	1987
299.218	2064
299.275	1253
299.331	1788
299.387	4914
299.443	23377
299.500	23821
299.556	12031
299.612	4462
299.668	4686
299.724	8615
299.780	9138
299.837	3314
299.893	5110
299.949	21650
300.005	22225
300.061	22256
300.117	32682
300.173	14501
300.229	6797
300.285	6815
300.341	8007
300.397	4246
300.453	3650
300.510	1870
300.566	2857
300.622	4098
300.678	17334
300.734	27049
300.790	21703
300.845	21763
300.901	16161
300.957	24542
301.013	15298
301.069	6012
301.125	4247
301.181	3818
301.237	3983
301.293	1314
301.349	2202
301.405	1734
301.461	1753
301.516	2797
301.572	4436
301.628	5113
301.684	4511
301.740	8581
301.796	12229
301.851	8110
301.907	13558
301.963	11722
302.019	23453
302.074	61687
302.130	55126
302.186	25055
302.242	10641
302.297	6353
302.353	6475
302.409	13174
302.464	11415
302.520	8291
302.576	22220
302.631	24345
302.687	14289
302.743	6501
302.798	3686
302.854	1788
302.910	3156
302.965	3667
303.021	7462
303.076	6079
303.132	9033
303.187	9743
303.243	5073
303.299	2359
303.354	1544
303.410	1924
303.465	2608
303.521	1139
303.576	1908
303.632	1439
303.687	7254
303.743	19260
303.798	15742
303.853	6170
303.909	3494
303.964	2233
304.020	5605
304.075	6907
304.130	8033
304.186	12695
304.241	12792
304.297	10443
304.352	4924
304.358	4665
304.407	2568
304.449	3354
304.463	3625
304.518	3419
304.539	2929
304.573	2128
304.629	2555
304.630	2610
304.684	5164
304.720	12359
304.739	16007
304.794	20045
304.811	17071
304.850	10001
304.902	5127
304.905	4814
304.960	2829
304.992	3271
305.015	3587
305.071	3246
305.083	3054
305.126	2379
305.173	1937
305.181	1873
305.236	1517
305.264	1415
305.292	1248
305.347	2821
305.354	2815
305.402	2967
305.445	3414
305.457	3505
305.512	3699
305.535	3810
305.567	3961
305.622	3357
305.626	3588
305.678	7899
305.716	17204
305.733	20895
305.788	20902
305.807	18372
305.843	13753
305.897	19105
305.898	19170
305.953	16891
305.988	12281
306.008	9668
306.063	6291
306.078	5579
306.118	3960
306.168	2453
306.173	2300
306.228	1784
306.259	1529
306.283	1479
306.338	1467
306.349	1572
306.393	1768
306.440	2311
306.448	2446
306.503	1893
306.530	2392
306.558	3212
306.613	9211
306.620	9941
306.668	14569
306.711	18519
306.723	19128
306.778	14612
306.801	11386
306.833	7462
306.888	3432
306.892	3323
306.943	2500
306.982	2449
306.997	2488
307.052	1994
307.072	2114
307.107	2234
307.162	3152
307.163	3175
307.217	5618
307.253	7045
307.272	7445
307.327	7240
307.343	6553
307.381	5202
307.434	4188
307.436	4225
307.491	9352
307.524	14526
307.546	16829
307.600	15585
307.614	14102
307.655	9100
307.704	4394
307.710	4078
307.765	4277
307.795	5970
307.819	7510
307.874	12149
307.885	11947
307.929	9438
307.975	6994
307.984	6847
308.038	7306
308.065	9320
308.093	14956
308.148	36695
308.156	42950
308.202	77879
308.246	89023
308.257	87173
308.312	48297
308.336	35293
308.366	26158
308.421	16391
308.426	15653
308.475	9794
308.517	7182
308.530	6540
308.585	5158
308.607	4686
308.639	4361
308.694	4733
308.697	4903
308.748	9095
308.787	13611
308.803	14346
308.857	11608
308.877	10000
308.912	7829
308.967	6621
308.967	6633
309.021	8702
309.058	11304
309.076	13592
309.130	23580
309.148	28352
309.185	49048
309.238	94590
309.239	94952
309.293	112371
309.328	101565
309.348	87519
309.402	43165
309.418	32871
309.457	21656
309.508	13600
309.511	13245
309.566	12012
309.598	12549
309.620	14221
309.674	21345
309.688	23146
309.729	23026
309.778	18355
309.783	17846
309.837	12309
309.868	9610
309.892	9751
309.946	13799
309.959	15467
310.001	20779
310.049	24029
310.055	23378
310.109	14320
310.139	9428
310.163	7201
310.218	4398
310.229	3950
310.272	3353
310.319	3063
310.326	2901
310.381	2428
310.409	1884
310.435	1870
310.489	2202
310.499	2308
310.543	2357
310.589	2298
310.598	2309
310.652	2471
310.679	2520
310.706	2153
310.760	1342
310.769	1219
310.814	1487
310.859	1858
310.868	1813
310.923	1628
310.948	1449
310.977	1476
311.031	1901
311.038	1926
311.085	1558
311.128	1348
311.139	1451
311.193	1791
311.218	1979
311.247	1828
311.301	1596
311.308	1573
311.356	1862
311.398	2117
311.410	2087
311.464	1950
311.488	1857
311.518	1670
311.572	1479
311.578	1449
311.626	1640
311.668	1919
311.680	2016
311.734	2368
311.758	2563
311.788	2293
311.842	1735
311.847	1695
311.896	2599
311.937	3423
311.950	3352
312.004	3076
312.027	2951
312.058	2579
312.112	1969
312.117	1918
312.165	1592
312.207	1337
312.297	2513
312.386	2074
312.476	1384
312.566	2740
312.656	1379
312.745	1859
312.835	1915
312.925	1522
313.015	1145
313.104	1313
313.194	2184
313.284	1325
313.374	2456
313.463	1309
313.553	1105
313.643	990
313.732	1426
313.822	1039
313.912	1867
314.001	1467
314.091	2080
314.180	2865
314.270	2724
314.360	1840
314.449	2459
314.539	579
314.628	1971
314.718	1477
314.808	2579
314.897	1273
314.987	1778
315.076	1830
315.166	2432
315.255	1892
315.345	2571
315.434	2001
315.524	1960
315.613	1568
315.703	3471
315.792	4154
315.881	10811
315.971	3397
316.060	4109
316.150	5630
316.239	6375
316.328	1592
316.418	1798
316.507	319
316.597	2011
316.686	1748
316.775	2776
316.865	5744
316.954	2349
317.043	1119
317.133	1953
317.222	1232
317.311	1733
317.400	245
317.490	2980
317.579	2163
317.668	2046
317.757	2280
317.847	7441
317.936	18990
318.025	7429
318.114	4517
318.203	3660
318.293	3833
318.382	8248
318.471	6660
318.560	9867
318.649	17636
318.738	3683
318.828	1491
318.917	2041
319.006	2563
319.095	8435
319.184	21469
319.273	12220
319.362	4636
319.451	2264
319.540	2110
319.629	4051
319.718	5786
319.807	3464
319.896	6524
319.985	27241
320.074	9320
320.163	2200
320.252	3864
320.341	4121
320.430	3112
320.519	3882
320.608	1818
320.697	2615
320.786	1462
320.875	2931
320.964	2334
321.053	4508
321.142	5992
321.230	6743
321.319	5287
321.408	11909
321.497	5706
321.586	5321
321.675	5500
321.764	5784
321.852	3847
321.941	5911
322.030	3898
322.119	5076
322.207	12009
322.296	9591
322.385	4344
322.474	5338
322.562	13275
322.651	8429
322.740	5064
322.829	7847
322.917	7221
323.006	3974
323.095	3891
323.183	3491
323.272	3379
323.361	8533
323.449	23239
323.538	7836
323.626	16163
323.715	10482
323.804	3954
323.892	14597
323.981	8296
324.069	2839
324.158	8904
324.246	7781
324.335	2350
324.424	4175
324.512	2122
324.601	2701
324.689	6634
324.778	14278
324.866	5618
324.954	2366
325.043	798
325.131	3244
325.220	6261
325.308	6728
325.397	4928
325.485	3329
325.574	1266
325.662	2193
325.750	842
325.839	1796
325.927	1346
326.015	1663
326.104	2605
326.192	4013
326.280	747
326.369	1367
326.457	1801
326.545	3381
326.634	1687
326.722	1320
326.810	547
326.898	2456
326.987	1476
327.075	2980
327.163	3693
327.251	2934
327.340	4710
327.428	8486
327.516	1482
327.604	1051
327.692	1177
327.781	1766
327.869	2921
327.957	1907
328.045	1463
328.133	869
328.221	1086
328.309	1882
328.397	666
328.485	1838
328.574	2008
328.662	7093
328.750	3518
328.838	975
328.926	1048
329.014	1325
329.102	1077
329.190	5368
329.278	2750
329.366	1177
329.454	666
329.542	1091
329.630	391
329.718	1198
329.806	964
329.893	2524
329.981	917
330.069	2290
330.157	8189
330.245	27973
330.333	13851
330.421	2940
330.509	2038
330.597	8177
330.684	5658
330.772	2449
330.860	2655
330.948	4783
331.036	2676
331.123	364
331.211	969
331.299	1318
331.387	3068
331.475	7217
331.562	1796
331.650	2056
331.738	1349
331.825	2125
331.913	557
332.001	1182
332.089	1277
332.176	2842
332.264	7501
332.352	6731
332.439	1649
332.527	2190
332.614	1566
332.702	2255
332.790	838
332.877	3983
332.965	7443
333.052	2043
333.140	1814
333.228	5394
333.315	796
333.403	1696
333.490	4044
333.578	4084
333.665	6934
333.753	2887
333.840	801
333.928	2591
334.015	4598
334.103	8431
334.190	27481
334.278	8154
334.365	3645
334.452	3239
334.540	1991
334.627	2330
334.715	2880
334.802	4459
334.889	28532
334.977	32777
335.064	6045
335.151	2919
335.239	2113
335.326	2632
335.413	12728
335.501	20590
335.588	2372
335.675	1679
335.762	2657
335.850	4611
335.937	2733
336.024	8750
336.111	34884
336.199	19304
336.286	4858
336.373	1264
336.460	991
336.547	1645
336.635	1611
336.722	1922
336.809	1324
336.896	2501
336.983	6860
337.070	20059
337.157	29764
337.245	19491
337.332	13349
337.419	1863
337.506	1394
337.593	1455
337.680	5775
337.767	21029
337.854	4888
337.941	6045
338.028	6469
338.115	2031
338.202	2844
338.289	4760
338.376	18009
338.463	7133
338.550	11095
338.637	13989
338.724	3309
338.811	6322
338.898	1938
338.984	1933
339.071	699
339.158	1833
339.245	3892
339.332	3733
339.419	3539
339.506	4614
339.593	442
339.679	1387
339.766	207
339.853	1418
339.940	2952
340.027	1501
340.113	531
340.200	1547
340.287	490
340.374	2023
340.460	2087
340.547	1020
340.634	2500
340.720	7555
340.807	4503
340.894	880
340.980	1109
341.067	639
341.154	747
341.240	2282
341.327	3168
341.414	1828
341.500	1411
341.587	1208
341.674	771
341.760	2632
341.847	2569
341.933	1642
342.020	37
342.106	427
342.193	415
342.279	2560
342.366	542
342.452	2720
342.539	1103
342.625	3156
342.712	7763
342.798	3784
342.885	678
342.971	476
343.058	-645
343.144	601
343.230	157
343.317	1205
343.403	63
343.490	958
343.576	475
343.662	931
343.749	1193
343.835	1651
343.921	2275
344.008	17754
344.094	47171
344.180	10769
344.267	2321
344.353	11725
344.439	12871
344.525	5396
344.612	1527
344.698	1581
344.784	452
344.870	839
344.957	289
345.043	2051
345.129	757
345.215	2560
345.301	1224
345.387	1283
345.474	-28
345.560	1226
345.646	615
345.732	480
345.818	664
345.904	705
345.990	774
346.076	840
346.162	2085
346.249	1442
346.335	288
346.421	1169
346.507	4036
346.593	18296
346.679	3138
346.765	1290
346.851	1212
346.937	303
347.023	1250
347.108	1751
347.194	751
347.280	884
347.366	704
347.452	4974
347.538	21368
347.624	16742
347.710	12416
347.796	2394
347.882	152
347.967	1248
348.053	886
348.139	1222
348.225	306
348.311	442
348.397	-560
348.482	1206
348.568	529
348.654	468
348.740	1960
348.825	1433
348.911	2364
348.997	8839
349.083	21528
349.168	2988
349.254	703
349.340	1435
349.425	378
349.511	740
349.597	828
349.682	2394
349.768	11304
349.854	5682
349.939	1100
350.025	422
350.110	140
350.196	1016
350.282	-776
350.367	1096
350.453	1293
350.538	1566
350.624	792
350.709	654
350.795	52
350.880	469
350.966	1281
351.051	1156
351.137	588
351.222	887
351.308	2468
351.393	9487
351.479	1993
351.564	364
351.649	-136
351.735	134
351.820	468
351.906	-26
351.991	424
352.076	4910
352.162	9066
352.247	1384
352.332	1173
352.418	1460
352.503	2594
352.588	12843
352.673	10732
352.759	2351
352.844	1055
352.929	858
353.014	553
353.100	1616
353.185	1006
353.270	3187
353.355	2428
353.441	1232
353.526	401
353.611	2041
353.696	1922
353.781	2592
353.866	24
353.952	1436
354.037	1710
354.122	5708
354.207	4101
354.292	1882
354.377	438
354.462	952
354.547	410
354.632	1007
354.717	2230
354.802	2660
354.887	-58
354.972	-71
355.057	236
355.142	-142
355.227	446
355.312	1766
355.397	2760
355.482	9179
355.567	4466
355.652	2807
355.737	3743
355.822	12208
355.907	11574
355.991	1984
356.076	359
356.161	1022
356.246	106
356.331	1145
356.416	2258
356.501	21495
356.585	24470
356.670	2580
356.755	2423
356.840	2439
356.924	12360
357.009	52132
357.094	22263
357.179	3088
357.263	2066
357.348	2199
357.433	1960
357.517	2053
357.602	992
357.687	1240
357.771	1683
357.856	5713
357.941	3201
358.025	8818
358.110	48760
358.195	26596
358.279	3132
358.364	2641
358.448	7385
358.533	22278
358.617	17426
358.702	16019
358.787	5610
358.871	2969
358.956	1798
359.040	-34
359.125	612
359.209	1084
359.294	2076
359.378	4217
359.462	1961
359.547	1330
359.631	450
359.716	47
359.800	317
359.885	1809
359.969	-201
360.053	1839
360.138	916
360.222	1229
360.306	2677
360.391	2226
360.475	3027
360.559	8002
360.644	7052
360.728	6529
360.812	10531
360.896	34902
360.981	13221
361.065	6592
361.149	1740
361.233	1593
361.318	763
361.402	976
361.486	609
361.570	616
361.654	1715
361.739	3375
361.823	18628
361.907	36226
361.991	5649
362.075	2700
362.159	5126
362.243	5436
362.327	3652
362.411	10881
362.495	4494
362.580	1846
362.664	723
362.748	1044
362.832	2350
362.916	2615
363.000	13158
363.084	37914
363.168	45177
363.252	10702
363.336	3432
363.420	4965
363.503	17573
363.587	24516
363.671	2356
363.755	1225
363.839	3050
363.923	1522
364.007	3410
364.091	4625
364.175	5202
364.258	32857
364.342	26018
364.426	37842
364.510	21426
364.594	7214
364.677	5716
364.761	26862
364.845	23924
364.929	5432
365.013	3794
365.096	2990
365.180	3428
365.264	7014
365.347	31189
365.431	15130
365.515	2563
365.598	1024
365.682	1014
365.766	1700
365.849	3887
365.933	1201
366.017	2884
366.100	1437
366.184	-351
366.267	688
366.351	819
366.435	640
366.518	70
366.602	642
366.685	-238
366.769	814
366.852	1868
366.936	4566
367.019	1560
367.103	1450
367.186	3519
367.270	950
367.353	-247
367.436	763
367.520	342
367.603	1133
367.687	763
367.770	3137
367.853	2588
367.937	8226
368.020	15392
368.104	3080
368.187	1714
368.270	4109
368.353	3016
368.437	4183
368.520	10388
368.603	7290
368.687	7672
368.770	19106
368.853	3870
368.936	3578
369.020	3921
369.103	1754
369.186	-541
369.269	1286
369.352	2468
369.436	3324
369.519	1426
369.602	-149
369.685	1507
369.768	-133
369.851	827
369.934	946
370.018	256
370.101	1047
370.184	3036
370.267	1495
370.350	2941
370.433	5052
370.516	14587
370.599	22506
370.682	4562
370.765	9172
370.848	11167
370.931	22272
371.014	10179
371.097	1695
371.180	1138
371.263	1017
371.346	-464
371.429	1745
371.511	541
371.594	1355
371.677	3928
371.760	5037
371.843	2879
371.926	14884
372.009	41426
372.091	16585
372.174	7338
372.257	23174
372.340	9966
372.423	5357
372.505	7496
372.588	2863
372.671	6217
372.754	21708
372.836	12411
372.919	8400
373.002	18674
373.085	6686
373.167	3673
373.250	8769
373.332	21128
373.415	26927
373.498	57193
373.580	24636
373.663	25436
373.746	41474
373.828	8249
373.911	4284
373.993	3542
374.076	15898
374.159	18747
374.241	6513
374.324	16364
374.406	13475
374.489	14416
374.571	48882
374.654	23494
374.736	8931
374.819	28528
374.901	42163
374.983	45725
375.066	9715
375.148	2412
375.231	12340
375.313	28744
375.395	10744
375.478	2645
375.560	2111
375.643	2335
375.725	7514
375.807	33438
375.890	33331
375.972	10481
376.054	6195
376.136	9354
376.219	4676
376.301	9101
376.383	31962
376.465	14181
376.548	5347
376.630	7370
376.712	26143
376.794	13404
376.877	1887
376.959	397
377.041	695
377.123	2463
377.205	5010
377.287	35
377.369	1537
377.452	-229
377.534	1095
377.616	-239
377.698	864
377.780	-199
377.862	1189
377.944	1143
378.026	-149
378.108	-84
378.190	1190
378.272	727
378.354	632
378.436	716
378.518	578
378.600	6081
378.682	6831
378.764	10916
378.846	9973
378.928	2456
379.010	3537
379.091	2266
379.173	970
379.255	277
379.337	2142
379.419	4996
379.501	17829
379.583	8154
379.664	2282
379.746	2359
379.828	11706
379.910	15991
379.991	15649
380.073	2738
380.155	1858
380.237	870
380.318	781
380.400	873
380.482	1801
380.564	3004
380.645	3688
380.727	2885
380.809	2895
380.890	545
380.972	1040
381.053	682
381.135	2066
381.217	3760
381.298	12784
381.380	6380
381.461	4432
381.543	23370
381.624	34388
381.706	6379
381.787	3216
381.869	3782
381.951	10201
382.032	41689
382.113	32841
382.195	5247
382.276	4623
382.358	7297
382.439	24015
382.521	27918
382.602	44383
382.684	21389
382.765	30635
382.846	38821
382.928	52673
383.009	33826
383.090	18820
383.172	66100
383.253	117066
383.334	42970
383.416	38806
383.497	23327
383.578	9324
383.659	15590
383.741	53910
383.822	155803
383.903	96121
383.984	26972
384.066	44752
384.147	28920
384.228	7376
384.309	3545
384.390	3836
384.471	2280
384.553	2095
384.634	2948
384.715	4032
384.796	1741
384.877	3003
384.958	9975
385.039	14974
385.120	4970
385.201	3016
385.282	2213
385.363	3590
385.444	2172
385.525	4929
385.606	18241
385.687	20137
385.768	4436
385.849	4503
385.930	17699
386.011	36878
386.092	10845
386.173	2394
386.254	1034
386.335	2430
386.416	2036
386.496	7126
386.577	12796
386.658	5007
386.739	1503
386.820	2891
386.901	1365
386.981	2491
387.062	773
387.143	2368
387.224	11128
387.304	14734
387.385	4513
387.466	2151
387.547	4063
387.627	3104
387.708	4714
387.789	21298
387.869	29766
387.950	9713
388.031	1758
388.111	491
388.192	4708
388.273	7970
388.353	3416
388.434	2455
388.514	4003
388.595	21189
388.676	30062
388.756	13238
388.837	9856
388.917	8041
388.998	295
389.078	1445
389.159	905
389.239	-129
389.320	2251
389.400	441
389.480	4463
389.561	14411
389.641	8594
389.722	2389
389.802	2632
389.883	6027
389.963	16467
390.043	12746
390.124	2687
390.204	4151
390.284	12487
390.365	9589
390.445	11173
390.525	24913
390.605	22891
390.686	7503
390.766	3851
390.846	2743
390.927	910
391.007	592
391.087	1042
391.167	1706
391.247	750
391.328	3000
391.408	4159
391.488	2796
391.568	407
391.648	1767
391.728	2380
391.808	3232
391.888	2000
391.969	7064
392.049	12291
392.129	7068
392.209	5780
392.289	16536
392.369	10150
392.449	8174
392.529	5240
392.609	4430
392.689	4819
392.769	15991
392.849	16067
392.929	11606
393.009	24894
393.089	23288
393.169	19511
393.248	55720
393.328	193567
393.408	246366
393.488	79866
393.568	21303
393.648	10641
393.728	5802
393.807	3435
393.887	4598
393.967	2800
394.047	3511
394.127	3738
394.206	6632
394.286	18818
394.366	89072
394.446	116891
394.525	28293
394.605	5825
394.685	5173
394.764	10321
394.844	18455
394.924	14953
395.003	4412
395.083	2127
395.163	2285
395.242	2072
395.322	2734
395.402	711
395.481	3774
395.561	5718
395.640	21711
395.720	19892
395.799	23844
395.879	21002
395.958	9994
396.038	27549
396.117	117916
396.197	154851
396.276	46735
396.356	13289
396.435	10564
396.515	7762
396.594	8152
396.673	16866
396.753	57499
396.832	184156
396.912	164704
396.991	41828
397.070	12349
397.150	4644
397.229	4790
397.308	6166
397.388	11938
397.467	6796
397.546	2974
397.625	-455
397.705	3400
397.784	877
397.863	650
397.942	1217
398.022	1598
398.101	4609
398.180	19753
398.259	11631
398.338	3187
398.417	946
398.497	1083
398.576	1026
398.655	290
398.734	-199
398.813	1473
398.892	4898
398.971	20970
399.050	12099
399.129	804
399.208	484
399.287	286
399.366	-589
399.445	540
399.524	389
399.603	-795
399.682	1385
399.761	5267
399.840	20669
399.919	20586
399.998	2645
400.077	-84
400.156	-1125
400.235	2016
400.313	187
400.392	294
400.471	5074
400.550	9523
400.629	1698
400.708	1375
400.786	-132
400.865	3544
400.944	4168
401.023	3173
401.102	-383
401.180	644
401.259	-73
401.338	14
401.416	1003
401.495	46
401.574	912
401.652	323
401.731	758
401.810	705
401.888	249
401.967	-371
402.046	-241
402.124	759
402.203	242
402.281	1042
402.360	1480
402.438	4917
402.517	2929
402.596	998
402.674	439
402.753	-53
402.831	275
402.910	852
402.988	3450
403.066	16695
403.145	13051
403.223	5099
403.302	12956
403.380	12066
403.459	10252
403.537	4201
403.615	356
403.694	-211
403.772	106
403.850	-268
403.929	-1285
404.007	-787
404.085	2157
404.164	1591
404.242	-677
404.320	1516
404.398	2844
404.477	6720
404.555	29935
404.633	33071
404.711	5479
404.789	2034
404.868	-155
404.946	-663
405.024	-433
405.102	-113
405.180	-993
405.258	-1387
405.336	38
405.415	-857
405.493	1439
405.571	1870
405.649	-192
405.727	-751
405.805	665
405.883	182
405.961	164
406.039	1459
406.117	-493
406.195	1771
406.273	4385
406.351	26849
406.429	20231
406.507	2299
406.585	584
406.663	746
406.740	-407
406.818	122
406.896	-784
406.974	992
407.052	275
407.130	13258
407.208	23812
407.285	5948
407.363	-699
407.441	-222
407.519	-571
407.596	712
407.674	2527
407.752	10342
407.830	12495
407.907	4577
407.985	-112
408.063	542
408.141	-522
408.218	1708
408.296	199
408.373	11
408.451	-396
408.529	118
408.606	-552
408.684	401
408.762	-575
408.839	-244
408.917	-1102
408.994	659
409.072	-865
409.149	328
409.227	1449
409.304	1557
409.382	1285
409.459	1599
409.537	2301
409.614	2224
409.692	814
409.769	749
409.846	2101
409.924	4376
410.001	915
410.079	819
410.156	1050
410.233	515
410.311	555
410.388	-465
410.465	293
410.543	908
410.620	117
410.697	-718
410.775	-65
410.852	-794
410.929	1016
411.006	2588
411.083	345
411.161	2050
411.238	1744
411.315	1303
411.392	-709
411.469	478
411.547	1219
411.624	-786
411.701	-572
411.778	-538
411.855	302
411.932	406
412.009	-864
412.086	27
412.163	-204
412.240	-259
412.317	254
412.394	-41
412.471	-37
412.548	-493
412.625	-906
412.702	497
412.779	381
412.856	622
412.933	-1160
413.010	-226
413.087	385
413.164	4382
413.241	8026
413.318	2327
413.395	1094
413.471	979
413.548	16
413.625	1108
413.702	-484
413.779	367
413.855	-746
413.932	-231
414.009	-1303
414.086	-153
414.162	-736
414.239	501
414.316	3053
414.393	12598
414.469	4828
414.546	-142
414.623	-57
414.699	323
414.776	-191
414.853	-546
414.929	-350
415.006	-180
415.082	172
415.159	81
415.236	35
415.312	168
415.389	9
415.465	-509
415.542	-98
415.618	-701
415.695	276
415.771	-1187
415.848	399
415.924	-46
416.000	-100
416.077	38
416.153	-1223
416.230	-851
416.306	-879
416.383	-397
416.459	-93
416.535	-293
416.612	-1087
416.688	-531
416.764	-1134
416.841	-1479
416.917	-767
416.993	-368
417.069	-644
417.146	-318
417.222	-32
417.298	-172
417.374	-1493
417.451	63
417.527	-614
417.603	-688
417.679	-199
417.755	289
417.831	-1463
417.908	-313
417.984	-529
418.060	-2068
418.136	-584
418.212	1652
418.288	-18
418.364	144
418.440	-1315
418.516	400
418.592	268
418.668	1418
418.744	2601
418.820	2701
418.896	-854
418.972	-588
419.048	-159
419.124	1401
419.200	-376
419.276	-115
419.352	-842
419.428	-381
419.504	-573
419.579	-170
419.655	-808
419.731	-767
419.807	361
419.883	3721
419.959	2756
420.034	924
420.110	517
420.186	6880
420.262	6854
420.337	1351
420.413	-1243
420.489	-1
420.565	504
420.640	-277
420.716	-560
420.792	-1107
420.867	-310
420.943	-218
421.019	193
421.094	683
421.170	192
421.245	-430
421.321	-249
421.397	-78
421.472	1781
421.548	6255
421.623	5441
421.699	1757
421.774	752
421.850	22
421.925	2262
422.001	2234
422.076	1989
422.152	2363
422.227	3787
422.302	6906
422.378	8415
422.453	16951
422.529	40205
422.604	100156
422.679	159684
422.755	128911
422.830	57564
422.905	24375
422.981	11356
423.056	7326
423.131	5559
423.207	3382
423.282	1817
423.357	3670
423.432	2081
423.508	2279
423.583	2911
423.658	4022
423.733	1199
423.808	1161
423.883	1557
423.959	1297
424.034	354
424.109	1384
424.184	-565
424.259	-105
424.334	-639
424.409	-682
424.484	-316
424.559	-163
424.634	-535
424.709	478
424.784	-524
424.859	122
424.934	327
425.009	4241
425.084	8787
425.159	4286
425.234	161
425.309	-683
425.384	-118
425.459	1056
425.534	-15
425.609	-714
425.683	-921
425.758	-247
425.833	-60
425.908	459
425.983	2045
426.058	9121
426.132	5389
426.207	702
426.282	583
426.357	390
426.431	-181
426.506	-463
426.581	-161
426.655	127
426.730	-321
426.805	-353
426.879	-424
426.954	-230
427.029	572
427.103	7567
427.178	24674
427.253	15484
427.327	901
427.402	634
427.476	2284
427.551	1964
427.625	-118
427.700	153
427.774	-1200
427.849	351
427.923	-456
427.998	-769
428.072	-241
428.147	1998
428.221	8887
428.296	35240
428.370	26020
428.444	3934
428.519	607
428.593	4491
428.667	4015
428.742	5009
428.816	6264
428.890	20372
428.965	40452
429.039	15502
429.113	5484
429.188	2811
429.262	206
429.336	945
429.410	3506
429.485	3935
429.559	2519
429.633	4455
429.707	1014
429.781	3072
429.855	20832
429.930	42827
430.004	20946
430.078	24273
430.152	27401
430.226	42813
430.300	58971
430.374	12794
430.448	2279
430.522	6107
430.596	21619
430.670	19780
430.744	31268
430.818	59513
430.892	15734
430.966	927
431.040	225
431.114	-215
431.188	-662
431.262	-661
431.336	-877
431.410	2065
431.484	4323
431.557	5839
431.631	346
431.705	999
431.779	4874
431.853	31465
431.927	31218
432.000	3827
432.074	150
432.148	880
432.222	-367
432.295	149
432.369	-1347
432.443	326
432.516	8492
432.590	28151
432.664	14868
432.737	651
432.811	-887
432.885	-556
432.958	100
433.032	-715
433.106	-1078
433.179	-374
433.253	-1203
433.326	-1612
433.400	-1591
433.473	-227
433.547	-1715
433.620	-1239
433.694	-943
433.767	518
433.841	-900
433.914	-1389
433.988	-935
434.061	-381
434.134	-1145
434.208	-1668
434.281	-2024
434.355	-669
434.428	-1152
434.501	-614
434.575	-2085
434.648	-1302
434.721	-1394
434.795	-1786
434.868	-1672
434.941	-860
435.014	-1341
435.088	-1062
435.161	-777
435.234	-330
435.307	730
435.381	-321
435.454	-477
435.527	992
435.600	1027
435.673	1255
435.746	-256
435.819	197
435.892	-633
435.966	-550
436.039	-1626
436.112	368
436.185	-1098
436.258	-1038
436.331	-1668
436.404	-961
436.477	-910
436.550	-1088
436.623	-1565
436.696	-588
436.769	-1701
436.842	-511
436.915	-1218
436.987	-808
437.060	-1245
437.133	-888
437.206	-1194
437.279	-400
437.352	-1346
437.425	-1396
437.498	-1452
437.570	260
437.643	659
437.716	-719
437.789	-1570
437.861	-328
437.934	3856
438.007	2997
438.080	-1186
438.152	-2
438.225	226
438.298	11250
438.370	44165
438.443	29072
438.516	5470
438.588	-13
438.661	-1490
438.734	-868
438.806	-1798
438.879	795
438.951	-264
439.024	2190
439.096	-236
439.169	-524
439.241	-1187
439.314	-997
439.386	-316
439.459	1643
439.531	1197
439.604	1271
439.676	42
439.749	-840
439.821	-1443
439.893	-256
439.966	-747
440.038	-548
440.110	-216
440.183	-306
440.255	-1504
440.327	110
440.400	4161
440.472	24451
440.544	27150
440.617	4626
440.689	1403
440.761	1600
440.833	3149
440.905	2911
440.978	-74
441.050	-940
441.122	-588
441.194	-885
441.266	-879
441.338	-535
441.411	-888
441.483	5956
441.555	14541
441.627	5501
441.699	968
441.771	783
441.843	-204
441.915	-420
441.987	-599
442.059	35
442.131	-824
442.203	1083
442.275	1724
442.347	2202
442.419	3443
442.491	17562
442.563	60346
442.635	44289
442.706	11783
442.778	10423
442.850	2177
442.922	187
442.994	827
443.066	1327
443.137	1540
443.209	2105
443.281	3066
443.353	7232
443.425	24587
443.496	93610
443.568	127654
443.640	66451
443.711	14714
443.783	4106
443.855	1471
443.926	928
443.998	266
444.070	1970
444.141	1268
444.213	1488
444.285	1671
444.356	1925
444.428	1820
444.499	780
444.571	-1290
444.642	212
444.714	-357
444.785	1024
444.857	1881
444.928	6092
445.000	6682
445.071	4354
445.143	7024
445.214	6422
445.285	7126
445.357	20348
445.428	61800
445.500	157218
445.571	139620
445.642	84949
445.714	33424
445.785	19078
445.856	8161
445.928	3751
445.999	2114
446.070	2301
446.141	1507
446.213	2624
446.284	1033
446.355	1312
446.426	623
446.497	935
446.569	620
446.640	2755
446.711	1632
446.782	286
446.853	14
446.924	1060
446.995	-268
447.066	652
447.138	1072
447.209	2043
447.280	-1106
447.351	-392
447.422	-1454
447.493	453
447.564	478
447.635	652
447.706	-356
447.777	-886
447.847	-1576
447.918	-949
447.989	25
448.060	788
448.131	3298
448.202	5732
448.273	2497
448.344	1888
448.414	-357
448.485	-278
448.556	-552
448.627	-554
448.698	-28
448.768	-221
448.839	-684
448.910	1250
448.981	2383
449.051	777
449.122	-1752
449.193	-198
449.263	-861
449.334	-728
449.405	-262
449.475	1871
449.546	2029
449.616	1260
449.687	3033
449.758	1313
449.828	-661
449.899	202
449.969	-1035
450.040	133
450.110	-270
450.181	271
450.251	-980
450.322	-51
450.392	-864
450.463	-242
450.533	-634
450.604	-161
450.674	-1090
450.744	-257
450.815	-878
450.885	-30
450.955	-418
451.026	-126
451.096	-693
451.166	662
451.237	1240
451.307	8304
451.377	7355
451.447	225
451.518	-158
451.588	710
451.658	-514
451.728	1324
451.799	5891
451.869	14439
451.939	5809
452.009	148
452.079	-1069
452.149	363
452.219	1192
452.289	8717
452.360	13221
452.430	3112
452.500	525
452.570	1306
452.640	2699
452.710	8744
452.780	18154
452.850	14457
452.920	8883
452.990	4595
453.060	2214
453.129	1839
453.199	1961
453.269	9136
453.339	36705
453.409	64323
453.479	42021
453.549	67519
453.619	80416
453.688	54532
453.758	8378
453.828	1502
453.898	12
453.968	544
454.037	-62
454.087	12
454.107	25
454.168	205
454.177	210
454.247	-11
454.249	-43
454.316	-1496
454.330	-1070
454.386	426
454.411	1440
454.456	2758
454.492	6848
454.525	10508
454.574	7574
454.595	6352
454.655	1577
454.665	808
454.734	796
454.736	898
454.804	2612
454.817	3962
454.873	8496
454.898	11413
454.943	16672
454.979	12455
455.013	8830
455.060	4765
455.082	3099
455.141	2313
455.152	2069
455.221	7035
455.222	7245
455.291	15800
455.303	15658
455.360	15668
455.384	14929
455.430	12432
455.465	12750
455.499	13156
455.546	11709
455.569	10630
455.627	10844
455.638	11052
455.707	2681
455.708	2685
455.777	387
455.789	404
455.846	452
455.869	433
455.916	376
455.950	217
455.985	-100
456.031	345
456.054	646
456.112	429
456.124	353
456.193	1207
456.193	1193
456.262	634
456.274	781
456.332	1139
456.355	1248
456.401	1306
456.436	1380
456.470	1528
456.516	801
456.540	429
456.597	704
456.609	726
456.678	595
456.678	581
456.747	530
456.759	422
456.817	-153
456.840	56
456.886	439
456.920	524
456.955	614
457.001	984
457.024	1227
457.082	1320
457.093	1307
457.162	2516
457.163	2540
457.232	2580
457.243	2547
457.301	2223
457.324	1669
457.370	954
457.405	1100
457.439	1210
457.485	1092
457.508	1088
457.566	2525
457.577	2875
457.646	3703
457.647	3743
457.715	7781
457.727	8485
457.784	13467
457.808	16922
457.853	19548
457.889	22947
457.922	23324
457.969	19566
457.991	21624
458.050	23561
458.060	23970
458.129	35110
458.130	35577
458.198	31410
458.211	29011
458.267	23846
458.292	17870
458.336	12435
458.372	11207
458.405	13291
458.453	18395
458.474	22631
458.533	39105
458.543	39656
458.611	51851
458.614	52427
458.680	39304
458.694	32107
458.749	20522
458.775	15137
458.818	8250
458.855	6085
458.887	4537
458.936	3778
458.955	3373
459.016	2870
459.024	2883
459.093	3686
459.097	3667
459.162	2867
459.177	3016
459.230	3521
459.257	3714
459.299	4080
459.338	4289
459.368	4355
459.418	4099
459.437	3724
459.499	3407
459.505	3452
459.574	2873
459.579	2875
459.643	2610
459.659	2476
459.711	2351
459.740	2592
459.780	3021
459.820	3081
459.849	2982
459.900	3664
459.917	3802
459.981	3564
459.986	3513
460.054	2778
460.061	2716
460.123	3220
460.141	3461
460.191	4058
460.222	4332
460.260	4320
460.302	4582
460.328	4485
460.382	4016
460.397	4228
460.462	4678
460.465	4831
460.534	8986
460.543	9621
460.602	21955
460.623	26481
460.671	42169
460.703	55148
460.739	44119
460.783	31996
460.808	29847
460.864	10618
460.876	8989
460.944	3495
460.945	3421
461.013	4296
461.024	4110
461.081	3067
461.104	3189
461.150	3500
461.184	3398
461.218	3430
461.264	3473
461.286	3357
461.345	3362
461.355	3480
461.423	4166
461.425	4174
461.491	4540
461.505	4720
461.559	8577
461.585	10333
461.628	15684
461.665	21066
461.696	21561
461.745	24134
461.764	21350
461.825	10610
461.832	10850
461.901	5593
461.905	5614
461.969	4645
461.985	4316
462.037	4371
462.065	4651
462.105	5149
462.145	5539
462.173	7512
462.225	11564
462.241	12643
462.305	17704
462.310	17169
462.378	9762
462.385	8539
462.446	6412
462.465	5698
462.514	4558
462.545	4419
462.582	4374
462.625	4635
462.650	4651
462.705	4431
462.718	4584
462.785	5272
462.786	5309
462.854	7410
462.865	7840
462.922	8991
462.945	9553
462.990	7637
463.025	5790
463.058	5450
463.104	4168
463.126	4016
463.184	4321
463.194	4270
463.262	3996
463.264	3998
463.330	4780
463.344	4867
463.398	5384
463.424	5642
463.466	5278
463.504	5016
463.533	5178
463.583	5255
463.601	5466
463.663	6251
463.669	6422
463.737	8662
463.743	8828
463.805	13144
463.823	14504
463.873	21802
463.903	26358
463.940	25548
463.982	25517
464.008	20977
464.062	10002
464.076	9861
464.142	5924
464.144	5845
464.211	5122
464.221	5095
464.279	5192
464.301	5198
464.347	5759
464.381	6284
464.414	6998
464.461	8046
464.482	8166
464.540	8358
464.550	8211
464.617	7063
464.620	7008
464.685	7234
464.699	7290
464.753	8591
464.779	9254
464.820	9821
464.859	10300
464.888	10066
464.938	9838
464.956	10008
465.018	10075
465.023	9917
465.091	8115
465.098	7884
465.158	8326
465.177	8484
465.226	8160
465.257	7925
465.293	8091
465.336	8266
465.361	8921
465.416	10290
465.428	11289
465.495	16847
465.496	16941
465.563	27165
465.575	28961
465.631	30904
465.654	31939
465.698	20346
465.734	10226
465.765	9789
465.813	8026
465.833	7664
465.893	7684
465.900	7626
465.968	7148
465.972	7103
466.035	7859
466.052	8031
466.102	7714
466.131	7547
466.170	7806
466.210	8003
466.237	8267
466.290	8784
466.304	8859
466.369	8989
466.372	9025
466.439	9764
466.449	9812
466.506	11018
466.528	11517
466.573	17317
466.607	21567
466.641	29674
466.687	40947
466.708	42820
466.766	47852
466.775	44169
466.842	16168
466.845	14801
466.909	12290
466.925	11726
466.977	11025
467.004	10735
467.044	11513
467.083	12315
467.111	13135
467.163	14552
467.178	14765
467.242	15553
467.245	15566
467.312	15200
467.321	15124
467.379	14750
467.400	14570
467.446	15196
467.480	15600
467.559	12902
467.638	11053
467.717	12059
467.796	13668
467.875	13746
467.955	14348
468.034	24692
468.113	47756
468.192	60464
468.271	16217
468.350	16241
468.429	19971
468.508	18759
468.588	13674
468.667	12694
468.746	12918
468.825	11377
468.904	10319
468.983	12693
469.062	18863
469.141	20765
469.220	10729
469.299	10361
469.378	10525
469.456	13481
469.535	12547
469.614	11529
469.693	12662
469.772	15770
469.851	21029
469.930	13572
470.009	11042
470.088	10649
470.166	14296
470.245	18864
470.324	21802
470.403	14825
470.482	12032
470.560	10309
470.639	10660
470.718	11985
470.797	11239
470.875	13432
470.954	17179
471.033	17568
471.111	8757
471.190	8158
471.269	8431
471.347	8492
471.426	9568
471.505	10343
471.583	10957
471.662	10818
471.740	9867
471.819	9384
471.898	10213
471.976	10112
472.055	9612
472.133	10409
472.212	14819
472.290	14049
472.369	8420
472.447	9195
472.526	8479
472.604	10600
472.683	10057
472.761	9935
472.839	9446
472.918	9187
472.996	10090
473.075	11481
473.153	9891
473.231	8402
473.310	10680
473.388	10048
473.466	9815
473.545	12169
473.623	13572
473.701	12479
473.780	9775
473.858	8770
473.936	10382
474.014	8709
474.093	11634
474.171	16162
474.249	21641
474.327	12576
474.405	8101
474.484	8694
474.562	8617
474.640	7948
474.718	9746
474.796	9637
474.874	8799
474.952	8262
475.030	8666
475.108	8927
475.187	10406
475.265	11195
475.343	15279
475.421	15598
475.499	9163
475.577	10128
475.655	13040
475.733	25862
475.811	41591
475.889	37646
475.966	19955
476.044	10150
476.122	12428
476.200	14465
476.278	10830
476.356	8117
476.434	9513
476.512	11110
476.590	15380
476.667	11584
476.745	7708
476.823	9470
476.901	8751
476.979	9103
477.056	9303
477.134	8810
477.212	9489
477.290	8311
477.367	8257
477.445	8225
477.523	7268
477.601	7688
477.678	8918
477.756	10463
477.834	11433
477.911	8552
477.989	8101
478.066	8823
478.144	10527
478.222	11676
478.299	17282
478.377	14121
478.454	7979
478.532	7134
478.609	8298
478.687	9165
478.764	7198
478.842	8499
478.919	8395
478.997	7896
479.074	7986
479.152	10172
479.229	12452
479.307	7015
479.384	6862
479.461	7025
479.539	8692
479.616	8278
479.694	9035
479.771	9576
479.848	9852
479.926	12975
480.003	12534
480.080	7328
480.157	6782
480.235	7336
480.312	6858
480.389	9300
480.467	13913
480.544	17205
480.621	9175
480.698	8768
480.775	10306
480.853	10031
480.930	8389
481.007	9213
481.084	9859
481.161	12541
481.238	10182
481.315	7080
481.392	8099
481.470	8264
481.547	7825
481.624	7850
481.701	7477
481.778	8144
481.855	10206
481.932	14374
482.009	23853
482.086	14118
482.163	10594
482.240	14261
482.317	22120
482.393	14049
482.470	8290
482.547	8234
482.624	8182
482.701	8729
482.778	8359
482.855	7374
482.932	6970
483.009	7141
483.085	9485
483.162	11316
483.239	10480
483.316	8747
483.393	9234
483.469	8057
483.546	8795
483.623	9759
483.699	6746
483.776	7536
483.853	9473
483.930	15954
484.006	37817
484.083	57491
484.160	27434
484.236	38582
484.313	26576
484.389	21305
484.466	20858
484.543	20406
484.619	20856
484.696	23508
484.772	22570
484.849	22364
484.925	18710
485.002	17832
485.078	19989
485.155	19449
485.231	16787
485.308	17753
485.384	19468
485.461	23935
485.537	38437
485.614	38042
485.690	17028
485.766	16106
485.843	17691
485.919	22877
485.995	21204
486.072	14743
486.148	15467
486.224	14314
486.301	16890
486.377	18216
486.453	18303
486.530	18400
486.606	23173
486.682	26466
486.758	32238
486.835	34265
486.911	29666
486.987	46378
487.063	41702
487.139	46156
487.215	33873
487.292	19824
487.368	18770
487.444	21967
487.520	27658
487.596	31685
487.672	62369
487.748	157548
487.824	203471
487.900	53066
487.976	25884
488.052	23027
488.128	24340
488.204	18266
488.280	17146
488.356	22395
488.432	44029
488.508	58050
488.584	18539
488.660	14866
488.736	15864
488.812	15716
488.888	19494
488.964	25996
489.039	47805
489.115	64624
489.191	33587
489.267	16503
489.343	14795
489.418	13004
489.494	11679
489.570	12469
489.646	13693
489.722	13478
489.797	14855
489.873	25074
489.949	48796
490.024	31471
490.100	13502
490.176	12428
490.251	14701
490.327	18177
490.403	11497
490.478	11541
490.554	10629
490.629	10582
490.705	10302
490.781	11424
490.856	10928
490.932	12608
491.007	12204
491.083	12491
491.158	11959
491.234	19036
491.309	36678
491.385	29825
491.460	10977
491.536	12989
491.611	11199
491.686	12484
491.762	16597
491.837	31518
491.913	49577
491.988	67927
492.063	71720
492.139	24936
492.214	15945
492.289	9437
492.365	9272
492.440	11945
492.515	12253
492.590	11236
492.666	9401
492.741	15139
492.816	20136
492.891	9598
492.967	9628
493.042	8920
493.117	8830
493.192	8977
493.267	15715
493.342	36021
493.418	37609
493.493	10623
493.568	7338
493.643	8734
493.718	12143
493.793	16381
493.868	15997
493.943	11019
494.018	9283
494.093	9284
494.168	9223
494.243	8340
494.318	7187
494.393	8266
494.468	7675
494.543	8103
494.618	8916
494.693	7898
494.768	8017
494.842	8243
494.917	7434
494.992	8483
495.067	7013
495.142	7532
495.217	8152
495.292	7285
495.366	8939
495.441	9853
495.516	14788
495.591	23160
495.665	66383
495.740	132825
495.815	38755
495.890	11831
495.964	9946
496.039	12285
496.114	10848
496.188	13502
496.263	12283
496.338	10223
496.412	12279
496.487	12837
496.561	14833
496.636	13022
496.710	10979
496.785	13754
496.860	14840
496.934	10512
497.009	11418
497.083	11697
497.158	11692
497.232	14759
497.307	16383
497.381	14537
497.455	18174
497.530	22376
497.604	14804
497.679	17472
497.753	27632
497.827	32794
497.902	28827
497.976	39489
498.050	99932
498.125	310428
498.199	225861
498.273	39155
498.348	30555
498.422	26259
498.496	23199
498.570	21069
498.645	16641
498.719	15825
498.793	20057
498.867	32209
498.941	47911
499.016	139677
499.090	310296
499.164	65877
499.238	13566
499.312	12410
499.386	14867
499.460	13366
499.534	13166
499.609	17607
499.683	25231
499.757	25917
499.831	68433
499.905	223661
499.979	146928
500.053	27812
500.127	25749
500.201	17086
500.275	13109
500.349	12230
500.422	15161
500.496	22856
500.570	51489
500.644	128650
500.718	200606
500.792	28598
500.866	12762
500.940	16778
501.013	13173
501.087	14160
501.161	23011
501.235	33766
501.309	84156
501.382	203631
501.456	126971
501.530	36164
501.603	61424
501.677	17527
501.751	9207
501.825	14832
501.898	30836
501.972	80921
502.046	34268
502.119	15171
502.193	39190
502.266	85647
502.340	31159
502.413	42483
502.487	68357
502.561	33428
502.634	11128
502.708	10674
502.781	9524
502.855	8481
502.928	5299
503.002	7092
503.075	7474
503.149	7628
503.222	7930
503.295	8760
503.369	11892
503.442	20776
503.516	68590
503.589	145218
503.662	73565
503.736	31049
503.809	72000
503.882	50897
503.956	88825
504.029	74011
504.102	87413
504.175	101651
504.249	31498
504.322	18277
504.395	13267
504.468	9295
504.542	8670
504.615	6510
504.688	7380
504.761	5511
504.834	9167
504.907	10892
504.980	14651
505.053	7980
505.127	9211
505.200	12700
505.273	12482
505.346	6593
505.419	6521
505.492	7078
505.565	5529
505.638	4505
505.711	5443
505.784	5600
505.857	4686
505.930	6294
506.003	5167
506.076	7401
506.149	9076
506.221	10853
506.294	13296
506.367	36765
506.440	107200
506.513	36110
506.586	11615
506.659	5983
506.731	6444
506.804	8335
506.877	10375
506.950	7650
507.022	7192
507.095	7878
507.168	9559
507.241	7316
507.313	4184
507.386	6247
507.459	8486
507.531	6075
507.604	4866
507.677	5481
507.749	4573
507.822	8008
507.894	14628
507.967	15571
508.040	8762
508.112	8978
508.185	8297
508.257	8321
508.330	11521
508.402	6680
508.475	7817
508.547	7764
508.620	9210
508.692	14207
508.765	8154
508.837	4978
508.909	6695
508.982	6408
509.054	7989
509.127	5673
509.199	6408
509.271	5637
509.344	5657
509.416	5762
509.488	5882
509.560	6042
509.633	6069
509.705	7334
509.777	7289
509.849	9809
509.922	5892
509.994	6127
510.066	7255
510.138	7637
510.210	14851
510.283	11870
510.355	10207
510.427	8538
510.499	8585
510.571	7790
510.643	8810
510.715	13046
510.787	8657
510.859	8860
510.931	9913
511.003	12026
511.076	10212
511.148	7939
511.219	7246
511.291	14592
511.363	14816
511.435	6560
511.507	6627
511.579	6942
511.651	7735
511.723	6905
511.795	7101
511.867	7437
511.939	10943
512.010	19789
512.082	12260
512.154	6625
512.226	8081
512.298	12567
512.369	15486
512.441	12304
512.513	12016
512.585	7965
512.656	10001
512.728	10318
512.800	8307
512.871	8356
512.943	7908
513.015	7182
513.086	7628
513.158	9164
513.230	9400
513.301	12784
513.373	12504
513.444	7808
513.516	7029
513.588	6992
513.659	8534
513.731	10490
513.802	9517
513.874	18947
513.945	25416
514.016	8733
514.088	7758
514.159	8217
514.231	11178
514.302	13948
514.374	10563
514.445	11619
514.516	24465
514.588	14237
514.659	11657
514.730	20086
514.802	13331
514.873	9966
514.944	12135
515.016	10102
515.087	11550
515.158	15174
515.229	19089
515.301	12357
515.372	14846
515.443	9061
515.514	7299
515.585	6612
515.656	7786
515.728	7941
515.799	7554
515.870	8302
515.941	8875
516.012	8853
516.083	12316
516.154	11460
516.225	13657
516.296	13447
516.367	11259
516.438	14637
516.509	20168
516.580	37429
516.651	114181
516.722	312019
516.793	84048
516.864	22017
516.935	22871
517.006	29164
517.077	48821
517.148	123322
517.219	410842
517.289	454714
517.360	126441
517.431	32758
517.502	13895
517.573	14021
517.643	13449
517.714	13701
517.785	14705
517.856	14743
517.926	17798
517.997	19690
518.068	27824
518.138	42916
518.209	87425
518.280	297589
518.350	779938
518.421	197626
518.492	30659
518.562	22628
518.633	25087
518.703	30403
518.774	62407
518.845	142033
518.915	104894
518.986	31700
519.056	24044
519.127	33402
519.197	52476
519.268	112256
519.338	52655
519.408	16530
519.479	18008
519.549	12127
519.620	9846
519.690	8722
519.760	8862
519.831	8785
519.901	8439
519.971	7609
520.042	9519
520.112	10112
520.182	11352
520.253	11670
520.323	9314
520.393	13278
520.463	16662
520.534	13503
520.604	24888
520.674	11818
520.744	14417
520.814	30138
520.885	25542
520.955	46058
521.025	126001
521.095	29844
521.165	9265
521.235	9818
521.305	7436
521.375	7431
521.445	8352
521.515	9221
521.585	11475
521.655	9041
521.725	9876
521.795	9237
521.865	6895
521.935	13412
522.005	8853
522.075	7563
522.145	8305
522.215	8894
522.285	14399
522.355	19412
522.424	33335
522.494	24727
522.564	14708
522.634	27758
522.704	59630
522.774	15557
522.843	8375
522.913	7944
522.983	9333
523.053	7085
523.122	8165
523.192	13035
523.262	35264
523.331	24256
523.401	7443
523.471	5420
523.540	7115
523.610	5446
523.680	6930
523.749	6859
523.819	9713
523.888	7363
523.958	5546
524.027	6152
524.097	6665
524.166	5625
524.236	6922
524.305	6869
524.375	6530
524.444	5508
524.514	7115
524.583	7158
524.653	8918
524.722	9860
524.791	6494
524.861	7539
524.930	5595
524.999	6686
525.069	9802
525.138	8231
525.207	10293
525.277	7048
525.346	8144
525.415	7181
525.484	7974
525.554	8759
525.623	9383
525.692	9833
525.761	11231
525.830	11220
525.900	15106
525.969	26648
526.038	49529
526.107	111796
526.176	263427
526.245	167343
526.314	63759
526.383	150995
526.452	177400
526.522	310034
526.591	215442
526.660	44160
526.729	27274
526.797	42496
526.867	90888
526.935	295952
527.004	557285
527.073	220845
527.142	21827
527.211	11749
527.280	11847
527.349	10621
527.418	5866
527.487	8117
527.555	6654
527.624	5690
527.693	4674
527.762	7376
527.831	5024
527.899	6974
527.968	6194
528.037	5169
528.106	7498
528.174	11620
528.243	10627
528.312	15554
528.380	15131
528.449	5688
528.518	5394
528.586	3335
528.655	5624
528.723	4958
528.792	5609
528.861	4850
528.929	4268
528.998	5478
529.066	4892
529.135	4460
529.203	4472
529.272	4616
529.340	5497
529.409	6612
529.477	5535
529.545	6795
529.614	9351
529.682	8406
529.751	9257
529.819	11202
529.887	7400
529.956	5223
530.024	6597
530.092	5498
530.161	7235
530.229	8896
530.297	6401
530.365	7942
530.434	5239
530.502	4743
530.570	5673
530.638	4114
530.707	5943
530.775	6544
530.843	5534
530.911	5558
530.979	5758
531.047	5430
531.115	6168
531.183	5163
531.252	6121
531.320	5549
531.388	4551
531.456	5620
531.524	4396
531.592	6114
531.660	7413
531.728	4823
531.796	5622
531.864	5989
531.932	5546
532.000	5146
532.067	6282
532.135	6819
532.203	8137
532.271	7991
532.339	12873
532.407	26311
532.475	12433
532.542	9608
532.610	11395
532.678	17511
532.746	60760
532.814	103139
532.881	20783
532.949	7695
533.017	7102
533.084	6351
533.152	5562
533.220	6395
533.287	6701
533.355	5862
533.423	6536
533.490	5924
533.558	6848
533.625	5749
533.693	7300
533.761	6629
533.828	6627
533.896	6394
533.963	13125
534.031	13515
534.098	18235
534.166	9066
534.233	7315
534.300	8034
534.368	7591
534.435	6623
534.503	8114
534.570	8884
534.637	8856
534.705	11669
534.772	18759
534.840	34918
534.907	131380
534.974	113659
535.041	13269
535.109	10013
535.176	6599
535.243	7529
535.310	7767
535.378	5886
535.445	6517
535.512	6954
535.579	7166
535.646	5973
535.714	7691
535.781	9307
535.848	8466
535.915	8650
535.982	7505
536.049	6121
536.116	7880
536.183	6727
536.250	6070
536.317	7228
536.384	8800
536.451	10786
536.518	10506
536.585	7849
536.652	11343
536.719	13066
536.786	9261
536.853	8995
536.920	15187
536.987	19431
537.053	20731
537.120	63420
537.187	37598
537.254	8029
537.321	7738
537.388	7865
537.454	6723
537.521	6263
537.588	7073
537.654	9478
537.721	9042
537.788	10116
537.855	7610
537.921	8562
537.988	7991
538.055	8291
538.121	7238
538.188	8028
538.254	12049
538.321	17298
538.388	10996
538.454	8502
538.521	8557
538.587	7827
538.654	7212
538.720	6578
538.787	7771
538.853	8499
538.920	8717
538.986	9147
539.053	7899
539.119	7483
539.185	7382
539.252	9921
539.318	12189
539.385	10836
539.451	9184
539.517	11099
539.583	12425
539.650	23779
539.716	41601
539.782	11738
539.849	7815
539.915	7519
539.981	8482
540.047	9143
540.114	8263
540.180	9507
540.246	9783
540.312	12535
540.378	19250
540.444	18082
540.510	23589
540.576	46608
540.643	12302
540.709	6946
540.775	8351
540.841	8372
540.907	11554
540.973	15728
541.039	12128
541.105	12365
541.171	8861
541.237	8727
541.303	9345
541.369	11332
541.435	11191
541.500	16214
541.566	9301
541.632	8071
541.698	6395
541.764	8584
541.830	8192
541.896	6547
541.961	7611
542.027	8122
542.093	7949
542.159	7659
542.224	9404
542.290	12334
542.356	16603
542.421	17199
542.487	9059
542.553	8167
542.618	8546
542.684	8285
542.750	8459
542.815	11169
542.881	17871
542.947	44955
543.012	24686
543.078	7084
543.143	8036
543.209	8747
543.274	8848
543.340	11242
543.405	20692
543.471	22856
543.536	8029
543.602	7972
543.667	7425
543.732	8277
543.798	7437
543.863	7791
543.928	6812
543.994	6516
544.059	7430
544.124	7956
544.190	7217
544.255	8139
544.320	8221
544.386	7532
544.451	11142
544.516	11935
544.581	14050
544.646	31857
544.712	35043
544.777	10888
544.842	10162
544.907	10538
544.972	9356
545.037	9658
545.102	10970
545.168	9886
545.233	11222
545.298	11178
545.363	13516
545.428	14285
545.493	22142
545.558	33962
545.623	15724
545.688	10451
545.753	11470
545.818	10951
545.883	12564
545.947	10808
546.012	12779
546.077	12093
546.142	14033
546.207	12466
546.272	14924
546.337	14443
546.401	14449
546.466	14010
546.531	13241
546.596	15274
546.661	15231
546.725	15664
546.790	14881
546.855	17129
546.919	17295
546.984	19610
547.049	21024
547.113	25025
547.178	25367
547.243	28929
547.307	33880
547.372	37298
547.436	36619
547.501	35277
547.565	38832
547.630	36449
547.695	35686
547.759	37010
547.823	36072
547.888	33508
547.952	36255
548.017	37879
548.081	40838
548.146	42779
548.210	42202
548.274	41842
548.339	39950
548.403	36415
548.468	33880
548.532	34372
548.596	34552
548.660	37069
548.725	39386
548.789	43783
548.853	42827
548.917	39835
548.982	41947
549.046	37230
549.110	31170
549.174	33516
549.238	37734
549.303	39724
549.367	41782
549.431	38515
549.495	38235
549.559	37644
549.623	44442
549.687	48800
549.751	51474
549.815	55829
549.879	55603
549.943	51460
550.007	56886
550.071	54295
550.135	52195
550.199	46383
550.263	47129
550.327	46087
550.391	50191
550.455	51545
550.519	52936
550.582	57587
550.646	65759
550.710	66186
550.774	62109
550.838	63429
550.901	65484
550.965	69324
551.029	74128
551.093	80321
551.156	91843
551.220	113583
551.284	118530
551.347	85478
551.411	93654
551.475	86516
551.538	69380
551.602	62989
551.666	59615
551.729	56472
551.793	56047
551.856	54254
551.920	54994
551.983	53860
552.047	53443
552.110	52900
552.174	54445
552.237	54718
552.301	51907
552.364	49913
552.428	48006
552.491	50383
552.554	51306
552.618	52115
552.681	54510
552.745	53493
552.808	63070
552.871	68636
552.934	55919
552.998	52281
553.061	51102
553.124	47940
553.187	48879
553.251	50439
553.314	51583
553.377	50861
553.440	58122
553.503	71400
553.567	75554
553.630	55247
553.693	53562
553.756	53326
553.819	52523
553.882	51800
553.945	51756
554.008	52277
554.071	50980
554.134	52675
554.197	49214
554.260	49642
554.323	51135
554.386	51021
554.449	53147
554.512	53053
554.575	49811
554.638	50179
554.701	49126
554.764	48552
554.827	48060
554.889	45615
554.952	42756
555.015	42205
555.078	43019
555.141	43192
555.203	42451
555.266	42060
555.329	42899
555.391	40518
555.454	40233
555.517	38585
555.580	36888
555.642	35448
555.705	34981
555.768	36469
555.830	34326
555.893	32530
555.955	32281
556.018	30588
556.080	31382
556.143	32353
556.206	30830
556.268	32101
556.330	31017
556.393	31215
556.455	30233
556.518	34168
556.580	30895
556.643	26235
556.705	27352
556.767	24867
556.830	26648
556.892	26154
556.955	29207
557.017	25547
557.079	24043
557.142	23359
557.204	24615
557.266	31375
557.328	26249
557.391	20596
557.453	21799
557.515	22056
557.577	22487
557.639	21253
557.701	20687
557.764	19825
557.826	20175
557.888	23227
557.950	23927
558.012	30258
558.074	39783
558.136	83462
558.198	160478
558.260	44628
558.322	22321
558.384	22089
558.446	25736
558.508	28990
558.570	36947
558.632	54032
558.694	80215
558.756	125939
558.818	321569
558.880	586173
558.942	165004
559.003	166856
559.065	62206
559.127	30238
559.189	33943
559.251	47366
559.312	75569
559.374	165531
559.436	432081
559.498	152823
559.559	33795
559.621	34655
559.683	49416
559.744	85167
559.806	237721
559.868	271379
559.929	48445
559.991	42516
560.052	67676
560.114	165932
560.176	91112
560.237	100772
560.299	128806
560.360	24675
560.422	13826
560.483	14012
560.545	13222
560.606	12652
560.667	11800
560.729	11956
560.790	11158
560.852	11584
560.913	10809
560.974	10960
561.036	10510
561.097	10948
561.158	11355
561.220	11657
561.281	11459
561.342	11933
561.403	13244
561.465	14785
561.526	25089
561.587	27012
561.648	11583
561.709	10537
561.771	10341
561.832	9640
561.893	10358
561.954	10556
562.015	9685
562.076	9858
562.137	10053
562.198	9388
562.259	9982
562.320	9576
562.381	11605
562.442	12533
562.503	11224
562.564	9809
562.625	9328
562.686	10984
562.747	10216
562.808	9824
562.869	10105
562.930	11094
562.991	10697
563.051	10392
563.112	9894
563.173	9289
563.234	8684
563.294	9289
563.355	8680
563.416	9920
563.477	9046
563.537	9943
563.598	10837
563.659	9751
563.720	8698
563.780	10349
563.841	9415
563.901	10112
563.962	9690
564.023	9304
564.083	9474
564.144	9172
564.204	9718
564.265	9978
564.325	12582
564.386	19433
564.446	15871
564.507	8798
564.567	8825
564.628	8837
564.688	9374
564.749	8722
564.809	10268
564.869	11417
564.930	9104
564.990	9457
565.050	8272
565.111	10012
565.171	8919
565.231	8702
565.292	9912
565.352	8221
565.412	8795
565.472	9236
565.532	9457
565.593	8798
565.653	9281
565.713	9329
565.773	9776
565.833	9596
565.893	12497
565.953	9226
566.013	8617
566.074	9717
566.134	13086
566.194	17709
566.254	17119
566.314	11791
566.374	9176
566.434	9818
566.494	10495
566.554	9452
566.614	9635
566.673	10536
566.733	10682
566.793	11352
566.853	10571
566.913	11119
566.973	11814
567.033	11408
567.092	12281
567.152	11141
567.212	12157
567.272	12858
567.331	12828
567.391	13006
567.451	14533
567.511	17572
567.570	15985
567.630	11477
567.690	12016
567.749	11765
567.809	12349
567.868	12944
567.928	13794
567.988	16815
568.047	18125
568.107	22133
568.166	30766
568.226	45559
568.285	57835
568.345	44831
568.404	34915
568.464	29149
568.523	28856
568.582	30413
568.642	35776
568.701	46075
568.761	67054
568.820	99518
568.879	87688
568.939	59758
568.998	42637
569.057	32598
569.116	26703
569.176	22682
569.235	19026
569.294	18004
569.353	15542
569.413	14651
569.472	13308
569.531	12738
569.590	11677
569.649	11863
569.708	11193
569.767	10726
569.827	13262
569.886	10088
569.945	10230
570.004	10477
570.063	10220
570.122	10424
570.181	11682
570.240	11452
570.299	11420
570.358	11470
570.417	9260
570.475	8873
570.534	9875
570.593	9407
570.652	10165
570.711	9809
570.770	9481
570.829	10576
570.887	9683
570.946	9639
571.005	8804
571.064	9101
571.122	10202
571.181	10449
571.240	9035
571.299	8341
571.357	9853
571.416	9340
571.475	10286
571.533	10184
571.592	8465
571.650	9716
571.709	8661
571.768	8931
571.826	9428
571.885	8595
571.943	7873
572.002	6962
572.060	8297
572.119	7653
572.177	7345
572.236	7660
572.294	7331
572.352	8424
572.411	8488
572.469	6465
572.528	8437
572.586	7953
572.644	8277
572.703	10495
572.761	8526
572.819	7515
572.877	7504
572.936	6274
572.994	7326
573.052	6690
573.110	8137
573.169	7658
573.227	7129
573.285	7594
573.343	6603
573.401	6998
573.459	7642
573.517	7579
573.576	7289
573.634	7549
573.692	7921
573.750	8154
573.808	7258
573.866	7273
573.924	9341
573.982	9236
574.040	8036
574.098	7428
574.155	6440
574.213	7462
574.271	7758
574.329	7822
574.387	6480
574.445	7196
574.503	6662
574.560	6097
574.618	6360
574.676	5801
574.734	6617
574.792	6866
574.849	6452
574.907	5349
574.965	5313
575.022	5055
575.080	5432
575.138	6632
575.195	6952
575.253	6010
575.311	7116
575.368	6383
575.426	5555
575.483	6336
575.541	6293
575.598	6126
575.656	6029
575.713	6422
575.771	6729
575.828	5085
575.886	5947
575.943	6971
576.001	6287
576.058	5938
576.115	7532
576.173	8070
576.230	7748
576.287	9227
576.345	7742
576.402	7059
576.459	7882
576.517	6988
576.574	8585
576.631	7433
576.688	5790
576.746	6858
576.803	6335
576.860	5827
576.917	6910
576.974	6667
577.031	6216
577.089	5660
577.146	6646
577.203	6750
577.260	7297
577.317	6869
577.374	7194
577.431	6743
577.488	6017
577.545	5601
577.602	6861
577.659	6273
577.716	5994
577.773	6254
577.830	5923
577.886	6473
577.943	6415
578.000	6349
578.057	6035
578.114	6677
578.171	6435
578.227	7038
578.284	6364
578.341	6820
578.398	6516
578.454	7182
578.511	7840
578.568	8475
578.625	7269
578.681	6162
578.738	6527
578.794	5395
578.851	6679
578.908	6568
578.964	7194
579.021	7081
579.077	5945
579.134	5511
579.190	5834
579.247	6386
579.303	5793
579.360	6288
579.416	5833
579.473	5119
579.529	6200
579.586	5889
579.642	6661
579.698	4848
579.755	6499
579.811	6545
579.867	6604
579.924	5954
579.980	6209
580.036	6754
580.093	6154
580.149	6801
580.205	7562
580.261	8020
580.317	8232
580.374	7797
580.430	8394
580.486	7675
580.542	6653
580.598	7152
580.619	7409
580.654	7866
580.692	6751
580.710	6207
580.765	6522
580.767	6538
580.823	7280
580.838	7429
580.879	7827
580.911	7037
580.935	6487
580.984	6551
580.991	6564
581.047	6346
581.057	6495
581.103	7221
581.130	7193
581.159	7157
581.203	7115
581.215	7111
581.270	7288
581.276	7248
581.326	6907
581.349	6942
581.382	7039
581.422	7318
581.438	7417
581.494	7530
581.494	7520
581.550	7195
581.567	7199
581.606	7140
581.640	7240
581.661	7334
581.713	7616
581.717	7642
581.773	7272
581.786	7246
581.829	7180
581.859	7360
581.885	7506
581.932	7581
581.940	7604
581.996	7507
582.004	7427
582.052	6928
582.077	7178
582.107	7493
582.150	7582
582.163	7619
582.219	7566
582.223	7474
582.274	6397
582.296	6731
582.330	7251
582.368	7706
582.386	7930
582.441	7435
582.441	7435
582.497	7190
582.514	7055
582.552	6861
582.587	6946
582.608	6970
582.659	7304
582.663	7330
582.719	8082
582.732	7958
582.774	7573
582.805	7625
582.830	7738
582.877	7855
582.885	7842
582.941	7713
582.950	7774
582.996	8213
583.023	7872
583.052	7478
583.095	7689
583.107	7738
583.162	7548
583.168	7598
583.218	8241
583.240	8054
583.273	7651
583.313	7808
583.328	7894
583.384	7805
583.385	7797
583.439	7433
583.458	7470
583.494	7514
583.531	7433
583.549	7516
583.603	7303
583.605	7283
583.660	7373
583.676	7356
583.715	7556
583.748	8014
583.770	8267
583.820	8340
583.825	8350
583.881	8572
583.893	8414
583.936	7768
583.965	7785
583.991	7882
584.038	8263
584.046	8308
584.101	8272
584.110	8262
584.156	8388
584.183	8367
584.211	8115
584.255	8095
584.266	8157
584.321	7765
584.328	7782
584.376	7935
584.400	8283
584.431	8601
584.472	8470
584.486	8542
584.541	9209
584.545	9184
584.596	8385
584.617	8646
584.651	9247
584.689	9650
584.706	9836
584.761	9484
584.762	9487
584.816	9468
584.834	9473
584.871	9761
584.906	10227
584.926	10310
584.978	10220
584.980	10225
585.035	11308
585.051	11432
585.090	11931
585.123	12060
585.145	11978
585.195	12205
585.200	12303
585.254	14084
585.267	14782
585.309	16682
585.340	18055
585.364	19132
585.412	20999
585.419	21303
585.473	27574
585.484	29140
585.528	36177
585.556	42419
585.583	52008
585.628	74362
585.637	82248
585.692	165774
585.700	179525
585.747	242490
585.772	202737
585.801	122253
585.845	46823
585.856	36242
585.910	20526
585.917	19149
585.965	16768
585.989	15871
586.019	15312
586.061	14819
586.074	14717
586.128	14950
586.133	14933
586.183	14866
586.205	14843
586.237	14655
586.277	14525
586.292	14677
586.346	15486
586.349	15519
586.401	15129
586.421	15233
586.455	16207
586.493	17231
586.509	17892
586.564	20850
586.565	21008
586.618	29801
586.637	29884
586.672	25761
586.709	21633
586.727	20358
586.781	19844
586.781	19840
586.835	17285
586.853	16658
586.889	16659
586.925	16791
586.944	16756
586.996	17580
586.998	17615
587.052	18223
587.068	18247
587.106	17944
587.140	18236
587.161	18651
587.212	19540
587.215	19575
587.269	19994
587.284	20250
587.323	20921
587.356	21333
587.377	21638
587.427	22708
587.431	22772
587.485	23095
587.499	23154
587.539	23766
587.571	24859
587.593	25700
587.643	26946
587.648	27048
587.702	28176
587.715	28587
587.755	29886
587.786	30818
587.810	31633
587.858	33131
587.864	33372
587.917	35975
587.930	36833
587.971	40169
588.001	41949
588.025	43423
588.073	47131
588.079	47609
588.133	52113
588.145	53160
588.187	58111
588.217	62029
588.241	65710
588.288	73381
588.295	74657
588.348	86527
588.360	89382
588.402	100413
588.431	109082
588.456	117897
588.503	136905
588.510	139980
588.564	169451
588.575	176579
588.617	210898
588.646	238978
588.671	271037
588.718	338906
588.725	354302
588.778	488756
588.789	520208
588.832	710392
588.861	846294
588.886	969970
588.932	1145830
588.939	1143309
588.993	1058098
589.004	1059622
589.047	1052606
589.075	984228
589.100	840173
589.147	566187
589.154	543130
589.207	397993
589.218	372195
589.261	337561
589.290	321469
589.314	329797
589.361	356385
589.368	368808
589.421	487235
589.433	516637
589.475	717751
589.504	859680
589.528	949320
589.576	1055000
589.582	1040231
589.635	923122
589.647	881192
589.689	618116
589.718	439502
589.742	360675
589.790	226040
589.795	218758
589.849	160485
589.861	148066
589.902	127542
589.932	112768
589.955	103220
590.004	84018
590.009	82897
590.062	72497
590.075	70058
590.115	63763
590.146	58919
590.168	57001
590.218	52961
590.222	52607
590.275	48188
590.289	46984
590.328	45269
590.360	43971
590.381	42568
590.431	39208
590.435	39094
590.488	37031
590.503	36423
590.541	35283
590.574	34453
590.594	33841
590.645	32296
590.647	32276
590.700	31362
590.716	31008
590.753	30418
590.787	30033
590.806	29675
590.859	28791
590.859	28795
590.912	28052
590.930	27941
590.965	27330
591.001	26636
591.018	26552
591.071	26248
591.072	26228
591.124	25924
591.143	25846
591.177	25605
591.214	25295
591.230	25373
591.283	25413
591.285	25405
591.336	25541
591.356	25522
591.389	25298
591.427	24951
591.442	24918
591.495	24720
591.498	24689
591.547	23420
591.569	22822
591.600	23098
591.640	23363
591.653	23234
591.706	22709
591.711	22635
591.759	23372
591.782	23746
591.811	24166
591.853	24718
591.864	24589
591.917	23726
591.924	23584
591.969	22840
591.995	22427
592.022	22820
592.066	23440
592.075	23537
592.127	23926
592.137	24017
592.180	25608
592.208	26511
592.233	25333
592.279	23026
592.285	23016
592.338	22854
592.350	22800
592.390	22430
592.421	22119
592.443	22532
592.491	23407
592.495	23413
592.548	23223
592.562	23149
592.600	22943
592.633	22746
592.653	22191
592.704	20585
592.705	20741
592.775	22759
592.846	22976
592.916	22360
592.987	22727
593.058	23428
593.128	22148
593.199	21613
593.270	20730
593.341	21802
593.411	21578
593.482	22298
593.553	22294
593.623	22447
593.694	22264
593.764	24834
593.835	22965
593.906	22062
593.976	22718
594.047	23808
594.117	24990
594.188	27024
594.258	24623
594.329	23601
594.399	23509
594.470	24919
594.540	25140
594.611	25651
594.681	24944
594.751	26337
594.822	26288
594.892	26595
594.963	27175
595.033	28713
595.103	28274
595.174	29340
595.244	33788
595.314	37559
595.384	29660
595.455	30043
595.525	29646
595.595	32700
595.665	31154
595.736	30881
595.806	30697
595.876	31574
595.946	30891
596.016	32255
596.087	33911
596.157	33259
596.227	33363
596.297	35622
596.367	36341
596.437	39842
596.507	41054
596.577	44974
596.647	40375
596.717	39746
596.787	41747
596.857	40272
596.927	41424
596.997	40106
597.067	41741
597.137	42989
597.207	42431
597.277	44052
597.347	41943
597.417	40433
597.487	40580
597.557	41587
597.626	41819
597.696	44645
597.766	44724
597.836	47564
597.906	40696
597.975	37832
598.045	37392
598.115	40080
598.185	40767
598.254	46233
598.324	49143
598.394	50878
598.464	49122
598.533	48130
598.603	45189
598.672	43874
598.742	44171
598.812	45294
598.881	45040
598.951	45999
599.020	44620
599.090	46685
599.159	48470
599.229	45892
599.299	45397
599.368	46384
599.437	46513
599.507	43855
599.576	41806
599.646	41567
599.715	41679
599.785	41204
599.854	39769
599.924	41218
599.993	40529
600.062	39480
600.132	41005
600.201	41887
600.270	49499
600.340	52670
600.409	49012
600.478	49389
600.547	50192
600.617	48236
600.686	39737
600.755	36733
600.824	35090
600.894	33617
600.963	34731
601.032	33639
601.101	33118
601.170	32179
601.239	31246
601.308	32625
601.378	31980
601.447	31430
601.516	30499
601.585	32756
601.654	32775
601.723	32289
601.792	31771
601.861	34476
601.930	35275
601.999	37063
602.068	35482
602.137	35993
602.206	35834
602.275	36400
602.343	37608
602.412	38681
602.481	36274
602.550	38160
602.619	37285
602.688	38359
602.756	39209
602.825	39334
602.894	39049
602.963	39401
603.032	39896
603.100	39779
603.169	40521
603.238	40057
603.307	40307
603.375	40550
603.444	41942
603.513	41825
603.581	42542
603.650	44187
603.719	41205
603.787	41823
603.856	43673
603.924	44494
603.993	46030
604.061	46031
604.130	48402
604.198	50204
604.267	49897
604.335	51202
604.404	51616
604.472	52241
604.541	52476
604.609	55125
604.678	53490
604.746	53738
604.815	55460
604.883	56048
604.951	56325
605.020	56339
605.088	57532
605.156	58858
605.225	59176
605.293	59060
605.361	58700
605.429	60454
605.498	60929
605.566	62547
605.634	64788
605.702	67325
605.771	69028
605.839	69919
605.907	67732
605.975	64901
606.043	63888
606.111	62956
606.180	64425
606.248	62337
606.316	63701
606.384	62851
606.452	64731
606.520	67576
606.588	66406
606.656	66660
606.724	64399
606.792	62051
606.860	54692
606.928	50499
606.996	49141
607.064	47942
607.132	48456
607.200	51515
607.267	54235
607.335	55690
607.403	56051
607.471	54250
607.539	51209
607.607	53521
607.674	47444
607.742	47178
607.810	46917
607.878	47683
607.946	47404
608.013	49236
608.081	51235
608.149	52078
608.216	52175
608.284	54932
608.352	54072
608.419	54929
608.487	55896
608.555	53411
608.622	53499
608.690	55439
608.757	61033
608.825	64049
608.893	63018
608.960	61416
609.028	60037
609.095	60585
609.163	57502
609.230	52478
609.298	47412
609.365	46788
609.432	50784
609.500	56648
609.567	63374
609.635	71313
609.702	76605
609.769	76000
609.837	62514
609.904	51363
609.971	51238
610.039	58602
610.106	72192
610.173	130596
610.241	299860
610.308	215785
610.375	74985
610.442	55658
610.509	52164
610.577	52332
610.644	53386
610.711	54222
610.778	55229
610.845	57381
610.912	61318
610.980	64103
611.047	65758
611.114	65764
611.181	61185
611.248	60117
611.315	64057
611.382	65531
611.449	67130
611.516	68705
611.583	68797
611.650	69183
611.717	69782
611.784	71692
611.851	73721
611.918	80861
611.984	92093
612.051	126888
612.118	244030
612.185	594063
612.252	472535
612.319	121302
612.386	91220
612.452	83763
612.519	79171
612.586	80823
612.653	79628
612.719	80932
612.786	76955
612.853	73297
612.919	70439
612.986	71981
613.053	66848
613.120	63946
613.186	61559
613.253	62856
613.319	61708
613.386	62516
613.453	63893
613.519	65280
613.586	64861
613.652	71757
613.719	67479
613.785	68155
613.852	64641
613.918	64263
613.985	65233
614.051	68992
614.118	74197
614.184	74174
614.250	64170
614.317	66118
614.383	64025
614.449	66359
614.516	65871
614.582	66388
614.648	65152
614.715	64251
614.781	62650
614.847	62358
614.914	64629
614.980	63255
615.046	60939
615.112	62623
615.179	62893
615.245	65861
615.311	66454
615.377	74021
615.443	77960
615.509	69340
615.575	68994
615.642	68184
615.708	70066
615.774	72954
615.840	79121
615.906	86558
615.972	108109
616.038	163572
616.104	310597
616.170	691393
616.236	727972
616.302	179411
616.368	118814
616.434	89980
616.500	82159
616.565	86845
616.631	108414
616.697	90345
616.763	90427
616.829	123571
616.895	218343
616.961	227967
617.026	105119
617.092	73109
617.158	68588
617.224	67485
617.289	62467
617.355	60341
617.421	58495
617.487	60130
617.552	55903
617.618	55633
617.684	54576
617.749	58245
617.815	54103
617.880	53315
617.946	53632
618.012	55246
618.077	55910
618.143	54435
618.208	53778
618.274	56864
618.339	58344
618.405	49605
618.470	49154
618.536	50311
618.601	49459
618.667	47409
618.732	44498
618.798	45104
618.863	44384
618.928	43192
618.994	44904
619.059	45817
619.124	49166
619.190	46403
619.255	43312
619.320	43520
619.386	43985
619.451	43210
619.516	41143
619.581	42438
619.647	43750
619.712	44625
619.777	43169
619.842	42306
619.907	44606
619.972	44712
620.038	43358
620.103	42516
620.168	42397
620.233	42820
620.298	42615
620.363	43651
620.428	44400
620.493	45150
620.558	45534
620.623	46044
620.688	46937
620.753	45949
620.818	46772
620.883	47437
620.948	46323
621.013	45666
621.078	44660
621.143	44991
621.207	48239
621.272	47257
621.337	46871
621.402	47022
621.467	48820
621.532	49179
621.596	47477
621.661	45643
621.726	43811
621.791	45321
621.855	45474
621.920	46418
621.985	45397
622.049	49035
622.114	47777
622.179	47478
622.243	47154
622.308	49365
622.373	51200
622.437	50075
622.502	47303
622.566	46951
622.631	46391
622.695	47294
622.760	47078
622.824	46840
622.889	47097
622.953	48789
623.018	54931
623.082	56580
623.147	49734
623.211	49001
623.276	48551
623.340	46668
623.404	45130
623.469	45290
623.533	45071
623.597	45284
623.662	43617
623.726	42755
623.790	39474
623.854	38620
623.919	40508
623.983	40742
624.047	40288
624.111	41526
624.176	41199
624.240	43584
624.304	45925
624.368	41366
624.432	40037
624.496	42682
624.560	44037
624.625	46195
624.689	43601
624.753	44613
624.817	43181
624.881	42186
624.945	39177
625.009	37387
625.073	39157
625.137	40685
625.201	43806
625.265	44448
625.329	39715
625.393	40045
625.456	40586
625.520	41515
625.584	42239
625.648	45875
625.712	50235
625.776	71052
625.839	78883
625.903	50260
625.967	35563
626.031	42783
626.095	55879
626.158	42311
626.222	31180
626.286	29978
626.349	27728
626.413	27609
626.477	28039
626.540	27363
626.604	26837
626.668	25870
626.731	25396
626.795	26268
626.858	26742
626.922	24749
626.986	24874
627.049	24772
627.113	26554
627.176	26334
627.240	23476
627.303	25800
627.366	24495
627.430	25215
627.493	24013
627.557	23815
627.620	24029
627.684	24370
627.747	24797
627.810	22822
627.874	20779
627.937	20906
628.000	22604
628.064	21332
628.127	18671
628.190	20174
628.253	19340
628.317	18060
628.380	17012
628.443	17739
628.506	17007
628.569	16667
628.632	15104
628.696	16433
628.759	15291
628.822	15172
628.885	14987
628.948	15367
629.011	14774
629.074	14032
629.137	14086
629.200	13980
629.263	14737
629.326	14056
629.389	13268
629.452	12896
629.515	13933
629.578	13705
629.641	14462
629.704	13016
629.767	13472
629.830	13008
629.892	12097
629.955	12504
630.018	13585
630.081	13113
630.144	14358
630.207	12377
630.269	13818
630.332	13793
630.395	12674
630.458	12242
630.520	10937
630.583	12723
630.646	11979
630.708	12039
630.771	11146
630.834	12344
630.896	11565
630.959	11152
631.021	12024
631.084	11214
631.146	12197
631.209	13419
631.272	11111
631.334	12601
631.397	11881
631.459	11207
631.522	11442
631.584	13681
631.646	12087
631.709	13980
631.771	15219
631.834	14385
631.896	12014
631.958	11576
632.021	11537
632.083	11179
632.145	11323
632.208	10642
632.270	11382
632.332	10323
632.395	10074
632.457	11678
632.519	10651
632.581	10662
632.643	9659
632.706	11131
632.768	9096
632.830	10405
632.892	10311
632.954	10711
633.016	10666
633.078	10061
633.141	9556
633.203	10497
633.265	10228
633.327	10594
633.389	10022
633.451	11932
633.513	11985
633.575	12472
633.637	11539
633.698	11831
633.760	10638
633.822	11293
633.884	10294
633.946	11661
634.008	11361
634.070	11481
634.132	12538
634.193	13457
634.255	14540
634.317	14808
634.379	13685
634.441	12201
634.502	11817
634.564	11342
634.626	10763
634.687	9901
634.749	9641
634.811	9863
634.873	8725
634.934	10045
634.996	9653
635.057	9967
635.119	8642
635.181	10375
635.242	10841
635.304	8772
635.365	11372
635.427	10580
635.488	9553
635.550	9937
635.611	9707
635.673	8405
635.734	10950
635.796	10310
635.857	12317
635.918	11964
635.980	13302
636.041	13587
636.102	14539
636.164	15427
636.225	14352
636.286	12237
636.348	11920
636.409	10785
636.470	9479
636.531	10505
636.593	10028
636.654	9837
636.715	8879
636.776	9028
636.838	8195
636.899	9522
636.960	7989
637.021	8707
637.082	7849
637.143	8310
637.204	7696
637.265	7523
637.326	8402
637.387	8307
637.448	6909
637.509	8774
637.570	7849
637.631	8187
637.692	6857
637.753	7806
637.814	7848
637.875	6736
637.936	9009
637.997	7009
638.058	6864
638.119	8183
638.179	7512
638.240	6802
638.301	7049
638.362	7077
638.423	6389
638.483	7456
638.544	6233
638.605	6517
638.666	6862
638.726	7464
638.787	7744
638.848	7407
638.908	6538
638.969	8147
639.030	6827
639.090	6372
639.151	5755
639.211	8008
639.272	8277
639.332	11140
639.393	9124
639.453	6667
639.514	7609
639.574	6969
639.635	6738
639.695	7496
639.756	6189
639.816	7394
639.877	7216
639.937	9685
639.997	11768
640.058	7166
640.118	6549
640.178	6982
640.239	6008
640.299	6918
640.359	5944
640.420	7223
640.480	8110
640.540	8258
640.600	7875
640.661	8198
640.721	6346
640.781	8797
640.841	6131
640.901	7940
640.961	6179
641.021	7664
641.082	6942
641.142	8761
641.202	7456
641.262	5049
641.322	6270
641.382	5815
641.442	6102
641.502	6013
641.562	6778
641.622	6278
641.682	6456
641.742	7402
641.802	6712
641.861	6625
641.921	6112
641.981	7739
642.041	6116
642.101	7751
642.161	6429
642.221	5477
642.280	5928
642.340	5130
642.400	4880
642.460	6523
642.519	6050
642.579	6092
642.639	6829
642.698	4428
642.758	6941
642.818	6572
642.877	5087
642.937	5429
642.997	5769
643.056	9623
643.116	6726
643.175	7112
643.235	5682
643.294	6448
643.354	6665
643.414	7328
643.473	9122
643.532	10002
643.592	13449
643.651	22654
643.711	39903
643.770	75930
643.830	172590
643.889	449455
643.948	150680
644.008	21563
644.067	12035
644.126	9392
644.186	8279
644.245	7429
644.304	5053
644.363	7123
644.423	5365
644.482	6816
644.541	5777
644.600	6253
644.659	8215
644.719	9581
644.778	14114
644.837	21760
644.896	44657
644.955	113213
645.014	52237
645.073	10538
645.132	6946
645.191	7791
645.250	5674
645.309	8492
645.368	6754
645.427	9329
645.486	12134
645.545	24661
645.604	9865
645.663	5943
645.722	5838
645.781	6904
645.840	6522
645.898	9749
645.957	13355
646.016	19783
646.075	36717
646.134	73078
646.192	177570
646.251	346042
646.310	67875
646.369	14288
646.427	10309
646.486	7325
646.545	6216
646.603	6341
646.662	5609
646.721	5484
646.779	4620
646.838	4852
646.896	7456
646.955	9430
647.014	13329
647.072	23226
647.131	67289
647.189	46930
647.248	6369
647.306	6274
647.365	4710
647.423	3270
647.481	5317
647.540	2696
647.598	3931
647.657	4141
647.715	4781
647.773	3613
647.832	4306
647.890	3225
647.948	3682
648.007	5167
648.065	2863
648.123	3114
648.181	4446
648.240	4539
648.298	2937
648.356	3171
648.414	3579
648.472	4618
648.531	3815
648.589	3038
648.647	3038
648.705	3518
648.763	2823
648.821	3407
648.879	3411
648.937	5005
648.995	4611
649.053	6227
649.111	9913
649.169	16981
649.227	30273
649.285	57828
649.343	179864
649.401	124839
649.459	20091
649.516	12695
649.574	5441
649.632	9652
649.690	11522
649.748	8482
649.806	9366
649.863	18558
649.921	46024
649.979	43036
650.037	6805
650.094	3016
650.152	3887
650.210	2891
650.268	2942
650.325	3499
650.383	3188
650.440	2217
650.498	3264
650.556	2148
650.613	2225
650.671	2809
650.728	2027
650.786	3220
650.843	3002
650.901	2306
650.958	2319
651.016	3020
651.073	2064
651.131	2131
651.188	1416
651.246	2107
651.303	1481
651.360	2253
651.418	1003
651.475	2199
651.532	1208
651.590	2685
651.647	1219
651.704	1808
651.762	1851
651.819	2599
651.876	796
651.933	1994
651.990	1133
652.048	1266
652.105	721
652.162	1948
652.219	1165
652.276	2305
652.333	2076
652.390	1695
652.448	1346
652.505	1754
652.562	1532
652.619	1370
652.676	1462
652.733	3691
652.790	983
652.847	131
652.904	1740
652.961	955
653.017	892
653.074	2635
653.131	1532
653.188	1320
653.245	1430
653.302	1883
653.359	727
653.415	1468
653.472	681
653.529	1815
653.586	360
653.642	1175
653.699	1555
653.756	-79
653.813	1603
653.869	1981
653.926	926
653.983	1426
654.039	1663
654.096	1168
654.152	1407
654.209	149
654.266	1927
654.322	290
654.379	1931
654.435	1677
654.492	899
654.548	2604
654.605	3455
654.661	3623
654.717	948
654.774	1349
654.830	1322
654.887	1315
654.943	602
655.000	1622
655.056	1196
655.112	1485
655.168	-193
655.225	1410
655.281	1520
655.337	1855
655.394	3111
655.450	2659
655.506	2163
655.562	3456
655.618	3884
655.675	985
655.731	873
655.787	910
655.843	1210
655.899	683
655.955	1092
656.011	1407
656.067	-33
656.123	1748
656.179	1549
656.235	2165
656.291	515
656.347	1862
656.403	301
656.459	1975
656.515	1421
656.571	1917
656.627	1323
656.683	1312
656.739	2016
656.795	1096
656.850	1005
656.906	2161
656.962	1657
657.018	1569
657.074	1259
657.129	1635
657.185	3298
657.241	6306
657.297	4436
657.352	1757
657.408	500
657.464	2169
657.519	669
657.575	1044
657.630	914
657.686	1189
657.742	237
657.797	1251
657.853	940
657.908	2402
657.964	-43
658.019	1578
658.075	1031
658.130	984
658.186	-11
658.241	1043
658.297	418
658.352	1139
658.407	1845
658.463	388
658.518	559
658.573	1000
658.629	124
658.684	1082
658.739	794
658.795	471
658.850	851
658.905	329
658.960	935
659.016	990
659.071	407
659.126	1650
659.181	836
659.236	2469
659.291	3347
659.346	1236
659.401	1437
659.457	1215
659.512	860
659.567	2549
659.622	724
659.677	433
659.732	166
659.787	468
659.842	924
659.897	2236
659.952	872
660.007	638
660.061	11
660.116	288
660.171	176
660.226	422
660.281	1582
660.336	754
660.391	1208
660.445	271
660.500	71
660.555	359
660.610	-412
660.664	1803
660.719	-434
660.774	1401
660.828	707
660.883	1362
660.938	1265
660.992	869
661.047	961
661.101	1271
661.156	422
661.211	137
661.265	-285
661.320	765
661.374	178
661.429	344
661.483	1066
661.538	425
661.592	-44
661.647	1082
661.701	1207
661.755	1212
661.810	1063
661.864	107
661.919	319
661.973	1502
662.027	604
662.081	-247
662.136	210
662.190	1017
662.244	447
662.299	927
662.353	711
662.407	825
662.461	870
662.515	708
662.569	7
662.624	986
662.678	255
662.732	1326
662.786	176
662.840	443
662.894	350
662.948	873
663.002	713
663.056	1331
663.110	-139
663.164	472
663.218	1119
663.272	835
663.326	930
663.380	1416
663.434	640
663.488	734
663.542	910
663.595	1563
663.649	373
663.703	1706
663.757	286
663.811	203
663.864	841
663.918	992
663.972	704
664.026	453
664.079	530
664.133	588
664.187	898
664.240	702
664.294	974
664.348	464
664.401	36
664.455	1371
664.508	80
664.562	634
664.615	519
664.669	-61
664.722	828
664.776	812
664.829	161
664.883	653
664.936	-463
664.990	1115
665.043	319
665.097	473
665.150	1285
665.203	527
665.257	564
665.310	1369
665.363	783
665.417	1067
665.470	1072
665.523	1035
665.576	604
665.630	1022
665.683	682
665.736	1163
665.789	1342
665.842	640
665.895	1068
665.949	1268
666.002	-38
666.055	874
666.108	747
666.161	769
666.214	1082
666.267	827
666.320	778
666.373	933
666.426	1015
666.479	507
666.532	758
666.585	712
666.638	633
666.691	1879
666.744	1421
666.796	1251
666.849	537
666.902	844
666.955	636
667.008	865
667.060	-197
667.113	985
667.166	424
667.219	1187
667.271	607
667.324	872
667.377	1106
667.430	1107
667.482	337
667.535	892
667.587	834
667.640	1102
667.693	683
667.745	2390
667.798	2164
667.850	1276
667.903	785
667.955	825
668.008	-72
668.060	1346
668.113	865
668.165	1025
668.218	995
668.270	434
668.322	355
668.375	1489
668.427	1054
668.479	475
668.532	547
668.584	959
668.636	-167
668.689	991
668.741	349
668.793	1204
668.845	-147
668.898	795
668.950	26
669.002	844
669.054	-59
669.106	862
669.158	704
669.211	484
669.263	434
669.315	1242
669.367	1547
669.419	130
669.471	1450
669.523	1199
669.575	1598
669.627	1721
669.679	236
669.731	950
669.783	650
669.835	1579
669.886	408
669.938	598
669.990	526
670.042	557
670.094	136
670.146	838
670.197	528
670.249	1443
670.301	460
670.353	2466
670.404	2700
670.456	3285
670.508	5571
670.560	11875
670.611	20166
670.663	34895
670.715	78116
670.766	162822
670.818	53987
670.869	6519
670.921	3401
670.972	2616
671.024	820
671.075	1773
671.127	679
671.178	1610
671.230	206
671.281	1541
671.333	793
671.384	378
671.436	1976
671.487	2561
671.538	3417
671.590	6414
671.641	9109
671.692	15426
671.744	33473
671.795	25931
671.846	6067
671.897	3689
671.949	1846
672.000	1432
672.051	915
672.102	2464
672.153	559
672.204	839
672.256	921
672.307	987
672.358	529
672.409	1031
672.460	769
672.511	1151
672.562	-461
672.613	393
672.664	345
672.715	685
672.766	510
672.817	-106
672.868	87
672.919	757
672.970	39
673.021	825
673.071	-109
673.122	114
673.173	1050
673.224	439
673.275	-255
673.326	1283
673.376	-927
673.427	-799
673.478	298
673.528	1189
673.579	608
673.630	59
673.680	712
673.731	-35
673.782	412
673.832	1417
673.883	687
673.934	486
673.984	60
674.035	994
674.085	-121
674.136	1249
674.186	2
674.237	1424
674.287	1411
674.338	1925
674.388	519
674.438	494
674.489	814
674.539	545
674.589	723
674.640	889
674.690	501
674.740	56
674.791	739
674.841	260
674.891	-255
674.942	252
674.992	268
675.042	27
675.092	461
675.142	480
675.193	33
675.243	404
675.293	550
675.343	126
675.393	486
675.443	1120
675.493	-253
675.543	-34
675.593	-327
675.643	707
675.693	437
675.743	474
675.793	180
675.843	-10
675.893	604
675.943	514
675.993	-227
676.043	690
676.093	100
676.142	487
676.192	481
676.242	-183
676.292	168
676.341	142
676.391	4
676.441	396
676.491	550
676.540	389
676.590	-411
676.640	125
676.689	-577
676.739	83
676.789	415
676.838	-492
676.888	-421
676.937	620
676.987	694
677.037	-83
677.086	-461
677.136	-111
677.185	-1048
677.235	215
677.284	-697
677.333	208
677.383	-181
677.432	150
677.482	-203
677.531	639
677.580	-2
677.630	-738
677.679	-699
677.728	386
677.778	-152
677.827	-181
677.876	68
677.925	100
677.975	-78
678.024	136
678.073	-118
678.122	623
678.171	-469
678.220	-570
678.269	177
678.319	693
678.368	-406
678.417	-361
678.466	-160
678.515	630
678.564	391
678.613	29
678.662	-242
678.711	288
678.760	-1012
678.809	249
678.857	-558
678.906	501
678.955	-456
679.004	197
679.053	3
679.102	141
679.151	-148
679.199	-766
679.248	-559
679.297	237
679.346	-32
679.394	151
679.443	340
679.492	413
679.540	-13
679.589	-281
679.638	-324
679.686	-92
679.735	446
679.784	248
679.832	-213
679.881	38
679.929	-724
679.978	-40
680.026	-325
680.075	-82
680.123	-1064
680.172	-814
680.220	-351
680.268	208
680.317	-340
680.365	-678
680.414	-456
680.462	-555
680.510	373
680.559	-782
680.607	-778
680.655	284
680.703	-229
680.752	-344
680.800	-599
680.848	-351
680.896	-531
680.945	-571
680.993	-228
681.041	-744
681.089	-721
681.137	181
681.185	-938
681.233	-144
681.258	-22
681.281	68
681.329	-718
681.377	-917
681.380	-836
681.425	199
681.473	-77
681.502	-84
681.521	-133
681.569	-124
681.617	799
681.624	657
681.665	-452
681.713	83
681.745	-55
681.761	-152
681.809	373
681.857	122
681.867	238
681.904	513
681.952	360
681.989	709
682.000	788
682.048	91
682.096	461
682.111	418
682.143	253
682.191	483
682.233	824
682.239	851
682.286	786
682.334	385
682.354	393
682.382	367
682.430	1078
682.476	715
682.477	685
682.525	-36
682.572	1466
682.598	971
682.620	526
682.667	1656
682.715	974
682.720	1041
682.763	1423
682.810	965
682.841	822
682.857	738
682.905	1381
682.952	1319
682.963	1341
683.000	1207
683.047	1698
683.085	1398
683.095	1320
683.142	1547
683.190	1089
683.206	1280
683.237	1537
683.284	1193
683.328	2120
683.332	2181
683.379	1473
683.426	2040
683.449	2133
683.473	2209
683.521	1715
683.568	2024
683.571	2053
683.615	2136
683.662	2257
683.693	2123
683.709	2041
683.757	1483
683.804	2130
683.814	2027
683.851	1552
683.898	2643
683.936	2083
683.945	1936
683.992	2702
684.039	2007
684.057	2272
684.086	2709
684.133	1911
684.179	2516
684.180	2514
684.227	2317
684.274	2935
684.300	2784
684.321	2707
684.368	2213
684.415	2502
684.422	2707
684.462	3718
684.509	2576
684.543	2595
684.556	2592
684.603	2254
684.649	2991
684.665	2870
684.696	2658
684.743	2785
684.786	2933
684.790	2929
684.837	3073
684.883	3252
684.908	3435
684.930	3652
684.977	3238
685.023	4144
685.029	4114
685.070	3511
685.117	3593
685.150	3377
685.164	3372
685.210	4191
685.257	4276
685.272	4379
685.303	4420
685.350	4315
685.393	4123
685.396	4107
685.443	4514
685.490	4965
685.514	4835
685.536	4607
685.583	4609
685.629	3880
685.636	3934
685.675	4239
685.722	4254
685.757	4447
685.768	4531
685.815	3851
685.861	4368
685.878	4331
685.908	4214
685.954	4611
686.000	4541
686.000	4541
686.047	5189
686.093	5840
686.121	6133
686.139	6057
686.185	5705
686.232	5859
686.242	5789
686.278	5497
686.324	5659
686.363	4794
686.370	4657
686.416	4657
686.463	4764
686.484	4813
686.509	4944
686.555	4989
686.601	5225
686.606	5238
686.647	5268
686.693	5198
686.727	4870
686.739	4765
686.785	5248
686.831	4205
686.848	4427
686.877	4745
686.923	4547
686.969	4761
686.969	4762
687.015	4787
687.061	5200
687.090	5326
687.107	5275
687.153	5559
687.199	4992
687.211	4984
687.245	5175
687.291	5469
687.332	5390
687.336	5395
687.382	5961
687.428	5701
687.453	5837
687.474	5748
687.520	5905
687.565	5706
687.574	5658
687.611	5627
687.657	5739
687.695	5886
687.702	5991
687.748	6435
687.794	7583
687.816	7631
687.839	7221
687.885	6317
687.931	5584
687.937	5581
687.976	5938
688.022	6190
688.058	6214
688.067	6223
688.113	5402
688.158	5811
688.179	5818
688.204	5826
688.249	5966
688.295	6037
688.300	6012
688.340	6044
688.386	6623
688.421	6642
688.431	6600
688.477	5960
688.522	6843
688.542	6636
688.567	6476
688.613	6288
688.658	6558
688.663	6553
688.703	6425
688.749	6273
688.784	6380
688.794	6434
688.839	5869
688.884	6514
688.905	6389
688.930	6288
688.975	6897
689.020	6649
689.026	6649
689.065	6751
689.110	6756
689.146	7107
689.155	7140
689.201	6618
689.246	6724
689.267	6233
689.291	5837
689.336	6747
689.381	6123
689.388	6141
689.426	6430
689.471	6719
689.509	7253
689.516	7309
689.561	6674
689.606	6608
689.630	6307
689.651	6114
689.696	6520
689.741	6292
689.750	6434
689.785	7253
689.830	6663
689.871	7334
689.875	7374
689.920	7052
689.965	7686
689.992	7217
690.010	6950
690.054	6810
690.099	6833
690.112	6955
690.144	7450
690.189	7091
690.233	7286
690.233	7297
690.278	7001
690.323	6877
690.354	6866
690.367	7030
690.412	6795
690.457	7029
690.474	7306
690.501	7452
690.546	6581
690.590	6492
690.595	6454
690.635	6574
690.680	6848
690.716	6669
690.724	6668
690.769	7187
690.813	7231
690.836	7425
690.857	7551
690.902	7726
690.946	7930
690.957	7875
690.991	8564
691.035	10139
691.077	10979
691.080	11007
691.124	11353
691.168	11534
691.198	11965
691.213	11708
691.257	10507
691.301	9346
691.318	8901
691.346	8707
691.390	8206
691.434	7859
691.439	7828
691.478	8000
691.522	7629
691.559	7753
691.567	7843
691.611	7961
691.655	8231
691.680	8283
691.699	8209
691.743	8343
691.787	8220
691.800	8174
691.831	8118
691.875	8124
691.919	7887
691.921	7854
691.964	7884
692.008	8833
692.041	8791
692.052	8699
692.096	9106
692.139	9013
692.162	9041
692.183	9041
692.227	8494
692.271	8603
692.282	8424
692.315	8229
692.359	8819
692.402	9033
692.403	9052
692.447	8709
692.490	8856
692.523	8648
692.534	8698
692.578	8432
692.622	9039
692.643	9096
692.666	9039
692.709	8790
692.753	8649
692.763	8604
692.797	8515
692.840	8346
692.884	8218
692.884	8238
692.928	8129
692.971	8355
693.004	8311
693.015	8295
693.059	8436
693.102	8061
693.124	8085
693.146	8298
693.189	8703
693.233	9190
693.245	9207
693.276	9144
693.320	9410
693.363	8996
693.365	8980
693.407	9231
693.450	9629
693.485	9652
693.493	9745
693.537	9751
693.580	10356
693.605	10468
693.624	10573
693.667	11136
693.710	11441
693.725	11602
693.753	13384
693.797	15588
693.840	18369
693.845	18621
693.883	18573
693.926	18662
693.966	18693
693.970	18476
694.013	15720
694.056	12807
694.086	11006
694.099	10948
694.142	10495
694.185	9995
694.206	9757
694.229	9925
694.272	10040
694.315	10550
694.326	10596
694.358	10508
694.401	10188
694.444	10123
694.446	10087
694.487	10156
694.530	10402
694.566	10224
694.573	10114
694.616	9614
694.659	9093
694.686	8614
694.702	8619
694.745	8757
694.787	8912
694.806	8877
694.830	8901
694.873	9009
694.916	8963
694.926	9006
694.959	9029
695.002	8635
695.044	8722
695.046	8684
695.087	8856
695.130	9174
695.166	9362
695.172	9381
695.215	9541
695.258	9382
695.286	9305
695.301	9333
695.343	9490
695.386	9825
695.406	9740
695.428	9672
695.471	9871
695.514	10051
695.526	9976
695.556	9984
695.599	10287
695.641	10385
695.646	10365
695.684	10158
695.726	10012
695.766	9724
695.769	9733
695.811	9751
695.854	9538
695.886	9390
695.896	9451
695.938	9579
695.981	9572
696.005	9549
696.023	9623
696.065	10013
696.108	10211
696.125	10288
696.150	10622
696.192	10877
696.235	11519
696.245	11595
696.277	11189
696.319	10671
696.361	9977
696.365	9914
696.404	10259
696.446	10416
696.485	10636
696.488	10676
696.530	10640
696.572	10736
696.604	10761
696.614	10785
696.656	10706
696.698	10690
696.724	10676
696.740	10760
696.783	10699
696.825	11050
696.844	10949
696.867	10891
696.909	10961
696.951	11080
696.964	11089
696.992	11024
697.034	10635
697.076	10473
697.083	10401
697.118	10621
697.160	10971
697.202	11175
697.203	11149
697.244	10778
697.286	10440
697.323	10059
697.327	10142
697.369	10662
697.411	11112
697.442	11496
697.453	11517
697.494	11376
697.536	11329
697.562	11235
697.578	11395
697.620	11699
697.661	12004
697.682	12126
697.703	12066
697.744	11913
697.786	11747
697.801	11651
697.828	12137
697.869	12803
697.911	13548
697.921	13666
697.952	12859
697.994	11821
698.035	10757
698.040	10595
698.077	10912
698.118	11208
698.160	11611
698.160	11580
698.201	11551
698.243	11476
698.279	11395
698.284	11450
698.325	11665
698.367	11863
698.399	11978
698.408	11957
698.449	11681
698.491	11488
698.518	11259
698.532	11340
698.573	11520
698.614	11716
698.638	11777
698.656	11906
698.697	12142
698.738	12368
698.757	12450
698.779	12561
698.820	12680
698.862	12803
698.877	12814
698.903	12954
698.944	13107
698.985	13270
698.996	13276
699.026	13299
699.067	13278
699.116	13216
699.235	11712
699.354	12837
699.474	11148
699.593	12388
699.713	12983
699.832	12085
699.951	13404
700.070	12419
700.190	11006
700.309	11730
700.428	11978
700.547	12195
700.667	10760
700.786	12082
700.905	12218
701.024	11458
701.143	12121
701.262	10663
701.381	10244
701.500	12360
701.619	11164
701.738	12070
701.857	10721
701.976	10287
702.095	10275
702.214	10848
702.333	10549
702.452	11839
702.571	10795
702.690	11066
702.809	10858
702.928	9610
703.047	10530
703.165	10579
703.284	9891
703.403	9734
703.522	10406
703.640	11048
703.759	11920
703.878	16079
703.997	11073
704.115	10247
704.234	9592
704.353	10398
704.471	8576
704.590	9685
704.708	8632
704.827	8971
704.946	9465
705.064	10076
705.183	8720
705.301	10339
705.420	14040
705.538	13883
705.656	11249
705.775	9771
705.893	13046
706.012	18054
706.130	11522
706.249	11907
706.367	11435
706.485	12711
706.604	11278
706.722	12177
706.840	13874
706.958	15131
707.077	12676
707.195	10473
707.313	10847
707.431	10235
707.549	10369
707.668	9448
707.786	10674
707.904	10340
708.022	10259
708.140	10733
708.258	10039
708.376	10049
708.494	10374
708.612	10927
708.730	13788
708.848	15143
708.966	13028
709.084	13243
709.202	12312
709.320	13206
709.438	12128
709.556	13269
709.674	12110
709.791	11951
709.909	10983
710.027	12541
710.145	11377
710.263	11987
710.380	12388
710.498	11859
710.616	11622
710.733	11495
710.851	11108
710.969	12500
711.086	11314
711.204	11806
711.322	10922
711.439	11241
711.557	11242
711.674	11845
711.792	11480
711.909	11152
712.027	10814
712.144	11149
712.262	9893
712.379	11549
712.497	15601
712.614	16635
712.732	13467
712.849	12820
712.966	13364
713.084	16684
713.201	15116
713.318	13807
713.436	12458
713.553	14228
713.670	14078
713.787	14790
713.905	16011
714.022	13089
714.139	12775
714.256	15939
714.373	20840
714.490	31914
714.608	66930
714.725	289423
714.842	532630
714.959	48765
715.076	17461
715.193	14368
715.310	14579
715.427	12637
715.544	10826
715.661	12323
715.778	11295
715.895	12521
716.011	12561
716.128	11518
716.245	11146
716.362	12214
716.479	12910
716.596	11861
716.713	11156
716.829	10534
716.946	10924
717.063	9645
717.180	9532
717.296	10017
717.413	10499
717.530	9369
717.646	10109
717.763	8896
717.880	8651
717.996	9722
718.113	10227
718.229	8794
718.346	9191
718.462	9111
718.579	9575
718.695	15969
718.812	14742
718.928	12973
719.045	11531
719.161	9073
719.277	8809
719.394	9330
719.510	9398
719.626	9687
719.743	12481
719.859	15561
719.975	25041
720.092	80675
720.208	279415
720.324	58699
720.440	11489
720.557	11161
720.673	13674
720.789	19137
720.905	38750
721.021	21690
721.137	8472
721.253	8680
721.369	9128
721.486	9024
721.602	13847
721.718	9467
721.834	7181
721.950	7839
722.066	6976
722.181	7270
722.297	7270
722.413	7247
722.529	6929
722.645	8082
722.761	6941
722.877	7006
722.993	7049
723.108	8448
723.224	8302
723.340	7376
723.456	6656
723.571	7046
723.687	6604
723.803	7228
723.918	6575
724.034	6422
724.150	6070
724.265	7297
724.381	12918
724.497	24084
724.612	7184
724.728	6409
724.843	6416
724.959	7109
725.074	12196
725.190	21174
725.305	7419
725.421	6881
725.536	5292
725.651	6137
725.767	5715
725.882	5953
725.997	5095
726.113	6236
726.228	5443
726.343	6238
726.459	4836
726.574	5954
726.689	4479
726.804	6390
726.920	4873
727.035	5628
727.150	5704
727.265	5839
727.380	6177
727.495	6259
727.610	5402
727.725	5354
727.841	4643
727.956	6193
728.071	8729
728.186	5502
728.301	4601
728.416	5211
728.531	4809
728.645	5413
728.760	4637
728.875	5283
728.990	5365
729.105	5843
729.220	5080
729.335	5650
729.449	4854
729.564	4299
729.679	3335
729.794	5192
729.908	5736
730.023	4821
730.138	4904
730.253	4441
730.367	4023
730.482	4383
730.596	4340
730.711	5145
730.826	4711
730.940	5658
731.055	5772
731.169	5526
731.284	4201
731.398	3996
731.513	5645
731.627	6062
731.742	6582
731.856	8145
731.970	5378
732.085	8237
732.199	10054
732.313	16090
732.428	37678
732.542	120394
732.656	118475
732.771	19325
732.885	8717
732.999	7307
733.113	6964
733.227	7368
733.342	5155
733.456	6288
733.570	5302
733.684	5575
733.798	4610
733.912	5474
734.026	4712
734.140	5603
734.254	5593
734.368	8114
734.482	13699
734.596	5421
734.710	4140
734.824	5816
734.938	4018
735.052	4668
735.166	5246
735.280	5457
735.393	4112
735.507	4094
735.621	5996
735.735	10677
735.849	6531
735.962	5172
736.076	4745
736.190	5714
736.303	5907
736.417	10020
736.531	4942
736.644	5471
736.758	4296
736.872	3672
736.985	4275
737.099	4720
737.212	3397
737.326	4115
737.439	4324
737.553	3870
737.666	4105
737.780	3765
737.893	4881
738.007	4308
738.120	4416
738.233	3865
738.347	3666
738.460	3676
738.573	4753
738.687	4371
738.800	4552
738.913	5469
739.026	4905
739.140	3906
739.253	4033
739.366	4148
739.479	2957
739.592	3318
739.705	3386
739.818	4362
739.932	3965
740.045	3615
740.158	3511
740.271	3955
740.384	4488
740.497	4411
740.610	4666
740.723	3654
740.836	4359
740.949	3860
741.062	4393
741.174	5357
741.287	3849
741.400	4246
741.513	3533
741.626	4712
741.739	4087
741.851	3221
741.964	3338
742.077	3551
742.189	3537
742.302	4525
742.415	4424
742.527	3443
742.640	3290
742.753	3466
742.865	2968
742.978	1904
743.090	3306
743.203	3616
743.316	3623
743.428	3326
743.541	3552
743.653	2636
743.766	3210
743.878	3089
743.990	3209
744.103	4699
744.215	3300
744.327	3212
744.440	3383
744.552	6330
744.664	3647
744.777	3223
744.889	2784
745.001	3348
745.113	2436
745.226	2770
745.338	2790
745.450	2518
745.562	2941
745.674	3574
745.786	2880
745.898	2138
746.010	2695
746.122	2723
746.234	2757
746.347	2795
746.459	3040
746.570	3209
746.682	3660
746.794	3047
746.906	2249
747.018	2368
747.130	2600
747.242	2460
747.354	2279
747.466	2725
747.577	2166
747.689	3024
747.801	2701
747.913	3084
748.024	2678
748.136	2678
748.248	2067
748.359	2157
748.471	2768
748.583	2093
748.694	1738
748.806	3464
748.918	3658
749.029	3896
749.141	2960
749.252	3619
749.364	2457
749.475	6454
749.587	5016
749.698	2805
749.809	1902
749.921	2393
750.032	2233
750.144	2445
750.255	1885
750.366	1982
750.478	2235
750.589	2851
750.700	2238
750.811	3015
750.923	2213
751.034	5454
751.145	7500
751.256	3022
751.367	1552
751.479	2716
751.590	1687
751.701	2559
751.812	1762
751.923	1730
752.034	2330
752.145	2174
752.256	1241
752.367	2357
752.478	2443
752.589	2069
752.700	1861
752.811	2091
752.922	1301
753.032	2000
753.143	2903
753.254	2260
753.365	2109
753.476	1926
753.586	2280
753.697	2185
753.808	2259
753.919	1134
754.029	1062
754.140	2405
754.251	1295
754.361	1431
754.472	1944
754.582	2104
754.693	2142
754.804	1819
754.914	1484
755.025	1660
755.135	1217
755.246	1822
755.356	875
755.466	2399
755.577	2157
755.687	1949
755.798	1454
755.908	2027
756.018	1501
756.129	1462
756.239	1120
756.349	1906
756.460	1694
756.570	2476
756.680	1178
756.790	1583
756.900	2356
757.011	2473
757.121	1998
757.231	2237
757.341	2027
757.451	1696
757.561	1919
757.671	1034
757.781	1122
757.891	1928
758.001	1552
758.111	1918
758.221	2104
758.331	2532
758.441	2229
758.551	3262
758.661	3518
758.771	3397
758.880	2089
758.990	2282
759.100	1611
759.210	2327
759.320	1673
759.429	2161
759.539	2398
759.649	2635
759.758	2541
759.868	3212
759.978	2871
760.087	3201
760.197	2735
760.307	3209
760.416	2441
760.526	2530
760.635	2385
760.745	3108
760.854	3014
760.964	4110
761.073	4301
761.182	2924
761.292	2714
761.401	2596
761.511	2529
761.620	2336
761.729	2304
761.839	2946
761.948	2204
762.057	2670
762.166	2375
762.276	2112
762.385	2205
762.494	2972
762.603	2088
762.712	1848
762.822	1989
762.931	2181
763.040	2113
763.149	1969
763.258	2435
763.367	3095
763.476	2522
763.585	3084
763.694	2247
763.803	2049
763.912	2566
764.021	3124
764.130	3125
764.238	2577
764.347	2687
764.456	2812
764.565	2316
764.674	2704
764.783	3132
764.891	2595
765.000	3507
765.109	4155
765.217	4378
765.326	4459
765.435	5954
765.543	6710
765.652	6601
765.761	9588
765.869	11618
765.978	17845
766.086	29687
766.195	58759
766.303	133383
766.412	336923
766.520	387853
766.629	172339
766.737	55298
766.846	28285
766.954	17548
767.062	13295
767.171	11001
767.279	8785
767.387	6964
767.496	5919
767.604	4700
767.712	5564
767.820	3660
767.928	4200
768.037	3739
768.145	4084
768.253	4041
768.361	3586
768.469	2462
768.577	3689
768.685	3665
768.793	3850
768.901	4191
769.009	5578
769.117	3622
769.225	6266
769.333	8208
769.441	12401
769.549	23153
769.657	47433
769.765	133880
769.873	320984
769.981	203186
770.088	47318
770.196	18472
770.304	12616
770.412	8714
770.519	6444
770.627	6090
770.735	4729
770.842	3875
770.950	4770
771.058	3678
771.165	3822
771.273	3971
771.380	3689
771.488	3603
771.595	4269
771.703	3193
771.810	4397
771.918	2328
772.025	3505
772.133	3042
772.240	3491
772.348	4074
772.455	3704
772.562	2827
772.670	3206
772.777	3669
772.884	3044
772.991	3023
773.099	3255
773.206	1942
773.313	3654
773.420	3036
773.528	2295
773.635	2818
773.742	3697
773.849	2382
773.956	3256
774.063	2229
774.170	2562
774.277	3106
774.384	2750
774.491	1990
774.598	2787
774.705	2788
774.812	3442
774.919	3575
775.026	3366
775.133	3090
775.239	2729
775.346	2450
775.453	2040
775.560	1583
775.667	2217
775.773	2328
775.880	2809
775.987	2019
776.093	2879
776.200	3058
776.307	2160
776.413	2133
776.520	2898
776.627	2319
776.733	2771
776.840	1991
776.946	2633
777.053	2819
777.159	3516
777.266	2545
777.372	3588
777.478	2483
777.585	2876
777.691	2045
777.798	1952
777.904	2917
778.010	3233
778.117	3743
778.223	2236
778.329	1333
778.435	1907
778.542	2240
778.648	1727
778.754	1363
778.860	2752
778.966	1918
779.072	2472
779.178	1286
779.284	2166
779.391	2429
779.497	1095
779.603	3137
779.708	1287
779.815	2574
779.920	5931
780.026	15038
780.132	5615
780.238	1400
780.344	1618
780.450	2856
780.556	1759
780.661	965
780.767	1694
780.873	1447
780.979	1894
781.085	1297
781.190	1682
781.296	1702
781.402	1449
781.507	1473
781.613	1596
781.719	910
781.824	1703
781.930	1652
782.035	1264
782.141	1978
782.246	974
782.352	1134
782.457	1831
782.563	1402
782.668	1084
782.773	1002
782.879	1541
782.984	1270
783.090	2240
783.195	2247
783.300	2917
783.405	2146
783.511	1837
783.616	1871
783.721	1472
783.826	1360
783.932	1908
784.037	2054
784.142	1562
784.247	1471
784.352	2730
784.457	918
784.562	1662
784.667	1917
784.772	1061
784.877	1159
784.982	1864
785.087	1268
785.192	1659
785.297	933
785.402	1930
785.507	1049
785.611	1391
785.716	1021
785.821	1620
785.926	909
786.031	1208
786.135	1198
786.240	1573
786.345	633
786.450	1680
786.554	1506
786.659	1696
786.763	253
786.868	1395
786.973	1506
787.077	1241
787.182	674
787.286	1507
787.391	1274
787.495	848
787.600	974
787.704	1024
787.809	621
787.913	996
788.017	596
788.122	1799
788.226	1027
788.330	403
788.435	949
788.539	1010
788.643	108
788.747	1238
788.852	812
788.956	1347
789.060	964
789.164	1711
789.268	351
789.372	1012
789.476	752
789.580	1479
789.684	1356
789.788	998
789.892	308
789.996	1546
790.100	722
790.204	868
790.308	1003
790.412	962
790.516	832
790.620	795
790.724	1091
790.828	833
790.931	82
791.035	1367
791.139	1675
791.242	999
791.346	1069
791.450	717
791.554	417
791.657	58
791.761	1398
791.864	1878
791.968	603
792.072	1280
792.175	782
792.279	1002
792.382	169
792.486	1338
792.589	766
792.693	1530
792.796	-343
792.899	1038
793.003	494
793.106	735
793.209	326
793.313	1794
793.416	-499
793.519	415
793.623	1221
793.726	2636
793.829	1155
793.932	229
794.035	272
794.138	1941
794.242	644
794.345	928
794.448	1501
794.551	1469
794.654	3532
794.757	7846
794.860	3173
794.963	975
795.066	388
795.169	1788
795.272	25
795.375	938
795.477	153
795.580	984
795.683	-249
795.786	345
795.889	-668
795.991	2167
796.094	1685
796.197	552
796.300	1489
796.402	570
796.505	222
796.608	242
796.710	689
796.813	1131
796.915	515
797.018	227
797.120	563
797.223	419
797.326	1075
797.428	-285
797.530	977
797.633	410
797.735	1470
797.838	2003
797.940	2584
798.042	862
798.145	-41
798.247	1248
798.349	-491
798.452	398
798.554	-377
798.656	521
798.758	605
798.860	1181
798.962	-6
799.065	599
799.167	-340
799.269	780
799.371	903
799.473	1572
799.575	425
799.677	2084
799.779	1839
799.881	1317
799.983	2082
800.085	424
800.187	189
800.289	-104
800.390	649
800.492	896
800.594	1210
800.696	249
800.798	306
800.899	1208
801.001	134
801.103	292
801.205	-192
801.306	686
801.408	-554
801.509	478
801.611	175
801.713	646
801.814	-738
801.916	739
802.017	586
802.119	-24
802.220	383
802.322	-245
802.423	1603
802.525	638
802.626	522
802.727	-47
802.829	817
802.930	-1368
803.031	1291
803.133	356
803.234	-236
803.335	688
803.436	-389
803.538	42
803.639	-393
803.740	1340
803.841	-510
803.942	836
804.043	235
804.144	108
804.245	-619
804.346	-44
804.447	105
804.548	1003
804.649	1772
804.750	189
804.851	406
804.952	734
805.053	-252
805.154	398
805.255	1251
805.355	-45
805.456	-113
805.557	-635
805.658	-602
805.758	610
805.859	-150
805.960	259
806.061	37
806.161	-201
806.262	-486
806.362	-6
806.463	588
806.564	845
806.664	-40
806.765	0
806.865	285
806.966	148
807.066	-670
807.166	1142
807.267	100
807.367	184
807.468	896
807.568	57
807.668	94
807.769	-288
807.869	-1340
807.969	101
808.069	394
808.170	-453
808.270	700
808.370	439
808.470	312
808.570	759
808.670	-168
808.770	-23
808.870	-517
808.970	58
809.070	67
809.170	-518
809.271	551
809.370	-331
809.470	11
809.570	-116
809.670	-373
809.770	193
809.870	641
809.970	-442
810.070	-290
810.169	877
810.269	-1475
810.369	773
810.469	-166
810.568	-851
810.668	-284
810.768	-327
810.867	446
810.967	-391
811.066	-377
811.166	2
811.265	371
811.365	-713
811.464	-412
811.564	716
811.663	-116
811.763	-1039
811.862	389
811.962	164
812.061	-598
812.160	-269
812.260	-542
812.359	134
812.458	-402
812.557	765
812.657	654
812.756	578
812.855	-628
812.954	301
813.053	-78
813.153	393
813.252	-659
813.351	662
813.450	-39
813.549	94
813.648	11
813.747	-539
813.846	-220
813.945	-181
814.044	-474
814.143	560
814.242	266
814.341	204
814.439	-107
814.538	886
814.637	-108
814.736	63
814.835	135
814.933	-72
815.032	542
815.131	1403
815.229	189
815.328	1875
815.427	1127
815.525	1782
815.624	885
815.722	895
815.821	1080
815.919	1154
816.018	751
816.116	1504
816.215	892
816.313	1780
816.412	824
816.510	1826
816.609	1950
816.707	2454
816.805	1405
816.904	1698
817.002	2792
817.100	2914
817.198	2756
817.296	2982
817.395	3326
817.493	4795
817.591	3049
817.689	6077
817.787	7095
817.885	11692
817.983	20793
818.081	39551
818.179	93511
818.277	229910
818.375	303833
818.473	103507
818.571	33027
818.669	19390
818.767	15109
818.865	14492
818.963	16904
819.061	23590
819.158	38709
819.256	77349
819.354	167929
819.452	369680
819.549	369555
819.647	129227
819.745	46926
819.842	24943
819.940	16469
820.038	11707
820.135	9279
820.233	7188
820.330	5352
820.428	4603
820.525	4585
820.623	4338
820.720	2556
820.818	3153
820.915	2179
821.012	2975
821.110	1633
821.207	2447
821.304	1274
821.402	1897
821.499	2036
821.596	1873
821.693	1441
821.791	2036
821.888	1499
821.985	3602
822.082	3181
822.179	2647
822.276	1247
822.373	1079
822.470	1042
822.567	1738
822.664	534
822.761	1932
822.858	150
822.955	1534
823.052	46
823.149	855
823.246	1121
823.343	1380
823.440	346
823.536	156
823.633	-84
823.730	561
823.827	913
823.923	1276
824.020	895
824.117	351
824.213	72
824.310	1224
824.407	578
824.503	1002
824.600	750
824.696	755
824.793	1002
824.889	118
824.986	389
825.082	746
825.179	771
825.275	921
825.371	226
825.468	946
825.564	-710
825.660	319
825.757	455
825.853	1515
825.949	-938
826.045	958
826.142	129
826.238	490
826.334	661
826.430	151
826.526	250
826.622	-268
826.718	273
826.814	-1071
826.910	11
827.006	-26
827.102	-127
827.198	712
827.294	-774
827.390	1208
827.486	107
827.582	-553
827.678	-1336
827.774	941
827.869	-564
827.965	1117
828.061	538
828.157	229
828.252	181
828.348	-20
828.444	762
828.539	-634
828.635	-123
828.731	327
828.826	-1053
828.922	1573
829.017	-514
829.113	741
829.208	-1103
829.304	-11
829.399	987
829.495	-119
829.590	1424
829.685	-61
829.781	-215
829.876	276
829.971	-868
830.066	409
830.162	-10
830.257	585
830.352	-347
830.447	1520
830.543	-358
830.638	-9
830.733	724
830.828	267
830.923	314
831.018	662
831.113	-256
831.208	200
831.303	-725
831.398	-25
831.493	-751
831.588	1036
831.683	-944
831.778	800
831.873	-241
831.967	622
832.062	-122
832.157	-800
832.252	543
832.346	-301
832.441	399
832.536	-102
832.631	2082
832.725	2712
832.820	-509
832.914	-71
833.009	-528
833.104	204
833.198	214
833.293	-370
833.387	-186
833.482	237
833.576	-300
833.670	1091
833.765	-62
833.859	199
833.954	-498
834.048	90
834.142	737
834.237	-139
834.331	196
834.425	-357
834.519	-1058
834.613	-365
834.708	-286
834.802	-967
834.896	-586
834.990	-391
835.084	27
835.178	-233
835.272	-196
835.366	38
835.460	-145
835.554	-535
835.648	-907
835.742	-629
835.836	-628
835.930	-641
836.024	-108
836.117	122
836.211	-71
836.305	699
836.399	679
836.493	-44
836.586	-428
836.680	-525
836.774	-702
836.867	1219
836.961	-1356
837.055	-729
837.148	-1103
837.242	-169
837.335	-960
837.429	-751
837.522	-129
837.616	615
837.709	1412
837.803	966
837.896	542
837.989	-110
838.083	-204
838.176	1576
838.269	1411
838.363	1781
838.456	-470
838.549	587
838.642	1004
838.735	3170
838.829	1985
838.922	-339
839.015	-694
839.108	49
839.201	-297
839.294	65
839.387	-394
839.480	-720
839.573	95
839.666	773
839.759	-326
839.852	-367
839.945	-276
840.038	-42
840.131	-945
840.223	-876
840.316	-322
840.409	-1379
840.502	-1353
840.594	918
840.687	-1662
840.780	-688
840.873	-1079
840.965	95
841.058	-85
841.150	734
841.243	299
841.336	353
841.428	-466
841.521	-951
841.613	-55
841.706	121
841.798	-705
841.890	2
841.983	-836
842.075	-148
842.167	-889
842.260	200
842.352	351
842.444	640
842.537	1258
842.629	4118
842.721	1342
842.813	-125
842.905	-1502
842.997	-343
843.090	818
843.182	219
843.274	1069
843.366	4936
843.458	10963
843.550	10358
843.642	1261
843.734	-155
843.826	69
843.918	625
844.009	-446
844.101	-947
844.193	-404
844.285	-840
844.377	-56
844.469	71
844.560	-705
844.652	-1009
844.744	287
844.835	-403
844.927	-277
845.019	-231
845.110	-74
845.202	325
845.293	-23
845.385	-286
845.476	-253
845.568	547
845.659	-1154
845.751	-148
845.842	-1556
845.934	-1384
846.025	-1040
846.116	-266
846.208	-936
846.299	-536
846.390	-456
846.482	-615
846.573	120
846.664	365
846.755	-245
846.846	1608
846.937	-1431
847.029	-576
847.120	-558
847.211	-790
847.302	-47
847.393	-1396
847.484	71
847.575	-1094
847.666	-1523
847.757	-305
847.847	-800
847.938	56
848.029	-865
848.120	-1100
848.211	-779
848.302	-524
848.392	-1461
848.483	-389
848.574	-1245
848.664	-85
848.755	-1231
848.846	-644
848.936	-619
849.027	45
849.118	-647
849.208	-199
849.299	338
849.389	980
849.480	3114
849.570	8207
849.661	14222
849.751	31264
849.841	18699
849.932	2165
850.022	-1229
850.112	48
850.203	-666
850.293	-749
850.383	-1052
850.474	-858
850.564	-828
850.654	-824
850.744	-563
850.834	125
850.924	-855
851.014	-424
851.104	-416
851.194	-470
851.284	-724
851.374	-367
851.464	-852
851.554	-705
851.644	11
851.734	298
851.824	-167
851.914	-797
852.004	-1014
852.094	-1099
852.183	-998
852.273	-24
852.363	143
852.452	140
852.542	-602
852.632	-912
852.721	-412
852.811	-1455
852.901	-1066
852.990	785
853.080	184
853.169	355
853.259	661
853.348	159
853.438	309
853.527	1469
853.617	2211
853.706	4104
853.795	8913
853.885	23576
853.974	47141
854.063	78728
854.152	155092
854.242	97302
854.331	15743
854.420	4290
854.509	1457
854.598	1983
854.687	1055
854.777	2027
854.866	693
854.955	787
855.044	-220
855.133	-227
855.222	-297
855.311	-565
855.400	-169
855.488	-900
855.577	-453
855.666	-57
855.755	-443
855.844	-93
855.933	-762
856.021	137
856.110	-593
856.199	-637
856.288	-678
856.376	-1014
856.465	-1274
856.554	-124
856.642	-256
856.731	24
856.819	-1493
856.908	-1518
856.996	-950
857.085	-814
857.173	-1299
857.262	-859
857.350	-1129
857.438	-675
857.527	-611
857.615	-662
857.703	-992
857.792	-1004
857.880	-420
857.968	-578
858.056	-895
858.145	-1149
858.233	-1078
858.321	-593
858.409	-736
858.497	-916
858.585	-1405
858.673	-70
858.761	-1188
858.849	-432
858.937	-1283
859.025	-695
859.113	-120
859.201	-887
859.289	-1460
859.377	-984
859.465	-893
859.552	-457
859.640	-912
859.728	95
859.816	-845
859.903	-100
859.991	-848
860.079	-197
860.166	-1065
860.254	-822
860.342	-400
860.429	-886
860.517	-1027
860.604	-844
860.692	-679
860.779	-1113
860.867	-1264
860.954	-891
861.042	-1059
861.129	-658
861.216	-176
861.304	-1182
861.391	-949
861.478	-753
861.565	-263
861.653	-348
861.740	-979
861.827	-1432
861.914	-452
862.001	-1424
862.089	-602
862.176	-552
862.263	-1234
862.350	-291
862.437	-876
862.524	-622
862.611	-1278
862.698	-242
862.785	-505
862.871	-684
862.958	-1143
863.045	-790
863.132	-1930
863.219	-911
863.306	-1792
863.392	73
863.479	-1146
863.566	-1353
863.652	-779
863.739	-1187
863.826	-833
863.912	251
863.999	-1031
864.086	-1058
864.172	-1173
864.259	-427
864.345	-1223
864.432	-462
864.518	-494
864.604	-808
864.691	-836
864.777	86
864.863	256
864.950	293
865.036	-681
865.122	1084
865.209	1053
865.295	1191
865.381	496
865.467	753
865.553	1679
865.639	4029
865.726	4237
865.812	11510
865.898	23767
865.984	36941
866.070	59283
866.156	99468
866.242	39968
866.328	7185
866.414	1598
866.499	1833
866.585	1675
866.671	1066
866.757	653
866.843	1469
866.928	712
867.014	472
867.100	447
867.186	180
867.271	803
867.357	1156
867.442	1385
867.528	733
867.614	227
867.699	491
867.785	499
867.870	-212
867.956	-284
868.041	433
868.127	-288
868.212	1312
868.297	443
868.383	207
868.468	9
868.553	1868
868.639	1159
868.724	2598
868.809	4155
868.894	1501
868.979	-247
869.065	388
869.150	-246
869.235	291
869.320	-538
869.405	-450
869.490	-372
869.575	-474
869.660	-343
869.745	83
869.830	-764
869.915	-800
870.000	-621
870.085	66
870.169	-177
870.254	-73
870.339	-388
870.424	-323
870.509	69
870.593	25
870.678	-342
870.763	-576
870.847	26
870.932	-1231
871.016	804
871.101	-236
871.186	25
871.270	0
871.355	-852
871.439	-662
871.523	-590
871.608	-403
871.692	-593
871.777	33
871.861	-493
871.945	-148
872.030	-368
872.114	-828
872.198	-951
872.282	-360
872.367	-357
872.451	-279
872.535	-666
872.619	-649
872.703	-912
872.787	333
872.871	-405
872.955	-340
873.039	-631
873.123	-216
873.207	305
873.291	215
873.375	-757
873.459	157
873.543	-746
873.627	-723
873.711	-675
873.794	89
873.878	-1294
873.962	-435
874.045	-804
874.129	-146
874.137	-244
874.213	-1225
874.245	-921
874.296	-435
874.352	-652
874.380	-756
874.460	229
874.464	268
874.547	-357
874.568	-394
874.631	-517
874.676	-395
874.714	-290
874.784	117
874.798	198
874.881	1040
874.892	808
874.965	-810
874.999	-610
875.048	-307
875.107	333
875.131	577
875.215	-173
875.215	-173
875.298	-659
875.323	-573
875.381	-365
875.430	138
875.465	528
875.538	120
875.548	50
875.631	-994
875.646	-962
875.714	-760
875.753	-547
875.798	-290
875.861	-950
875.881	-1170
875.964	23
875.968	-16
876.047	-668
876.076	-176
876.130	725
876.183	144
876.213	-166
876.291	245
876.296	280
876.379	-481
876.398	-465
876.462	-549
876.506	-812
876.545	-1054
876.613	-126
876.628	107
876.711	-136
876.721	-82
876.794	249
876.828	-112
876.877	-767
876.935	-810
876.960	-684
877.043	-671
877.043	-666
877.125	335
877.150	253
877.208	88
877.258	95
877.291	124
877.365	-39
877.374	-57
877.456	170
877.472	97
877.539	-268
877.579	-319
877.622	-352
877.687	-466
877.704	-475
877.787	434
877.794	362
877.869	-544
877.901	-282
877.952	209
878.008	71
878.034	-23
878.115	-45
878.117	-41
878.199	-528
878.222	-317
878.282	87
878.329	-40
878.364	-76
878.437	-112
878.447	-138
878.529	-705
878.544	-708
878.611	-742
878.651	-890
878.694	-781
878.758	-89
878.776	44
878.858	-63
878.865	-69
878.941	-224
878.972	-238
879.023	-386
879.078	-847
879.105	-844
879.185	-232
879.187	-224
879.269	-347
879.292	-101
879.351	496
879.399	87
879.433	-292
879.506	-251
879.516	-199
879.598	142
879.613	53
879.680	-636
879.720	-302
879.762	373
879.827	374
879.844	191
879.926	-119
879.933	-194
880.007	-101
880.040	131
880.089	137
880.147	21
880.171	74
880.253	1059
880.254	1063
880.335	1708
880.360	1960
880.417	3043
880.467	4113
880.499	5035
880.574	8712
880.580	8825
880.662	4152
880.680	3386
880.744	922
880.787	209
880.825	160
880.893	144
880.907	72
880.989	-477
881.000	-443
881.070	225
881.106	323
881.152	220
881.213	72
881.233	69
881.315	-254
881.319	-216
881.396	98
881.426	-290
881.478	-661
881.532	-120
881.559	135
881.639	271
881.641	278
881.722	-55
881.745	-71
881.803	-288
881.852	-116
881.885	114
881.958	-3
881.966	-50
882.047	44
882.064	-6
882.129	288
882.171	703
882.210	768
882.277	440
882.291	460
882.372	949
882.383	851
882.454	8
882.489	129
882.535	318
882.596	43
882.616	-67
882.697	142
882.702	117
882.778	-127
882.808	-119
882.859	-160
882.914	-254
882.940	-238
883.020	15
883.021	20
883.102	16
883.127	33
883.183	-61
883.233	-87
883.264	21
883.339	424
883.345	402
883.426	-410
883.445	-496
883.507	-155
883.551	-249
883.587	-293
883.657	382
883.668	433
883.749	29
883.763	52
883.830	668
883.869	748
883.910	497
883.975	615
883.991	687
884.072	230
884.081	260
884.152	832
884.187	947
884.233	1024
884.292	1000
884.314	864
884.394	106
884.398	91
884.475	208
884.504	221
884.555	50
884.610	-259
884.636	-50
884.716	322
884.716	326
884.797	566
884.821	493
884.877	615
884.927	880
884.958	759
885.033	82
885.038	104
885.118	1023
885.139	1047
885.199	142
885.244	-332
885.279	-59
885.350	485
885.359	476
885.439	412
885.456	381
885.520	250
885.561	148
885.600	41
885.667	-85
885.680	-7
885.760	507
885.773	552
885.840	303
885.878	87
885.920	105
885.984	443
886.000	413
886.080	103
886.089	36
886.160	383
886.195	657
886.240	388
886.300	77
886.320	180
886.400	486
886.406	509
886.480	478
886.511	367
886.560	576
886.616	954
886.640	823
886.720	198
886.722	177
886.800	262
886.827	409
886.879	443
886.932	243
886.959	364
887.038	1120
887.039	1118
887.119	203
887.143	13
887.198	258
887.248	532
887.278	465
887.354	105
887.358	152
887.437	1059
887.459	1336
887.517	853
887.564	336
887.596	378
887.669	626
887.676	638
887.755	678
887.774	693
887.835	745
887.880	737
887.914	518
887.985	55
887.994	65
888.073	123
888.090	147
888.153	486
888.195	678
888.232	736
888.300	890
888.311	851
888.391	467
888.405	395
888.470	237
888.510	120
888.549	291
888.615	646
888.628	654
888.708	612
888.720	599
888.787	659
888.825	690
888.866	673
888.930	655
888.945	622
889.024	400
889.035	370
889.103	597
889.140	693
889.182	694
889.245	717
889.261	735
889.340	811
889.349	817
889.419	677
889.454	596
889.498	707
889.559	881
889.577	796
889.656	394
889.664	353
889.735	917
889.768	1179
889.814	677
889.873	6
889.978	486
890.083	564
890.187	519
890.292	857
890.397	119
890.501	925
890.606	-211
890.710	186
890.815	985
890.919	1481
891.024	201
891.128	839
891.233	1596
891.337	707
891.442	503
891.546	1185
891.650	768
891.755	-348
891.859	1420
891.963	509
892.068	625
892.172	791
892.276	760
892.380	-113
892.484	428
892.589	787
892.693	478
892.797	-86
892.901	701
893.005	835
893.109	777
893.213	1310
893.317	852
893.421	38
893.525	126
893.629	554
893.733	1035
893.837	-103
893.941	1230
894.045	661
894.148	290
894.252	1321
894.356	888
894.460	1487
894.564	560
894.667	738
894.771	208
894.875	-125
894.978	406
895.082	-44
895.186	405
895.289	423
895.393	296
895.496	617
895.600	70
895.703	385
895.807	745
895.910	940
896.014	946
896.117	763
896.221	1603
896.324	598
896.427	-10
896.531	511
896.634	286
896.737	937
896.840	384
896.944	-278
897.047	248
897.150	317
897.253	-119
897.356	446
897.460	-229
897.563	613
897.666	617
897.769	666
897.872	200
897.975	479
898.078	-17
898.181	-710
898.284	106
898.387	278
898.490	300
898.593	334
898.695	580
898.798	798
898.901	989
899.004	583
899.107	876
899.209	870
899.312	946
899.415	515
899.518	808
899.620	-214
899.723	473
899.826	236
899.928	1376
900.031	439
900.133	408
900.236	1010
900.338	590
900.441	534
900.543	1038
900.646	179
900.748	539
900.851	1380
900.953	711
901.055	8
901.158	958
901.260	551
901.362	167
901.465	559
901.567	1080
901.669	703
901.771	371
901.873	-154
901.976	519
902.078	1124
902.180	277
902.282	268
902.384	315
902.486	814
902.588	312
902.690	680
902.792	-255
902.894	-87
902.996	424
903.098	526
903.200	651
903.302	199
903.404	343
903.505	528
903.607	558
903.709	837
903.811	104
903.913	710
904.014	99
904.116	336
904.218	637
904.319	-57
904.421	358
904.523	1015
904.624	952
904.726	389
904.827	259
904.929	803
905.030	-30
905.132	443
905.233	993
905.335	-589
905.436	465
905.537	331
905.639	812
905.740	111
905.841	214
905.943	490
906.044	179
906.145	698
906.247	121
906.348	350
906.449	-106
906.550	290
906.651	465
906.752	-286
906.854	348
906.955	181
907.056	213
907.157	675
907.258	2
907.359	0
907.460	835
907.561	89
907.662	393
907.762	932
907.863	848
907.964	840
908.065	1018
908.166	304
908.267	861
908.367	-308
908.468	122
908.569	3
908.670	807
908.770	989
908.871	32
908.971	560
909.072	789
909.173	126
909.273	472
909.374	191
909.474	802
909.575	1015
909.675	25
909.776	87
909.876	-342
909.977	265
910.077	992
910.177	-93
910.278	641
910.378	602
910.478	80
910.579	440
910.679	489
910.779	42
910.879	28
910.980	1025
911.080	154
911.180	-197
911.280	245
911.380	-522
911.480	497
911.580	-1308
911.680	425
911.780	865
911.880	469
911.980	451
912.080	-88
912.180	544
912.280	962
912.380	967
912.480	125
912.580	578
912.679	-76
912.779	385
912.879	792
912.979	462
913.078	7
913.178	-118
913.278	911
913.377	393
913.477	115
913.577	342
913.676	449
913.776	89
913.875	-30
913.975	744
914.074	218
914.174	978
914.273	6
914.373	325
914.472	530
914.572	23
914.671	716
914.770	586
914.870	136
914.969	-212
915.068	-169
915.167	124
915.267	-119
915.366	214
915.465	202
915.564	338
915.663	790
915.763	261
915.862	1467
915.961	1026
916.060	-481
916.159	129
916.258	426
916.357	752
916.456	887
916.555	-399
916.654	287
916.752	577
916.851	222
916.950	618
917.049	14
917.148	160
917.247	900
917.345	874
917.444	14
917.543	383
917.642	817
917.740	-335
917.839	983
917.937	539
918.036	556
918.135	16
918.233	187
918.332	346
918.430	183
918.529	-89
918.627	-279
918.726	53
918.824	718
918.923	-96
919.021	776
919.119	-27
919.218	82
919.316	150
919.414	405
919.512	-2
919.611	571
919.709	481
919.807	470
919.905	1167
920.003	673
920.102	224
920.200	-180
920.298	401
920.396	1069
920.494	686
920.592	364
920.690	752
920.788	372
920.886	-278
920.984	1108
921.082	-163
921.180	1076
921.277	369
921.375	981
921.473	536
921.571	-51
921.669	898
921.766	210
921.864	844
921.962	1551
922.060	166
922.157	1035
922.255	694
922.352	366
922.450	1320
922.548	744
922.645	658
922.743	1010
922.840	1349
922.938	2721
923.035	2218
923.133	1663
923.230	2107
923.327	2667
923.425	2825
923.522	2565
923.619	2404
923.717	1851
923.814	2271
923.911	2305
924.008	1415
924.106	1606
924.203	1602
924.300	2556
924.397	2201
924.494	1593
924.591	1753
924.688	2205
924.786	1962
924.883	3203
924.979	1257
925.077	2018
925.173	1816
925.270	1345
925.367	2330
925.464	2432
925.561	2322
925.658	2249
925.755	2823
925.852	2227
925.948	1948
926.045	2046
926.142	1588
926.239	1548
926.335	1307
926.432	1170
926.529	1771
926.625	2104
926.722	1687
926.818	1043
926.915	1725
927.011	1789
927.108	2116
927.204	1225
927.301	1715
927.397	1559
927.494	2414
927.590	1901
927.687	1201
927.783	2640
927.879	1415
927.976	2060
928.072	1121
928.168	1354
928.264	691
928.361	1301
928.457	2145
928.553	1415
928.649	1169
928.745	1580
928.841	1251
928.937	1515
929.033	1413
929.129	1297
929.225	1625
929.321	1205
929.417	1246
929.513	1544
929.609	1343
929.705	1033
929.801	756
929.897	1139
929.993	688
930.089	1890
930.184	1249
930.280	1644
930.376	1699
930.471	1161
930.567	1501
930.663	1977
930.758	1100
930.854	630
930.950	760
931.045	1163
931.141	1415
931.236	1433
931.332	584
931.427	995
931.523	1537
931.618	1274
931.714	892
931.809	992
931.905	2102
932.000	373
932.095	167
932.191	1077
932.286	1360
932.381	1301
932.476	685
932.572	1181
932.667	929
932.762	847
932.857	1285
932.952	1122
933.047	897
933.142	1202
933.237	889
933.332	852
933.427	1117
933.522	1551
933.617	464
933.712	1749
933.807	1095
933.902	1010
933.997	1218
934.092	598
934.187	1023
934.282	1412
934.376	961
934.471	1251
934.566	332
934.661	1560
934.755	564
934.850	1411
934.945	1052
935.039	406
935.134	1172
935.228	196
935.323	1437
935.417	1312
935.512	937
935.606	323
935.701	1636
935.795	1145
935.890	602
935.984	837
936.079	145
936.173	1524
936.267	-29
936.362	1069
936.456	969
936.550	1363
936.644	998
936.738	170
936.833	1011
936.927	932
937.021	688
937.115	737
937.209	271
937.303	1161
937.397	-313
937.491	313
937.585	821
937.679	1199
937.773	478
937.867	715
937.961	591
938.055	1446
938.149	698
938.243	487
938.337	572
938.430	251
938.524	939
938.618	839
938.712	767
938.805	766
938.899	798
938.993	897
939.086	762
939.180	719
939.274	609
939.367	766
939.461	528
939.554	659
939.648	612
939.741	343
939.835	1039
939.928	821
940.022	254
940.115	967
940.208	1299
940.302	1061
940.395	1184
940.488	134
940.582	1256
940.675	-272
940.768	500
940.861	488
940.954	281
941.048	959
941.141	-156
941.234	176
941.327	1068
941.420	1181
941.513	1203
941.606	311
941.699	550
941.792	14
941.885	88
941.978	1610
942.071	363
942.164	187
942.257	214
942.349	308
942.442	319
942.535	-276
942.628	1321
942.721	731
942.813	-248
942.906	885
942.999	1163
943.091	134
943.184	50
943.277	-234
943.369	869
943.462	176
943.554	707
943.647	306
943.739	267
943.832	588
943.924	-11
944.017	673
944.109	-159
944.201	-286
944.294	490
944.386	492
944.478	-284
944.571	497
944.663	197
944.755	307
944.847	-100
944.940	511
945.032	-142
945.124	-237
945.216	707
945.308	1062
945.400	529
945.492	275
945.584	695
945.676	526
945.768	317
945.860	488
945.952	-225
946.044	955
946.136	33
946.228	204
946.320	287
946.412	312
946.503	-256
946.595	768
946.687	511
946.779	580
946.870	325
946.962	101
947.054	341
947.145	370
947.237	886
947.329	-265
947.420	-364
947.512	249
947.603	-319
947.695	-54
947.786	-82
947.878	-396
947.969	137
948.061	265
948.152	317
948.243	960
948.335	616
948.426	-196
948.517	-490
948.609	980
948.700	-57
948.791	1231
948.882	-415
948.973	883
949.065	-231
949.156	656
949.247	325
949.338	201
949.429	820
949.520	-364
949.611	-154
949.702	273
949.793	417
949.884	396
949.975	-37
950.066	-36
950.157	-655
950.247	1410
950.338	409
950.429	-88
950.520	-462
950.611	9
950.701	233
950.792	414
950.883	635
950.973	683
951.064	158
951.155	262
951.245	-80
951.336	-249
951.427	-462
951.517	-100
951.608	-245
951.698	-106
951.788	171
951.879	23
951.969	-334
952.060	426
952.150	289
952.240	-984
952.331	-1013
952.421	1056
952.511	-306
952.602	241
952.692	-301
952.782	-61
952.872	-1114
952.962	-383
953.052	552
953.143	-576
953.233	557
953.323	270
953.413	-678
953.503	775
953.593	108
953.683	907
953.773	-31
953.863	247
953.953	40
954.042	168
954.132	4
954.222	441
954.312	31
954.402	-682
954.492	-196
954.581	421
954.671	619
954.761	-468
954.850	-249
954.940	111
955.030	-621
955.119	-1125
955.209	-16
955.298	-843
955.388	176
955.477	-347
955.567	-420
955.656	306
955.746	284
955.835	264
955.925	-99
956.014	-12
956.103	-9
956.193	548
956.282	413
956.371	517
956.461	-557
956.550	47
956.639	825
956.728	-281
956.817	-50
956.906	269
956.995	219
957.085	105
957.174	487
957.263	339
957.352	-337
957.441	-300
957.530	167
957.619	651
957.708	-885
957.796	-903
957.885	-237
957.974	-373
958.063	93
958.152	-836
958.241	195
958.329	-523
958.418	-711
958.507	-181
958.596	-248
958.684	35
958.773	537
958.861	51
958.950	-144
959.039	-268
959.127	96
959.216	687
959.304	-524
959.393	580
959.481	-790
959.570	-209
959.658	-1197
959.746	1
959.835	-94
959.923	841
960.011	554
960.100	384
960.188	-456
960.276	3
960.365	-705
960.453	-323
960.541	-683
960.629	-385
960.717	-170
960.805	-1420
960.893	-177
960.981	96
961.069	-55
961.158	120
961.245	1172
961.333	323
961.421	-647
961.509	-636
961.597	425
961.685	260
961.773	-919
961.861	-295
961.949	241
962.036	285
962.124	-285
962.212	-422
962.299	-365
962.387	-324
962.475	290
962.562	-991
962.650	575
962.738	-320
962.825	-604
962.913	-987
963.000	-505
963.088	-50
963.175	88
963.263	-299
963.350	-511
963.438	-675
963.525	-372
963.612	810
963.700	1059
963.787	4397
963.874	2971
963.962	611
964.049	28
964.136	584
964.223	-566
964.310	-270
964.398	394
964.485	-583
964.572	-439
964.659	-187
964.746	681
964.833	-563
964.920	-1297
965.007	-581
965.094	-569
965.181	-963
965.268	-385
965.355	-420
965.441	-559
965.528	-1034
965.615	304
965.702	-472
965.789	-573
965.875	-353
965.962	-105
966.049	-224
966.136	-371
966.222	-1107
966.309	-374
966.395	-492
966.482	155
966.569	-178
966.655	-1402
966.742	-1195
966.828	240
966.915	49
967.001	-196
967.087	83
967.174	-94
967.260	-48
967.347	-730
967.433	158
967.519	2544
967.605	2120
967.692	45
967.778	-784
967.864	-1005
967.950	-258
968.036	-446
968.123	-567
968.209	-674
968.295	-916
968.381	896
968.467	-147
968.553	-1320
968.639	239
968.725	-550
968.811	264
968.897	-261
968.983	144
969.069	-1393
969.154	117
969.240	-113
969.326	81
969.412	-382
969.497	-719
969.583	-643
969.669	-621
969.755	-1153
969.840	-186
969.926	-260
970.012	19
970.097	204
970.183	-203
970.268	73
970.354	118
970.439	56
970.525	1258
970.610	-277
970.696	553
970.781	-212
970.866	-881
970.952	93
971.037	-333
971.122	-1787
971.208	213
971.293	-631
971.378	-903
971.463	-1002
971.549	-566
971.634	-348
971.719	-312
971.804	-661
971.889	-3
971.974	-688
972.059	-180
972.144	-844
972.229	-449
972.314	-285
972.399	-172
972.484	-1089
972.569	-24
972.654	350
972.739	569
972.824	-948
972.908	294
972.993	-1086
973.078	-193
973.163	-416
973.247	-77
973.332	-1817
973.417	-94
973.501	-1043
973.586	-661
973.671	-897
973.755	-796
973.840	-244
973.924	142
974.009	-285
974.093	-842
974.178	113
974.262	-729
974.346	828
974.431	-114
974.515	-952
974.600	-377
974.684	-222
974.768	-29
974.852	-291
974.937	-250
975.021	-868
975.105	-972
975.189	-370
975.273	-887
975.358	-1380
975.442	-1859
975.526	-379
975.610	-1058
975.694	-1457
975.778	240
975.862	-791
975.946	-2301
976.030	379
976.114	-405
976.198	-164
976.281	-1406
976.365	-379
976.449	-378
976.533	-710
976.617	-1642
976.700	-1068
976.784	35
976.868	-1817
976.951	-434
977.035	-304
977.119	-940
977.202	-474
977.286	-686
977.369	-728
977.453	-37
977.536	-1228
977.620	156
977.703	-697
977.787	-557
977.870	-719
977.953	-95
978.037	-2105
978.120	-400
978.203	-1142
978.287	559
978.370	-38
978.453	-938
978.536	-772
978.620	-350
978.703	-871
978.786	-469
978.869	-1065
978.952	-718
979.035	-394
979.118	-439
979.201	-1454
979.284	-338
979.367	-840
979.450	-527
979.533	-1534
979.616	-690
979.699	-999
979.782	1
979.865	-978
979.948	-710
980.030	-927
980.113	-1089
980.196	-1940
980.279	-719
980.361	-997
980.444	-1261
980.526	-1225
980.609	312
980.692	-445
980.774	-12
980.857	-1415
980.939	-193
981.022	-1078
981.104	-261
981.187	-1213
981.269	-648
981.352	-426
981.434	-1337
981.516	-1708
981.599	-6
981.681	-1286
981.763	-910
981.846	-188
981.928	-930
982.010	-1646
982.092	-759
982.174	-804
982.256	-758
982.339	-1418
982.421	-404
982.503	-576
982.585	-1690
982.667	-1271
982.749	-185
982.831	-1880
982.913	-1311
982.995	-536
983.077	-1487
983.158	-737
983.240	-981
983.322	-796
983.404	141
983.486	-895
983.568	-397
983.649	-1276
983.731	-345
983.813	-958
983.894	-1000
983.976	-1388
984.058	-995
984.139	-195
984.221	-1655
984.302	-342
984.384	-839
984.465	-1067
984.547	-236
984.628	-1402
984.710	-395
984.791	-479
984.872	-1508
984.954	-1512
985.035	-850
985.116	-1245
985.198	-1107
985.279	164
985.360	-844
985.441	-1073
985.522	-543
985.604	-289
985.685	-1819
985.766	-533
985.847	-440
985.928	-1809
986.009	-564
986.090	-741
986.171	-643
986.252	-1196
986.333	-1257
986.414	-915
986.495	-435
986.576	-785
986.656	-311
986.737	-1133
986.818	-920
986.899	-1399
986.980	-906
987.060	-1004
987.141	-624
987.222	-790
987.302	-114
987.383	-711
987.464	-1011
987.544	-376
987.625	-1060
987.705	-586
987.786	-664
987.866	-609
987.947	179
988.027	-1014
988.108	-1013
988.188	-486
988.268	-20
988.349	-526
988.429	-817
988.509	-348
988.589	-786
988.670	-2196
988.750	202
988.830	-876
988.910	-876
988.990	-420
989.070	-1351
989.151	-899
989.231	-1640
989.311	-874
989.391	-516
989.471	-1167
989.551	-867
989.631	-1793
989.711	-318
989.791	-1638
989.870	-1049
989.950	-635
990.030	-857
990.110	-539
990.190	-770
990.269	-1168
990.349	-1123
990.429	-523
990.509	-71
990.588	-1472
990.668	-1201
990.747	-1114
990.827	-1558
990.907	-965
990.986	-739
991.066	-415
991.145	-1294
991.225	-333
991.304	-1548
991.383	-483
991.463	-404
991.542	-129
991.622	-1573
991.701	-1403
991.780	-390
991.859	-1114
991.939	-918
992.018	-965
992.097	-1439
992.176	-1331
992.256	-1078
992.335	-1293
992.414	-361
992.493	-487
992.572	-831
992.651	-360
992.730	-518
992.809	-1239
992.888	-1296
992.967	-1034
993.046	-680
993.125	-1275
993.203	-1040
993.282	-605
993.361	-1061
993.440	-713
993.519	-1322
993.597	-763
993.676	-1946
993.755	-465
993.834	-628
993.912	-779
993.991	-634
994.069	-1454
994.148	-835
994.226	-1371
994.305	-413
994.384	-1487
994.462	-144
994.540	-1670
994.619	-1253
994.697	-1248
994.776	-1958
994.854	-1407
994.932	-957
995.011	-1519
995.089	-1109
995.167	-1111
995.245	-1266
995.324	-2182
995.402	-922
995.480	-1813
995.558	-1198
995.636	-1949
995.714	-1544
995.792	-780
995.870	-889
995.948	-1627
996.026	-1970
996.104	-1814
996.182	-528
996.260	-1271
996.338	-1359
996.416	-1464
996.494	-1007
996.572	-386
996.649	-1004
996.727	-2561
996.805	-833
996.883	-1094
996.960	-1974
997.038	-1421
997.116	-1304
997.193	-1889
997.271	-771
997.348	-2107
997.426	-1190
997.504	-2172
997.581	-663
997.658	-1135
997.736	-1343
997.813	-1487
997.891	-906
997.968	-2105
998.046	-1218
998.123	-1156
998.200	-787
998.277	-1799
998.355	-1169
998.432	-1388
998.509	-848
998.586	-590
998.663	-828
998.741	-1008
998.818	-1747
998.895	-1199
998.972	-959
999.049	-1113
999.126	-1760
999.203	-537
999.280	-1317
999.357	-1513
999.434	-1566
999.511	-1512
999.587	-698
999.664	-1944
999.741	-790
999.818	-1192
999.895	-1679
999.971	-2139
1000.048	-1266
1000.125	-1265
1000.202	-1954
1000.278	-1091
1000.355	-1117
1000.431	-1470
1000.508	-1940
1000.584	-397
1000.661	-1342
1000.738	-2154
1000.814	-1474
1000.890	-1088
1000.967	-1283
1001.043	-1233
1001.120	-2492
1001.196	-1589
1001.272	-2258
1001.349	-1228
1001.425	-681
1001.501	-2026
1001.577	-1878
1001.654	-1607
1001.730	-1553
1001.806	-1884
1001.882	-1790
1001.958	-1185
1002.034	-1343
1002.110	-844
1002.186	-1088
1002.262	-1866
1002.338	-1355
1002.414	-1086
1002.490	-996
1002.566	-1302
1002.642	-1922
1002.718	-899
1002.794	-1453
1002.870	-724
1002.945	-1412
1003.021	-1904
1003.097	-1943
1003.173	-1638
1003.248	-2077
1003.324	-1300
1003.400	-2074
1003.475	-2112
1003.551	-1410
1003.626	-1770
1003.702	-1440
1003.777	-1364
1003.853	-1406
1003.928	-1615
1004.004	-1480
1004.079	-1546
1004.155	-1847
1004.230	-2205
1004.305	-1233
1004.381	-1387
1004.456	-1108
1004.531	-1038
1004.607	-1076
1004.682	-1899
1004.757	-1004
1004.832	-2206
1004.907	-1374
1004.982	-1021
1005.057	-2109
1005.133	-511
1005.208	-1461
1005.283	-2012
1005.358	-913
1005.433	-2210
1005.508	-1775
1005.583	-2329
1005.657	-1833
1005.732	-1186
1005.807	-1373
1005.882	-1161
1005.957	-1972
1006.032	-1256
1006.106	-1558
1006.181	-1335
1006.256	-1246
1006.331	-2013
1006.405	-2395
1006.480	-1964
1006.554	-1058
1006.629	-987
1006.704	-1952
1006.778	-1177
1006.853	-1027
1006.927	-1889
1007.002	-2051
1007.076	-1855
1007.150	-1366
1007.225	-1752
1007.299	-1690
1007.373	-2765
1007.448	-819
1007.522	-1260
1007.596	-931
1007.671	-1451
1007.745	-1562
1007.819	-2169
1007.893	-1887
1007.967	-1577
1008.041	-2565
1008.115	-810
1008.190	-1914
1008.264	-1718
1008.338	-2457
1008.412	-1743
1008.486	-719
1008.560	-1741
1008.633	-1367
1008.707	-1688
1008.781	-268
1008.855	-1211
1008.929	-1946
1009.003	-1939
1009.076	-2006
1009.150	-982
1009.224	-1453
1009.298	-1278
1009.371	-2865
1009.445	-1330
1009.519	-1721
1009.592	-1957
1009.666	-1069
1009.739	-1763
1009.813	-2570
1009.886	-1377
1009.960	-2490
1010.033	-1111
1010.107	-1506
1010.180	-1790
1010.253	-1309
1010.327	-2281
1010.400	-1722
1010.473	-1640
1010.547	-349
1010.620	-1811
1010.693	-896
1010.766	-2152
1010.840	-1289
1010.913	-1714
1010.986	-1906
1011.059	-1509
1011.132	-1912
1011.205	-1614
1011.278	-2100
1011.351	-2136
1011.424	-1900
1011.497	-1926
1011.570	-1880
1011.643	-1513
1011.716	-2134
1011.789	-1356
1011.862	-1919
1011.934	-1319
1012.007	-2009
1012.080	-2081
1012.153	-1325
1012.225	-1161
1012.298	-2123
1012.371	-1793
1012.443	-1957
1012.516	-2962
1012.588	-2015
1012.661	-1520
1012.733	-2637
1012.806	-1436
1012.879	-1756
1012.951	-2224
1013.023	-1747
1013.096	-1130
1013.168	-2297
1013.241	-1759
1013.313	-731
1013.385	-2620
1013.458	-2151
1013.530	-1923
1013.602	-2342
1013.674	-2226
1013.746	-1889
1013.819	-2054
1013.891	-1263
1013.963	-2986
1014.035	-2009
1014.107	-2025
1014.179	-543
1014.251	-3147
1014.323	-1008
1014.395	-2423
1014.467	-1825
1014.539	-1623
1014.611	-2164
1014.683	-2406
1014.754	-1878
1014.826	-2736
1014.898	-2100
1014.970	-2837
1015.042	-1761
1015.113	-936
1015.185	-1481
1015.257	-2175
1015.328	-1363
1015.400	-2016
1015.471	-1780
1015.543	-3335
1015.615	-1632
1015.686	-1808
1015.757	-1706
1015.829	-1372
1015.901	-1788
1015.972	-2532
1016.043	-1519
1016.115	-1485
1016.186	-2296
1016.257	-2693
1016.328	-2028
1016.400	-1458
1016.471	-2271
1016.542	-1993
1016.613	-1646
1016.685	-1898
1016.756	-2375
1016.827	-1586
1016.898	-2718
1016.969	-1333
1017.040	-2810
1017.111	-2878
1017.182	-1949
1017.253	-1280
1017.324	-1894
1017.395	-1316
1017.466	-1599
1017.537	-2714
1017.608	-1246
1017.678	-1667
1017.749	-2107
1017.820	-2082
1017.891	-1342
1017.961	-2206
1018.032	-1599
1018.103	-2219
1018.173	-2171
1018.244	-3051
1018.315	-1517
1018.385	-1826
1018.456	-1575
1018.526	-2488
1018.597	-2191
1018.667	-1986
1018.738	-2225
1018.808	-2216
1018.878	-2153
1018.949	-1685
1019.019	-2192
1019.089	-2100
1019.160	-1769
1019.230	-2200
1019.300	-1780
1019.371	-2632
1019.441	-1574
1019.511	-2285
1019.581	-1756
1019.651	-1499
1019.721	-2076
1019.791	-1108
1019.861	-1661
1019.931	-2179
1020.001	-1771
1020.071	-1883
1020.141	-2294
1020.211	-1377
1020.281	-2710
1020.351	-1895
1020.421	-1166
1020.491	-1456
1020.560	-2223
1020.630	-2129
1020.700	-1715
1020.770	-2132
1020.839	-1457
1020.909	-1529
1020.979	-2559
1021.048	-1463
1021.118	-1929
1021.187	-2431
1021.257	-2004
1021.326	-2476
1021.396	-1587
1021.465	-2051
1021.535	-1904
1021.604	-2968
1021.674	-2346
1021.743	-1914
1021.812	-2056
1021.882	-1703
1021.951	-2126
1022.020	-2322
1022.089	-1575
1022.159	-2527
1022.228	-1216
1022.297	-2189
1022.366	-1599
1022.435	-1620
1022.504	-2106
1022.573	-2670
1022.642	-2085
1022.711	-2080
1022.781	-2128
1022.849	-1209
1022.918	-2357
1022.987	-1939
1023.056	-1879
1023.125	-2059
1023.194	-2236
1023.263	-2150
1023.331	-1739
1023.400	-3217
1023.469	-1573
1023.538	-2076
1023.606	-2051
1023.675	-1843
1023.744	-2303
1023.812	-1876
1023.881	-1553
1023.949	-2004
1024.018	-2190
1024.086	-1691
1024.155	-2484
1024.223	-2492
1024.292	-1463
1024.360	-1792
1024.429	-2342
1024.497	-2789
1024.565	-1789
1024.634	-2030
1024.702	-1936
1024.770	-1995
1024.838	-2419
1024.907	-945
1024.975	-1522
1025.043	-2001
1025.111	-2129
1025.179	-2630
1025.247	-2090
1025.315	-2577
1025.383	-1677
1025.451	-1715
1025.519	-2403
1025.587	-1826
1025.655	-1849
1025.723	-2976
1025.791	-2025
1025.859	-1512
1025.927	-1411
1025.995	-2250
1026.062	-2262
1026.130	-2094
1026.198	-1948
1026.266	-2024
1026.333	-1658
1026.401	-1647
1026.469	-2256
1026.536	-2330
1026.604	-2057
1026.671	-2514
1026.739	-1576
1026.806	-2478
1026.874	-1834
1026.941	-1585
1027.009	-1357
1027.076	-2357
1027.144	-863
1027.211	-2355
1027.278	-1594
1027.345	-2565
1027.413	-1850
1027.480	-2395
1027.547	-1943
1027.614	-2125
1027.682	-2717
1027.749	-2230
1027.816	-2057
1027.883	-1445
1027.950	-2145
1028.017	-2562
1028.084	-1689
1028.151	-2490
1028.218	-1745
1028.285	-1925
1028.352	-2257
1028.419	-1799
1028.486	-1416
1028.553	-1397
1028.619	-1901
1028.686	-2632
1028.753	-2350
1028.820	-2512
1028.886	-1540
1028.953	-1181
1029.020	-1619
1029.086	-2099
1029.153	-1897
1029.220	-1493
1029.286	-2067
1029.353	-1350
1029.419	-1926
1029.486	-1979
1029.552	-1903
1029.619	-2511
1029.685	-2446
1029.751	-1414
1029.818	-1510
1029.884	-2790
1029.951	-1396
1030.017	-2590
1030.083	-2835
1030.149	-2098
1030.216	-1400
1030.282	-2425
1030.348	-2019
1030.414	-3045
1030.480	-1560
1030.546	-1951
1030.612	-1799
1030.678	-1922
1030.744	-1669
1030.810	-2361
1030.876	-1690
1030.942	-1994
1031.008	-1780
1031.074	-2913
1031.140	-1676
1031.206	-1857
1031.272	-2174
1031.337	-1694
1031.403	-1507
1031.469	-2724
1031.534	-2058
1031.600	-2098
1031.666	-2739
1031.731	-2264
1031.797	-1034
1031.863	-1691
1031.928	-2424
1031.994	-2202
1032.059	-2155
1032.125	-2614
1032.190	-2447
1032.256	-2476
1032.321	-2369
1032.386	-2461
1032.452	-1298
1032.517	-2189
1032.582	-1821
1032.647	-1707
1032.713	-1906
1032.778	-2696
1032.843	-1773
1032.908	-3164
1032.974	-2017
1033.039	-2107
1033.104	-1488
1033.169	-2226
1033.234	-2053
1033.299	-1884
1033.364	-2123
1033.429	-2464
1033.494	-1671
1033.559	-2622
1033.624	-2206
1033.688	-2143
1033.753	-1952
1033.818	-3006
1033.883	-1695
1033.948	-2088
1034.013	-1411
1034.077	-2207
1034.142	-876
1034.207	-1847
1034.271	-1179
1034.336	-1082
1034.400	-1154
1034.465	-2134
1034.530	-1995
1034.594	-2261
1034.658	-2081
1034.723	-2576
1034.787	-1376
1034.852	-2405
1034.916	-2646
1034.981	-1879
1035.045	-1695
1035.109	-2016
1035.173	-2347
1035.238	-1936
1035.302	-1705
1035.366	-2292
1035.430	-1898
1035.495	-2476
1035.559	-1221
1035.623	-2462
1035.687	-2075
1035.751	-1626
1035.815	-2022
1035.879	-3277
1035.943	-2092
1036.007	-2525
1036.071	-1854
1036.135	-2803
1036.198	-1392
1036.262	-3068
1036.326	-1931
1036.390	-2495
1036.454	-1805
1036.517	-2400
1036.581	-2023
1036.645	-2571
1036.709	-2150
1036.772	-2873
1036.836	-1005
1036.900	-2237
1036.963	-2430
1037.026	-2384
1037.090	-2110
1037.154	-2479
1037.217	-2219
1037.280	-2176
1037.344	-1909
1037.407	-2211
1037.471	-2326
1037.534	-2363
1037.597	-2140
1037.661	-3422
1037.724	-2455
1037.787	-2351
1037.850	-2582
1037.913	-2707
1037.977	-1331
1038.040	-2004
1038.103	-2115
1038.166	-1910
1038.229	-2547
1038.292	-2511
1038.355	-3020
1038.418	-2507
1038.481	-2194
1038.544	-2809
1038.607	-2100
1038.670	-1716
1038.732	-1859
1038.795	-1904
1038.858	-1953
1038.921	-2536
1038.984	-946
1039.046	-2564
1039.109	-2701
1039.172	-2563
1039.234	-2489
1039.297	-1874
1039.360	-2425
1039.422	-2134
1039.485	-2261
1039.547	-2661
1039.610	-2210
1039.672	-2584
1039.734	-1687
1039.797	-1916
1039.859	-1972
1039.922	-1983
1039.984	-2142
1040.046	-1978
1040.109	-1849
1040.171	-2722
1040.233	-1964
1040.295	-2337
1040.358	-1839
1040.420	-2899
1040.482	-2230
1040.544	-2049
1040.606	-2448
1040.668	-2177
1040.730	-2267
1040.792	-2609
1040.854	-1964
1040.916	-2300
1040.978	-2491
1041.040	-2355
1041.102	-2175
1041.164	-2632
1041.225	-2543
1041.287	-2232
1041.349	-2591
1041.411	-3010
1041.472	-2557
1041.534	-2576
1041.596	-3275
1041.657	-2054
1041.719	-2112
1041.781	-2159
1041.842	-2762
1041.904	-2266
1041.965	-2460
1042.027	-2329
1042.088	-2183
1042.150	-1985
1042.211	-1930
1042.272	-1853
1042.334	-2797
1042.395	-1897
1042.456	-3078
1042.518	-2883
1042.579	-1879
1042.640	-2505
1042.701	-2674
1042.763	-2567
1042.824	-2424
1042.885	-2475
1042.946	-2472
1043.007	-2533
1043.068	-2595
1043.129	-2464
1043.190	-2403
1043.251	-2708
1043.312	-2552
1043.373	-1559
1043.434	-1818
1043.495	-2593
1043.556	-2144
1043.616	-2670
1043.677	-2775
1043.738	-2675
1043.799	-2204
1043.859	-3096
1043.920	-2675
1043.981	-2663
1044.041	-1748
1044.102	-2768
1044.162	-1948
1044.223	-2457
1044.284	-2264
1044.344	-1961
1044.405	-2323
1044.465	-2044
1044.525	-1981
1044.586	-2957
1044.646	-2533
1044.707	-2032
1044.767	-2209
1044.827	-3069
1044.887	-2850
1044.948	-2052
1045.008	-1285
1045.068	-2477
1045.128	-1435
1045.188	-2613
1045.249	-1827
1045.309	-1969
1045.369	-2021
1045.429	-2423
1045.489	-2304
1045.549	-2229
1045.609	-2427
1045.669	-2151
1045.729	-2531
1045.789	-2408
1045.848	-2881
1045.908	-2134
1045.968	-2470
1046.028	-2193
1046.088	-2795
1046.147	-1390
1046.207	-2223
1046.267	-2555
1046.326	-1741
1046.386	-2521
1046.446	-2014
1046.505	-2244
1046.565	-629
1046.624	-1996
1046.684	-1233
1046.743	-986
1046.803	-1278
1046.862	-1348
1046.922	0
