'Start Wavelength	183.907
'End Wavelength	1046.922
'Gate Delay	5.000
'Gate Width (ms)	1.050
'Laser Output Level	0.000
'X Position	0.000
'Y Position	0.000
'Z Position	0.000
'Grid Point Number	1.000
'Shot Number	100.000
183.907	-364.000
183.977	356.000
184.047	5
184.116	-532
184.186	-127
184.256	20
184.325	-690
184.395	-368
184.465	1189
184.534	-215
184.604	-827
184.674	208
184.743	1
184.813	450
184.883	234
184.952	-525
185.022	571
185.092	-40
185.161	585
185.231	612
185.301	-365
185.370	461
185.440	-169
185.509	-303
185.579	20
185.649	13
185.718	469
185.788	102
185.857	-826
185.927	-536
185.996	619
186.066	-124
186.136	61
186.205	208
186.275	-114
186.344	-38
186.414	272
186.483	-381
186.553	1071
186.622	1215
186.692	110
186.761	212
186.831	185
186.900	-635
186.970	817
187.039	741
187.109	739
187.178	1031
187.248	198
187.317	299
187.387	-197
187.456	162
187.526	43
187.595	-1
187.664	-417
187.734	312
187.803	-676
187.873	166
187.942	350
188.012	50
188.081	-261
188.150	882
188.220	1191
188.289	928
188.358	808
188.428	700
188.497	-359
188.567	581
188.636	616
188.705	-301
188.775	41
188.844	-101
188.913	1420
188.983	-99
189.052	576
189.121	925
189.191	-417
189.260	216
189.329	367
189.399	502
189.468	548
189.537	213
189.606	391
189.676	733
189.745	219
189.814	370
189.883	616
189.953	1030
190.022	585
190.091	1020
190.161	842
190.230	647
190.299	-154
190.368	-240
190.437	-43
190.507	305
190.576	-41
190.645	246
190.714	-234
190.783	199
190.853	288
190.922	742
190.991	-40
191.060	173
191.129	-375
191.198	346
191.268	104
191.337	-378
191.406	115
191.475	1106
191.544	163
191.613	395
191.682	1124
191.752	389
191.821	936
191.890	7
191.959	758
192.028	442
192.097	1057
192.166	610
192.235	111
192.304	1127
192.373	794
192.442	-475
192.511	699
192.580	482
192.650	341
192.719	103
192.788	813
192.857	936
192.926	-33
192.995	5
193.064	177
193.133	1599
193.202	1004
193.271	1547
193.340	1025
193.409	754
193.478	1339
193.547	1185
193.615	1930
193.684	1721
193.753	1591
193.822	1037
193.891	276
193.960	1097
194.029	312
194.098	229
194.167	104
194.236	493
194.305	127
194.374	1080
194.443	334
194.512	745
194.580	1247
194.649	973
194.718	923
194.787	875
194.856	-36
194.925	1341
194.994	208
195.062	427
195.131	874
195.200	1049
195.269	960
195.338	1022
195.407	1073
195.475	825
195.544	469
195.613	1094
195.682	373
195.751	1392
195.819	96
195.888	825
195.957	1107
196.026	731
196.094	901
196.163	908
196.232	1212
196.301	587
196.369	1679
196.438	499
196.507	737
196.576	1142
196.644	69
196.713	174
196.782	553
196.850	781
196.919	304
196.988	1096
197.056	-251
197.125	852
197.194	1210
197.262	700
197.331	34
197.400	937
197.468	-53
197.537	714
197.606	796
197.674	1284
197.743	1779
197.812	763
197.880	2157
197.949	608
198.017	1464
198.086	450
198.155	904
198.223	1514
198.292	1349
198.360	1029
198.429	954
198.497	992
198.566	176
198.635	2205
198.703	1106
198.772	1258
198.840	1810
198.909	1684
198.977	1167
199.046	1141
199.114	229
199.183	1316
199.251	125
199.320	248
199.388	305
199.457	688
199.525	1187
199.594	510
199.662	1028
199.731	387
199.799	1031
199.867	1426
199.936	152
200.004	758
200.073	1017
200.141	860
200.210	1086
200.278	707
200.346	845
200.415	1559
200.483	1955
200.552	1742
200.620	1251
200.688	444
200.757	1452
200.825	772
200.893	515
200.962	1494
201.030	425
201.098	932
201.167	1440
201.235	975
201.303	809
201.372	1333
201.440	961
201.508	1994
201.577	1495
201.645	1253
201.713	910
201.781	1655
201.850	1381
201.918	212
201.986	1236
202.055	788
202.123	194
202.191	826
202.259	1304
202.327	188
202.396	1083
202.464	693
202.532	1513
202.600	3530
202.669	3010
202.737	1335
202.805	873
202.873	536
202.941	792
203.009	714
203.078	740
203.146	1481
203.214	108
203.282	671
203.350	1606
203.418	1087
203.487	1257
203.555	1042
203.623	1134
203.691	1719
203.759	1128
203.827	633
203.895	1787
203.963	1478
204.031	521
204.099	760
204.168	1339
204.236	2047
204.304	1637
204.372	555
204.440	1183
204.508	838
204.576	790
204.644	1164
204.712	250
204.780	354
204.848	1319
204.916	1092
204.984	574
205.052	1387
205.120	1099
205.188	1333
205.256	1246
205.324	1242
205.392	296
205.460	1465
205.528	852
205.596	1212
205.664	751
205.732	795
205.799	2401
205.867	4003
205.935	660
206.003	1602
206.071	617
206.139	914
206.207	824
206.275	863
206.343	1257
206.411	1575
206.478	1066
206.546	1995
206.614	1109
206.682	1432
206.750	1061
206.818	1780
206.885	2063
206.953	76
207.021	2036
207.089	1253
207.157	316
207.225	1000
207.292	785
207.360	1293
207.428	1489
207.496	504
207.563	1582
207.631	1169
207.699	1202
207.767	1217
207.834	1987
207.902	1494
207.970	1205
208.038	1065
208.105	1304
208.173	1445
208.241	1650
208.309	2164
208.376	1673
208.444	2860
208.512	1994
208.579	821
208.647	2174
208.715	2441
208.782	1428
208.850	1778
208.918	1565
208.985	2130
209.053	1431
209.120	1263
209.188	804
209.256	1710
209.323	1340
209.391	1647
209.459	2646
209.526	1209
209.594	1098
209.661	1587
209.729	2129
209.796	2289
209.864	1894
209.932	1527
209.999	3052
210.067	1469
210.134	1778
210.202	2324
210.269	2247
210.337	3183
210.404	2158
210.472	1405
210.539	1755
210.607	1261
210.674	1450
210.742	1982
210.809	1371
210.877	2064
210.944	2782
211.012	1538
211.079	3281
211.146	1848
211.214	1544
211.281	3314
211.349	2907
211.416	2375
211.484	2321
211.551	1174
211.618	2333
211.686	2193
211.753	1318
211.821	2018
211.888	1818
211.955	2471
212.023	1782
212.090	1600
212.157	1145
212.225	1938
212.292	2724
212.359	5145
212.427	9554
212.494	5394
212.561	1983
212.629	2879
212.696	1990
212.763	2434
212.831	1715
212.898	2360
212.965	1591
213.032	2518
213.100	2374
213.167	2449
213.234	2702
213.301	1768
213.369	2009
213.436	1126
213.503	1576
213.570	2595
213.638	2424
213.705	1625
213.772	1200
213.839	1405
213.906	2050
213.973	2595
214.041	1372
214.108	2088
214.175	2902
214.242	2216
214.309	2528
214.376	1973
214.444	2005
214.511	2338
214.578	1702
214.645	3235
214.712	3482
214.779	2599
214.846	1734
214.913	2939
214.980	2772
215.048	3229
215.115	4278
215.182	3494
215.249	2689
215.316	2490
215.383	2783
215.450	2420
215.517	2477
215.584	2015
215.651	1863
215.718	2293
215.785	2062
215.852	2764
215.919	3485
215.986	2801
216.053	2279
216.120	1501
216.187	2216
216.254	3240
216.321	2555
216.388	2394
216.455	2427
216.522	2588
216.589	3397
216.656	4705
216.722	4288
216.789	4287
216.856	4703
216.923	3906
216.990	3965
217.057	3625
217.124	3307
217.191	3957
217.258	4145
217.324	5478
217.391	5328
217.458	4462
217.525	3873
217.592	2931
217.659	1977
217.725	3574
217.792	3402
217.859	4447
217.926	2759
217.993	2218
218.059	2397
218.126	3211
218.193	2698
218.260	1931
218.327	1910
218.393	2595
218.460	2096
218.527	1801
218.594	2989
218.660	3471
218.727	4128
218.794	2244
218.860	2805
218.927	1432
218.994	1865
219.061	1860
219.127	2593
219.194	3932
219.261	2609
219.327	1797
219.394	2435
219.461	975
219.527	1806
219.594	3013
219.661	2174
219.727	1113
219.794	2985
219.860	2020
219.927	2697
219.994	4368
220.060	6454
220.127	6550
220.193	4759
220.260	3096
220.326	5092
220.393	5897
220.460	8301
220.526	5476
220.593	3707
220.659	5318
220.726	3505
220.792	7149
220.859	7935
220.925	10201
220.992	12235
221.058	10449
221.125	9785
221.191	7374
221.258	3976
221.324	2943
221.391	2972
221.457	2420
221.524	2324
221.590	4294
221.657	7249
221.723	4919
221.789	5402
221.856	4479
221.922	3199
221.989	3277
222.055	2814
222.121	1834
222.188	4239
222.254	3681
222.321	2745
222.387	1677
222.453	2234
222.520	1645
222.586	2256
222.652	2084
222.719	1503
222.785	2373
222.851	2898
222.918	1419
222.984	1811
223.050	2381
223.116	61
223.183	2694
223.249	1026
223.315	1303
223.382	1504
223.448	1434
223.514	1107
223.580	1298
223.647	1178
223.713	2184
223.779	1519
223.845	1721
223.911	2071
223.978	1409
224.044	2475
224.110	1967
224.176	2330
224.242	2214
224.309	1036
224.375	1741
224.441	2000
224.507	1434
224.573	1142
224.639	3116
224.705	729
224.772	1593
224.838	1626
224.904	1987
224.970	1468
225.036	2045
225.102	1652
225.168	2312
225.234	2477
225.300	1530
225.366	1587
225.432	1499
225.499	2320
225.565	2593
225.631	2117
225.697	2622
225.763	2745
225.829	2838
225.895	3182
225.961	4875
226.027	4585
226.093	3087
226.159	4555
226.225	7556
226.291	12806
226.357	19095
226.423	12515
226.489	6884
226.554	4811
226.620	3809
226.686	4740
226.752	8773
226.818	11885
226.884	21965
226.950	20028
227.016	9441
227.082	6008
227.148	5069
227.214	4692
227.279	4124
227.345	3692
227.411	3755
227.477	5643
227.543	11386
227.609	10420
227.674	5496
227.740	3911
227.806	3301
227.872	2859
227.938	3127
228.003	3916
228.069	3209
228.135	2124
228.201	2127
228.267	2186
228.332	3458
228.398	2897
228.464	3109
228.530	1755
228.595	2194
228.661	1555
228.727	2679
228.792	3799
228.858	1570
228.924	1375
228.990	4081
229.055	2883
229.121	3244
229.187	2367
229.252	2890
229.318	2413
229.384	1845
229.449	2915
229.515	829
229.581	1461
229.646	3854
229.712	1745
229.777	4177
229.843	5352
229.909	4334
229.974	4617
230.040	4596
230.105	3540
230.171	3277
230.236	4231
230.302	6336
230.368	5192
230.433	3389
230.499	3099
230.564	3858
230.630	3424
230.695	3026
230.761	3665
230.826	2305
230.892	4423
230.957	2801
231.023	2228
231.088	2798
231.154	2710
231.219	3089
231.284	3074
231.350	4632
231.415	2332
231.481	3181
231.546	1620
231.612	2127
231.677	1461
231.742	1575
231.808	3113
231.873	1965
231.939	815
232.004	4763
232.069	3939
232.135	2490
232.200	1915
232.265	2324
232.331	1743
232.396	2007
232.461	1841
232.527	1450
232.592	2595
232.657	2832
232.723	2782
232.788	2311
232.853	2441
232.918	2624
232.984	1706
233.049	1442
233.114	2474
233.179	3020
233.245	3542
233.310	3819
233.375	1222
233.440	1919
233.506	1708
233.571	842
233.636	1608
233.701	1586
233.766	2707
233.832	3603
233.897	2173
233.962	1510
234.027	3312
234.092	2714
234.157	1712
234.222	2651
234.288	3511
234.353	6493
234.418	6323
234.483	5118
234.548	4846
234.613	3729
234.678	4158
234.743	3770
234.808	7618
234.873	5314
234.938	4107
235.004	3375
235.069	2837
235.134	3397
235.199	3311
235.264	3294
235.329	1649
235.394	3606
235.459	4509
235.524	2536
235.589	3256
235.654	2366
235.719	1393
235.784	3344
235.849	2706
235.913	4038
235.978	4299
236.043	4683
236.108	2828
236.173	2853
236.238	3871
236.303	2491
236.368	1913
236.433	3986
236.498	5503
236.563	5105
236.627	9180
236.692	26966
236.757	24046
236.822	11144
236.887	7799
236.952	7224
237.017	4478
237.081	6944
237.146	7453
237.211	14875
237.276	27592
237.341	39838
237.405	22659
237.470	10378
237.535	6718
237.600	5227
237.664	4686
237.729	3450
237.794	4774
237.859	10508
237.923	6798
237.988	4861
238.053	4298
238.118	4266
238.182	9343
238.247	9459
238.312	3829
238.376	3721
238.441	1630
238.506	4408
238.570	1679
238.635	3756
238.700	2978
238.764	2714
238.829	4656
238.893	5387
238.958	4740
239.023	4193
239.087	3496
239.152	3393
239.216	1887
239.281	3619
239.346	2888
239.410	2526
239.475	2552
239.539	8093
239.604	6748
239.668	4602
239.733	3979
239.797	7435
239.862	18591
239.926	14006
239.991	6418
240.055	3971
240.120	2344
240.184	3506
240.249	2352
240.313	2422
240.378	2072
240.442	5268
240.507	7585
240.571	3284
240.635	3542
240.700	5028
240.764	3691
240.829	2584
240.893	1589
240.957	2856
241.022	4438
241.086	7347
241.151	3270
241.215	1898
241.279	3257
241.344	4860
241.408	5185
241.472	3699
241.537	5480
241.601	4523
241.665	3269
241.730	2977
241.794	4636
241.858	3639
241.922	3841
241.987	4347
242.051	3314
242.115	2592
242.179	4199
242.244	3141
242.308	4055
242.372	3168
242.436	3538
242.501	4363
242.565	2430
242.629	3411
242.693	3620
242.757	2561
242.822	3495
242.886	3421
242.950	4114
243.014	2725
243.078	4378
243.142	3750
243.206	2539
243.271	3997
243.335	3294
243.399	4882
243.463	13731
243.527	34764
243.591	13166
243.655	6268
243.719	3837
243.783	4446
243.847	7009
243.911	8713
243.975	10318
244.040	6802
244.104	4797
244.168	3434
244.232	6052
244.296	7620
244.360	8549
244.424	4825
244.488	2859
244.552	3853
244.615	1362
244.679	3922
244.743	3956
244.807	4202
244.871	3970
244.935	3585
244.999	1794
245.063	2780
245.127	3951
245.191	5911
245.255	6145
245.319	5493
245.383	3666
245.446	4384
245.510	3002
245.574	3891
245.638	4072
245.702	2228
245.766	9161
245.829	6368
245.893	3787
245.957	3755
246.021	3935
246.085	4906
246.149	4475
246.212	11059
246.276	16342
246.340	8082
246.404	6026
246.467	6079
246.531	6680
246.595	6004
246.659	5315
246.722	4677
246.786	6881
246.850	7432
246.913	7599
246.977	3540
247.041	4342
247.104	4807
247.168	5252
247.232	10509
247.295	20783
247.359	11839
247.423	4899
247.486	9644
247.550	7372
247.614	4267
247.677	7106
247.741	4710
247.804	3429
247.868	5616
247.932	10122
247.995	20623
248.059	8514
248.122	4998
248.186	6659
248.249	10002
248.313	32508
248.376	35278
248.440	23000
248.503	9553
248.567	9336
248.630	10914
248.694	15884
248.757	20666
248.821	33920
248.884	23422
248.948	19597
249.011	27769
249.075	39756
249.138	36441
249.202	15822
249.265	9437
249.328	9112
249.392	8509
249.455	7878
249.519	6959
249.582	8348
249.645	13007
249.709	9928
249.772	5888
249.835	6640
249.899	6800
249.962	6502
250.025	5119
250.089	13103
250.152	19683
250.215	10732
250.279	6435
250.342	6923
250.405	7008
250.468	6244
250.532	7911
250.595	12335
250.658	33416
250.721	54247
250.785	23868
250.848	13823
250.911	7626
250.974	7761
251.038	10732
251.101	21311
251.164	12177
251.227	12755
251.290	10865
251.354	14060
251.417	45976
251.480	48155
251.543	34758
251.606	78153
251.669	64089
251.732	28862
251.795	28013
251.859	27865
251.922	53655
251.985	36645
252.048	14801
252.111	11180
252.174	10336
252.237	19901
252.300	41064
252.363	41861
252.426	68814
252.489	32363
252.552	16371
252.615	10379
252.678	12193
252.741	29999
252.804	36016
252.867	70762
252.930	47861
252.993	26793
253.056	17341
253.119	11546
253.182	8815
253.245	14906
253.308	12106
253.371	11112
253.434	10749
253.497	10049
253.559	18784
253.622	13444
253.685	17141
253.748	19425
253.811	8522
253.874	9287
253.937	8411
254.000	8305
254.062	13557
254.125	20522
254.188	17920
254.251	16779
254.314	7743
254.376	14227
254.439	17896
254.502	14871
254.565	13431
254.628	25137
254.690	16793
254.753	8873
254.816	6654
254.878	7087
254.941	14429
255.004	15535
255.067	7429
255.129	7527
255.192	5083
255.255	4300
255.317	5493
255.380	4519
255.443	2967
255.505	3533
255.568	3170
255.631	4000
255.693	4826
255.756	2959
255.819	4614
255.881	3312
255.944	2789
256.006	2547
256.069	3261
256.132	2994
256.194	4610
256.257	7584
256.319	4961
256.382	5433
256.444	6611
256.507	5134
256.569	5167
256.632	4577
256.694	6069
256.757	16858
256.819	48186
256.882	22324
256.944	9534
257.007	8291
257.069	7650
257.132	5685
257.194	5243
257.257	4980
257.319	5251
257.381	5733
257.444	12240
257.506	51731
257.569	62734
257.631	31389
257.693	17970
257.756	9161
257.818	7384
257.880	5349
257.943	5831
258.005	4212
258.067	4394
258.130	3847
258.192	5472
258.254	10039
258.317	6067
258.379	5277
258.441	11243
258.503	12053
258.566	10315
258.628	12862
258.690	5089
258.753	6008
258.815	10855
258.877	7168
258.939	4558
259.001	4703
259.064	4718
259.126	5423
259.188	5980
259.250	5321
259.312	6997
259.375	13072
259.437	9704
259.499	4976
259.561	4667
259.623	4747
259.685	4825
259.747	4207
259.809	9473
259.872	15604
259.934	24583
259.996	26733
260.058	9629
260.120	4463
260.182	4344
260.244	3811
260.306	3333
260.368	4408
260.430	3769
260.492	7573
260.554	13114
260.616	9317
260.678	16055
260.740	19480
260.802	7354
260.864	5905
260.926	4306
260.988	4773
261.050	4390
261.112	8580
261.174	20281
261.236	14223
261.298	6667
261.359	7688
261.421	10546
261.483	4306
261.545	5068
261.607	3202
261.669	3969
261.731	5188
261.793	14179
261.854	8858
261.916	6641
261.978	4588
262.040	4967
262.102	3540
262.164	4216
262.225	4006
262.287	4277
262.349	10977
262.411	8752
262.472	5524
262.534	5473
262.596	11213
262.658	4566
262.719	3087
262.781	4382
262.843	9335
262.904	5831
262.966	5206
263.028	5064
263.090	18608
263.151	51778
263.213	20125
263.275	13286
263.336	5811
263.398	4440
263.459	2855
263.521	3561
263.583	10755
263.644	7610
263.706	4369
263.767	2775
263.829	3627
263.891	2815
263.952	1623
264.014	1907
264.075	4360
264.137	11074
264.198	7057
264.260	2299
264.321	2568
264.383	8078
264.444	18557
264.506	6207
264.567	4143
264.629	7487
264.690	13659
264.752	7308
264.813	4791
264.875	3385
264.936	4181
264.998	2406
265.059	3354
265.120	3067
265.182	5203
265.243	26889
265.305	29886
265.366	8793
265.427	4409
265.489	4156
265.550	2382
265.611	4288
265.673	4042
265.734	4008
265.795	2818
265.857	1936
265.918	3287
265.979	7635
266.040	41670
266.102	36768
266.163	12488
266.224	9589
266.286	4743
266.347	4038
266.408	3787
266.469	4061
266.530	2763
266.592	3138
266.653	7647
266.714	12781
266.775	5424
266.836	3309
266.898	2751
266.959	5162
267.020	4476
267.081	4597
267.142	2926
267.203	3625
267.264	3025
267.326	5218
267.387	3624
267.448	3560
267.509	4421
267.570	3930
267.631	3175
267.692	3237
267.753	4542
267.814	2451
267.875	6657
267.936	15714
267.997	7324
268.058	6879
268.119	4234
268.180	3965
268.241	2928
268.302	2879
268.363	2573
268.424	3379
268.485	3660
268.546	2058
268.607	3090
268.668	1957
268.729	1727
268.790	2792
268.851	3731
268.912	8865
268.972	11785
269.033	6047
269.094	3158
269.155	3345
269.216	3090
269.277	3215
269.338	2095
269.398	2613
269.459	4384
269.520	5732
269.581	6591
269.642	9052
269.702	5378
269.763	5124
269.824	3707
269.885	6128
269.945	9291
270.006	4180
270.067	3029
270.128	2565
270.188	2610
270.249	3085
270.310	2577
270.370	3141
270.431	2615
270.492	2457
270.553	2873
270.613	7090
270.674	15494
270.734	7312
270.795	4069
270.856	5492
270.916	4754
270.977	3401
271.038	4256
271.098	4950
271.159	7721
271.219	8667
271.280	3413
271.340	2728
271.401	3315
271.462	6603
271.522	5034
271.583	4765
271.643	3702
271.704	4214
271.764	5004
271.825	10951
271.885	35060
271.946	46928
272.006	17025
272.066	20254
272.127	36051
272.187	15275
272.248	7840
272.308	6633
272.369	23702
272.429	14659
272.489	11224
272.550	11804
272.610	12587
272.671	11610
272.731	6564
272.791	10309
272.852	8512
272.912	7339
272.972	4413
273.033	4695
273.093	6181
273.153	7738
273.214	6436
273.274	5835
273.334	17476
273.394	36143
273.455	16991
273.515	15511
273.575	32666
273.635	15461
273.696	17377
273.756	32544
273.816	16463
273.876	9567
273.936	11278
273.997	18413
274.057	6748
274.117	6683
274.177	9120
274.237	42702
274.297	32968
274.358	19146
274.418	26722
274.478	22102
274.538	8343
274.598	5535
274.658	12088
274.718	17594
274.778	9740
274.838	5364
274.898	7361
274.958	21403
275.018	29090
275.078	21819
275.138	9130
275.198	5189
275.258	4354
275.318	5239
275.378	10301
275.438	13574
275.498	6875
275.558	11401
275.618	25319
275.678	23071
275.738	17278
275.798	11971
275.858	6503
275.918	4848
275.978	5472
276.038	6750
276.098	4285
276.157	8903
276.217	28119
276.277	13986
276.337	9148
276.397	6025
276.457	7837
276.517	5312
276.576	3367
276.636	3996
276.696	7532
276.756	15763
276.815	12108
276.875	6411
276.935	6173
276.995	7061
277.055	4639
277.114	5813
277.174	5832
277.234	22197
277.293	9863
277.353	6616
277.413	4897
277.472	5442
277.532	4539
277.592	5714
277.651	20665
277.711	40381
277.771	13529
277.830	45981
277.890	37120
277.950	23896
278.009	67752
278.069	28561
278.128	29594
278.188	43918
278.248	19170
278.307	46330
278.367	28370
278.426	9609
278.486	6133
278.545	5103
278.605	4352
278.664	4043
278.724	5078
278.783	11804
278.843	33435
278.902	10748
278.962	7229
279.021	7713
279.081	8021
279.140	7555
279.199	7667
279.259	8162
279.318	8411
279.378	10340
279.437	15886
279.496	56215
279.556	142487
279.615	118117
279.675	36454
279.734	20306
279.793	27257
279.853	43934
279.912	18861
279.971	11571
280.031	9275
280.090	17841
280.149	33242
280.208	21417
280.268	95129
280.327	104379
280.386	28373
280.445	21679
280.505	20692
280.564	9362
280.623	7298
280.682	12138
280.742	19210
280.801	7987
280.860	5011
280.919	4812
280.978	5559
281.037	5812
281.097	3962
281.156	5341
281.215	4407
281.274	5553
281.333	22543
281.392	17573
281.451	5875
281.510	3995
281.569	3964
281.628	3298
281.688	3920
281.747	4795
281.806	4053
281.865	3434
281.924	3373
281.983	4739
282.042	2940
282.101	3222
282.160	3685
282.219	3287
282.278	3840
282.337	14730
282.396	10668
282.454	5237
282.513	5587
282.572	22572
282.631	14826
282.690	5353
282.749	4734
282.808	6861
282.867	5265
282.926	6134
282.985	4415
283.043	3458
283.102	3381
283.161	4413
283.220	9724
283.279	22895
283.338	8778
283.396	6246
283.455	5854
283.514	7198
283.573	11598
283.631	8330
283.690	6421
283.749	5876
283.808	12555
283.866	14077
283.925	7477
283.984	7053
284.043	9376
284.101	8928
284.160	6368
284.219	9103
284.277	9254
284.336	12438
284.395	33493
284.453	28921
284.512	15058
284.570	20405
284.629	19037
284.688	19587
284.746	21505
284.805	26131
284.863	33810
284.922	43657
284.981	52107
285.039	72873
285.098	118145
285.156	193293
285.215	162333
285.273	170437
285.332	201821
285.390	139632
285.449	91819
285.507	63196
285.566	47086
285.624	36291
285.683	27960
285.741	22728
285.799	19192
285.858	16733
285.916	15580
285.975	13152
286.033	11684
286.091	9393
286.150	8855
286.208	9207
286.267	8624
286.325	9732
286.383	13360
286.442	11579
286.500	7240
286.558	6095
286.616	6216
286.675	8858
286.733	7306
286.791	6972
286.850	6618
286.908	8823
286.966	14788
287.024	7475
287.083	5527
287.141	5124
287.199	4810
287.257	7667
287.315	5345
287.374	5978
287.432	15423
287.490	10386
287.548	6331
287.606	5624
287.664	4245
287.723	7100
287.781	8046
287.839	5522
287.897	6487
287.955	7281
288.013	8211
288.071	16183
288.129	69546
288.187	189682
288.245	90114
288.303	30042
288.361	17128
288.419	11677
288.477	7829
288.535	6467
288.593	4869
288.651	5711
288.709	4532
288.767	3864
288.825	3297
288.883	3170
288.941	4763
288.999	4524
289.057	3494
289.115	3272
289.173	3225
289.231	3968
289.289	4041
289.346	3831
289.404	5133
289.462	8210
289.520	8729
289.578	4259
289.636	2684
289.694	2818
289.751	2431
289.809	2428
289.867	2374
289.925	4497
289.983	4511
290.040	2726
290.098	2718
290.156	3867
290.214	5087
290.271	2646
290.329	2452
290.387	3340
290.444	2393
290.502	2361
290.560	2625
290.617	3141
290.675	3031
290.733	2788
290.790	4018
290.848	3121
290.906	3138
290.963	3376
291.021	3214
291.078	2809
291.136	4046
291.194	10589
291.251	24329
291.309	7471
291.366	3217
291.424	3221
291.481	3955
291.539	3001
291.596	4363
291.654	2666
291.711	1969
291.769	3288
291.826	8217
291.884	5543
291.941	3298
291.999	2552
292.056	3121
292.114	4223
292.171	2764
292.228	3673
292.286	3907
292.343	8232
292.401	9494
292.458	6636
292.515	4070
292.573	5748
292.630	5648
292.687	4935
292.745	3406
292.802	4285
292.859	11382
292.917	25238
292.974	15694
293.031	5470
293.089	3447
293.146	2523
293.203	2830
293.260	2534
293.318	3552
293.375	4690
293.432	2640
293.489	2755
293.546	2086
293.604	4301
293.661	13505
293.718	38224
293.775	19262
293.832	10253
293.889	10082
293.947	8432
294.004	4966
294.061	5990
294.118	11941
294.175	24803
294.232	28661
294.289	12621
294.346	6541
294.403	5822
294.460	4408
294.517	3690
294.574	3657
294.631	3131
294.688	3432
294.745	9892
294.802	40622
294.859	41608
294.916	16402
294.973	10003
295.030	8581
295.087	8287
295.144	4768
295.201	3875
295.258	3299
295.315	4253
295.372	16115
295.429	31438
295.486	13437
295.542	7507
295.599	16042
295.656	27952
295.713	20017
295.770	30102
295.827	11639
295.883	6142
295.940	5222
295.997	9962
296.054	9729
296.111	4689
296.167	4794
296.224	2854
296.281	3041
296.338	3266
296.394	3071
296.451	3859
296.508	13000
296.564	24858
296.621	15544
296.678	35022
296.734	48972
296.791	19749
296.848	10216
296.904	9980
296.961	23464
297.018	35433
297.074	24987
297.131	11320
297.187	7462
297.244	8576
297.301	32641
297.357	56960
297.414	21278
297.470	9852
297.527	6504
297.583	6691
297.640	6169
297.696	4187
297.753	3150
297.809	2908
297.866	2411
297.922	2953
297.979	2794
298.035	3742
298.092	7860
298.148	21081
298.204	18989
298.261	8554
298.317	15399
298.374	41755
298.430	23787
298.486	9524
298.543	6953
298.599	10693
298.656	16382
298.712	18414
298.768	35554
298.824	23500
298.881	10053
298.937	6512
298.993	5133
299.050	6360
299.106	4626
299.162	5472
299.218	6038
299.275	4190
299.331	4399
299.387	8968
299.443	39265
299.500	48517
299.556	23378
299.612	10449
299.668	11111
299.724	18292
299.780	19414
299.837	8177
299.893	10350
299.949	38036
300.005	44065
300.061	36791
300.117	58579
300.173	27453
300.229	13179
300.285	15890
300.341	18408
300.397	9328
300.453	6814
300.510	6315
300.566	6545
300.622	8275
300.678	31567
300.734	50979
300.790	36316
300.845	38423
300.901	30330
300.957	45769
301.013	29525
301.069	11567
301.125	8636
301.181	9499
301.237	7000
301.293	4814
301.349	5455
301.405	5965
301.461	8468
301.516	16596
301.572	11665
301.628	12884
301.684	10616
301.740	19348
301.796	30707
301.851	19850
301.907	28596
301.963	23587
302.019	37035
302.074	100947
302.130	101101
302.186	54420
302.242	22868
302.297	14064
302.353	11371
302.409	25361
302.464	22755
302.520	16943
302.576	39700
302.631	43370
302.687	26194
302.743	11148
302.798	7096
302.854	5857
302.910	5386
302.965	6904
303.021	15159
303.076	14937
303.132	18574
303.187	21967
303.243	9791
303.299	6240
303.354	4620
303.410	3816
303.465	4787
303.521	4666
303.576	4743
303.632	4708
303.687	11451
303.743	34323
303.798	28149
303.853	11954
303.909	6747
303.964	6599
304.020	10286
304.075	15952
304.130	14210
304.186	25887
304.241	27004
304.297	21670
304.352	10402
304.358	10086
304.407	7523
304.449	7226
304.463	7132
304.518	7083
304.539	6606
304.573	5826
304.629	4897
304.630	4947
304.684	7559
304.720	19196
304.739	25013
304.794	37064
304.811	31640
304.850	18574
304.902	9387
304.905	8814
304.960	6580
304.992	6332
305.015	6187
305.071	6635
305.083	6429
305.126	5530
305.173	4752
305.181	4645
305.236	3222
305.264	3779
305.292	4391
305.347	6187
305.354	6529
305.402	8666
305.445	8123
305.457	7950
305.512	8674
305.535	8417
305.567	8001
305.622	7849
305.626	8068
305.678	14070
305.716	29720
305.733	35210
305.788	37142
305.807	31825
305.843	23082
305.897	33402
305.898	33512
305.953	31690
305.988	21460
306.008	16052
306.063	10831
306.078	9860
306.118	7571
306.168	4710
306.173	4457
306.228	3908
306.259	3641
306.283	3570
306.338	3326
306.349	3470
306.393	3932
306.440	4521
306.448	4635
306.503	5116
306.530	5014
306.558	5946
306.613	13193
306.620	14372
306.668	23199
306.711	34654
306.723	36031
306.778	27371
306.801	20908
306.833	13991
306.888	7406
306.892	7135
306.943	5076
306.982	4675
306.997	4513
307.052	3945
307.072	3737
307.107	3787
307.162	4730
307.163	4742
307.217	6224
307.253	7562
307.272	7983
307.327	9167
307.343	8673
307.381	7606
307.434	7298
307.436	7527
307.491	15101
307.524	23486
307.546	26258
307.600	28566
307.614	25890
307.655	16029
307.704	8382
307.710	8089
307.765	8016
307.795	9914
307.819	11450
307.874	16207
307.885	16142
307.929	14071
307.975	12360
307.984	12712
308.038	16961
308.065	20788
308.093	35765
308.148	79594
308.156	89852
308.202	143007
308.246	170428
308.257	165828
308.312	93343
308.336	67159
308.366	52194
308.421	33792
308.426	32130
308.475	20217
308.517	13836
308.530	12828
308.585	11831
308.607	11426
308.639	11004
308.694	10866
308.697	10965
308.748	16491
308.787	22091
308.803	22144
308.857	18037
308.877	16110
308.912	15543
308.967	16990
308.967	17033
309.021	26358
309.058	34420
309.076	42523
309.130	72291
309.148	83411
309.185	129421
309.238	210681
309.239	211414
309.293	234148
309.328	224086
309.348	197325
309.402	106010
309.418	82190
309.457	59186
309.508	38690
309.511	38365
309.566	40074
309.598	43785
309.620	55113
309.674	91247
309.688	100344
309.729	94353
309.778	73282
309.783	71213
309.837	45669
309.868	33336
309.892	35661
309.946	46142
309.959	50157
310.001	62477
310.049	71397
310.055	68814
310.109	39074
310.139	23189
310.163	18637
310.218	11888
310.229	10758
310.272	9008
310.319	7690
310.326	7445
310.381	5952
310.409	5294
310.435	5040
310.489	4618
310.499	4575
310.543	4328
310.589	4181
310.598	4256
310.652	4628
310.679	4888
310.706	4551
310.760	3638
310.769	3530
310.814	3488
310.859	3356
310.868	3448
310.923	3903
310.948	4208
310.977	4585
311.031	5357
311.038	5463
311.085	5252
311.128	4739
311.139	4619
311.193	4352
311.218	4130
311.247	4106
311.301	4210
311.308	4193
311.356	4011
311.398	3997
311.410	3982
311.464	3811
311.488	3768
311.518	3945
311.572	4257
311.578	4291
311.626	6097
311.668	7717
311.680	7491
311.734	6247
311.758	5703
311.788	5610
311.842	5510
311.847	5488
311.896	6796
311.937	8013
311.950	7850
312.004	7048
312.027	6675
312.058	5910
312.112	4575
312.117	4443
312.165	4233
312.207	4062
312.297	5636
312.386	5062
312.476	5972
312.566	12312
312.656	4595
312.745	3673
312.835	4751
312.925	4902
313.015	4174
313.104	3378
313.194	4525
313.284	4614
313.374	6754
313.463	6544
313.553	4611
313.643	4039
313.732	3998
313.822	2892
313.912	4496
314.001	5439
314.091	5834
314.180	7057
314.270	7396
314.360	6558
314.449	6390
314.539	4261
314.628	4237
314.718	4778
314.808	5887
314.897	4300
314.987	4745
315.076	6532
315.166	7731
315.255	5747
315.345	7304
315.434	6544
315.524	5765
315.613	7812
315.703	10184
315.792	15240
315.881	40089
315.971	14074
316.060	12772
316.150	12286
316.239	11189
316.328	5361
316.418	4259
316.507	4730
316.597	6997
316.686	6023
316.775	7528
316.865	11974
316.954	5353
317.043	3614
317.133	4391
317.222	4229
317.311	4112
317.400	3384
317.490	7368
317.579	7439
317.668	4920
317.757	9578
317.847	23741
317.936	69615
318.025	28462
318.114	16388
318.203	10929
318.293	14432
318.382	28819
318.471	22290
318.560	27516
318.649	37401
318.738	8466
318.828	7492
318.917	7554
319.006	6775
319.095	17891
319.184	51137
319.273	31954
319.362	20010
319.451	5215
319.540	6488
319.629	17566
319.718	25315
319.807	8530
319.896	20844
319.985	65774
320.074	23118
320.163	6696
320.252	8213
320.341	8329
320.430	7786
320.519	13700
320.608	6731
320.697	6218
320.786	6451
320.875	9069
320.964	12028
321.053	19093
321.142	27264
321.230	26547
321.319	19840
321.408	46618
321.497	18907
321.586	19180
321.675	16317
321.764	15114
321.852	11221
321.941	26691
322.030	15437
322.119	19046
322.207	47160
322.296	21773
322.385	12079
322.474	20429
322.562	62385
322.651	27530
322.740	21260
322.829	27220
322.917	18659
323.006	15162
323.095	14260
323.183	8109
323.272	13370
323.361	22328
323.449	49793
323.538	16814
323.626	37386
323.715	20585
323.804	8690
323.892	33664
323.981	20660
324.069	6889
324.158	16742
324.246	14586
324.335	10376
324.424	18071
324.512	6699
324.601	9925
324.689	23942
324.778	43245
324.866	15030
324.954	4848
325.043	5245
325.131	9072
325.220	13275
325.308	14204
325.397	12295
325.485	7452
325.574	4153
325.662	5140
325.750	5129
325.839	4994
325.927	3798
326.015	5967
326.104	4987
326.192	7086
326.280	3890
326.369	5069
326.457	7552
326.545	15681
326.634	5506
326.722	4302
326.810	4768
326.898	4096
326.987	6009
327.075	13190
327.163	10290
327.251	5293
327.340	17758
327.428	25063
327.516	5934
327.604	4803
327.692	4192
327.781	4161
327.869	6415
327.957	5130
328.045	6120
328.133	3844
328.221	3542
328.309	3614
328.397	3625
328.485	6033
328.574	8856
328.662	33256
328.750	13216
328.838	4854
328.926	4064
329.014	3496
329.102	6063
329.190	14890
329.278	10437
329.366	3169
329.454	3338
329.542	2871
329.630	2884
329.718	4239
329.806	4859
329.893	4210
329.981	3054
330.069	5981
330.157	24007
330.245	78664
330.333	37390
330.421	6461
330.509	8571
330.597	38571
330.684	21330
330.772	7158
330.860	6791
330.948	9780
331.036	5294
331.123	2964
331.211	1984
331.299	3518
331.387	8975
331.475	15468
331.562	5456
331.650	3063
331.738	3719
331.825	4780
331.913	2930
332.001	3740
332.089	4548
332.176	7072
332.264	14848
332.352	11986
332.439	5966
332.527	4453
332.614	3702
332.702	4231
332.790	3011
332.877	9106
332.965	19963
333.052	9965
333.140	11209
333.228	31102
333.315	6744
333.403	5412
333.490	9923
333.578	14814
333.665	45956
333.753	17924
333.840	5148
333.928	5337
334.015	10333
334.103	17904
334.190	57947
334.278	16418
334.365	10613
334.452	10119
334.540	6799
334.627	6439
334.715	7913
334.802	14328
334.889	60175
334.977	66308
335.064	17538
335.151	7557
335.239	6244
335.326	7645
335.413	32756
335.501	44056
335.588	6993
335.675	5787
335.762	7533
335.850	11855
335.937	12356
336.024	24036
336.111	79577
336.199	46861
336.286	13790
336.373	7484
336.460	4762
336.547	4748
336.635	6133
336.722	6091
336.809	4099
336.896	7193
336.983	20093
337.070	45722
337.157	63257
337.245	36623
337.332	24736
337.419	4622
337.506	3657
337.593	4237
337.680	14128
337.767	41566
337.854	12438
337.941	14235
338.028	15037
338.115	6065
338.202	7203
338.289	11291
338.376	36718
338.463	12642
338.550	23608
338.637	25937
338.724	7802
338.811	11090
338.898	4291
338.984	3101
339.071	4673
339.158	5640
339.245	18429
339.332	11035
339.419	8959
339.506	8827
339.593	2077
339.679	4199
339.766	3460
339.853	5201
339.940	13834
340.027	5355
340.113	4831
340.200	7162
340.287	4858
340.374	6991
340.460	12160
340.547	4831
340.634	9363
340.720	36412
340.807	19697
340.894	4127
340.980	4228
341.067	4043
341.154	5811
341.240	8576
341.327	18424
341.414	7530
341.500	8287
341.587	5468
341.674	3534
341.760	12792
341.847	15438
341.933	5275
342.020	1895
342.106	2538
342.193	4692
342.279	9484
342.366	6897
342.452	13453
342.539	6025
342.625	15352
342.712	39857
342.798	17070
342.885	6199
342.971	2270
343.058	2383
343.144	3048
343.230	3284
343.317	4825
343.403	3632
343.490	2476
343.576	3057
343.662	4533
343.749	4357
343.835	5407
343.921	8326
344.008	57772
344.094	134948
344.180	29425
344.267	10770
344.353	40519
344.439	39670
344.525	18135
344.612	8455
344.698	6301
344.784	4320
344.870	4131
344.957	3670
345.043	7913
345.129	5069
345.215	13402
345.301	7527
345.387	5410
345.474	2141
345.560	3157
345.646	3066
345.732	3928
345.818	5938
345.904	4695
345.990	4684
346.076	4321
346.162	8347
346.249	4995
346.335	2528
346.421	3295
346.507	15177
346.593	57473
346.679	12596
346.765	5056
346.851	4620
346.937	4525
347.023	3079
347.108	5058
347.194	4627
347.280	4563
347.366	5110
347.452	17692
347.538	68205
347.624	50831
347.710	40878
347.796	6305
347.882	4043
347.967	3227
348.053	3811
348.139	3227
348.225	2566
348.311	3316
348.397	3911
348.482	5219
348.568	5802
348.654	3175
348.740	7752
348.825	9091
348.911	7956
348.997	29174
349.083	58915
349.168	9324
349.254	4523
349.340	5893
349.425	3635
349.511	5867
349.597	5879
349.682	13118
349.768	44805
349.854	21193
349.939	3999
350.025	3196
350.110	2596
350.196	2787
350.282	1923
350.367	2491
350.453	4237
350.538	5128
350.624	4816
350.709	5687
350.795	2816
350.880	3566
350.966	4875
351.051	6032
351.137	3606
351.222	4204
351.308	14282
351.393	41398
351.479	11381
351.564	4323
351.649	3991
351.735	2580
351.820	2268
351.906	3243
351.991	4164
352.076	26030
352.162	37314
352.247	8205
352.332	5387
352.418	12335
352.503	15046
352.588	59336
352.673	48197
352.759	9454
352.844	4461
352.929	6112
353.014	8751
353.100	6149
353.185	10985
353.270	15102
353.355	14366
353.441	4749
353.526	4004
353.611	12771
353.696	15240
353.781	9060
353.866	3861
353.952	4394
354.037	11822
354.122	29041
354.207	26128
354.292	9071
354.377	4060
354.462	5051
354.547	6311
354.632	5942
354.717	8434
354.802	13455
354.887	5176
354.972	3880
355.057	2896
355.142	2015
355.227	4632
355.312	8474
355.397	18235
355.482	45075
355.567	20504
355.652	15002
355.737	16379
355.822	47964
355.907	40219
355.991	6728
356.076	3863
356.161	3685
356.246	2774
356.331	4657
356.416	9167
356.501	69506
356.585	75458
356.670	11428
356.755	8371
356.840	10604
356.924	50792
357.009	174665
357.094	69143
357.179	15006
357.263	10679
357.348	10907
357.433	10339
357.517	9915
357.602	7963
357.687	6668
357.771	16744
357.856	68329
357.941	35500
358.025	36710
358.110	159059
358.195	79066
358.279	12583
358.364	10092
358.448	33262
358.533	95619
358.617	70074
358.702	67702
358.787	25241
358.871	14502
358.956	12034
359.040	4202
359.125	3829
359.209	6722
359.294	32022
359.378	60230
359.462	17033
359.547	7395
359.631	3974
359.716	3690
359.800	4019
359.885	6508
359.969	4157
360.053	4290
360.138	3994
360.222	7651
360.306	14413
360.391	12292
360.475	33005
360.559	71954
360.644	38749
360.728	26590
360.812	38615
360.896	106035
360.981	45370
361.065	24048
361.149	8191
361.233	7135
361.318	5978
361.402	7825
361.486	5981
361.570	5957
361.654	5991
361.739	15872
361.823	66976
361.907	109033
361.991	21109
362.075	13194
362.159	27734
362.243	22030
362.327	25903
362.411	39333
362.495	17228
362.580	8019
362.664	6152
362.748	5564
362.832	9421
362.916	16905
363.000	58633
363.084	137295
363.168	141463
363.252	34196
363.336	12179
363.420	15855
363.503	43013
363.587	52615
363.671	12170
363.755	9606
363.839	14418
363.923	7152
364.007	16036
364.091	17505
364.175	20700
364.258	80493
364.342	85645
364.426	139442
364.510	78452
364.594	25864
364.677	23325
364.761	90351
364.845	68550
364.929	24826
365.013	19903
365.096	17221
365.180	18715
365.264	18982
365.347	68216
365.431	30796
365.515	8956
365.598	6115
365.682	6256
365.766	7670
365.849	9233
365.933	6855
366.017	8235
366.100	5349
366.184	3069
366.267	4448
366.351	3224
366.435	4047
366.518	3028
366.602	3519
366.685	5377
366.769	5487
366.852	7479
366.936	14585
367.019	10440
367.103	6003
367.186	10292
367.270	5051
367.353	2779
367.436	4879
367.520	4189
367.603	7028
367.687	8995
367.770	16437
367.853	10332
367.937	28836
368.020	51743
368.104	12901
368.187	12494
368.270	19510
368.353	16351
368.437	14553
368.520	23655
368.603	20939
368.687	35055
368.770	69234
368.853	17596
368.936	14914
369.020	13580
369.103	6315
369.186	4095
369.269	4875
369.352	10645
369.436	15383
369.519	9565
369.602	5586
369.685	6505
369.768	6141
369.851	5377
369.934	3553
370.018	4869
370.101	13727
370.184	12205
370.267	7103
370.350	14336
370.433	20406
370.516	50635
370.599	68311
370.682	21108
370.765	38711
370.848	46395
370.931	78703
371.014	30514
371.097	5679
371.180	5773
371.263	4704
371.346	3133
371.429	5273
371.511	5069
371.594	9414
371.677	14842
371.760	15266
371.843	13733
371.926	59296
372.009	136055
372.091	51124
372.174	31522
372.257	71945
372.340	31319
372.423	20109
372.505	21911
372.588	11516
372.671	26051
372.754	79179
372.836	42872
372.919	21596
373.002	41597
373.085	17056
373.167	15253
373.250	34608
373.332	72966
373.415	89727
373.498	177364
373.580	73703
373.663	87014
373.746	123724
373.828	29980
373.911	12673
373.993	11493
374.076	36748
374.159	37076
374.241	20519
374.324	67045
374.406	48247
374.489	50437
374.571	146846
374.654	67351
374.736	29411
374.819	87643
374.901	127358
374.983	133666
375.066	26641
375.148	9533
375.231	30868
375.313	61209
375.395	25327
375.478	7892
375.560	6780
375.643	8742
375.725	26723
375.807	106964
375.890	84038
375.972	25824
376.054	17390
376.136	18994
376.219	11023
376.301	31937
376.383	98079
376.465	41879
376.548	24788
376.630	30632
376.712	85445
376.794	44078
376.877	6338
376.959	3526
377.041	5408
377.123	7241
377.205	9916
377.287	3571
377.369	4403
377.452	4366
377.534	5321
377.616	3025
377.698	3850
377.780	3328
377.862	5346
377.944	5105
378.026	2921
378.108	4128
378.190	3973
378.272	3491
378.354	3417
378.436	2678
378.518	5496
378.600	18369
378.682	20456
378.764	47654
378.846	41122
378.928	10632
379.010	16766
379.091	9956
379.173	4596
379.255	3231
379.337	6876
379.419	22119
379.501	66552
379.583	28252
379.664	8461
379.746	16890
379.828	48049
379.910	66517
379.991	58238
380.073	10099
380.155	7047
380.237	5786
380.318	4611
380.400	4505
380.482	12116
380.564	16717
380.645	17883
380.727	16761
380.809	10902
380.890	7529
380.972	6202
381.053	6178
381.135	7698
381.217	17914
381.298	51299
381.380	27177
381.461	20268
381.543	81793
381.624	108927
381.706	22113
381.787	11564
381.869	13329
381.951	36928
382.032	130979
382.113	95206
382.195	22253
382.276	17710
382.358	32605
382.439	79426
382.521	87812
382.602	131795
382.684	70109
382.765	121847
382.846	178121
382.928	311607
383.009	187795
383.090	117203
383.172	368258
383.253	552334
383.334	199945
383.416	139500
383.497	83496
383.578	50601
383.659	98053
383.741	311893
383.822	691568
383.903	405885
383.984	133060
384.066	166421
384.147	107772
384.228	27567
384.309	20949
384.390	17282
384.471	11864
384.553	12949
384.634	15349
384.715	16230
384.796	10587
384.877	13706
384.958	44942
385.039	58779
385.120	22795
385.201	11616
385.282	11171
385.363	12698
385.444	12664
385.525	21621
385.606	60832
385.687	56492
385.768	14460
385.849	17065
385.930	62740
386.011	112289
386.092	34245
386.173	8948
386.254	7008
386.335	8264
386.416	9180
386.496	29556
386.577	50779
386.658	18203
386.739	10247
386.820	8892
386.901	6618
386.981	8082
387.062	6417
387.143	13587
387.224	46621
387.304	47826
387.385	17863
387.466	10868
387.547	13408
387.627	11489
387.708	20543
387.789	79519
387.869	101977
387.950	29228
388.031	6450
388.111	4393
388.192	11035
388.273	15828
388.353	10744
388.434	8465
388.514	16592
388.595	67449
388.676	96386
388.756	50589
388.837	45272
388.917	30173
388.998	5246
389.078	6033
389.159	5283
389.239	4033
389.320	9813
389.400	8154
389.480	17812
389.561	48007
389.641	27205
389.722	9243
389.802	14736
389.883	21634
389.963	55482
390.043	36468
390.124	8928
390.204	17714
390.284	54001
390.365	36553
390.445	28610
390.525	77973
390.605	77106
390.686	30553
390.766	12928
390.846	7675
390.927	4797
391.007	4505
391.087	7005
391.167	8915
391.247	6452
391.328	8548
391.408	10172
391.488	8543
391.568	3814
391.648	7905
391.728	11850
391.808	11844
391.888	13127
391.969	29004
392.049	47148
392.129	21065
392.209	22237
392.289	57014
392.369	32784
392.449	19451
392.529	14958
392.609	15277
392.689	19751
392.769	55433
392.849	54237
392.929	35536
393.009	77542
393.089	72541
393.169	74488
393.248	201017
393.328	578163
393.408	641013
393.488	232954
393.568	72632
393.648	36211
393.728	23282
393.807	15919
393.887	14626
393.967	12792
394.047	13594
394.127	14994
394.206	22440
394.286	68581
394.366	269251
394.446	308875
394.525	81397
394.605	21337
394.685	16263
394.764	25886
394.844	44176
394.924	37481
395.003	15211
395.083	9851
395.163	9247
395.242	8306
395.322	9359
395.402	6163
395.481	9542
395.561	20074
395.640	55171
395.720	58183
395.799	56991
395.879	45513
395.958	31622
396.038	99350
396.117	351691
396.197	410998
396.276	131312
396.356	43873
396.435	30762
396.515	24792
396.594	32995
396.673	63937
396.753	200787
396.832	530730
396.912	448386
396.991	129968
397.070	38934
397.150	20157
397.229	16378
397.308	25322
397.388	44086
397.467	22652
397.546	9155
397.625	6561
397.705	10445
397.784	9300
397.863	6648
397.942	4921
398.022	4666
398.101	14073
398.180	40912
398.259	22497
398.338	8314
398.417	6492
398.497	4929
398.576	5802
398.655	3087
398.734	3432
398.813	4186
398.892	13332
398.971	44270
399.050	24101
399.129	3637
399.208	2817
399.287	4599
399.366	2330
399.445	3547
399.524	3286
399.603	2799
399.682	7307
399.761	18872
399.840	48336
399.919	39979
399.998	6324
400.077	2397
400.156	1577
400.235	5156
400.313	2387
400.392	3805
400.471	24316
400.550	43862
400.629	11660
400.708	5474
400.786	3712
400.865	8461
400.944	10750
401.023	7526
401.102	1440
401.180	2488
401.259	2164
401.338	2833
401.416	3709
401.495	4062
401.574	3358
401.652	2386
401.731	4631
401.810	4043
401.888	2565
401.967	1814
402.046	4247
402.124	4792
402.203	4999
402.281	5255
402.360	5980
402.438	13120
402.517	8283
402.596	3755
402.674	2219
402.753	2068
402.831	2474
402.910	4570
402.988	17887
403.066	65871
403.145	41906
403.223	21506
403.302	55686
403.380	45199
403.459	42696
403.537	18135
403.615	5688
403.694	1629
403.772	3177
403.850	2045
403.929	1938
404.007	2054
404.085	7569
404.164	9527
404.242	2723
404.320	4451
404.398	8200
404.477	22241
404.555	99058
404.633	97095
404.711	15296
404.789	4363
404.868	3879
404.946	2593
405.024	1432
405.102	2099
405.180	1443
405.258	735
405.336	2182
405.415	1673
405.493	5803
405.571	6661
405.649	2466
405.727	1345
405.805	4131
405.883	5123
405.961	4076
406.039	4154
406.117	1816
406.195	5302
406.273	25140
406.351	91255
406.429	59320
406.507	8143
406.585	2097
406.663	4379
406.740	4890
406.818	4416
406.896	2013
406.974	3161
407.052	6842
407.130	52270
407.208	80221
407.285	16465
407.363	2426
407.441	2622
407.519	1701
407.596	3625
407.674	8870
407.752	27647
407.830	26396
407.907	9806
407.985	2793
408.063	1845
408.141	1649
408.218	4513
408.296	3321
408.373	4449
408.451	3926
408.529	3479
408.606	1615
408.684	1665
408.762	1543
408.839	771
408.917	625
408.994	2397
409.072	1187
409.149	2707
409.227	5721
409.304	9033
409.382	7961
409.459	8284
409.537	11830
409.614	10854
409.692	6753
409.769	6763
409.846	11432
409.924	16290
410.001	10263
410.079	7372
410.156	5406
410.233	4890
410.311	2599
410.388	3143
410.465	4017
410.543	3520
410.620	2851
410.697	4230
410.775	3991
410.852	1894
410.929	5165
411.006	6384
411.083	3527
411.161	8627
411.238	9794
411.315	4509
411.392	1964
411.469	5383
411.547	5305
411.624	1361
411.701	2105
411.778	3076
411.855	6485
411.932	4417
412.009	1434
412.086	1865
412.163	2702
412.240	2641
412.317	3413
412.394	2753
412.471	1606
412.548	1227
412.625	1306
412.702	3007
412.779	5564
412.856	4160
412.933	1245
413.010	1376
413.087	3168
413.164	22803
413.241	35849
413.318	8369
413.395	4823
413.471	8327
413.548	3297
413.625	2860
413.702	1661
413.779	2400
413.855	610
413.932	397
414.009	153
414.086	179
414.162	1482
414.239	3574
414.316	20970
414.393	52147
414.469	20166
414.546	2278
414.623	759
414.699	940
414.776	2161
414.853	1178
414.929	1734
415.006	1427
415.082	1683
415.159	1534
415.236	1663
415.312	2657
415.389	4919
415.465	7367
415.542	3719
415.618	1670
415.695	4664
415.771	3023
415.848	2420
415.924	2205
416.000	270
416.077	2067
416.153	-187
416.230	-390
416.306	-151
416.383	322
416.459	644
416.535	5
416.612	467
416.688	1166
416.764	1802
416.841	1186
416.917	1969
416.993	1990
417.069	2070
417.146	3158
417.222	4527
417.298	2671
417.374	1216
417.451	1948
417.527	2977
417.603	3903
417.679	1854
417.755	2929
417.831	1
417.908	852
417.984	511
418.060	1
418.136	5295
418.212	8130
418.288	3218
418.364	1804
418.440	1226
418.516	4409
418.592	3212
418.668	9676
418.744	16327
418.820	12417
418.896	2600
418.972	1045
419.048	1501
419.124	7099
419.200	5437
419.276	1733
419.352	281
419.428	1728
419.504	1745
419.579	3576
419.655	1405
419.731	2766
419.807	9104
419.883	18403
419.959	14054
420.034	4091
420.110	6923
420.186	32025
420.262	26889
420.337	5262
420.413	3341
420.489	1895
420.565	2483
420.640	1516
420.716	3133
420.792	863
420.867	2591
420.943	2552
421.019	5191
421.094	5097
421.170	2183
421.245	2341
421.321	2436
421.397	3743
421.472	7011
421.548	16746
421.623	14245
421.699	7411
421.774	5891
421.850	5441
421.925	10261
422.001	10729
422.076	9253
422.152	11670
422.227	17444
422.302	24105
422.378	34857
422.453	63936
422.529	141830
422.604	302757
422.679	385369
422.755	332018
422.830	168848
422.905	72136
422.981	39642
423.056	26324
423.131	19215
423.207	13920
423.282	11641
423.357	16960
423.432	12978
423.508	10840
423.583	19707
423.658	16588
423.733	6323
423.808	6339
423.883	7806
423.959	6962
424.034	7022
424.109	5504
424.184	2996
424.259	2902
424.334	2262
424.409	2202
424.484	1874
424.559	2843
424.634	2397
424.709	4536
424.784	5646
424.859	3046
424.934	5142
425.009	23347
425.084	39075
425.159	15305
425.234	2322
425.309	2400
425.384	20818
425.459	41618
425.534	12055
425.609	1579
425.683	1842
425.758	1570
425.833	1863
425.908	3692
425.983	13685
426.058	38992
426.132	18017
426.207	2153
426.282	3672
426.357	2460
426.431	974
426.506	1267
426.581	1119
426.655	1757
426.730	1570
426.805	1339
426.879	2058
426.954	2083
427.029	5900
427.103	34026
427.178	84384
427.253	40263
427.327	4489
427.402	10629
427.476	36171
427.551	20784
427.625	3084
427.700	2405
427.774	668
427.849	1548
427.923	729
427.998	1137
428.072	1184
428.147	7591
428.221	33306
428.296	102137
428.370	58692
428.444	7542
428.519	3852
428.593	7997
428.667	7456
428.742	8844
428.816	13268
428.890	61639
428.965	119686
429.039	42309
429.113	11429
429.188	4353
429.262	1964
429.336	4784
429.410	16975
429.485	12244
429.559	6385
429.633	6001
429.707	2673
429.781	10184
429.855	60706
429.930	102037
430.004	39236
430.078	41448
430.152	50520
430.226	117917
430.300	130959
430.374	23284
430.448	6230
430.522	12771
430.596	37863
430.670	34895
430.744	99547
430.818	149945
430.892	31726
430.966	4315
431.040	1875
431.114	358
431.188	-376
431.262	772
431.336	580
431.410	4139
431.484	11348
431.557	10298
431.631	1623
431.705	2970
431.779	19706
431.853	85605
431.927	68712
432.000	7968
432.074	1116
432.148	1610
432.222	1054
432.295	173
432.369	627
432.443	4026
432.516	29840
432.590	82014
432.664	32633
432.737	2892
432.811	356
432.885	575
432.958	879
433.032	-77
433.106	73
433.179	-562
433.253	-995
433.326	34
433.400	-845
433.473	276
433.547	-581
433.620	76
433.694	3306
433.767	5122
433.841	577
433.914	847
433.988	1454
434.061	1164
434.134	820
434.208	295
434.281	-756
434.355	-28
434.428	1787
434.501	1468
434.575	-574
434.648	249
434.721	-141
434.795	-349
434.868	-509
434.941	-87
435.014	48
435.088	703
435.161	4170
435.234	6989
435.307	6881
435.381	3313
435.454	3050
435.527	6481
435.600	6373
435.673	4751
435.746	2122
435.819	2073
435.892	1009
435.966	1606
436.039	285
436.112	556
436.185	-803
436.258	384
436.331	-962
436.404	707
436.477	-357
436.550	-350
436.623	-300
436.696	-752
436.769	538
436.842	401
436.915	-175
436.987	673
437.060	320
437.133	162
437.206	-339
437.279	555
437.352	-588
437.425	-108
437.498	395
437.570	4516
437.643	4407
437.716	729
437.789	702
437.861	3555
437.934	11525
438.007	5508
438.080	-476
438.152	1226
438.225	4226
438.298	39377
438.370	114623
438.443	52435
438.516	11358
438.588	2013
438.661	186
438.734	757
438.806	437
438.879	1237
438.951	2459
439.024	6233
439.096	1155
439.169	538
439.241	-290
439.314	86
439.386	693
439.459	2590
439.531	4051
439.604	2524
439.676	-486
439.749	-331
439.821	-959
439.893	201
439.966	-250
440.038	1333
440.110	1254
440.183	460
440.255	-222
440.327	2073
440.400	16077
440.472	72161
440.544	51875
440.617	6310
440.689	4439
440.761	5555
440.833	9192
440.905	6633
440.978	-68
441.050	-134
441.122	56
441.194	-631
441.266	-559
441.338	106
441.411	3066
441.483	24283
441.555	39090
441.627	8730
441.699	3132
441.771	2020
441.843	480
441.915	855
441.987	-224
442.059	261
442.131	773
442.203	2277
442.275	3243
442.347	4780
442.419	9399
442.491	51898
442.563	133772
442.635	59354
442.706	16830
442.778	13439
442.850	2498
442.922	1854
442.994	1672
443.066	3082
443.137	3317
443.209	3328
443.281	5276
443.353	14462
443.425	61231
443.496	219443
443.568	231489
443.640	91079
443.711	14909
443.783	5127
443.855	3045
443.926	1407
443.998	1697
444.070	3037
444.141	2489
444.213	4005
444.285	5315
444.356	3871
444.428	2317
444.499	1274
444.571	-366
444.642	1134
444.714	1750
444.785	4764
444.857	4021
444.928	7441
445.000	5070
445.071	6291
445.143	7176
445.214	7596
445.285	11849
445.357	35162
445.428	129599
445.500	304892
445.571	212649
445.642	121166
445.714	38113
445.785	19924
445.856	7177
445.928	7294
445.999	5735
446.070	4397
446.141	4660
446.213	6267
446.284	2365
446.355	1642
446.426	48
446.497	1503
446.569	1205
446.640	4870
446.711	4354
446.782	1546
446.853	1117
446.924	1484
446.995	1350
447.066	1151
447.138	1880
447.209	1645
447.280	-540
447.351	-31
447.422	-670
447.493	671
447.564	1378
447.635	3890
447.706	1395
447.777	20
447.847	-125
447.918	-72
447.989	816
448.060	1574
448.131	3462
448.202	5644
448.273	4086
448.344	1447
448.414	530
448.485	282
448.556	-397
448.627	-158
448.698	13
448.768	-561
448.839	18
448.910	1631
448.981	1930
449.051	481
449.122	-116
449.193	-498
449.263	-749
449.334	464
449.405	1794
449.475	5663
449.546	3539
449.616	2793
449.687	3669
449.758	1210
449.828	-897
449.899	107
449.969	-381
450.040	34
450.110	81
450.181	452
450.251	-164
450.322	522
450.392	147
450.463	-8
450.533	-1130
450.604	-427
450.674	-764
450.744	532
450.815	-357
450.885	574
450.955	-265
451.026	682
451.096	-622
451.166	-23
451.237	2597
451.307	8219
451.377	3489
451.447	66
451.518	-680
451.588	-115
451.658	29
451.728	1419
451.799	7367
451.869	9641
451.939	1216
452.009	-184
452.079	-137
452.149	-22
452.219	1175
452.289	9576
452.360	7361
452.430	1354
452.500	1218
452.570	2723
452.640	6263
452.710	16954
452.780	22312
452.850	16369
452.920	14517
452.990	4465
453.060	1316
453.129	3574
453.199	4130
453.269	11441
453.339	26347
453.409	41304
453.479	36704
453.549	55307
453.619	57527
453.688	24350
453.758	2714
453.828	131
453.898	122
453.968	-233
454.037	591
454.087	1242
454.107	1502
454.168	299
454.177	103
454.247	264
454.249	281
454.316	319
454.330	395
454.386	602
454.411	1834
454.456	3737
454.492	5659
454.525	7375
454.574	4507
454.595	3277
454.655	886
454.665	473
454.734	530
454.736	614
454.804	2706
454.817	3834
454.873	8171
454.898	9173
454.943	10979
454.979	6837
455.013	3110
455.060	1837
455.082	1344
455.141	1517
455.152	1474
455.221	5814
455.222	5918
455.291	10782
455.303	9986
455.360	6560
455.384	7233
455.430	8208
455.465	7004
455.499	5731
455.546	7220
455.569	7828
455.627	5879
455.638	5571
455.707	995
455.708	1010
455.777	1007
455.789	961
455.846	705
455.869	781
455.916	884
455.950	943
455.985	952
456.031	1043
456.054	1121
456.112	310
456.124	133
456.193	588
456.193	569
456.262	1294
456.274	1435
456.332	1960
456.355	1732
456.401	1315
456.436	1541
456.470	1641
456.516	1026
456.540	704
456.597	911
456.609	981
456.678	1312
456.678	1296
456.747	736
456.759	609
456.817	348
456.840	564
456.886	741
456.920	624
456.955	735
457.001	1425
457.024	1630
457.082	1466
457.093	1399
457.162	2103
457.163	2119
457.232	1900
457.243	1835
457.301	1646
457.324	1402
457.370	949
457.405	1095
457.439	1403
457.485	1973
457.508	2245
457.566	2596
457.577	2796
457.646	4371
457.647	4423
457.715	10200
457.727	11344
457.784	17759
457.808	22965
457.853	27436
457.889	31143
457.922	32637
457.969	23040
457.991	22869
458.050	27651
458.060	28451
458.129	47643
458.130	48239
458.198	44578
458.211	38867
458.267	22409
458.292	15766
458.336	10080
458.372	10186
458.405	14570
458.453	23390
458.474	28926
458.533	50059
458.543	50781
458.611	73528
458.614	73719
458.680	46506
458.694	35862
458.749	14757
458.775	10672
458.818	5769
458.855	4318
458.887	3481
458.936	3185
458.955	3032
459.016	2728
459.024	2757
459.093	3692
459.097	3692
459.162	3111
459.177	3187
459.230	3544
459.257	3780
459.299	4150
459.338	4121
459.368	3958
459.418	3962
459.437	3742
459.499	2903
459.505	2903
459.574	2860
459.579	2901
459.643	2588
459.659	2303
459.711	2195
459.740	2486
459.780	2806
459.820	3291
459.849	3554
459.900	4196
459.917	4294
459.981	3404
459.986	3374
460.054	4185
460.061	4252
460.123	4339
460.141	4233
460.191	5017
460.222	5692
460.260	5697
460.302	6603
460.328	6784
460.382	5355
460.397	5230
460.462	4960
460.465	5112
460.534	9049
460.543	9579
460.602	19738
460.623	24127
460.671	37149
460.703	49266
460.739	42718
460.783	30319
460.808	27054
460.864	7706
460.876	5571
460.944	3775
460.945	3750
461.013	3557
461.024	3479
461.081	3561
461.104	4048
461.150	4043
461.184	3463
461.218	3394
461.264	3338
461.286	3345
461.345	3572
461.355	3476
461.423	3025
461.425	2992
461.491	3289
461.505	3637
461.559	6364
461.585	7415
461.628	9318
461.665	11471
461.696	11664
461.745	13380
461.764	12641
461.825	6032
461.832	5825
461.901	3657
461.905	3678
461.969	3850
461.985	3686
462.037	3676
462.065	3865
462.105	4073
462.145	4283
462.173	5095
462.225	6718
462.241	7201
462.305	10027
462.310	9833
462.378	6185
462.385	5607
462.446	4480
462.465	4328
462.514	4201
462.545	4250
462.582	4079
462.625	4218
462.650	4133
462.705	3400
462.718	3523
462.785	4241
462.786	4252
462.854	4797
462.865	4923
462.922	5092
462.945	5292
462.990	5100
463.025	4423
463.058	4204
463.104	4085
463.126	3749
463.184	2847
463.194	2954
463.262	3505
463.264	3557
463.330	3935
463.344	3779
463.398	4089
463.424	4415
463.466	4060
463.504	3693
463.533	3909
463.583	4538
463.601	4642
463.663	4317
463.669	4373
463.737	5481
463.743	5562
463.805	7916
463.823	8651
463.873	11758
463.903	13830
463.940	13685
463.982	13817
464.008	11908
464.062	6154
464.076	5799
464.142	4360
464.144	4347
464.211	4028
464.221	4029
464.279	3924
464.301	3946
464.347	4730
464.381	5202
464.414	5846
464.461	6905
464.482	7485
464.540	8677
464.550	8785
464.617	9752
464.620	9776
464.685	8399
464.699	7964
464.753	8303
464.779	8642
464.820	9795
464.859	10655
464.888	9987
464.938	9042
464.956	9253
465.018	9469
465.023	9425
465.091	9316
465.098	9250
465.158	10091
465.177	10416
465.226	9426
465.257	8686
465.293	8280
465.336	7632
465.361	8264
465.416	9769
465.428	10015
465.495	11554
465.496	11599
465.563	15689
465.575	16422
465.631	18180
465.654	19036
465.698	13222
465.734	7831
465.765	7857
465.813	7781
465.833	7359
465.893	6674
465.900	6727
465.968	6860
465.972	6869
466.035	6862
466.052	6816
466.102	6656
466.131	6562
466.170	6555
466.210	6550
466.237	7137
466.290	8236
466.304	8221
466.369	8087
466.372	8140
466.439	9285
466.449	9423
466.506	9347
466.528	9332
466.573	12440
466.607	14692
466.641	18246
466.687	23217
466.708	24337
466.766	27464
466.775	25745
466.842	12423
466.845	11765
466.909	10168
466.925	9846
466.977	9466
467.004	9278
467.044	9838
467.083	10376
467.111	11413
467.163	13310
467.178	13677
467.242	15091
467.245	14985
467.312	12237
467.321	11853
467.379	12403
467.400	12568
467.446	12365
467.480	12181
467.559	12414
467.638	9708
467.717	10345
467.796	11850
467.875	12633
467.955	12230
468.034	17517
468.113	28275
468.192	34867
468.271	14193
468.350	16891
468.429	20653
468.508	21775
468.588	14029
468.667	12056
468.746	10019
468.825	9284
468.904	10159
468.983	10328
469.062	12918
469.141	14235
469.220	8389
469.299	9686
469.378	10276
469.456	13237
469.535	11173
469.614	10674
469.693	11212
469.772	13202
469.851	15321
469.930	12334
470.009	10395
470.088	12875
470.166	17173
470.245	24935
470.324	26941
470.403	16950
470.482	13181
470.560	11092
470.639	11408
470.718	12698
470.797	11233
470.875	11961
470.954	13632
471.033	13729
471.111	8606
471.190	9359
471.269	8254
471.347	8629
471.426	8742
471.505	9794
471.583	11180
471.662	11127
471.740	10124
471.819	10599
471.898	9768
471.976	9725
472.055	10253
472.133	10210
472.212	12061
472.290	11786
472.369	8399
472.447	9750
472.526	7828
472.604	9888
472.683	9507
472.761	9821
472.839	10162
472.918	9822
472.996	9156
473.075	9902
473.153	8814
473.231	9155
473.310	9398
473.388	9700
473.466	9751
473.545	11554
473.623	13404
473.701	12666
473.780	10559
473.858	9107
473.936	10191
474.014	9784
474.093	11318
474.171	13518
474.249	14381
474.327	10866
474.405	9032
474.484	8820
474.562	8035
474.640	8524
474.718	7924
474.796	9827
474.874	8365
474.952	7786
475.030	6745
475.108	8797
475.187	9685
475.265	11521
475.343	15505
475.421	15262
475.499	8992
475.577	10506
475.655	11460
475.733	15950
475.811	22882
475.889	19796
475.966	12970
476.044	8979
476.122	11089
476.200	13956
476.278	10298
476.356	8015
476.434	8999
476.512	11061
476.590	12324
476.667	11379
476.745	7829
476.823	8321
476.901	7480
476.979	8181
477.056	9039
477.134	8742
477.212	8624
477.290	8194
477.367	7769
477.445	7891
477.523	6991
477.601	7877
477.678	7069
477.756	8974
477.834	8774
477.911	7339
477.989	7418
478.066	6225
478.144	7800
478.222	11282
478.299	16822
478.377	13685
478.454	7857
478.532	6710
478.609	7844
478.687	8607
478.764	7259
478.842	8165
478.919	8252
478.997	7724
479.074	6880
479.152	7748
479.229	9034
479.307	6019
479.384	6529
479.461	7120
479.539	6736
479.616	8447
479.694	6359
479.771	7908
479.848	7446
479.926	7933
480.003	10052
480.080	7022
480.157	6620
480.235	6853
480.312	6174
480.389	7551
480.467	9512
480.544	10486
480.621	7474
480.698	8060
480.775	7766
480.853	8301
480.930	6599
481.007	7646
481.084	7938
481.161	9451
481.238	7690
481.315	5889
481.392	6722
481.470	7601
481.547	6038
481.624	6307
481.701	5915
481.778	6623
481.855	7780
481.932	10744
482.009	14029
482.086	9906
482.163	8836
482.240	14327
482.317	22208
482.393	13961
482.470	7981
482.547	7748
482.624	7100
482.701	8113
482.778	7252
482.855	7375
482.932	7443
483.009	6914
483.085	8444
483.162	11048
483.239	9920
483.316	8148
483.393	8807
483.469	7970
483.546	7700
483.623	7190
483.699	6357
483.776	6869
483.853	8675
483.930	11363
484.006	21569
484.083	34156
484.160	26483
484.236	42533
484.313	30666
484.389	23687
484.466	21731
484.543	22256
484.619	24139
484.696	26591
484.772	23768
484.849	21498
484.925	18759
485.002	20289
485.078	20366
485.155	20765
485.231	18261
485.308	18036
485.384	17932
485.461	21022
485.537	26236
485.614	27801
485.690	17455
485.766	16908
485.843	19405
485.919	23571
485.995	22343
486.072	16779
486.148	16753
486.224	16625
486.301	16321
486.377	18939
486.453	19643
486.530	20686
486.606	24871
486.682	26588
486.758	26763
486.835	28541
486.911	25679
486.987	36141
487.063	41982
487.139	51126
487.215	36161
487.292	22686
487.368	20910
487.444	24417
487.520	30941
487.596	37715
487.672	81848
487.748	206317
487.824	259649
487.900	63007
487.976	27187
488.052	23149
488.128	26199
488.204	20098
488.280	18105
488.356	20540
488.432	31098
488.508	36233
488.584	18656
488.660	17059
488.736	15844
488.812	17602
488.888	21879
488.964	29629
489.039	52325
489.115	70963
489.191	37428
489.267	16148
489.343	14336
489.418	13939
489.494	14419
489.570	13328
489.646	15621
489.722	14001
489.797	14601
489.873	18602
489.949	29851
490.024	23116
490.100	12583
490.176	14669
490.251	16611
490.327	19366
490.403	12942
490.478	13089
490.554	10777
490.629	12612
490.705	10760
490.781	13239
490.856	11862
490.932	14750
491.007	13892
491.083	13292
491.158	12388
491.234	15831
491.309	24039
491.385	21513
491.460	11114
491.536	12050
491.611	11015
491.686	13184
491.762	17702
491.837	33293
491.913	51744
491.988	68960
492.063	76326
492.139	20209
492.214	15294
492.289	10225
492.365	9308
492.440	11879
492.515	11017
492.590	11365
492.666	9340
492.741	12637
492.816	14345
492.891	9524
492.967	9568
493.042	8804
493.117	9524
493.192	10722
493.267	13291
493.342	21881
493.418	21215
493.493	10805
493.568	7749
493.643	8647
493.718	10742
493.793	14964
493.868	16643
493.943	12116
494.018	10174
494.093	9340
494.168	8991
494.243	8144
494.318	8016
494.393	8463
494.468	7783
494.543	8849
494.618	9926
494.693	8848
494.768	8117
494.842	8975
494.917	7842
494.992	9616
495.067	8462
495.142	8123
495.217	9077
495.292	8723
495.366	10018
495.441	11966
495.516	15439
495.591	24587
495.665	74359
495.740	142752
495.815	44332
495.890	11133
495.964	7947
496.039	12031
496.114	10680
496.188	11474
496.263	11792
496.338	9676
496.412	10351
496.487	12014
496.561	12643
496.636	13312
496.710	10528
496.785	10640
496.860	11916
496.934	10278
497.009	11138
497.083	10682
497.158	11921
497.232	13912
497.307	14122
497.381	13288
497.455	14822
497.530	15987
497.604	11526
497.679	13492
497.753	19682
497.827	23488
497.902	20586
497.976	29393
498.050	70388
498.125	204541
498.199	161824
498.273	33148
498.348	26369
498.422	22694
498.496	20903
498.570	19289
498.645	14027
498.719	12739
498.793	15318
498.867	20553
498.941	31923
499.016	92684
499.090	191621
499.164	51544
499.238	11083
499.312	12175
499.386	14390
499.460	12783
499.534	11897
499.609	15158
499.683	17797
499.757	17690
499.831	45772
499.905	135667
499.979	96753
500.053	18071
500.127	18680
500.201	16291
500.275	11302
500.349	11549
500.422	12898
500.496	20755
500.570	43593
500.644	87145
500.718	121033
500.792	22128
500.866	9368
500.940	12151
501.013	9653
501.087	12559
501.161	21333
501.235	23789
501.309	48287
501.382	113122
501.456	80797
501.530	22605
501.603	32552
501.677	12126
501.751	6664
501.825	10183
501.898	19320
501.972	42700
502.046	22728
502.119	9252
502.193	24405
502.266	44446
502.340	20749
502.413	23494
502.487	37288
502.561	19229
502.634	8808
502.708	10798
502.781	6963
502.855	8099
502.928	6313
503.002	6616
503.075	5611
503.149	7953
503.222	7157
503.295	6648
503.369	8104
503.442	13208
503.516	37483
503.589	73791
503.662	42110
503.736	20395
503.809	39454
503.882	34263
503.956	56338
504.029	67304
504.102	117911
504.175	138847
504.249	38307
504.322	16887
504.395	11651
504.468	8214
504.542	7186
504.615	5876
504.688	6185
504.761	6575
504.834	9454
504.907	11148
504.980	14518
505.053	9124
505.127	10078
505.200	13272
505.273	8219
505.346	6719
505.419	4840
505.492	5640
505.565	4964
505.638	5387
505.711	4523
505.784	4878
505.857	4646
505.930	6643
506.003	4275
506.076	7288
506.149	6502
506.221	6616
506.294	9766
506.367	21658
506.440	59081
506.513	26778
506.586	7540
506.659	6063
506.731	5931
506.804	7457
506.877	9300
506.950	6748
507.022	5293
507.095	6482
507.168	8370
507.241	7056
507.313	4490
507.386	5235
507.459	8828
507.531	5675
507.604	3990
507.677	5435
507.749	4528
507.822	9524
507.894	16433
507.967	20629
508.040	10528
508.112	10989
508.185	9739
508.257	8167
508.330	14608
508.402	8268
508.475	7210
508.547	7902
508.620	7991
508.692	11443
508.765	8327
508.837	6548
508.909	7341
508.982	7224
509.054	8435
509.127	7106
509.199	6346
509.271	5664
509.344	5360
509.416	6119
509.488	6175
509.560	7146
509.633	7401
509.705	8429
509.777	7695
509.849	10540
509.922	7350
509.994	6656
510.066	7762
510.138	8593
510.210	18318
510.283	14090
510.355	12608
510.427	10420
510.499	10211
510.571	10644
510.643	10142
510.715	16552
510.787	12057
510.859	10928
510.931	11603
511.003	15212
511.076	12838
511.148	7539
511.219	7785
511.291	12345
511.363	11812
511.435	8298
511.507	7000
511.579	8324
511.651	8855
511.723	7294
511.795	7753
511.867	8103
511.939	9294
512.010	12923
512.082	11380
512.154	7569
512.226	9663
512.298	16202
512.369	19366
512.441	15097
512.513	13750
512.585	10626
512.656	11643
512.728	12355
512.800	9304
512.871	11478
512.943	9930
513.015	8436
513.086	10182
513.158	10145
513.230	10340
513.301	14435
513.373	15894
513.444	10723
513.516	8141
513.588	9849
513.659	9922
513.731	11878
513.802	10759
513.874	23367
513.945	30440
514.016	10923
514.088	9373
514.159	10309
514.231	14015
514.302	18006
514.374	13849
514.445	11658
514.516	18012
514.588	12939
514.659	10609
514.730	15962
514.802	15117
514.873	11358
514.944	13018
515.016	12124
515.087	12949
515.158	14508
515.229	15876
515.301	12140
515.372	14849
515.443	9820
515.514	10267
515.585	7433
515.656	9893
515.728	9280
515.799	9617
515.870	10318
515.941	10595
516.012	10644
516.083	15879
516.154	15715
516.225	18614
516.296	17673
516.367	16525
516.438	20908
516.509	28093
516.580	55244
516.651	188914
516.722	483741
516.793	146313
516.864	29816
516.935	29858
517.006	36857
517.077	65408
517.148	183169
517.219	640734
517.289	698608
517.360	118157
517.431	33698
517.502	16534
517.573	17628
517.643	15772
517.714	18813
517.785	19363
517.856	19591
517.926	24159
517.997	27669
518.068	36285
518.138	58774
518.209	124597
518.280	471379
518.350	1179264
518.421	326199
518.492	42124
518.562	28241
518.633	29119
518.703	36822
518.774	81270
518.845	199653
518.915	150113
518.986	38543
519.056	25643
519.127	35890
519.197	48097
519.268	77442
519.338	39224
519.408	15672
519.479	19363
519.549	14675
519.620	12249
519.690	9010
519.760	9133
519.831	9827
519.901	9347
519.971	9837
520.042	9130
520.112	11254
520.182	14559
520.253	16793
520.323	15720
520.393	39579
520.463	57820
520.534	45206
520.604	84791
520.674	26104
520.744	33513
520.814	104310
520.885	60137
520.955	32780
521.025	76776
521.095	25258
521.165	8636
521.235	8028
521.305	6861
521.375	8565
521.445	9674
521.515	11133
521.585	14520
521.655	10754
521.725	10859
521.795	9900
521.865	5885
521.935	11621
522.005	8444
522.075	6929
522.145	8669
522.215	8125
522.285	11020
522.355	13534
522.424	21314
522.494	17702
522.564	15583
522.634	32582
522.704	75753
522.774	23429
522.843	8482
522.913	8834
522.983	9899
523.053	7671
523.122	8838
523.192	14801
523.262	43751
523.331	30377
523.401	9528
523.471	6561
523.540	7587
523.610	5869
523.680	6005
523.749	6852
523.819	7844
523.888	7100
523.958	6060
524.027	7117
524.097	7180
524.166	6839
524.236	6214
524.305	8867
524.375	5443
524.444	5718
524.514	8753
524.583	6662
524.653	7915
524.722	11159
524.791	6521
524.861	8118
524.930	6420
524.999	7811
525.069	11065
525.138	7378
525.207	8751
525.277	7514
525.346	7974
525.415	9784
525.484	9125
525.554	9496
525.623	10945
525.692	11426
525.761	11708
525.830	15346
525.900	19001
525.969	34205
526.038	64955
526.107	156438
526.176	377196
526.245	243341
526.314	85096
526.383	213826
526.452	249482
526.522	431981
526.591	299562
526.660	58053
526.729	34713
526.797	51264
526.867	116093
526.935	398498
527.004	770310
527.073	315301
527.142	27690
527.211	14024
527.280	14735
527.349	11924
527.418	7254
527.487	9660
527.555	7362
527.624	6960
527.693	4782
527.762	7841
527.831	5411
527.899	7061
527.968	6702
528.037	5914
528.106	9325
528.174	13492
528.243	10425
528.312	15043
528.380	15603
528.449	6178
528.518	6779
528.586	3689
528.655	5853
528.723	5545
528.792	4709
528.861	5085
528.929	4507
528.998	5484
529.066	4273
529.135	4597
529.203	3899
529.272	4276
529.340	5354
529.409	6698
529.477	4066
529.545	5638
529.614	8999
529.682	8887
529.751	9870
529.819	13913
529.887	5942
529.956	5298
530.024	6635
530.092	5439
530.161	7160
530.229	10063
530.297	5569
530.365	5981
530.434	4471
530.502	4954
530.570	4823
530.638	2879
530.707	6532
530.775	7198
530.843	4048
530.911	5202
530.979	5357
531.047	5129
531.115	5528
531.183	4558
531.252	5457
531.320	5901
531.388	3764
531.456	5899
531.524	4171
531.592	6492
531.660	6761
531.728	4865
531.796	4665
531.864	5916
531.932	5301
532.000	5408
532.067	5773
532.135	5605
532.203	8075
532.271	8550
532.339	15410
532.407	31817
532.475	15718
532.542	9984
532.610	13017
532.678	21654
532.746	81545
532.814	148442
532.881	29917
532.949	8113
533.017	6919
533.084	6023
533.152	5317
533.220	5975
533.287	6646
533.355	6448
533.423	4907
533.490	5156
533.558	5894
533.625	6681
533.693	5798
533.761	6756
533.828	7520
533.896	6533
533.963	12751
534.031	16127
534.098	21985
534.166	10385
534.233	7946
534.300	9610
534.368	9144
534.435	8639
534.503	10874
534.570	17145
534.637	11595
534.705	14415
534.772	23278
534.840	50718
534.907	191669
534.974	168643
535.041	16439
535.109	9661
535.176	7465
535.243	8339
535.310	8280
535.378	7046
535.445	7474
535.512	7928
535.579	7713
535.646	7101
535.714	8078
535.781	10662
535.848	9086
535.915	9786
535.982	7377
536.049	8644
536.116	8725
536.183	7830
536.250	7946
536.317	8224
536.384	10677
536.451	13442
536.518	13256
536.585	10007
536.652	13423
536.719	16691
536.786	11518
536.853	11862
536.920	17222
536.987	23191
537.053	27136
537.120	91508
537.187	58463
537.254	10418
537.321	8694
537.388	10703
537.454	8620
537.521	8569
537.588	8894
537.654	11484
537.721	11363
537.788	10884
537.855	9514
537.921	10445
537.988	10201
538.055	9739
538.121	8762
538.188	9802
538.254	14020
538.321	23090
538.388	13910
538.454	10512
538.521	10939
538.587	9983
538.654	9103
538.720	9883
538.787	9731
538.853	10219
538.920	10729
538.986	9942
539.053	8674
539.119	9809
539.185	10653
539.252	13199
539.318	15779
539.385	14507
539.451	12460
539.517	13306
539.583	16668
539.650	32440
539.716	60332
539.782	16897
539.849	10315
539.915	11779
539.981	10528
540.047	12196
540.114	10866
540.180	11805
540.246	11355
540.312	15025
540.378	24101
540.444	25024
540.510	33970
540.576	69253
540.643	19454
540.709	9138
540.775	11025
540.841	11355
540.907	16658
540.973	27384
541.039	17716
541.105	14737
541.171	11955
541.237	10836
541.303	11948
541.369	14526
541.435	15468
541.500	22276
541.566	13204
541.632	9780
541.698	9942
541.764	11312
541.830	9369
541.896	9798
541.961	10530
542.027	9889
542.093	10713
542.159	11929
542.224	11777
542.290	16226
542.356	22021
542.421	21462
542.487	12994
542.553	10126
542.618	10974
542.684	10883
542.750	11858
542.815	14952
542.881	23007
542.947	66289
543.012	39277
543.078	10449
543.143	9309
543.209	11237
543.274	11702
543.340	14415
543.405	29951
543.471	36503
543.536	11982
543.602	10920
543.667	9005
543.732	12590
543.798	10269
543.863	11946
543.928	10379
543.994	10152
544.059	10727
544.124	10858
544.190	10269
544.255	12003
544.320	11555
544.386	11556
544.451	15138
544.516	17131
544.581	18523
544.646	45929
544.712	56346
544.777	15575
544.842	12621
544.907	13276
544.972	12546
545.037	12992
545.102	13521
545.168	13403
545.233	13672
545.298	15024
545.363	15192
545.428	18854
545.493	30382
545.558	50580
545.623	21940
545.688	13267
545.753	14698
545.818	14386
545.883	15830
545.947	14465
546.012	15904
546.077	16104
546.142	18036
546.207	17023
546.272	20567
546.337	20777
546.401	18544
546.466	19698
546.531	18588
546.596	20672
546.661	21653
546.725	22816
546.790	21242
546.855	23943
546.919	24887
546.984	28577
547.049	29617
547.113	34296
547.178	36805
547.243	43509
547.307	48326
547.372	53242
547.436	52655
547.501	54355
547.565	58172
547.630	55066
547.695	53292
547.759	54124
547.823	51894
547.888	52610
547.952	53036
548.017	56675
548.081	60370
548.146	59945
548.210	60263
548.274	62757
548.339	59870
548.403	56232
548.468	52035
548.532	51778
548.596	52397
548.660	54069
548.725	59413
548.789	63958
548.853	61547
548.917	58210
548.982	59089
549.046	52266
549.110	46132
549.174	49007
549.238	56863
549.303	61517
549.367	63105
549.431	59650
549.495	56023
549.559	57426
549.623	67005
549.687	73450
549.751	77652
549.815	86676
549.879	85081
549.943	80119
550.007	85468
550.071	83441
550.135	77852
550.199	72880
550.263	68565
550.327	67446
550.391	70336
550.455	76328
550.519	80523
550.582	87375
550.646	100772
550.710	99872
550.774	94733
550.838	96380
550.901	99469
550.965	104478
551.029	109532
551.093	119320
551.156	132105
551.220	160696
551.284	175556
551.347	124618
551.411	117987
551.475	112323
551.538	102520
551.602	93921
551.666	87979
551.729	83737
551.793	81861
551.856	81024
551.920	79446
551.983	78998
552.047	79557
552.110	80028
552.174	79831
552.237	81397
552.301	74876
552.364	73150
552.428	69853
552.491	73896
552.554	74788
552.618	76327
552.681	78645
552.745	79054
552.808	101182
552.871	111128
552.934	84315
552.998	74537
553.061	72359
553.124	70054
553.187	70107
553.251	73792
553.314	72186
553.377	73786
553.440	80006
553.503	88017
553.567	90878
553.630	77955
553.693	76143
553.756	76280
553.819	73917
553.882	71375
553.945	71721
554.008	71767
554.071	72452
554.134	74283
554.197	68062
554.260	67684
554.323	68668
554.386	71250
554.449	72332
554.512	72870
554.575	69331
554.638	68396
554.701	67709
554.764	67530
554.827	64079
554.889	62250
554.952	58123
555.015	58462
555.078	59555
555.141	59129
555.203	57421
555.266	57351
555.329	57656
555.391	55515
555.454	56484
555.517	54565
555.580	51364
555.642	48931
555.705	48404
555.768	50041
555.830	46733
555.893	45277
555.955	44640
556.018	44849
556.080	43848
556.143	45544
556.206	44920
556.268	44196
556.330	43892
556.393	42436
556.455	42268
556.518	43073
556.580	41138
556.643	37479
556.705	36970
556.767	35207
556.830	36500
556.892	38446
556.955	41346
557.017	36352
557.079	35136
557.142	34214
557.204	35605
557.266	46106
557.328	36518
557.391	28709
557.453	29324
557.515	30359
557.577	31256
557.639	31027
557.701	30561
557.764	29865
557.826	30143
557.888	32788
557.950	35665
558.012	42934
558.074	59760
558.136	135840
558.198	252262
558.260	70757
558.322	32604
558.384	34173
558.446	37645
558.508	42371
558.570	52200
558.632	78647
558.694	113647
558.756	178559
558.818	507909
558.880	886760
558.942	260882
559.003	265122
559.065	96449
559.127	46530
559.189	49373
559.251	66792
559.312	107277
559.374	266314
559.436	673959
559.498	234884
559.559	49193
559.621	50932
559.683	68607
559.744	124502
559.806	381973
559.868	418884
559.929	71770
559.991	58185
560.052	107815
560.114	266138
560.176	138329
560.237	165360
560.299	208912
560.360	36606
560.422	19264
560.483	17897
560.545	17592
560.606	18016
560.667	16192
560.729	15558
560.790	14738
560.852	15854
560.913	13740
560.974	15176
561.036	13834
561.097	14782
561.158	14820
561.220	15012
561.281	13825
561.342	15509
561.403	17380
561.465	21333
561.526	38149
561.587	38558
561.648	14567
561.709	13794
561.771	14295
561.832	12834
561.893	12803
561.954	13597
562.015	12630
562.076	13659
562.137	12515
562.198	12481
562.259	13215
562.320	13139
562.381	14301
562.442	19321
562.503	15015
562.564	12751
562.625	12622
562.686	12986
562.747	14423
562.808	13725
562.869	11995
562.930	14355
562.991	13073
563.051	12740
563.112	12110
563.173	11902
563.234	11104
563.294	11801
563.355	11723
563.416	11933
563.477	12089
563.537	11522
563.598	11889
563.659	12887
563.720	12085
563.780	12375
563.841	11739
563.901	12027
563.962	11504
564.023	10828
564.083	12203
564.144	11462
564.204	10846
564.265	11457
564.325	12613
564.386	17854
564.446	15260
564.507	11806
564.567	11333
564.628	11846
564.688	10670
564.749	11544
564.809	12027
564.869	12852
564.930	10817
564.990	11123
565.050	10892
565.111	12057
565.171	10985
565.231	11921
565.292	10998
565.352	11044
565.412	11109
565.472	11517
565.532	12105
565.593	11163
565.653	10788
565.713	12643
565.773	11860
565.833	13874
565.893	15940
565.953	11631
566.013	11217
566.074	11224
566.134	14500
566.194	17163
566.254	16682
566.314	13621
566.374	10763
566.434	12189
566.494	11141
566.554	11072
566.614	10984
566.673	12886
566.733	12069
566.793	13412
566.853	12730
566.913	13219
566.973	13558
567.033	14275
567.092	14660
567.152	13903
567.212	14218
567.272	13826
567.331	13568
567.391	14751
567.451	14610
567.511	17231
567.570	16183
567.630	12710
567.690	13353
567.749	13856
567.809	13969
567.868	15784
567.928	16310
567.988	17854
568.047	19244
568.107	23355
568.166	30645
568.226	48519
568.285	59955
568.345	44018
568.404	33724
568.464	27666
568.523	28428
568.582	28907
568.642	35116
568.701	45026
568.761	65569
568.820	101042
568.879	84553
568.939	55583
568.998	38905
569.057	30320
569.116	25426
569.176	21046
569.235	18417
569.294	16858
569.353	16733
569.413	14148
569.472	14292
569.531	14066
569.590	12925
569.649	13324
569.708	12268
569.767	13770
569.827	15457
569.886	13618
569.945	11759
570.004	12151
570.063	12201
570.122	12631
570.181	13130
570.240	13131
570.299	13356
570.358	14370
570.417	11798
570.475	10918
570.534	11782
570.593	12957
570.652	12608
570.711	13002
570.770	11521
570.829	11942
570.887	11880
570.946	13847
571.005	11943
571.064	12758
571.122	13712
571.181	13109
571.240	10602
571.299	10301
571.357	11584
571.416	11033
571.475	12252
571.533	12881
571.592	11138
571.650	11421
571.709	10530
571.768	12135
571.826	11191
571.885	10596
571.943	10189
572.002	10273
572.060	9953
572.119	9847
572.177	9581
572.236	9951
572.294	10202
572.352	10511
572.411	10234
572.469	9669
572.528	10653
572.586	9756
572.644	11332
572.703	14916
572.761	10490
572.819	9066
572.877	8466
572.936	9520
572.994	9988
573.052	9482
573.110	10295
573.169	10003
573.227	8817
573.285	9611
573.343	9128
573.401	10253
573.459	9665
573.517	9699
573.576	10484
573.634	10249
573.692	9602
573.750	9548
573.808	8911
573.866	10241
573.924	10908
573.982	10286
574.040	9335
574.098	9555
574.155	9233
574.213	9031
574.271	8615
574.329	9761
574.387	8512
574.445	8986
574.503	8500
574.560	8349
574.618	8696
574.676	8533
574.734	8167
574.792	9734
574.849	8340
574.907	7463
574.965	7758
575.022	7259
575.080	6973
575.138	8222
575.195	7815
575.253	8048
575.311	9539
575.368	8264
575.426	7008
575.483	8809
575.541	8209
575.598	8091
575.656	7754
575.713	7800
575.771	8574
575.828	7496
575.886	7625
575.943	8452
576.001	7959
576.058	7637
576.115	8342
576.173	9733
576.230	10597
576.287	10924
576.345	9353
576.402	8691
576.459	9077
576.517	8076
576.574	8108
576.631	8968
576.688	8493
576.746	8137
576.803	7910
576.860	7570
576.917	8358
576.974	8246
577.031	6940
577.089	8999
577.146	8496
577.203	8597
577.260	9002
577.317	7737
577.374	9157
577.431	8087
577.488	7993
577.545	7399
577.602	8633
577.659	8033
577.716	7670
577.773	7716
577.830	7198
577.886	7580
577.943	6082
578.000	7132
578.057	8107
578.114	8118
578.171	8270
578.227	8581
578.284	7171
578.341	8168
578.398	7843
578.454	8714
578.511	8412
578.568	9414
578.625	8087
578.681	7394
578.738	7611
578.794	8521
578.851	7969
578.908	8031
578.964	8814
579.021	8952
579.077	8234
579.134	8583
579.190	6703
579.247	7889
579.303	7782
579.360	7325
579.416	7689
579.473	7187
579.529	6968
579.586	7363
579.642	8133
579.698	8708
579.755	8189
579.811	8814
579.867	7394
579.924	7993
579.980	7246
580.036	8891
580.093	7202
580.149	8557
580.205	7796
580.261	8636
580.317	8364
580.374	8800
580.430	9728
580.486	8912
580.542	7878
580.598	8371
580.619	8709
580.654	9302
580.692	8982
580.710	8835
580.765	8744
580.767	8751
580.823	9371
580.838	8884
580.879	7592
580.911	7955
580.935	8237
580.984	8393
580.991	8427
581.047	8713
581.057	8569
581.103	7936
581.130	8508
581.159	9135
581.203	8643
581.215	8505
581.270	8429
581.276	8366
581.326	7927
581.349	7886
581.382	7738
581.422	8149
581.438	8371
581.494	9754
581.494	9736
581.550	8045
581.567	8293
581.606	8846
581.640	8642
581.661	8539
581.713	8744
581.717	8759
581.773	8970
581.786	9034
581.829	9336
581.859	8920
581.885	8574
581.932	8937
581.940	9000
581.996	9707
582.004	9650
582.052	9352
582.077	9156
582.107	8906
582.150	9254
582.163	9358
582.219	8369
582.223	8373
582.274	8591
582.296	8572
582.330	8387
582.368	9072
582.386	9501
582.441	8761
582.441	8760
582.497	9206
582.514	9109
582.552	9186
582.587	9214
582.608	9146
582.659	8818
582.663	8793
582.719	9839
582.732	9570
582.774	8773
582.805	8966
582.830	9085
582.877	8595
582.885	8532
582.941	8828
582.950	8931
582.996	9276
583.023	9294
583.052	9537
583.095	9367
583.107	9256
583.162	9942
583.168	9934
583.218	9729
583.240	9688
583.273	9709
583.313	9437
583.328	9391
583.384	9555
583.385	9559
583.439	9319
583.458	9354
583.494	9494
583.531	9378
583.549	9458
583.603	9900
583.605	9898
583.660	9567
583.676	9717
583.715	10118
583.748	9879
583.770	9892
583.820	10685
583.825	10729
583.881	9578
583.893	9615
583.936	9700
583.965	9380
583.991	9216
584.038	9641
584.046	9720
584.101	9264
584.110	9468
584.156	10344
584.183	10396
584.211	10473
584.255	10443
584.266	10451
584.321	9622
584.328	9657
584.376	10009
584.400	10207
584.431	10487
584.472	10641
584.486	10604
584.541	10936
584.545	10936
584.596	11217
584.617	11243
584.651	11532
584.689	11812
584.706	11719
584.761	11738
584.762	11736
584.816	12336
584.834	12786
584.871	13328
584.906	12875
584.926	12703
584.978	13101
584.980	13121
585.035	14076
585.051	14384
585.090	15495
585.123	16081
585.145	16291
585.195	16991
585.200	17130
585.254	19037
585.267	19638
585.309	21219
585.340	23048
585.364	24734
585.412	28844
585.419	29487
585.473	36786
585.484	39242
585.528	51035
585.556	61652
585.583	78893
585.628	119998
585.637	133818
585.692	282860
585.700	301622
585.747	368167
585.772	293560
585.801	161721
585.845	57159
585.856	44942
585.910	27439
585.917	25783
585.965	21918
585.989	20490
586.019	19794
586.061	19249
586.074	19171
586.128	18957
586.133	18994
586.183	19673
586.205	19547
586.237	19320
586.277	19435
586.292	19506
586.346	19761
586.349	19771
586.401	19987
586.421	20014
586.455	20411
586.493	21025
586.509	21596
586.564	23804
586.565	23909
586.618	30621
586.637	31120
586.672	28900
586.709	27079
586.727	26762
586.781	26450
586.781	26458
586.835	23190
586.853	22681
586.889	22050
586.925	21283
586.944	21388
586.996	22787
586.998	22837
587.052	23567
587.068	23607
587.106	23647
587.140	23893
587.161	24054
587.212	24263
587.215	24332
587.269	25859
587.284	26164
587.323	26460
587.356	26872
587.377	27595
587.427	29062
587.431	29163
587.485	30095
587.499	30224
587.539	30662
587.571	31409
587.593	32056
587.643	33357
587.648	33575
587.702	35624
587.715	36159
587.755	37827
587.786	39033
587.810	40064
587.858	42087
587.864	42485
587.917	45855
587.930	46710
587.971	49871
588.001	51816
588.025	53517
588.073	58295
588.079	59061
588.133	64290
588.145	65566
588.187	71524
588.217	75765
588.241	80246
588.288	89051
588.295	90659
588.348	105120
588.360	108203
588.402	121897
588.431	131932
588.456	141855
588.503	163300
588.510	167361
588.564	200987
588.575	209165
588.617	251103
588.646	283695
588.671	324562
588.718	411595
588.725	434448
588.778	626239
588.789	670494
588.832	953231
588.861	1163001
588.886	1337726
588.932	1616608
588.939	1616321
588.993	1490499
589.004	1472914
589.047	1382271
589.075	1255758
589.100	1037383
589.147	660145
589.154	633610
589.207	461820
589.218	430015
589.261	398082
589.290	382491
589.314	400810
589.361	446460
589.368	466598
589.421	647364
589.433	690885
589.475	996286
589.504	1221487
589.528	1335332
589.576	1464114
589.582	1442079
589.635	1194281
589.647	1125848
589.689	746005
589.718	500767
589.742	410411
589.790	252920
589.795	245674
589.849	182245
589.861	168342
589.902	145248
589.932	127900
589.955	118465
590.004	99148
590.009	98035
590.062	85521
590.075	82477
590.115	76223
590.146	71072
590.168	69049
590.218	64427
590.222	64241
590.275	61041
590.289	60006
590.328	57676
590.360	55669
590.381	54338
590.431	50919
590.435	50871
590.488	48880
590.503	48249
590.541	47058
590.574	45881
590.594	45342
590.645	43831
590.647	43874
590.700	42901
590.716	42613
590.753	42337
590.787	41842
590.806	41475
590.859	40447
590.859	40514
590.912	40237
590.930	40130
590.965	40223
591.001	40228
591.018	40072
591.071	39267
591.072	39187
591.124	38320
591.143	37958
591.177	37626
591.214	37038
591.230	37471
591.283	38916
591.285	38893
591.336	38261
591.356	38012
591.389	37836
591.427	37104
591.442	36628
591.495	34785
591.498	34591
591.547	35168
591.569	35355
591.600	35608
591.640	35635
591.653	35541
591.706	35036
591.711	34891
591.759	35258
591.782	35510
591.811	36284
591.853	37074
591.864	37028
591.917	36388
591.924	36228
591.969	36131
591.995	35998
592.022	35865
592.066	35471
592.075	35703
592.127	36727
592.137	36862
592.180	37962
592.208	38498
592.233	38066
592.279	37088
592.285	37123
592.338	36823
592.350	36685
592.390	36251
592.421	35830
592.443	36060
592.491	36326
592.495	36440
592.548	37037
592.562	37131
592.600	37176
592.633	37089
592.653	37058
592.704	36601
592.705	36815
592.775	37031
592.846	36823
592.916	37986
592.987	39527
593.058	37909
593.128	37895
593.199	36108
593.270	36907
593.341	36763
593.411	37636
593.482	40399
593.553	38807
593.623	38630
593.694	40216
593.764	39730
593.835	39148
593.906	39729
593.976	39553
594.047	41236
594.117	43771
594.188	44079
594.258	42165
594.329	41858
594.399	43865
594.470	43837
594.540	44329
594.611	45192
594.681	44820
594.751	44469
594.822	46141
594.892	48338
594.963	48721
595.033	50380
595.103	52047
595.174	51974
595.244	54642
595.314	60019
595.384	53611
595.455	54353
595.525	55430
595.595	58018
595.665	57853
595.736	56232
595.806	57410
595.876	57871
595.946	57851
596.016	59376
596.087	61398
596.157	61309
596.227	60924
596.297	63164
596.367	68294
596.437	72044
596.507	74343
596.577	75735
596.647	73510
596.717	75795
596.787	77531
596.857	77332
596.927	77224
596.997	78251
597.067	77706
597.137	79099
597.207	80287
597.277	80396
597.347	77455
597.417	75674
597.487	76548
597.557	77504
597.626	80336
597.696	81842
597.766	82163
597.836	79954
597.906	73208
597.975	70372
598.045	70578
598.115	73599
598.185	78629
598.254	88466
598.324	94855
598.394	96110
598.464	93484
598.533	91826
598.603	86813
598.672	82883
598.742	84283
598.812	84638
598.881	86745
598.951	85653
599.020	86947
599.090	90519
599.159	90863
599.229	86646
599.299	86378
599.368	88072
599.437	85805
599.507	79229
599.576	77837
599.646	77897
599.715	75742
599.785	75800
599.854	72655
599.924	73791
599.993	71595
600.062	72649
600.132	75104
600.201	79691
600.270	90246
600.340	94901
600.409	93267
600.478	93264
600.547	94652
600.617	86922
600.686	70173
600.755	64577
600.824	62096
600.894	59343
600.963	59104
601.032	57295
601.101	56022
601.170	55448
601.239	53000
601.308	53813
601.378	54229
601.447	52179
601.516	52782
601.585	55018
601.654	56840
601.723	54232
601.792	54980
601.861	56963
601.930	59617
601.999	60134
602.068	59518
602.137	62169
602.206	63206
602.275	62071
602.343	65389
602.412	65722
602.481	62764
602.550	63083
602.619	64930
602.688	66380
602.756	65794
602.825	65981
602.894	67726
602.963	68325
603.032	68676
603.100	70363
603.169	69316
603.238	70162
603.307	70695
603.375	70891
603.444	72812
603.513	73922
603.581	75940
603.650	75986
603.719	73493
603.787	76219
603.856	77717
603.924	81304
603.993	84440
604.061	85586
604.130	89823
604.198	92554
604.267	93820
604.335	94377
604.404	95429
604.472	95151
604.541	99162
604.609	99621
604.678	98812
604.746	99306
604.815	102739
604.883	103903
604.951	103381
605.020	105635
605.088	107082
605.156	110426
605.225	112226
605.293	111287
605.361	113032
605.429	113343
605.498	116642
605.566	120655
605.634	126568
605.702	130654
605.771	133797
605.839	134798
605.907	131302
605.975	126117
606.043	123848
606.111	125742
606.180	123400
606.248	123172
606.316	121685
606.384	122003
606.452	124952
606.520	130950
606.588	132884
606.656	130383
606.724	127548
606.792	121721
606.860	109187
606.928	97955
606.996	94342
607.064	92617
607.132	95830
607.200	101722
607.267	106829
607.335	107106
607.403	109437
607.471	106084
607.539	102521
607.607	104528
607.674	90258
607.742	91454
607.810	91268
607.878	90547
607.946	91431
608.013	97559
608.081	100038
608.149	100101
608.216	102557
608.284	108435
608.352	106247
608.419	104831
608.487	105012
608.555	101022
608.622	104714
608.690	112060
608.757	122367
608.825	124702
608.893	122630
608.960	116957
609.028	113130
609.095	112865
609.163	111557
609.230	98439
609.298	89565
609.365	95551
609.432	103680
609.500	113409
609.567	129428
609.635	149930
609.702	155709
609.769	149579
609.837	116129
609.904	101240
609.971	101944
610.039	115553
610.106	148254
610.173	269668
610.241	592654
610.308	417440
610.375	207155
610.442	117346
610.509	104653
610.577	103199
610.644	103463
610.711	107769
610.778	108849
610.845	115506
610.912	121396
610.980	126054
611.047	124218
611.114	123794
611.181	120119
611.248	118817
611.315	125618
611.382	128759
611.449	135062
611.516	137738
611.583	134229
611.650	135820
611.717	137582
611.784	139972
611.851	147548
611.918	154802
611.984	178092
612.051	245378
612.118	461810
612.185	1061734
612.252	662245
612.319	204839
612.386	173402
612.452	161159
612.519	155043
612.586	154086
612.653	155842
612.719	160887
612.786	152443
612.853	142458
612.919	138928
612.986	142220
613.053	132069
613.120	125068
613.186	118345
613.253	120907
613.319	121785
613.386	122548
613.453	123871
613.519	127264
613.586	126427
613.652	137814
613.719	129204
613.785	129913
613.852	126405
613.918	124082
613.985	125211
614.051	133520
614.118	133376
614.184	128604
614.250	123990
614.317	125948
614.383	123440
614.449	127903
614.516	127864
614.582	127550
614.648	125108
614.715	123430
614.781	121588
614.847	122329
614.914	122233
614.980	117827
615.046	118754
615.112	121625
615.179	121957
615.245	125056
615.311	126366
615.377	137678
615.443	136853
615.509	130689
615.575	131055
615.642	130209
615.708	134223
615.774	140470
615.840	148545
615.906	161679
615.972	195471
616.038	295952
616.104	564944
616.170	1233968
616.236	1015041
616.302	275667
616.368	209568
616.434	160667
616.500	149814
616.565	162928
616.631	194437
616.697	163968
616.763	172796
616.829	239725
616.895	402676
616.961	369159
617.026	173704
617.092	133746
617.158	128093
617.224	127061
617.289	117553
617.355	111918
617.421	110298
617.487	110809
617.552	105076
617.618	104971
617.684	104698
617.749	107831
617.815	101997
617.880	98810
617.946	98696
618.012	102508
618.077	103131
618.143	99314
618.208	100271
618.274	106104
618.339	109095
618.405	89299
618.470	90330
618.536	89286
618.601	89019
618.667	83889
618.732	77632
618.798	78121
618.863	76312
618.928	76882
618.994	79691
619.059	79889
619.124	86648
619.190	80963
619.255	76295
619.320	76996
619.386	76662
619.451	74805
619.516	74146
619.581	75370
619.647	77528
619.712	77387
619.777	73138
619.842	75284
619.907	76441
619.972	76585
620.038	76267
620.103	74341
620.168	74891
620.233	76086
620.298	76056
620.363	77176
620.428	78335
620.493	79853
620.558	80685
620.623	81888
620.688	81729
620.753	81038
620.818	82104
620.883	83456
620.948	83311
621.013	82118
621.078	80074
621.143	81809
621.207	83901
621.272	83386
621.337	80909
621.402	81007
621.467	81800
621.532	82388
621.596	80079
621.661	78281
621.726	76876
621.791	76983
621.855	77864
621.920	79515
621.985	78122
622.049	79735
622.114	80101
622.179	80221
622.243	82445
622.308	85089
622.373	88972
622.437	86708
622.502	81085
622.566	81134
622.631	81696
622.695	82836
622.760	82607
622.824	81366
622.889	82333
622.953	85397
623.018	97485
623.082	96965
623.147	87233
623.211	84850
623.276	85134
623.340	80691
623.404	77526
623.469	77897
623.533	79031
623.597	77271
623.662	77063
623.726	72062
623.790	68170
623.854	65581
623.919	68189
623.983	68880
624.047	69599
624.111	70067
624.176	70836
624.240	72118
624.304	76202
624.368	71136
624.432	71348
624.496	74080
624.560	78005
624.625	79985
624.689	76612
624.753	80378
624.817	73869
624.881	74403
624.945	67771
625.009	65511
625.073	67531
625.137	70819
625.201	76300
625.265	76518
625.329	69218
625.393	70818
625.456	70845
625.520	73376
625.584	73521
625.648	77547
625.712	84378
625.776	100638
625.839	100979
625.903	69594
625.967	58960
626.031	70003
626.095	84941
626.158	68283
626.222	52921
626.286	50569
626.349	47954
626.413	46116
626.477	47553
626.540	45858
626.604	45758
626.668	45093
626.731	44416
626.795	44408
626.858	44840
626.922	43858
626.986	43524
627.049	42316
627.113	44731
627.176	43931
627.240	43105
627.303	42018
627.366	42237
627.430	44256
627.493	42646
627.557	41201
627.620	43507
627.684	43998
627.747	43860
627.810	39573
627.874	37133
627.937	34862
628.000	38967
628.064	37414
628.127	32127
628.190	33456
628.253	31658
628.317	30130
628.380	29299
628.443	29242
628.506	28924
628.569	27683
628.632	27122
628.696	26887
628.759	25763
628.822	25607
628.885	24313
628.948	24172
629.011	24574
629.074	25048
629.137	23660
629.200	23738
629.263	24674
629.326	22408
629.389	23349
629.452	22605
629.515	22800
629.578	21953
629.641	23273
629.704	22235
629.767	22766
629.830	21900
629.892	21331
629.955	21168
630.018	23443
630.081	22861
630.144	25473
630.207	21705
630.269	22219
630.332	20301
630.395	20802
630.458	19997
630.520	19219
630.583	21248
630.646	19923
630.708	20340
630.771	19546
630.834	21635
630.896	19805
630.959	20586
631.021	19811
631.084	19979
631.146	20556
631.209	21557
631.272	19595
631.334	20668
631.397	19176
631.459	20414
631.522	21152
631.584	21264
631.646	23175
631.709	24012
631.771	25512
631.834	23346
631.896	21443
631.958	19812
632.021	20857
632.083	19313
632.145	19807
632.208	19366
632.270	20642
632.332	17972
632.395	18659
632.457	18968
632.519	18313
632.581	18590
632.643	17619
632.706	19232
632.768	17814
632.830	19543
632.892	19073
632.954	18922
633.016	20142
633.078	18512
633.141	18657
633.203	18681
633.265	19186
633.327	18724
633.389	18030
633.451	20090
633.513	21136
633.575	20669
633.637	20684
633.698	19535
633.760	19330
633.822	20218
633.884	21192
633.946	20479
634.008	19700
634.070	21469
634.132	22123
634.193	23170
634.255	25584
634.317	25254
634.379	25242
634.441	22785
634.502	21302
634.564	19107
634.626	18711
634.687	17977
634.749	18432
634.811	17602
634.873	16207
634.934	17947
634.996	18407
635.057	16965
635.119	17262
635.181	17904
635.242	18762
635.304	15777
635.365	20147
635.427	17233
635.488	18077
635.550	16482
635.611	17680
635.673	16051
635.734	19871
635.796	18429
635.857	22089
635.918	20299
635.980	23669
636.041	23023
636.102	25512
636.164	25659
636.225	26105
636.286	20409
636.348	20538
636.409	18014
636.470	16968
636.531	18153
636.593	16076
636.654	17619
636.715	15834
636.776	15785
636.838	16143
636.899	16361
636.960	15498
637.021	14658
637.082	14564
637.143	15047
637.204	14477
637.265	13922
637.326	15171
637.387	14424
637.448	14206
637.509	15446
637.570	13961
637.631	15469
637.692	12908
637.753	12635
637.814	14076
637.875	13359
637.936	14889
637.997	13553
638.058	12944
638.119	14083
638.179	13809
638.240	12865
638.301	13052
638.362	13029
638.423	13236
638.483	14645
638.544	11378
638.605	12640
638.666	12765
638.726	13945
638.787	13059
638.848	11901
638.908	11682
638.969	12635
639.030	12303
639.090	11288
639.151	12608
639.211	13693
639.272	15553
639.332	20263
639.393	15436
639.453	12756
639.514	12875
639.574	12343
639.635	12066
639.695	12594
639.756	10756
639.816	12525
639.877	13178
639.937	18310
639.997	20005
640.058	12633
640.118	10366
640.178	12306
640.239	10974
640.299	10734
640.359	10639
640.420	11630
640.480	12300
640.540	14760
640.600	13852
640.661	13395
640.721	12544
640.781	15219
640.841	12185
640.901	12185
640.961	12265
641.021	12755
641.082	13862
641.142	15783
641.202	13471
641.262	9944
641.322	11813
641.382	9207
641.442	10593
641.502	9889
641.562	10862
641.622	10666
641.682	11614
641.742	11976
641.802	11951
641.861	11481
641.921	10571
641.981	11835
642.041	12747
642.101	12645
642.161	9839
642.221	10165
642.280	10025
642.340	10058
642.400	8862
642.460	10598
642.519	10739
642.579	10708
642.639	10201
642.698	7430
642.758	12584
642.818	10390
642.877	9426
642.937	11307
642.997	12038
643.056	15228
643.116	10404
643.175	12495
643.235	11004
643.294	11230
643.354	11995
643.414	13112
643.473	15759
643.532	19162
643.592	25641
643.651	39891
643.711	72084
643.770	139927
643.830	334502
643.889	695868
643.948	165128
644.008	30333
644.067	18801
644.126	13995
644.186	13267
644.245	12405
644.304	10027
644.363	12118
644.423	9370
644.482	10155
644.541	11679
644.600	9524
644.659	14151
644.719	16312
644.778	25296
644.837	42075
644.896	87220
644.955	196806
645.014	64113
645.073	17150
645.132	13312
645.191	11946
645.250	10958
645.309	12385
645.368	11972
645.427	15735
645.486	24833
645.545	41796
645.604	14133
645.663	10621
645.722	10124
645.781	12250
645.840	12964
645.898	16884
645.957	24211
646.016	36639
646.075	66855
646.134	130702
646.192	349625
646.251	508394
646.310	75191
646.369	21946
646.427	17915
646.486	13339
646.545	12075
646.603	10119
646.662	9649
646.721	9567
646.779	9487
646.838	8916
646.896	13255
646.955	17148
647.014	26377
647.072	48049
647.131	127508
647.189	61032
647.248	11522
647.306	9731
647.365	9390
647.423	6855
647.481	8745
647.540	6733
647.598	7674
647.657	7125
647.715	7894
647.773	6222
647.832	7056
647.890	5540
647.948	6693
648.007	7032
648.065	5409
648.123	6529
648.181	8189
648.240	6805
648.298	5592
648.356	6190
648.414	6091
648.472	6379
648.531	6058
648.589	6263
648.647	5805
648.705	5723
648.763	6907
648.821	6413
648.879	6696
648.937	8346
648.995	8990
649.053	11314
649.111	18292
649.169	30240
649.227	53980
649.285	113188
649.343	324134
649.401	152018
649.459	29502
649.516	18114
649.574	9614
649.632	12203
649.690	12261
649.748	13259
649.806	17521
649.863	33018
649.921	88061
649.979	57313
650.037	9501
650.094	5486
650.152	5838
650.210	5241
650.268	5630
650.325	5598
650.383	5839
650.440	3652
650.498	5283
650.556	5264
650.613	3861
650.671	5096
650.728	4293
650.786	4818
650.843	6111
650.901	3681
650.958	3846
651.016	4249
651.073	5003
651.131	3217
651.188	2899
651.246	4500
651.303	3082
651.360	4673
651.418	3916
651.475	3980
651.532	3089
651.590	4490
651.647	2847
651.704	2852
651.762	3098
651.819	3941
651.876	3558
651.933	3847
651.990	4108
652.048	2803
652.105	2896
652.162	4826
652.219	2705
652.276	3524
652.333	3723
652.390	2215
652.448	3721
652.505	3959
652.562	3438
652.619	3672
652.676	3175
652.733	4686
652.790	3201
652.847	2518
652.904	3188
652.961	2251
653.017	2189
653.074	3874
653.131	3855
653.188	3009
653.245	3488
653.302	3223
653.359	2432
653.415	2810
653.472	2433
653.529	3840
653.586	1982
653.642	1974
653.699	3212
653.756	2246
653.813	2434
653.869	3795
653.926	2481
653.983	2472
654.039	4228
654.096	1887
654.152	3663
654.209	1670
654.266	3118
654.322	2452
654.379	3409
654.435	3412
654.492	2401
654.548	4620
654.605	5706
654.661	4706
654.717	2885
654.774	3134
654.830	2837
654.887	2559
654.943	2045
655.000	3758
655.056	3263
655.112	3153
655.168	1864
655.225	2976
655.281	3458
655.337	3778
655.394	4566
655.450	4622
655.506	3834
655.562	5221
655.618	5538
655.675	1836
655.731	2592
655.787	1483
655.843	3823
655.899	1619
655.955	2806
656.011	2018
656.067	1394
656.123	3532
656.179	2654
656.235	3653
656.291	1195
656.347	4080
656.403	2439
656.459	3085
656.515	3226
656.571	2320
656.627	2567
656.683	3174
656.739	2387
656.795	3285
656.850	2951
656.906	3546
656.962	3684
657.018	2445
657.074	3482
657.129	3977
657.185	5796
657.241	13301
657.297	7030
657.352	3652
657.408	1941
657.464	3443
657.519	2722
657.575	1754
657.630	1975
657.686	1640
657.742	1555
657.797	2413
657.853	2175
657.908	2238
657.964	1342
658.019	3070
658.075	3020
658.130	2355
658.186	1354
658.241	2704
658.297	1687
658.352	1877
658.407	2128
658.463	2163
658.518	2174
658.573	2664
658.629	1183
658.684	1679
658.739	3053
658.795	1373
658.850	2899
658.905	1488
658.960	1660
659.016	1702
659.071	2708
659.126	2343
659.181	2330
659.236	4379
659.291	5931
659.346	2965
659.401	2407
659.457	2980
659.512	1911
659.567	2755
659.622	1711
659.677	2380
659.732	1386
659.787	1876
659.842	2203
659.897	2725
659.952	2896
660.007	1796
660.061	3201
660.116	2249
660.171	832
660.226	2109
660.281	2575
660.336	1825
660.391	1979
660.445	1901
660.500	1267
660.555	3039
660.610	1151
660.664	1971
660.719	1817
660.774	1956
660.828	1828
660.883	2371
660.938	2568
660.992	845
661.047	2062
661.101	2159
661.156	1355
661.211	1469
661.265	1553
661.320	1825
661.374	1525
661.429	1652
661.483	2163
661.538	1329
661.592	2371
661.647	2290
661.701	2161
661.755	2314
661.810	1907
661.864	1308
661.919	1559
661.973	1853
662.027	2254
662.081	1518
662.136	1865
662.190	1419
662.244	2172
662.299	1795
662.353	791
662.407	1367
662.461	1683
662.515	1746
662.569	1885
662.624	2139
662.678	1479
662.732	1986
662.786	1954
662.840	2111
662.894	2747
662.948	2125
663.002	2124
663.056	1449
663.110	1174
663.164	1298
663.218	1547
663.272	2611
663.326	2119
663.380	2055
663.434	2299
663.488	1806
663.542	2397
663.595	1799
663.649	1605
663.703	1757
663.757	2327
663.811	850
663.864	1036
663.918	2629
663.972	1332
664.026	1610
664.079	1432
664.133	1851
664.187	1610
664.240	810
664.294	1552
664.348	1568
664.401	2355
664.455	2007
664.508	1670
664.562	2064
664.615	2363
664.669	1777
664.722	1905
664.776	1330
664.829	1580
664.883	2396
664.936	1557
664.990	1799
665.043	2008
665.097	1710
665.150	2631
665.203	1472
665.257	2502
665.310	1791
665.363	1923
665.417	1750
665.470	1828
665.523	1966
665.576	1114
665.630	1705
665.683	2353
665.736	1909
665.789	1581
665.842	1201
665.895	2182
665.949	2377
666.002	1974
666.055	1947
666.108	2580
666.161	2479
666.214	2383
666.267	2395
666.320	2049
666.373	2184
666.426	1767
666.479	1710
666.532	1664
666.585	2326
666.638	2460
666.691	677
666.744	2687
666.796	2549
666.849	2382
666.902	2433
666.955	1727
667.008	1544
667.060	1120
667.113	2408
667.166	1900
667.219	1597
667.271	1404
667.324	1759
667.377	2285
667.430	2455
667.482	1943
667.535	1845
667.587	1855
667.640	2205
667.693	3015
667.745	4607
667.798	4483
667.850	2069
667.903	2248
667.955	1879
668.008	1712
668.060	2814
668.113	1669
668.165	2442
668.218	1666
668.270	2697
668.322	1381
668.375	1279
668.427	2145
668.479	1497
668.532	2005
668.584	2243
668.636	1887
668.689	2794
668.741	1645
668.793	2444
668.845	2045
668.898	2456
668.950	1753
669.002	2460
669.054	2406
669.106	1706
669.158	2724
669.211	2122
669.263	899
669.315	2654
669.367	2233
669.419	2496
669.471	2638
669.523	3285
669.575	3287
669.627	2590
669.679	2487
669.731	3352
669.783	2643
669.835	3419
669.886	3029
669.938	2703
669.990	2878
670.042	3007
670.094	3328
670.146	3919
670.197	4513
670.249	5911
670.301	8217
670.353	10994
670.404	16980
670.456	25004
670.508	38612
670.560	66873
670.611	116357
670.663	199426
670.715	453164
670.766	685370
670.818	233905
670.869	43633
670.921	20566
670.972	14578
671.024	9952
671.075	7696
671.127	6776
671.178	5012
671.230	5098
671.281	5077
671.333	4747
671.384	3819
671.436	4971
671.487	6241
671.538	7000
671.590	11193
671.641	17929
671.692	30997
671.744	60294
671.795	35350
671.846	10370
671.897	5391
671.949	4090
672.000	3285
672.051	2271
672.102	2723
672.153	2140
672.204	2654
672.256	1769
672.307	2510
672.358	1799
672.409	1607
672.460	1520
672.511	1705
672.562	1495
672.613	1242
672.664	1980
672.715	1542
672.766	1603
672.817	1909
672.868	1164
672.919	1345
672.970	1652
673.021	1391
673.071	1561
673.122	1383
673.173	1051
673.224	1629
673.275	1312
673.326	1481
673.376	1325
673.427	472
673.478	1176
673.528	2280
673.579	1013
673.630	1068
673.680	1785
673.731	1972
673.782	340
673.832	1469
673.883	1760
673.934	1053
673.984	1235
674.035	1318
674.085	2008
674.136	1381
674.186	1315
674.237	2055
674.287	2731
674.338	1558
674.388	886
674.438	1534
674.489	1647
674.539	1874
674.589	1696
674.640	1637
674.690	1932
674.740	1826
674.791	1472
674.841	1497
674.891	1171
674.942	1016
674.992	635
675.042	655
675.092	627
675.142	1174
675.193	1060
675.243	1278
675.293	790
675.343	739
675.393	1379
675.443	1249
675.493	1194
675.543	1079
675.593	862
675.643	1472
675.693	1139
675.743	964
675.793	771
675.843	894
675.893	248
675.943	743
675.993	994
676.043	580
676.093	1413
676.142	10
676.192	914
676.242	583
676.292	986
676.341	303
676.391	797
676.441	491
676.491	1406
676.540	573
676.590	870
676.640	1342
676.689	984
676.739	-494
676.789	755
676.838	708
676.888	964
676.937	87
676.987	75
677.037	1170
677.086	-391
677.136	1356
677.185	507
677.235	608
677.284	561
677.333	650
677.383	539
677.432	595
677.482	307
677.531	-109
677.580	304
677.630	520
677.679	100
677.728	1014
677.778	660
677.827	214
677.876	792
677.925	384
677.975	1401
678.024	174
678.073	262
678.122	508
678.171	561
678.220	767
678.269	1264
678.319	877
678.368	1234
678.417	111
678.466	1782
678.515	890
678.564	166
678.613	728
678.662	98
678.711	1281
678.760	708
678.809	780
678.857	59
678.906	770
678.955	1545
679.004	1042
679.053	588
679.102	350
679.151	431
679.199	387
679.248	480
679.297	393
679.346	-79
679.394	802
679.443	114
679.492	111
679.540	190
679.589	956
679.638	-324
679.686	898
679.735	345
679.784	689
679.832	599
679.881	560
679.929	413
679.978	26
680.026	662
680.075	727
680.123	313
680.172	221
680.220	222
680.268	349
680.317	-79
680.365	450
680.414	-227
680.462	-444
680.510	402
680.559	38
680.607	-83
680.655	570
680.703	942
680.752	-180
680.800	-98
680.848	-71
680.896	314
680.945	499
680.993	-211
681.041	323
681.089	-611
681.137	98
681.185	-52
681.233	887
681.258	495
681.281	103
681.329	-64
681.377	0
681.380	42
681.425	417
681.473	116
681.502	522
681.521	757
681.569	876
681.617	459
681.624	443
681.665	193
681.713	-527
681.745	-90
681.761	89
681.809	-120
681.857	1061
681.867	938
681.904	429
681.952	1432
681.989	976
682.000	807
682.048	197
682.096	315
682.111	500
682.143	822
682.191	951
682.233	1668
682.239	1760
682.286	1569
682.334	1253
682.354	1245
682.382	1163
682.430	1226
682.476	703
682.477	675
682.525	1419
682.572	1139
682.598	1141
682.620	1112
682.667	813
682.715	896
682.720	973
682.763	1529
682.810	1628
682.841	1814
682.857	1855
682.905	1676
682.952	1635
682.963	1652
683.000	1625
683.047	992
683.085	1854
683.095	2082
683.142	1569
683.190	1718
683.206	1711
683.237	1611
683.284	2870
683.328	2004
683.332	1922
683.379	2144
683.426	2022
683.449	2100
683.473	2127
683.521	2031
683.568	2677
683.571	2658
683.615	2221
683.662	2611
683.693	2592
683.709	2539
683.757	2624
683.804	2581
683.814	2518
683.851	2292
683.898	2890
683.936	2512
683.945	2404
683.992	3098
684.039	2989
684.057	2877
684.086	2679
684.133	3133
684.179	3339
684.180	3326
684.227	3279
684.274	3480
684.300	3546
684.321	3566
684.368	3354
684.415	3053
684.422	3071
684.462	3097
684.509	3187
684.543	2833
684.556	2729
684.603	3209
684.649	2337
684.665	2658
684.696	3208
684.743	3183
684.786	3101
684.790	3096
684.837	3372
684.883	3214
684.908	3598
684.930	3859
684.977	4037
685.023	4246
685.029	4144
685.070	3286
685.117	2991
685.150	3974
685.164	4403
685.210	4150
685.257	4281
685.272	4453
685.303	4679
685.350	4104
685.393	4075
685.396	4086
685.443	4018
685.490	4773
685.514	4893
685.536	4746
685.583	4946
685.629	4437
685.636	4404
685.675	4277
685.722	4634
685.757	4277
685.768	4169
685.815	4822
685.861	5039
685.878	4750
685.908	4221
685.954	4564
686.000	4465
686.000	4462
686.047	4867
686.093	5356
686.121	5567
686.139	5513
686.185	5167
686.232	5180
686.242	5114
686.278	4899
686.324	4494
686.363	4671
686.370	4706
686.416	4057
686.463	4832
686.484	4493
686.509	4225
686.555	4287
686.601	4978
686.606	4937
686.647	4375
686.693	4983
686.727	4921
686.739	4927
686.785	4437
686.831	4923
686.848	4866
686.877	4728
686.923	5010
686.969	5269
686.969	5270
687.015	4724
687.061	5215
687.090	5110
687.107	5006
687.153	5479
687.199	5209
687.211	5165
687.245	5066
687.291	5414
687.332	5340
687.336	5341
687.382	5872
687.428	5356
687.453	5545
687.474	5578
687.520	6021
687.565	5488
687.574	5487
687.611	5777
687.657	5603
687.695	5991
687.702	6079
687.748	7010
687.794	7176
687.816	7126
687.839	6678
687.885	6308
687.931	5366
687.937	5352
687.976	5683
688.022	5514
688.058	5713
688.067	5796
688.113	5479
688.158	6232
688.179	6237
688.204	6240
688.249	6155
688.295	6614
688.300	6642
688.340	6727
688.386	6403
688.421	6189
688.431	6140
688.477	6420
688.522	6400
688.542	6279
688.567	6262
688.613	6950
688.658	6762
688.663	6788
688.703	6709
688.749	6385
688.784	6560
688.794	6679
688.839	6623
688.884	6723
688.905	6813
688.930	6810
688.975	6358
689.020	6198
689.026	6196
689.065	6458
689.110	6576
689.146	6663
689.155	6690
689.201	6167
689.246	6968
689.267	6899
689.291	6692
689.336	6879
689.381	6328
689.388	6351
689.426	6571
689.471	6060
689.509	6087
689.516	6136
689.561	6688
689.606	6587
689.630	6524
689.651	6435
689.696	6281
689.741	6568
689.750	6551
689.785	6815
689.830	7127
689.871	7001
689.875	6937
689.920	6894
689.965	6524
689.992	6408
690.010	6485
690.054	6384
690.099	6350
690.112	6380
690.144	6604
690.189	6672
690.233	7070
690.233	7082
690.278	6961
690.323	6661
690.354	6718
690.367	6860
690.412	7914
690.457	7319
690.474	7482
690.501	7523
690.546	7465
690.590	7271
690.595	7252
690.635	7261
690.680	7179
690.716	7031
690.724	7035
690.769	7329
690.813	7224
690.836	7209
690.857	7311
690.902	7620
690.946	7937
690.957	7957
690.991	8015
691.035	8228
691.077	8469
691.080	8491
691.124	8563
691.168	8414
691.198	8599
691.213	8681
691.257	8460
691.301	8297
691.318	8328
691.346	8314
691.390	8009
691.434	7389
691.439	7387
691.478	7815
691.522	8065
691.559	8294
691.567	8383
691.611	8315
691.655	8832
691.680	9040
691.699	9017
691.743	8631
691.787	8556
691.800	8391
691.831	8211
691.875	8221
691.919	8476
691.921	8441
691.964	7867
692.008	8400
692.041	7990
692.052	7957
692.096	8590
692.139	8785
692.162	8942
692.183	8858
692.227	8815
692.271	8461
692.282	8391
692.315	8616
692.359	8758
692.402	9208
692.403	9227
692.447	8954
692.490	8717
692.523	8705
692.534	8829
692.578	9029
692.622	9107
692.643	9243
692.666	9075
692.709	8708
692.753	8119
692.763	7979
692.797	8210
692.840	9053
692.884	9115
692.884	9133
692.928	9074
692.971	9218
693.004	9170
693.015	9139
693.059	8881
693.102	8501
693.124	8513
693.146	8712
693.189	8526
693.233	8809
693.245	8820
693.276	9008
693.320	9544
693.363	9445
693.365	9438
693.407	9481
693.450	9238
693.485	8980
693.493	8996
693.537	9112
693.580	9013
693.605	9147
693.624	9320
693.667	9536
693.710	9593
693.725	9656
693.753	10318
693.797	11066
693.840	12408
693.845	12458
693.883	11821
693.926	11101
693.966	10800
693.970	10788
694.013	10209
694.056	9792
694.086	9415
694.099	9473
694.142	9605
694.185	9572
694.206	9507
694.229	9567
694.272	9855
694.315	10250
694.326	10209
694.358	10479
694.401	11307
694.444	11729
694.446	11740
694.487	11820
694.530	11635
694.566	11347
694.573	11191
694.616	10188
694.659	9254
694.686	8523
694.702	8529
694.745	8776
694.787	8707
694.806	8713
694.830	8933
694.873	9110
694.916	9402
694.926	9475
694.959	9656
695.002	9925
695.044	9897
695.046	9877
695.087	10101
695.130	10398
695.166	10534
695.172	10514
695.215	10051
695.258	9671
695.286	9501
695.301	9569
695.343	9468
695.386	9684
695.406	9577
695.428	9662
695.471	9886
695.514	10227
695.526	10291
695.556	10615
695.599	11084
695.641	11496
695.646	11507
695.684	11117
695.726	10667
695.766	10213
695.769	10226
695.811	9988
695.854	9838
695.886	9739
695.896	9853
695.938	10064
695.981	10384
696.005	10516
696.023	10651
696.065	10866
696.108	11167
696.125	11275
696.150	11421
696.192	11510
696.235	11739
696.245	11713
696.277	11666
696.319	11663
696.361	11781
696.365	11744
696.404	11516
696.446	11270
696.485	11150
696.488	11211
696.530	11521
696.572	11765
696.604	12051
696.614	12067
696.656	11721
696.698	11659
696.724	11485
696.740	11559
696.783	11668
696.825	12011
696.844	12010
696.867	11963
696.909	11769
696.951	11822
696.964	11771
696.992	11797
697.034	11770
697.076	11815
697.083	11778
697.118	11925
697.160	12078
697.202	12281
697.203	12252
697.244	12134
697.286	11944
697.323	11830
697.327	11880
697.369	11945
697.411	12105
697.442	12094
697.453	12159
697.494	12405
697.536	12603
697.562	12683
697.578	12797
697.620	13088
697.661	13250
697.682	13312
697.703	13641
697.744	14263
697.786	14960
697.801	15107
697.828	15085
697.869	15039
697.911	15049
697.921	15011
697.952	14633
697.994	14045
698.035	13431
698.040	13318
698.077	13034
698.118	12780
698.160	12377
698.160	12339
698.201	12489
698.243	12545
698.279	12643
698.284	12737
698.325	13259
698.367	13757
698.399	14076
698.408	14045
698.449	13794
698.491	13479
698.518	13236
698.532	13319
698.573	13465
698.614	13611
698.638	13660
698.656	13855
698.697	14204
698.738	14577
698.757	14713
698.779	14619
698.820	14339
698.862	14073
698.877	13935
698.903	13991
698.944	14017
698.985	14051
698.996	14022
699.026	14157
699.067	14293
699.116	14417
699.235	13617
699.354	14163
699.474	13067
699.593	13744
699.713	13838
699.832	13838
699.951	15332
700.070	13959
700.190	13167
700.309	13665
700.428	12922
700.547	13590
700.667	12443
700.786	13973
700.905	12738
701.024	12984
701.143	12644
701.262	12572
701.381	13157
701.500	13559
701.619	14819
701.738	13327
701.857	12658
701.976	11430
702.095	12913
702.214	13246
702.333	14334
702.452	14142
702.571	13505
702.690	12728
702.809	12016
702.928	11420
703.047	12096
703.165	11264
703.284	10661
703.403	12142
703.522	11989
703.640	11934
703.759	13852
703.878	16091
703.997	11982
704.115	10318
704.234	11836
704.353	11067
704.471	11908
704.590	9544
704.708	10721
704.827	10565
704.946	10955
705.064	11028
705.183	10856
705.301	11339
705.420	15335
705.538	12328
705.656	11711
705.775	11081
705.893	12492
706.012	13735
706.130	11846
706.249	12704
706.367	11531
706.485	12457
706.604	12623
706.722	12205
706.840	15932
706.958	15798
707.077	12829
707.195	12433
707.313	11391
707.431	10896
707.549	10810
707.668	11014
707.786	11900
707.904	10657
708.022	10990
708.140	10723
708.258	10293
708.376	10651
708.494	11297
708.612	12787
708.730	13488
708.848	13711
708.966	14497
709.084	13166
709.202	12020
709.320	11855
709.438	12050
709.556	11460
709.674	10921
709.791	12460
709.909	10914
710.027	11664
710.145	11034
710.263	11442
710.380	10633
710.498	11196
710.616	11279
710.733	11636
710.851	11705
710.969	11230
711.086	10719
711.204	11715
711.322	10796
711.439	10725
711.557	10741
711.674	11343
711.792	9948
711.909	10981
712.027	10369
712.144	9391
712.262	9757
712.379	10719
712.497	13489
712.614	13746
712.732	12845
712.849	11645
712.966	13654
713.084	17409
713.201	13492
713.318	12210
713.436	12222
713.553	13222
713.670	13084
713.787	13573
713.905	13811
714.022	12645
714.139	13057
714.256	17846
714.373	21476
714.490	39093
714.608	101179
714.725	452576
714.842	503013
714.959	36773
715.076	16649
715.193	14332
715.310	13081
715.427	11657
715.544	11103
715.661	11417
715.778	11224
715.895	11291
716.011	11922
716.128	11609
716.245	11135
716.362	13450
716.479	14296
716.596	10386
716.713	10309
716.829	10412
716.946	10262
717.063	9613
717.180	10090
717.296	9679
717.413	10053
717.530	10073
717.646	9468
717.763	8888
717.880	8863
717.996	9225
718.113	9782
718.229	9603
718.346	9050
718.462	8993
718.579	12482
718.695	23976
718.812	15613
718.928	12383
719.045	8958
719.161	9698
719.277	8162
719.394	8719
719.510	9175
719.626	9541
719.743	12111
719.859	16956
719.975	32639
720.092	128366
720.208	313598
720.324	38766
720.440	11951
720.557	12496
720.673	18619
720.789	19445
720.905	29850
721.021	13042
721.137	8528
721.253	8523
721.369	8369
721.486	9216
721.602	11403
721.718	7724
721.834	7454
721.950	8160
722.066	7772
722.181	7980
722.297	8943
722.413	8280
722.529	7271
722.645	8152
722.761	6173
722.877	7416
722.993	7652
723.108	9377
723.224	8314
723.340	7243
723.456	6477
723.571	7546
723.687	7378
723.803	6966
723.918	7158
724.034	7115
724.150	6937
724.265	7818
724.381	12185
724.497	15064
724.612	6689
724.728	6847
724.843	6712
724.959	7619
725.074	11938
725.190	14236
725.305	7974
725.421	6498
725.536	5747
725.651	5479
725.767	5805
725.882	6206
725.997	5549
726.113	6905
726.228	5822
726.343	5020
726.459	5171
726.574	6068
726.689	5906
726.804	5447
726.920	6335
727.035	6792
727.150	6436
727.265	5923
727.380	6171
727.495	6215
727.610	5640
727.725	5807
727.841	5762
727.956	6793
728.071	6516
728.186	6646
728.301	4868
728.416	7420
728.531	5369
728.645	6003
728.760	5929
728.875	7500
728.990	6793
729.105	6709
729.220	6743
729.335	7517
729.449	6498
729.564	5491
729.679	5020
729.794	5553
729.908	5800
730.023	6278
730.138	4910
730.253	5337
730.367	5120
730.482	5532
730.596	5896
730.711	6283
730.826	6786
730.940	6573
731.055	6694
731.169	6872
731.284	5884
731.398	5442
731.513	6975
731.627	6671
731.742	7384
731.856	8781
731.970	8082
732.085	9539
732.199	12248
732.313	20342
732.428	52844
732.542	168861
732.656	104186
732.771	17362
732.885	10175
732.999	9783
733.113	9044
733.227	8502
733.342	7797
733.456	7524
733.570	8092
733.684	6883
733.798	7566
733.912	8043
734.026	7226
734.140	7828
734.254	7775
734.368	9287
734.482	11304
734.596	6826
734.710	7314
734.824	7375
734.938	7190
735.052	7570
735.166	7777
735.280	8015
735.393	7119
735.507	7642
735.621	8323
735.735	10360
735.849	7935
735.962	6613
736.076	7637
736.190	7619
736.303	7441
736.417	9632
736.531	6456
736.644	6971
736.758	6061
736.872	6778
736.985	5851
737.099	6912
737.212	6124
737.326	6000
737.439	6895
737.553	6579
737.666	6423
737.780	6038
737.893	6474
738.007	5760
738.120	6075
738.233	5876
738.347	5638
738.460	5597
738.573	7616
738.687	6611
738.800	7439
738.913	8396
739.026	6970
739.140	6277
739.253	5276
739.366	5907
739.479	6099
739.592	6016
739.705	4723
739.818	7472
739.932	6222
740.045	5894
740.158	5890
740.271	5686
740.384	5756
740.497	5256
740.610	7236
740.723	6553
740.836	6365
740.949	6961
741.062	8541
741.174	6922
741.287	5709
741.400	4871
741.513	5854
741.626	7253
741.739	5809
741.851	5974
741.964	5259
742.077	5607
742.189	5715
742.302	7030
742.415	6791
742.527	5586
742.640	4835
742.753	5351
742.865	4693
742.978	5145
743.090	5461
743.203	5280
743.316	4962
743.428	4486
743.541	4621
743.653	4056
743.766	4723
743.878	4575
743.990	4835
744.103	5965
744.215	5517
744.327	5091
744.440	6625
744.552	10429
744.664	5658
744.777	4838
744.889	4351
745.001	4818
745.113	4866
745.226	3843
745.338	5334
745.450	5367
745.562	4859
745.674	4510
745.786	4786
745.898	4636
746.010	4498
746.122	4957
746.234	5484
746.347	4641
746.459	3892
746.570	3725
746.682	4641
746.794	4487
746.906	3159
747.018	4055
747.130	3316
747.242	4428
747.354	4577
747.466	4663
747.577	4613
747.689	4555
747.801	4059
747.913	4166
748.024	3357
748.136	4257
748.248	3678
748.359	4300
748.471	3783
748.583	3670
748.694	4297
748.806	4556
748.918	4642
749.029	4486
749.141	4419
749.252	5284
749.364	5023
749.475	11027
749.587	7332
749.698	4032
749.809	3715
749.921	4358
750.032	3620
750.144	2721
750.255	4273
750.366	3896
750.478	3635
750.589	4085
750.700	3841
750.811	4854
750.923	5311
751.034	11389
751.145	12460
751.256	4212
751.367	3753
751.479	4200
751.590	3128
751.701	3461
751.812	3136
751.923	4281
752.034	3419
752.145	3320
752.256	3085
752.367	2803
752.478	3541
752.589	4101
752.700	3326
752.811	3137
752.922	3401
753.032	3301
753.143	4932
753.254	3568
753.365	5035
753.476	3803
753.586	2619
753.697	2926
753.808	3681
753.919	3241
754.029	3975
754.140	4313
754.251	2525
754.361	3310
754.472	3601
754.582	4247
754.693	2547
754.804	3291
754.914	2820
755.025	2799
755.135	3234
755.246	3893
755.356	2645
755.466	3432
755.577	3350
755.687	3512
755.798	3245
755.908	2520
756.018	2380
756.129	3500
756.239	3113
756.349	2997
756.460	3248
756.570	3847
756.680	2991
756.790	3316
756.900	3719
757.011	2849
757.121	3126
757.231	3305
757.341	3010
757.451	2975
757.561	3478
757.671	3410
757.781	3327
757.891	3561
758.001	3332
758.111	3706
758.221	3672
758.331	4225
758.441	3855
758.551	5966
758.661	5286
758.771	4170
758.880	3657
758.990	3971
759.100	3115
759.210	3207
759.320	4307
759.429	3693
759.539	3673
759.649	4169
759.758	4660
759.868	5146
759.978	3772
760.087	5281
760.197	4579
760.307	4228
760.416	4173
760.526	3880
760.635	3890
760.745	4464
760.854	3510
760.964	5005
761.073	4282
761.182	4850
761.292	5028
761.401	4082
761.511	3034
761.620	3731
761.729	3175
761.839	3461
761.948	2681
762.057	3695
762.166	3776
762.276	2348
762.385	3510
762.494	3568
762.603	3548
762.712	4187
762.822	3437
762.931	3740
763.040	3049
763.149	3368
763.258	3201
763.367	3780
763.476	2643
763.585	3357
763.694	3516
763.803	3423
763.912	2553
764.021	3956
764.130	3298
764.238	3018
764.347	3535
764.456	2909
764.565	3150
764.674	3182
764.783	3034
764.891	3385
765.000	3995
765.109	4172
765.217	3858
765.326	5443
765.435	5601
765.543	5466
765.652	4980
765.761	5810
765.869	9196
765.978	12107
766.086	21965
766.195	44533
766.303	125047
766.412	404923
766.520	306750
766.629	55678
766.737	19534
766.846	12834
766.954	8489
767.062	8328
767.171	5550
767.279	5252
767.387	4184
767.496	5287
767.604	3786
767.712	3909
767.820	3936
767.928	4893
768.037	3824
768.145	4510
768.253	4893
768.361	3150
768.469	2694
768.577	4552
768.685	3341
768.793	4879
768.901	3914
769.009	5230
769.117	4212
769.225	4755
769.333	6564
769.441	10861
769.549	18365
769.657	43910
769.765	157867
769.873	341254
769.981	87711
770.088	15810
770.196	8874
770.304	7772
770.412	6454
770.519	5417
770.627	4385
770.735	4677
770.842	4175
770.950	4808
771.058	4484
771.165	4708
771.273	4551
771.380	4590
771.488	4814
771.595	4688
771.703	4929
771.810	4608
771.918	5189
772.025	4977
772.133	5261
772.240	4910
772.348	6626
772.455	5130
772.562	5565
772.670	5112
772.777	5995
772.884	5164
772.991	4960
773.099	4718
773.206	4805
773.313	4836
773.420	4990
773.528	4876
773.635	4632
773.742	4531
773.849	4943
773.956	5426
774.063	4498
774.170	4425
774.277	6116
774.384	4167
774.491	4766
774.598	4880
774.705	4438
774.812	5516
774.919	4912
775.026	4233
775.133	4292
775.239	4518
775.346	3993
775.453	4626
775.560	4402
775.667	4275
775.773	3729
775.880	4718
775.987	3397
776.093	5106
776.200	5054
776.307	4909
776.413	3934
776.520	4453
776.627	3661
776.733	4016
776.840	3296
776.946	5601
777.053	3852
777.159	4399
777.266	3165
777.372	5208
777.478	3691
777.585	4421
777.691	4311
777.798	4737
777.904	4733
778.010	5215
778.117	5490
778.223	4299
778.329	3793
778.435	3384
778.542	4379
778.648	3501
778.754	2931
778.860	4038
778.966	3713
779.072	3529
779.178	3906
779.284	2843
779.391	3321
779.497	3486
779.603	4719
779.708	3279
779.815	3869
779.920	7031
780.026	9518
780.132	4595
780.238	3367
780.344	3373
780.450	4210
780.556	3291
780.661	3615
780.767	4313
780.873	2717
780.979	3943
781.085	3338
781.190	3298
781.296	4119
781.402	2995
781.507	3539
781.613	3793
781.719	2387
781.824	3399
781.930	3763
782.035	2837
782.141	3372
782.246	2865
782.352	2788
782.457	2721
782.563	3541
782.668	2980
782.773	2920
782.879	2897
782.984	3747
783.090	4712
783.195	5649
783.300	5079
783.405	3550
783.511	3276
783.616	3331
783.721	2756
783.826	2918
783.932	4125
784.037	2911
784.142	2905
784.247	2137
784.352	3847
784.457	2764
784.562	3915
784.667	3420
784.772	3132
784.877	2211
784.982	3453
785.087	3244
785.192	4069
785.297	2200
785.402	3241
785.507	2619
785.611	2991
785.716	1909
785.821	2086
785.926	2629
786.031	3905
786.135	1979
786.240	2937
786.345	1120
786.450	2362
786.554	2583
786.659	2301
786.763	1908
786.868	2735
786.973	3922
787.077	2167
787.182	2871
787.286	2014
787.391	2873
787.495	2505
787.600	2494
787.704	1964
787.809	2981
787.913	2066
788.017	2505
788.122	3034
788.226	3097
788.330	1817
788.435	2440
788.539	2585
788.643	2962
788.747	1680
788.852	2159
788.956	2646
789.060	2709
789.164	2867
789.268	2034
789.372	2770
789.476	2443
789.580	1419
789.684	1117
789.788	2461
789.892	1633
789.996	2678
790.100	1285
790.204	2329
790.308	2042
790.412	1590
790.516	1482
790.620	1993
790.724	2797
790.828	2317
790.931	1868
791.035	3911
791.139	2333
791.242	2405
791.346	2430
791.450	2033
791.554	2361
791.657	1028
791.761	3367
791.864	3066
791.968	2742
792.072	3351
792.175	1873
792.279	2458
792.382	1717
792.486	2689
792.589	1689
792.693	3706
792.796	1482
792.899	2718
793.003	2074
793.106	1014
793.209	2080
793.313	3355
793.416	1673
793.519	3348
793.623	4340
793.726	6169
793.829	2959
793.932	1677
794.035	1067
794.138	3650
794.242	2617
794.345	2657
794.448	3648
794.551	4519
794.654	6035
794.757	4973
794.860	2328
794.963	3156
795.066	2084
795.169	3738
795.272	1051
795.375	1541
795.477	1529
795.580	2952
795.683	644
795.786	2361
795.889	1112
795.991	2435
796.094	2454
796.197	1318
796.300	2583
796.402	1814
796.505	1019
796.608	1163
796.710	2667
796.813	2077
796.915	2127
797.018	3140
797.120	2368
797.223	1406
797.326	3364
797.428	2031
797.530	1978
797.633	2384
797.735	3106
797.838	2904
797.940	3394
798.042	1373
798.145	1643
798.247	2318
798.349	984
798.452	2219
798.554	1279
798.656	1161
798.758	2988
798.860	2461
798.962	806
799.065	2115
799.167	1145
799.269	3326
799.371	3172
799.473	2444
799.575	1699
799.677	1908
799.779	3325
799.881	3751
799.983	3340
800.085	1331
800.187	1671
800.289	1336
800.390	2028
800.492	2517
800.594	1894
800.696	1639
800.798	1140
800.899	1910
801.001	754
801.103	1173
801.205	1762
801.306	1730
801.408	1033
801.509	2137
801.611	1694
801.713	2162
801.814	388
801.916	1565
802.017	1912
802.119	713
802.220	677
802.322	891
802.423	3383
802.525	1011
802.626	2134
802.727	2027
802.829	1685
802.930	-260
803.031	2854
803.133	1925
803.234	1586
803.335	1464
803.436	1149
803.538	1563
803.639	395
803.740	1324
803.841	1011
803.942	1150
804.043	2120
804.144	1418
804.245	1525
804.346	1298
804.447	1293
804.548	3564
804.649	3963
804.750	1319
804.851	1186
804.952	1457
805.053	1893
805.154	129
805.255	1664
805.355	1611
805.456	1267
805.557	1461
805.658	599
805.758	2092
805.859	1288
805.960	1022
806.061	1091
806.161	1494
806.262	1495
806.362	1560
806.463	1410
806.564	2245
806.664	1748
806.765	1784
806.865	1100
806.966	909
807.066	1393
807.166	2533
807.267	1811
807.367	1250
807.468	2482
807.568	253
807.668	1371
807.769	2328
807.869	949
807.969	1730
808.069	2046
808.170	1874
808.270	1676
808.370	1857
808.470	2540
808.570	1210
808.670	1299
808.770	1737
808.870	1137
808.970	1325
809.070	1210
809.170	1376
809.271	2376
809.370	1224
809.470	1791
809.570	280
809.670	1088
809.770	745
809.870	1014
809.970	1169
810.070	1391
810.169	2122
810.269	403
810.369	2936
810.469	787
810.568	934
810.668	1039
810.768	1575
810.867	1487
810.967	824
811.066	670
811.166	703
811.265	1588
811.365	1058
811.464	1184
811.564	1791
811.663	1112
811.763	605
811.862	1327
811.962	1823
812.061	1271
812.160	1526
812.260	709
812.359	2101
812.458	3183
812.557	8266
812.657	11484
812.756	4946
812.855	2256
812.954	1291
813.053	1852
813.153	946
813.252	344
813.351	1683
813.450	1251
813.549	1103
813.648	1510
813.747	884
813.846	2039
813.945	964
814.044	1749
814.143	858
814.242	1251
814.341	812
814.439	2227
814.538	1573
814.637	1602
814.736	1118
814.835	2600
814.933	1240
815.032	1903
815.131	1314
815.229	2405
815.328	3319
815.427	2562
815.525	3326
815.624	3372
815.722	2510
815.821	3424
815.919	2574
816.018	2991
816.116	4015
816.215	3210
816.313	2654
816.412	3858
816.510	3436
816.609	4796
816.707	5433
816.805	4011
816.904	3108
817.002	3816
817.100	4329
817.198	4878
817.296	4815
817.395	5164
817.493	6181
817.591	5213
817.689	7594
817.787	8706
817.885	13069
817.983	22163
818.081	45037
818.179	109238
818.277	273582
818.375	241665
818.473	60262
818.571	22870
818.669	15587
818.767	13077
818.865	13712
818.963	16538
819.061	23701
819.158	40968
819.256	88793
819.354	205587
819.452	450970
819.549	296906
819.647	79164
819.745	30415
819.842	18883
819.940	12848
820.038	9985
820.135	8512
820.233	8524
820.330	5818
820.428	5114
820.525	5457
820.623	5735
820.720	3907
820.818	4871
820.915	4294
821.012	4305
821.110	2662
821.207	4331
821.304	3433
821.402	3598
821.499	4285
821.596	3383
821.693	3748
821.791	4386
821.888	4478
821.985	7462
822.082	6393
822.179	3989
822.276	2740
822.373	2983
822.470	3190
822.567	2915
822.664	1374
822.761	3572
822.858	2058
822.955	3315
823.052	2216
823.149	2215
823.246	2874
823.343	2526
823.440	2087
823.536	2615
823.633	2085
823.730	2965
823.827	2671
823.923	2252
824.020	3038
824.117	1627
824.213	1782
824.310	3076
824.407	1755
824.503	2791
824.600	2118
824.696	1618
824.793	2748
824.889	1551
824.986	2852
825.082	1594
825.179	2027
825.275	2104
825.371	2018
825.468	2581
825.564	1333
825.660	3184
825.757	1912
825.853	2521
825.949	843
826.045	1020
826.142	2452
826.238	1719
826.334	2211
826.430	1099
826.526	1951
826.622	1352
826.718	2115
826.814	1210
826.910	2826
827.006	1052
827.102	1299
827.198	2395
827.294	1363
827.390	2539
827.486	2227
827.582	583
827.678	604
827.774	1949
827.869	368
827.965	2585
828.061	636
828.157	1731
828.252	1808
828.348	741
828.444	2272
828.539	692
828.635	1277
828.731	2190
828.826	-205
828.922	1666
829.017	1575
829.113	1692
829.208	758
829.304	1644
829.399	2574
829.495	1523
829.590	2411
829.685	1013
829.781	2178
829.876	1851
829.971	1272
830.066	744
830.162	1066
830.257	1518
830.352	1364
830.447	1492
830.543	934
830.638	873
830.733	2301
830.828	1207
830.923	2432
831.018	1768
831.113	1726
831.208	1124
831.303	827
831.398	1516
831.493	717
831.588	2200
831.683	-2
831.778	806
831.873	1188
831.967	2149
832.062	1270
832.157	489
832.252	1328
832.346	1667
832.441	2103
832.536	3123
832.631	6747
832.725	5772
832.820	962
832.914	1864
833.009	1560
833.104	2218
833.198	2428
833.293	915
833.387	1284
833.482	1711
833.576	134
833.670	1536
833.765	649
833.859	2250
833.954	2411
834.048	988
834.142	1489
834.237	478
834.331	1588
834.425	1094
834.519	639
834.613	1590
834.708	695
834.802	1550
834.896	756
834.990	1256
835.084	1257
835.178	993
835.272	1483
835.366	1146
835.460	1835
835.554	1254
835.648	1170
835.742	727
835.836	1029
835.930	345
836.024	1556
836.117	1908
836.211	1276
836.305	1198
836.399	1487
836.493	454
836.586	1488
836.680	453
836.774	634
836.867	1796
836.961	-405
837.055	1106
837.148	560
837.242	940
837.335	2224
837.429	718
837.522	741
837.616	768
837.709	1629
837.803	699
837.896	1214
837.989	1306
838.083	1494
838.176	2112
838.269	856
838.363	2033
838.456	1036
838.549	2859
838.642	2295
838.735	6709
838.829	3459
838.922	409
839.015	959
839.108	131
839.201	853
839.294	1646
839.387	1423
839.480	991
839.573	124
839.666	1791
839.759	1210
839.852	471
839.945	1267
840.038	700
840.131	764
840.223	1491
840.316	1759
840.409	690
840.502	-419
840.594	1116
840.687	129
840.780	632
840.873	325
840.965	1245
841.058	893
841.150	1533
841.243	1321
841.336	772
841.428	131
841.521	-575
841.613	133
841.706	601
841.798	486
841.890	1448
841.983	321
842.075	1273
842.167	356
842.260	1091
842.352	1812
842.444	1091
842.537	1865
842.629	3690
842.721	1198
842.813	946
842.905	56
842.997	1869
843.090	1088
843.182	1243
843.274	1667
843.366	4738
843.458	8207
843.550	6503
843.642	1264
843.734	487
843.826	958
843.918	1240
844.009	2177
844.101	696
844.193	617
844.285	933
844.377	930
844.469	1820
844.560	-1
844.652	1377
844.744	498
844.835	692
844.927	901
845.019	516
845.110	937
845.202	1742
845.293	179
845.385	117
845.476	1167
845.568	1175
845.659	503
845.751	1573
845.842	-118
845.934	1113
846.025	415
846.116	289
846.208	820
846.299	597
846.390	377
846.482	804
846.573	647
846.664	1370
846.755	2297
846.846	2524
846.937	-303
847.029	983
847.120	0
847.211	1080
847.302	1518
847.393	-377
847.484	818
847.575	289
847.666	755
847.757	-7
847.847	636
847.938	1863
848.029	697
848.120	192
848.211	662
848.302	743
848.392	371
848.483	461
848.574	-3
848.664	314
848.755	404
848.846	1566
848.936	304
849.027	1083
849.118	-149
849.208	992
849.299	1232
849.389	3090
849.480	6573
849.570	13678
849.661	25709
849.751	46630
849.841	17380
849.932	2229
850.022	271
850.112	551
850.203	272
850.293	487
850.383	292
850.474	-236
850.564	45
850.654	518
850.744	-68
850.834	764
850.924	341
851.014	1068
851.104	-174
851.194	439
851.284	1438
851.374	1502
851.464	800
851.554	135
851.644	-76
851.734	1820
851.824	1005
851.914	547
852.004	490
852.094	-162
852.183	-64
852.273	1195
852.363	538
852.452	527
852.542	-33
852.632	1235
852.721	369
852.811	524
852.901	462
852.990	811
853.080	875
853.169	1071
853.259	519
853.348	1203
853.438	1810
853.527	3376
853.617	4201
853.706	9623
853.795	16481
853.885	39010
853.974	73093
854.063	129162
854.152	217326
854.242	89102
854.331	13863
854.420	4980
854.509	3355
854.598	3718
854.687	1821
854.777	1042
854.866	844
854.955	1403
855.044	396
855.133	670
855.222	171
855.311	925
855.400	1402
855.488	724
855.577	183
855.666	592
855.755	466
855.844	248
855.933	-21
856.021	154
856.110	-51
856.199	464
856.288	96
856.376	177
856.465	-692
856.554	176
856.642	618
856.731	542
856.819	351
856.908	111
856.996	115
857.085	77
857.173	489
857.262	592
857.350	-457
857.438	68
857.527	541
857.615	291
857.703	1099
857.792	312
857.880	236
857.968	397
858.056	212
858.145	472
858.233	-201
858.321	-615
858.409	509
858.497	-273
858.585	-404
858.673	921
858.761	-772
858.849	-162
858.937	-950
859.025	631
859.113	1005
859.201	-786
859.289	-127
859.377	-354
859.465	-14
859.552	219
859.640	-50
859.728	6
859.816	-390
859.903	181
859.991	-275
860.079	-307
860.166	713
860.254	-70
860.342	-190
860.429	-249
860.517	154
860.604	361
860.692	-90
860.779	-363
860.867	-160
860.954	-42
861.042	208
861.129	649
861.216	29
861.304	132
861.391	469
861.478	-287
861.565	399
861.653	241
861.740	-516
861.827	120
861.914	-604
862.001	50
862.089	-229
862.176	508
862.263	-232
862.350	-389
862.437	-707
862.524	-468
862.611	-500
862.698	304
862.785	-64
862.871	873
862.958	298
863.045	402
863.132	-370
863.219	-523
863.306	-527
863.392	683
863.479	420
863.566	591
863.652	-196
863.739	-230
863.826	602
863.912	583
863.999	-1068
864.086	-457
864.172	-307
864.259	77
864.345	230
864.432	355
864.518	-72
864.604	190
864.691	-349
864.777	644
864.863	-193
864.950	1571
865.036	-128
865.122	2386
865.209	2830
865.295	3070
865.381	2664
865.467	3049
865.553	3980
865.639	5689
865.726	9038
865.812	19764
865.898	37919
865.984	57464
866.070	101789
866.156	123332
866.242	33630
866.328	7029
866.414	3432
866.499	2993
866.585	3231
866.671	2165
866.757	1876
866.843	1675
866.928	1405
867.014	1396
867.100	1786
867.186	1767
867.271	1163
867.357	2914
867.442	1575
867.528	1774
867.614	1274
867.699	1761
867.785	1925
867.870	347
867.956	370
868.041	2590
868.127	1511
868.212	1995
868.297	2089
868.383	2258
868.468	1897
868.553	3414
868.639	4090
868.724	7519
868.809	7349
868.894	1927
868.979	1530
869.065	1565
869.150	688
869.235	1207
869.320	1495
869.405	630
869.490	1045
869.575	1297
869.660	404
869.745	1354
869.830	700
869.915	360
870.000	1707
870.085	1070
870.169	1194
870.254	772
870.339	323
870.424	942
870.509	1113
870.593	1021
870.678	266
870.763	1124
870.847	376
870.932	661
871.016	1234
871.101	428
871.186	1131
871.270	979
871.355	277
871.439	439
871.523	1141
871.608	828
871.692	536
871.777	705
871.861	1378
871.945	-87
872.030	1623
872.114	704
872.198	4
872.282	441
872.367	384
872.451	241
872.535	465
872.619	-30
872.703	-20
872.787	890
872.871	685
872.955	49
873.039	-191
873.123	-92
873.207	932
873.291	201
873.375	571
873.459	784
873.543	822
873.627	513
873.711	633
873.794	536
873.878	383
873.962	597
874.045	100
874.129	1387
874.137	1325
874.213	702
874.245	416
874.296	-49
874.352	-33
874.380	-21
874.460	-128
874.464	-134
874.547	148
874.568	285
874.631	717
874.676	568
874.714	436
874.784	605
874.798	634
874.881	1139
874.892	1060
874.965	576
874.999	565
875.048	515
875.107	478
875.131	453
875.215	28
875.215	28
875.298	361
875.323	574
875.381	1052
875.430	1212
875.465	1327
875.538	713
875.548	618
875.631	262
875.646	188
875.714	-85
875.753	269
875.798	678
875.861	669
875.881	656
875.964	805
875.968	794
876.047	706
876.076	683
876.130	542
876.183	449
876.213	429
876.291	572
876.296	579
876.379	514
876.398	470
876.462	337
876.506	520
876.545	694
876.613	581
876.628	540
876.711	375
876.721	419
876.794	812
876.828	554
876.877	252
876.935	265
876.960	261
877.043	814
877.043	813
877.125	462
877.150	774
877.208	1610
877.258	1307
877.291	1080
877.365	854
877.374	835
877.456	575
877.472	635
877.539	852
877.579	740
877.622	656
877.687	1077
877.704	1170
877.787	394
877.794	438
877.869	1005
877.901	1002
877.952	1010
878.008	706
878.034	473
878.115	484
878.117	492
878.199	77
878.222	432
878.282	1250
878.329	1070
878.364	963
878.437	1005
878.447	992
878.529	75
878.544	165
878.611	487
878.651	167
878.694	113
878.758	556
878.776	604
878.858	933
878.865	918
878.941	515
878.972	372
879.023	360
879.078	605
879.105	688
879.185	486
879.187	488
879.269	621
879.292	700
879.351	556
879.399	509
879.433	546
879.506	125
879.516	114
879.598	677
879.613	744
879.680	778
879.720	942
879.762	1050
879.827	803
879.844	713
879.926	709
879.933	668
880.007	802
880.040	1122
880.089	1388
880.147	1856
880.171	2182
880.253	4653
880.254	4666
880.335	5915
880.360	6276
880.417	7990
880.467	12355
880.499	15282
880.574	18810
880.580	18749
880.662	6132
880.680	4669
880.744	1342
880.787	1027
880.825	889
880.893	831
880.907	808
880.989	717
881.000	675
881.070	672
881.106	811
881.152	909
881.213	666
881.233	550
881.315	864
881.319	839
881.396	708
881.426	663
881.478	392
881.532	734
881.559	1029
881.639	517
881.641	497
881.722	837
881.745	602
881.803	352
881.852	514
881.885	442
881.958	466
881.966	503
882.047	805
882.064	915
882.129	1379
882.171	1267
882.210	999
882.277	1448
882.291	1607
882.372	974
882.383	967
882.454	826
882.489	779
882.535	599
882.596	578
882.616	547
882.697	442
882.702	415
882.778	810
882.808	1024
882.859	555
882.914	-203
882.940	-156
883.020	941
883.021	944
883.102	229
883.127	116
883.183	587
883.233	839
883.264	668
883.339	484
883.345	489
883.426	375
883.445	378
883.507	364
883.551	52
883.587	-0
883.657	720
883.668	785
883.749	986
883.763	904
883.830	629
883.869	764
883.910	926
883.975	952
883.991	873
884.072	541
884.081	498
884.152	343
884.187	400
884.233	696
884.292	835
884.314	833
884.394	389
884.398	402
884.475	469
884.504	359
884.555	316
884.610	235
884.636	253
884.716	634
884.716	641
884.797	921
884.821	1112
884.877	1015
884.927	886
884.958	750
885.033	451
885.038	453
885.118	293
885.139	276
885.199	434
885.244	518
885.279	506
885.350	425
885.359	488
885.439	1332
885.456	1436
885.520	1219
885.561	1053
885.600	851
885.667	690
885.680	744
885.760	964
885.773	971
885.840	651
885.878	557
885.920	703
885.984	616
886.000	577
886.080	812
886.089	828
886.160	988
886.195	934
886.240	691
886.300	517
886.320	561
886.400	838
886.406	836
886.480	1056
886.511	1205
886.560	1074
886.616	797
886.640	778
886.720	768
886.722	765
886.800	853
886.827	881
886.879	578
886.932	139
886.959	288
887.038	778
887.039	781
887.119	618
887.143	583
887.198	814
887.248	1097
887.278	1013
887.354	576
887.358	566
887.437	380
887.459	354
887.517	982
887.564	1330
887.596	1229
887.669	1154
887.676	1123
887.755	633
887.774	515
887.835	888
887.880	1241
887.914	1306
887.985	1159
887.994	1130
888.073	1058
888.090	1016
888.153	1252
888.195	1426
888.232	1346
888.300	1156
888.311	1064
888.391	371
888.405	248
888.470	539
888.510	705
888.549	794
888.615	962
888.628	960
888.708	956
888.720	943
888.787	594
888.825	378
888.866	367
888.930	416
888.945	502
889.024	924
889.035	978
889.103	586
889.140	371
889.182	419
889.245	516
889.261	654
889.340	1298
889.349	1370
889.419	747
889.454	427
889.498	687
889.559	1072
889.577	1166
889.656	1562
889.664	1599
889.735	1561
889.768	1540
889.814	919
889.873	90
889.978	754
890.083	867
890.187	789
890.292	614
890.397	833
890.501	615
890.606	1454
890.710	779
890.815	938
890.919	1134
891.024	463
891.128	1250
891.233	797
891.337	516
891.442	957
891.546	556
891.650	484
891.755	739
891.859	1315
891.963	802
892.068	841
892.172	287
892.276	-349
892.380	345
892.484	44
892.589	1475
892.693	1267
892.797	247
892.901	1161
893.005	165
893.109	1310
893.213	745
893.317	1611
893.421	849
893.525	586
893.629	62
893.733	1088
893.837	104
893.941	409
894.045	1087
894.148	116
894.252	821
894.356	897
894.460	1181
894.564	748
894.667	55
894.771	686
894.875	53
894.978	231
895.082	-206
895.186	1001
895.289	663
895.393	612
895.496	861
895.600	789
895.703	1136
895.807	788
895.910	576
896.014	692
896.117	615
896.221	1098
896.324	778
896.427	437
896.531	649
896.634	353
896.737	738
896.840	1084
896.944	617
897.047	622
897.150	1134
897.253	467
897.356	87
897.460	61
897.563	803
897.666	459
897.769	1221
897.872	743
897.975	133
898.078	-188
898.181	960
898.284	665
898.387	996
898.490	1095
898.593	505
898.695	485
898.798	-568
898.901	244
899.004	232
899.107	300
899.209	299
899.312	691
899.415	365
899.518	49
899.620	-56
899.723	24
899.826	183
899.928	1105
900.031	-285
900.133	193
900.236	309
900.338	-172
900.441	424
900.543	-91
900.646	293
900.748	616
900.851	-371
900.953	464
901.055	-346
901.158	186
901.260	224
901.362	157
901.465	-258
901.567	128
901.669	706
901.771	247
901.873	284
901.976	292
902.078	51
902.180	278
902.282	222
902.384	119
902.486	571
902.588	66
902.690	698
902.792	953
902.894	344
902.996	271
903.098	571
903.200	-198
903.302	-3
903.404	832
903.505	-293
903.607	168
903.709	415
903.811	499
903.913	220
904.014	554
904.116	19
904.218	-351
904.319	427
904.421	621
904.523	253
904.624	1
904.726	848
904.827	409
904.929	-566
905.030	5
905.132	213
905.233	1056
905.335	25
905.436	-499
905.537	-719
905.639	326
905.740	390
905.841	342
905.943	-4
906.044	677
906.145	-705
906.247	100
906.348	81
906.449	-686
906.550	-574
906.651	489
906.752	129
906.854	-195
906.955	-118
907.056	683
907.157	90
907.258	442
907.359	233
907.460	-171
907.561	-41
907.662	439
907.762	-236
907.863	380
907.964	-136
908.065	372
908.166	879
908.267	-496
908.367	-554
908.468	43
908.569	129
908.670	700
908.770	107
908.871	301
908.971	40
909.072	400
909.173	-336
909.273	447
909.374	380
909.474	199
909.575	7
909.675	-398
909.776	204
909.876	-289
909.977	310
910.077	664
910.177	170
910.278	361
910.378	-790
910.478	591
910.579	-7
910.679	253
910.779	-396
910.879	203
910.980	151
911.080	-209
911.180	-255
911.280	-930
911.380	-730
911.480	390
911.580	-505
911.680	-970
911.780	-851
911.880	197
911.980	562
912.080	-51
912.180	-275
912.280	-663
912.380	-298
912.480	-932
912.580	139
912.679	-532
912.779	391
912.879	280
912.979	-488
913.078	775
913.178	-241
913.278	370
913.377	-135
913.477	-152
913.577	-88
913.676	240
913.776	-260
913.875	-295
913.975	256
914.074	-519
914.174	109
914.273	-701
914.373	-47
914.472	428
914.572	-168
914.671	-540
914.770	-657
914.870	-393
914.969	-798
915.068	-62
915.167	-659
915.267	157
915.366	-514
915.465	109
915.564	27
915.663	778
915.763	-19
915.862	544
915.961	-83
916.060	-144
916.159	-739
916.258	-392
916.357	-853
916.456	282
916.555	81
916.654	-98
916.752	-462
916.851	-26
916.950	-356
917.049	-222
917.148	-245
917.247	164
917.345	-7
917.444	-96
917.543	-943
917.642	-115
917.740	-23
917.839	695
917.937	455
918.036	260
918.135	378
918.233	-28
918.332	-256
918.430	44
918.529	100
918.627	-504
918.726	436
918.824	-714
918.923	-93
919.021	188
919.119	-1111
919.218	-809
919.316	-380
919.414	495
919.512	-422
919.611	900
919.709	240
919.807	-553
919.905	-614
920.003	105
920.102	-243
920.200	-46
920.298	-336
920.396	-260
920.494	125
920.592	3
920.690	833
920.788	303
920.886	211
920.984	249
921.082	46
921.180	1361
921.277	148
921.375	1087
921.473	791
921.571	1483
921.669	1152
921.766	1037
921.864	214
921.962	380
922.060	811
922.157	-250
922.255	1255
922.352	337
922.450	546
922.548	914
922.645	1896
922.743	1540
922.840	2980
922.938	3673
923.035	3433
923.133	2943
923.230	3408
923.327	4135
923.425	3896
923.522	4534
923.619	2977
923.717	2782
923.814	2652
923.911	2801
924.008	3766
924.106	2661
924.203	2653
924.300	2751
924.397	2556
924.494	3241
924.591	2551
924.688	2712
924.786	2524
924.883	2925
924.979	3383
925.077	3290
925.173	2512
925.270	3150
925.367	3136
925.464	2751
925.561	3544
925.658	3391
925.755	2419
925.852	3007
925.948	2625
926.045	2343
926.142	3369
926.239	3108
926.335	2223
926.432	2522
926.529	2860
926.625	2785
926.722	2895
926.818	2199
926.915	2702
927.011	2615
927.108	2008
927.204	2415
927.301	2434
927.397	3000
927.494	3061
927.590	1654
927.687	1591
927.783	3036
927.879	2815
927.976	2762
928.072	2341
928.168	2553
928.264	2615
928.361	2032
928.457	2613
928.553	3054
928.649	2595
928.745	3057
928.841	1298
928.937	2426
929.033	3036
929.129	2311
929.225	2310
929.321	2074
929.417	1550
929.513	2637
929.609	2339
929.705	1121
929.801	2394
929.897	1376
929.993	1356
930.089	2488
930.184	1810
930.280	1689
930.376	2600
930.471	1950
930.567	1649
930.663	2272
930.758	1916
930.854	2253
930.950	1609
931.045	1606
931.141	2404
931.236	2694
931.332	1233
931.427	1993
931.523	2828
931.618	2528
931.714	1472
931.809	1046
931.905	1864
932.000	1206
932.095	1686
932.191	1625
932.286	3181
932.381	1960
932.476	1345
932.572	2011
932.667	1099
932.762	1503
932.857	1863
932.952	2321
933.047	1794
933.142	739
933.237	1222
933.332	1748
933.427	2560
933.522	1394
933.617	639
933.712	1650
933.807	876
933.902	2401
933.997	2061
934.092	1519
934.187	1987
934.282	2416
934.376	1430
934.471	2171
934.566	921
934.661	1169
934.755	1484
934.850	2093
934.945	1333
935.039	651
935.134	814
935.228	1819
935.323	2604
935.417	1763
935.512	186
935.606	1441
935.701	1310
935.795	1599
935.890	1763
935.984	1127
936.079	484
936.173	1774
936.267	1493
936.362	1208
936.456	1094
936.550	2133
936.644	2150
936.738	1368
936.833	706
936.927	1075
937.021	1893
937.115	1586
937.209	980
937.303	1755
937.397	560
937.491	1338
937.585	1398
937.679	1502
937.773	318
937.867	838
937.961	729
938.055	1466
938.149	2146
938.243	1308
938.337	763
938.430	997
938.524	1911
938.618	1413
938.712	1161
938.805	805
938.899	880
938.993	1698
939.086	974
939.180	695
939.274	1720
939.367	1939
939.461	1387
939.554	575
939.648	726
939.741	951
939.835	793
939.928	1887
940.022	2120
940.115	681
940.208	1359
940.302	1500
940.395	2042
940.488	362
940.582	1316
940.675	-123
940.768	107
940.861	1533
940.954	2178
941.048	-72
941.141	1146
941.234	152
941.327	1189
941.420	2028
941.513	2191
941.606	832
941.699	1554
941.792	1519
941.885	539
941.978	1378
942.071	1020
942.164	445
942.257	345
942.349	817
942.442	1820
942.535	502
942.628	909
942.721	398
942.813	292
942.906	1818
942.999	1348
943.091	850
943.184	626
943.277	909
943.369	732
943.462	365
943.554	842
943.647	100
943.739	1007
943.832	1427
943.924	86
944.017	295
944.109	-16
944.201	797
944.294	1134
944.386	786
944.478	1024
944.571	1042
944.663	1511
944.755	805
944.847	1215
944.940	516
945.032	-433
945.124	1041
945.216	1323
945.308	372
945.400	949
945.492	778
945.584	1128
945.676	819
945.768	1505
945.860	878
945.952	1309
946.044	1441
946.136	844
946.228	1218
946.320	394
946.412	1019
946.503	1242
946.595	1649
946.687	242
946.779	1088
946.870	-34
946.962	734
947.054	645
947.145	1741
947.237	588
947.329	946
947.420	373
947.512	868
947.603	-295
947.695	973
947.786	-100
947.878	567
947.969	1561
948.061	365
948.152	551
948.243	854
948.335	-804
948.426	660
948.517	911
948.609	1248
948.700	678
948.791	1067
948.882	-70
948.973	607
949.065	1334
949.156	1096
949.247	505
949.338	382
949.429	-577
949.520	847
949.611	570
949.702	1243
949.793	547
949.884	-5
949.975	345
950.066	284
950.157	59
950.247	422
950.338	704
950.429	-276
950.520	314
950.611	-339
950.701	677
950.792	1029
950.883	249
950.973	764
951.064	1102
951.155	1139
951.245	961
951.336	805
951.427	194
951.517	1697
951.608	241
951.698	141
951.788	-23
951.879	450
951.969	139
952.060	610
952.150	579
952.240	48
952.331	-85
952.421	1880
952.511	27
952.602	1230
952.692	-214
952.782	224
952.872	213
952.962	486
953.052	302
953.143	237
953.233	330
953.323	332
953.413	264
953.503	147
953.593	307
953.683	314
953.773	-649
953.863	918
953.953	325
954.042	762
954.132	666
954.222	1050
954.312	574
954.402	370
954.492	364
954.581	1046
954.671	355
954.761	-1090
954.850	1266
954.940	-53
955.030	107
955.119	-313
955.209	87
955.298	-1
955.388	308
955.477	672
955.567	-614
955.656	655
955.746	93
955.835	1164
955.925	-454
956.014	742
956.103	625
956.193	1324
956.282	355
956.371	267
956.461	321
956.550	687
956.639	4
956.728	181
956.817	-215
956.906	715
956.995	-126
957.085	174
957.174	887
957.263	237
957.352	316
957.441	-448
957.530	528
957.619	696
957.708	606
957.796	77
957.885	-334
957.974	26
958.063	860
958.152	-61
958.241	-6
958.329	285
958.418	660
958.507	855
958.596	610
958.684	57
958.773	169
958.861	86
958.950	-36
959.039	466
959.127	-385
959.216	528
959.304	-1155
959.393	-490
959.481	752
959.570	-211
959.658	-415
959.746	34
959.835	985
959.923	575
960.011	322
960.100	512
960.188	841
960.276	38
960.365	144
960.453	310
960.541	104
960.629	380
960.717	-179
960.805	-815
960.893	298
960.981	-168
961.069	792
961.158	67
961.245	968
961.333	762
961.421	-557
961.509	-69
961.597	78
961.685	779
961.773	-735
961.861	27
961.949	821
962.036	238
962.124	825
962.212	-451
962.299	-599
962.387	-678
962.475	-261
962.562	-7
962.650	330
962.738	752
962.825	-421
962.913	310
963.000	-494
963.088	350
963.175	369
963.263	1179
963.350	61
963.438	602
963.525	-1493
963.612	-543
963.700	639
963.787	1988
963.874	1295
963.962	444
964.049	193
964.136	-173
964.223	-972
964.310	18
964.398	-115
964.485	-297
964.572	-393
964.659	734
964.746	167
964.833	-561
964.920	-1369
965.007	724
965.094	406
965.181	-766
965.268	800
965.355	436
965.441	-403
965.528	-829
965.615	148
965.702	68
965.789	-119
965.875	380
965.962	136
966.049	-1157
966.136	505
966.222	-360
966.309	211
966.395	36
966.482	208
966.569	-74
966.655	163
966.742	439
966.828	-526
966.915	-698
967.001	478
967.087	-990
967.174	-167
967.260	431
967.347	494
967.433	-176
967.519	1597
967.605	2
967.692	213
967.778	149
967.864	41
967.950	-211
968.036	-274
968.123	139
968.209	553
968.295	-1096
968.381	1885
968.467	0
968.553	-794
968.639	1196
968.725	-591
968.811	1168
968.897	360
968.983	-75
969.069	-816
969.154	224
969.240	705
969.326	260
969.412	-759
969.497	-493
969.583	-806
969.669	1279
969.755	124
969.840	-319
969.926	290
970.012	231
970.097	1693
970.183	1073
970.268	-293
970.354	-214
970.439	-233
970.525	1992
970.610	-520
970.696	1013
970.781	611
970.866	-427
970.952	893
971.037	-1041
971.122	-305
971.208	-721
971.293	24
971.378	-983
971.463	155
971.549	45
971.634	112
971.719	-650
971.804	-450
971.889	572
971.974	195
972.059	-114
972.144	495
972.229	-190
972.314	-523
972.399	216
972.484	-813
972.569	141
972.654	-742
972.739	736
972.824	-5
972.908	-693
972.993	115
973.078	437
973.163	22
973.247	-351
973.332	-1871
973.417	2154
973.501	138
973.586	-242
973.671	28
973.755	-841
973.840	126
973.924	415
974.009	-626
974.093	104
974.178	906
974.262	-102
974.346	620
974.431	109
974.515	-901
974.600	-206
974.684	195
974.768	-250
974.852	1184
974.937	-453
975.021	444
975.105	37
975.189	-721
975.273	241
975.358	-318
975.442	-866
975.526	417
975.610	-924
975.694	-341
975.778	980
975.862	-38
975.946	-1279
976.030	348
976.114	-715
976.198	-421
976.281	26
976.365	-500
976.449	-859
976.533	611
976.617	-462
976.700	-723
976.784	35
976.868	-591
976.951	512
977.035	-595
977.119	-272
977.202	154
977.286	160
977.369	-437
977.453	977
977.536	278
977.620	-796
977.703	229
977.787	-23
977.870	427
977.953	832
978.037	-1073
978.120	-117
978.203	104
978.287	683
978.370	-264
978.453	-541
978.536	-221
978.620	585
978.703	474
978.786	-730
978.869	-641
978.952	-1184
979.035	1431
979.118	666
979.201	-914
979.284	-290
979.367	-895
979.450	84
979.533	125
979.616	-354
979.699	-440
979.782	440
979.865	-189
979.948	-667
980.030	65
980.113	81
980.196	-758
980.279	-154
980.361	29
980.444	212
980.526	334
980.609	-558
980.692	429
980.774	833
980.857	-426
980.939	14
981.022	-1613
981.104	-354
981.187	-516
981.269	423
981.352	-930
981.434	-1226
981.516	-973
981.599	1004
981.681	-324
981.763	-2
981.846	-504
981.928	139
982.010	642
982.092	220
982.174	-79
982.256	-1155
982.339	565
982.421	106
982.503	180
982.585	-1134
982.667	-47
982.749	424
982.831	89
982.913	-839
982.995	599
983.077	-107
983.158	899
983.240	-805
983.322	19
983.404	721
983.486	-763
983.568	96
983.649	-227
983.731	496
983.813	-427
983.894	1089
983.976	-427
984.058	346
984.139	1180
984.221	-42
984.302	-190
984.384	2
984.465	-778
984.547	593
984.628	-764
984.710	413
984.791	6
984.872	-485
984.954	-229
985.035	47
985.116	-573
985.198	263
985.279	1201
985.360	-608
985.441	75
985.522	-74
985.604	-220
985.685	-1249
985.766	184
985.847	1136
985.928	-214
986.009	-660
986.090	-359
986.171	1089
986.252	25
986.333	500
986.414	213
986.495	-752
986.576	-582
986.656	206
986.737	-369
986.818	366
986.899	-531
986.980	-421
987.060	809
987.141	-352
987.222	129
987.302	812
987.383	243
987.464	-429
987.544	509
987.625	-391
987.705	332
987.786	855
987.866	-26
987.947	10
988.027	644
988.108	-114
988.188	639
988.268	428
988.349	-151
988.429	306
988.509	672
988.589	119
988.670	-1270
988.750	1313
988.830	-166
988.910	1160
988.990	465
989.070	180
989.151	646
989.231	-145
989.311	734
989.391	251
989.471	438
989.551	-263
989.631	-44
989.711	165
989.791	-164
989.870	-209
989.950	-362
990.030	149
990.110	-574
990.190	-622
990.269	-597
990.349	173
990.429	-801
990.509	376
990.588	-814
990.668	325
990.747	225
990.827	-657
990.907	741
990.986	-19
991.066	505
991.145	-68
991.225	726
991.304	-156
991.383	558
991.463	-444
991.542	750
991.622	-342
991.701	-636
991.780	-14
991.859	112
991.939	-419
992.018	-271
992.097	188
992.176	130
992.256	-340
992.335	-288
992.414	79
992.493	-902
992.572	-398
992.651	673
992.730	205
992.809	-71
992.888	-782
992.967	-216
993.046	-418
993.125	-375
993.203	-427
993.282	-65
993.361	927
993.440	549
993.519	-1287
993.597	-489
993.676	-560
993.755	1062
993.834	-1035
993.912	-948
993.991	424
994.069	-613
994.148	-264
994.226	-203
994.305	-327
994.384	-1253
994.462	498
994.540	-778
994.619	-384
994.697	638
994.776	-700
994.854	-74
994.932	-616
995.011	-230
995.089	-779
995.167	-885
995.245	-439
995.324	-945
995.402	582
995.480	-160
995.558	97
995.636	-1883
995.714	-589
995.792	751
995.870	-1209
995.948	-840
996.026	-463
996.104	-794
996.182	188
996.260	-360
996.338	-334
996.416	-1011
996.494	-411
996.572	121
996.649	-819
996.727	-807
996.805	-346
996.883	-1002
996.960	-774
997.038	-365
997.116	-238
997.193	-674
997.271	-309
997.348	-796
997.426	-750
997.504	-647
997.581	-795
997.658	-144
997.736	-1467
997.813	-1416
997.891	-145
997.968	-778
998.046	-15
998.123	-1120
998.200	-604
998.277	-942
998.355	-75
998.432	-1599
998.509	-474
998.586	-514
998.663	-1398
998.741	-994
998.818	-803
998.895	-409
998.972	-525
999.049	-291
999.126	-727
999.203	183
999.280	552
999.357	-1169
999.434	-1321
999.511	-410
999.587	-416
999.664	-1332
999.741	256
999.818	-540
999.895	-1137
999.971	-1082
1000.048	-608
1000.125	-544
1000.202	-1143
1000.278	-532
1000.355	-486
1000.431	-899
1000.508	-1028
1000.584	-86
1000.661	-572
1000.738	-1397
1000.814	-793
1000.890	139
1000.967	-774
1001.043	-955
1001.120	-1807
1001.196	-179
1001.272	-1354
1001.349	-8
1001.425	-225
1001.501	-369
1001.577	-1342
1001.654	-495
1001.730	-651
1001.806	-1420
1001.882	-1126
1001.958	-819
1002.034	-1245
1002.110	-981
1002.186	-421
1002.262	-1299
1002.338	-1946
1002.414	-402
1002.490	-260
1002.566	-648
1002.642	-696
1002.718	-479
1002.794	-881
1002.870	-896
1002.945	-144
1003.021	-894
1003.097	-531
1003.173	-246
1003.248	-1047
1003.324	-761
1003.400	-795
1003.475	-1625
1003.551	-176
1003.626	-383
1003.702	-1558
1003.777	-1680
1003.853	-1563
1003.928	-1133
1004.004	-582
1004.079	-622
1004.155	-1306
1004.230	-1227
1004.305	127
1004.381	-1576
1004.456	-442
1004.531	-463
1004.607	-792
1004.682	-1176
1004.757	-578
1004.832	-1999
1004.907	-208
1004.982	-385
1005.057	-758
1005.133	-1099
1005.208	-996
1005.283	-1329
1005.358	-568
1005.433	-789
1005.508	-1289
1005.583	-1158
1005.657	-595
1005.732	-60
1005.807	-766
1005.882	-1206
1005.957	-954
1006.032	-697
1006.106	-766
1006.181	-361
1006.256	-501
1006.331	-1837
1006.405	-1314
1006.480	-554
1006.554	-917
1006.629	-1092
1006.704	-788
1006.778	-468
1006.853	-158
1006.927	-1514
1007.002	-556
1007.076	-1290
1007.150	-1499
1007.225	-1269
1007.299	-1041
1007.373	-1748
1007.448	-321
1007.522	-494
1007.596	-1471
1007.671	-1504
1007.745	-353
1007.819	-1336
1007.893	-935
1007.967	-434
1008.041	-1686
1008.115	-58
1008.190	-1001
1008.264	-781
1008.338	-2059
1008.412	-1934
1008.486	-643
1008.560	-649
1008.633	-1855
1008.707	-1307
1008.781	-686
1008.855	-718
1008.929	-1710
1009.003	-1364
1009.076	-2103
1009.150	-1254
1009.224	-956
1009.298	-1636
1009.371	-1726
1009.445	-834
1009.519	-856
1009.592	-1382
1009.666	-49
1009.739	-1090
1009.813	-1894
1009.886	-30
1009.960	-1666
1010.033	-1282
1010.107	-1169
1010.180	-1671
1010.253	-1518
1010.327	-1903
1010.400	-1030
1010.473	-996
1010.547	-704
1010.620	-1393
1010.693	-782
1010.766	-1687
1010.840	-741
1010.913	-628
1010.986	-1459
1011.059	-897
1011.132	-1037
1011.205	-1255
1011.278	-1384
1011.351	-2161
1011.424	-811
1011.497	-1988
1011.570	-1619
1011.643	-1837
1011.716	-1692
1011.789	-1568
1011.862	-1347
1011.934	-1415
1012.007	-1654
1012.080	-739
1012.153	-1018
1012.225	374
1012.298	-1567
1012.371	-1092
1012.443	-1303
1012.516	-1775
1012.588	-1371
1012.661	-355
1012.733	-1822
1012.806	-1177
1012.879	-1296
1012.951	-503
1013.023	-1579
1013.096	-1231
1013.168	-2183
1013.241	-1189
1013.313	-1167
1013.385	-1662
1013.458	-2053
1013.530	-856
1013.602	-1947
1013.674	-973
1013.746	-1188
1013.819	-1557
1013.891	-767
1013.963	-2713
1014.035	-1508
1014.107	-1067
1014.179	-1138
1014.251	-1919
1014.323	-1596
1014.395	-1715
1014.467	-1424
1014.539	-1400
1014.611	-2073
1014.683	-1544
1014.754	-1097
1014.826	-1933
1014.898	-2287
1014.970	-1712
1015.042	-1631
1015.113	-1922
1015.185	-1940
1015.257	-2039
1015.328	-651
1015.400	-1823
1015.471	-2517
1015.543	-1814
1015.615	-1368
1015.686	-1787
1015.757	-1526
1015.829	-1232
1015.901	-2148
1015.972	-1974
1016.043	-1244
1016.115	-1493
1016.186	-1911
1016.257	-957
1016.328	-1702
1016.400	-1117
1016.471	-1494
1016.542	-1622
1016.613	-929
1016.685	-2204
1016.756	-1433
1016.827	-2375
1016.898	-1846
1016.969	-648
1017.040	-1893
1017.111	-2388
1017.182	-1756
1017.253	-1909
1017.324	-1499
1017.395	-2371
1017.466	-786
1017.537	-1543
1017.608	-1717
1017.678	-2070
1017.749	-1812
1017.820	-1772
1017.891	-2316
1017.961	-2117
1018.032	-1950
1018.103	-1303
1018.173	-1949
1018.244	-1435
1018.315	-872
1018.385	-1773
1018.456	-1739
1018.526	-2396
1018.597	-1371
1018.667	-2125
1018.738	-2305
1018.808	-1965
1018.878	-1736
1018.949	-1492
1019.019	-2208
1019.089	-953
1019.160	-1221
1019.230	-2021
1019.300	-1160
1019.371	-2366
1019.441	-1133
1019.511	-2122
1019.581	-2003
1019.651	-1624
1019.721	-2071
1019.791	-1788
1019.861	-2508
1019.931	-1861
1020.001	-2347
1020.071	-1575
1020.141	-1267
1020.211	-1459
1020.281	-2654
1020.351	-1567
1020.421	-1934
1020.491	-2060
1020.560	-1772
1020.630	-1932
1020.700	-1688
1020.770	-1976
1020.839	-1738
1020.909	-2072
1020.979	-2339
1021.048	-1801
1021.118	-2080
1021.187	-2070
1021.257	-1932
1021.326	-1588
1021.396	-1757
1021.465	-1503
1021.535	-1458
1021.604	-2880
1021.674	-1999
1021.743	-1687
1021.812	-2262
1021.882	-1849
1021.951	-1850
1022.020	-1739
1022.089	-1310
1022.159	-1797
1022.228	-2377
1022.297	-2167
1022.366	-2053
1022.435	-2641
1022.504	-1852
1022.573	-2454
1022.642	-2459
1022.711	-1714
1022.781	-1696
1022.849	-1561
1022.918	-2412
1022.987	-2228
1023.056	-1525
1023.125	-2594
1023.194	-2185
1023.263	-2690
1023.331	-2383
1023.400	-1771
1023.469	-2202
1023.538	-1496
1023.606	-2596
1023.675	-2352
1023.744	-2053
1023.812	-2560
1023.881	-2159
1023.949	-2421
1024.018	-2092
1024.086	-2784
1024.155	-1399
1024.223	-2455
1024.292	-2079
1024.360	-1993
1024.429	-1765
1024.497	-2149
1024.565	-2069
1024.634	-2397
1024.702	-1632
1024.770	-1560
1024.838	-1874
1024.907	-2195
1024.975	-2287
1025.043	-1154
1025.111	-2376
1025.179	-2415
1025.247	-2360
1025.315	-2613
1025.383	-2222
1025.451	-1707
1025.519	-2473
1025.587	-1784
1025.655	-2199
1025.723	-1870
1025.791	-2176
1025.859	-1735
1025.927	-2551
1025.995	-2181
1026.062	-1867
1026.130	-1505
1026.198	-2858
1026.266	-2928
1026.333	-2456
1026.401	-2024
1026.469	-2374
1026.536	-1787
1026.604	-2302
1026.671	-2637
1026.739	-2059
1026.806	-2654
1026.874	-2178
1026.941	-2600
1027.009	-2123
1027.076	-2633
1027.144	-1901
1027.211	-2202
1027.278	-2165
1027.345	-2283
1027.413	-2318
1027.480	-2130
1027.547	-2693
1027.614	-2831
1027.682	-2016
1027.749	-2280
1027.816	-1990
1027.883	-1471
1027.950	-1429
1028.017	-2424
1028.084	-1703
1028.151	-1920
1028.218	-2253
1028.285	-2019
1028.352	-2580
1028.419	-2484
1028.486	-2122
1028.553	-2584
1028.619	-2220
1028.686	-1602
1028.753	-2575
1028.820	-2425
1028.886	-1813
1028.953	-2288
1029.020	-2957
1029.086	-2730
1029.153	-1929
1029.220	-2214
1029.286	-2664
1029.353	-1402
1029.419	-2456
1029.486	-2089
1029.552	-2289
1029.619	-1938
1029.685	-2526
1029.751	-1937
1029.818	-1609
1029.884	-2226
1029.951	-990
1030.017	-2361
1030.083	-2043
1030.149	-3163
1030.216	-2836
1030.282	-1764
1030.348	-1706
1030.414	-2240
1030.480	-1745
1030.546	-2050
1030.612	-1716
1030.678	-2264
1030.744	-1471
1030.810	-1838
1030.876	-2233
1030.942	-2706
1031.008	-2048
1031.074	-2899
1031.140	-1642
1031.206	-2495
1031.272	-2676
1031.337	-1581
1031.403	-1888
1031.469	-2545
1031.534	-1928
1031.600	-1290
1031.666	-2176
1031.731	-2132
1031.797	-2564
1031.863	-1785
1031.928	-2918
1031.994	-2323
1032.059	-2123
1032.125	-1850
1032.190	-2372
1032.256	-2245
1032.321	-2044
1032.386	-1464
1032.452	-1715
1032.517	-2573
1032.582	-2017
1032.647	-2496
1032.713	-1960
1032.778	-1622
1032.843	-2416
1032.908	-2514
1032.974	-2066
1033.039	-1387
1033.104	-1784
1033.169	-2443
1033.234	-2127
1033.299	-1586
1033.364	-1067
1033.429	-2518
1033.494	-1797
1033.559	-2315
1033.624	-2032
1033.688	-2159
1033.753	-2125
1033.818	-1701
1033.883	-1325
1033.948	-1620
1034.013	-1944
1034.077	-1416
1034.142	-792
1034.207	-1286
1034.271	-341
1034.336	605
1034.400	-99
1034.465	-1178
1034.530	-1715
1034.594	-1722
1034.658	-1397
1034.723	-2055
1034.787	-1605
1034.852	-1926
1034.916	-2708
1034.981	-1669
1035.045	-1637
1035.109	-1919
1035.173	-1293
1035.238	-3290
1035.302	-1937
1035.366	-1796
1035.430	-1630
1035.495	-2112
1035.559	-1839
1035.623	-1665
1035.687	-2056
1035.751	-2104
1035.815	-1248
1035.879	-2532
1035.943	-1845
1036.007	-2610
1036.071	-2542
1036.135	-2763
1036.198	-970
1036.262	-1752
1036.326	-2642
1036.390	-2669
1036.454	-1318
1036.517	-1622
1036.581	-2125
1036.645	-2126
1036.709	-887
1036.772	-2594
1036.836	-1877
1036.900	-1752
1036.963	-1842
1037.026	-2414
1037.090	-2413
1037.154	-1072
1037.217	-2630
1037.280	-2593
1037.344	-1804
1037.407	-2839
1037.471	-1625
1037.534	-2295
1037.597	-1543
1037.661	-2445
1037.724	-1998
1037.787	-2460
1037.850	-2163
1037.913	-2409
1037.977	-1271
1038.040	-2479
1038.103	-2100
1038.166	-2292
1038.229	-2648
1038.292	-2896
1038.355	-2293
1038.418	-1984
1038.481	-2334
1038.544	-1783
1038.607	-1871
1038.670	-2041
1038.732	-2219
1038.795	-2712
1038.858	-1827
1038.921	-1510
1038.984	-2059
1039.046	-2339
1039.109	-2474
1039.172	-1784
1039.234	-2097
1039.297	-2146
1039.360	-1912
1039.422	-2581
1039.485	-1412
1039.547	-2204
1039.610	-1508
1039.672	-3089
1039.734	-2308
1039.797	-2667
1039.859	-2107
1039.922	-2565
1039.984	-2176
1040.046	-2000
1040.109	-2089
1040.171	-1990
1040.233	-1513
1040.295	-1756
1040.358	-2370
1040.420	-1787
1040.482	-2277
1040.544	-2382
1040.606	-1907
1040.668	-2451
1040.730	-1873
1040.792	-2409
1040.854	-1993
1040.916	-2313
1040.978	-2984
1041.040	-1934
1041.102	-2383
1041.164	-2020
1041.225	-2425
1041.287	-2962
1041.349	-1978
1041.411	-2078
1041.472	-2047
1041.534	-2529
1041.596	-2598
1041.657	-1276
1041.719	-1941
1041.781	-2513
1041.842	-2310
1041.904	-1987
1041.965	-2573
1042.027	-2023
1042.088	-2044
1042.150	-2473
1042.211	-2241
1042.272	-1799
1042.334	-1990
1042.395	-1736
1042.456	-2789
1042.518	-2295
1042.579	-2138
1042.640	-1964
1042.701	-2543
1042.763	-2268
1042.824	-1388
1042.885	-2098
1042.946	-2373
1043.007	-2442
1043.068	-3103
1043.129	-2174
1043.190	-2427
1043.251	-1489
1043.312	-2293
1043.373	-1748
1043.434	-2132
1043.495	-2423
1043.556	-1445
1043.616	-2378
1043.677	-2058
1043.738	-2044
1043.799	-2575
1043.859	-2062
1043.920	-1683
1043.981	-2440
1044.041	-1923
1044.102	-2975
1044.162	-2301
1044.223	-2732
1044.284	-1548
1044.344	-1961
1044.405	-1746
1044.465	-2384
1044.525	-2122
1044.586	-2837
1044.646	-2268
1044.707	-1908
1044.767	-2094
1044.827	-2511
1044.887	-1942
1044.948	-2387
1045.008	-2306
1045.068	-1728
1045.128	-2180
1045.188	-1835
1045.249	-2682
1045.309	-1736
1045.369	-2058
1045.429	-1889
1045.489	-2136
1045.549	-2086
1045.609	-2948
1045.669	-2499
1045.729	-2055
1045.789	-1409
1045.848	-1708
1045.908	-1644
1045.968	-1865
1046.028	-2311
1046.088	-1726
1046.147	-1906
1046.207	-2261
1046.267	-1676
1046.326	-2164
1046.386	-2035
1046.446	-1854
1046.505	-1608
1046.565	-1161
1046.624	-1607
1046.684	-1210
1046.743	-956
1046.803	-869
1046.862	-313
1046.922	0
