'Start Wavelength	183.907
'End Wavelength	1046.922
'Gate Delay	5.000
'Gate Width (ms)	1.050
'Laser Output Level	0.000
'X Position	0.000
'Y Position	0.000
'Z Position	0.000
'Grid Point Number	1.000
'Shot Number	100.000
183.907	112.000
183.977	-365.000
184.047	-130
184.116	319
184.186	498
184.256	181
184.325	178
184.395	-649
184.465	784
184.534	-229
184.604	740
184.674	-301
184.743	330
184.813	871
184.883	295
184.952	-219
185.022	164
185.092	83
185.161	496
185.231	267
185.301	-169
185.370	407
185.440	416
185.509	-205
185.579	590
185.649	-250
185.718	260
185.788	188
185.857	44
185.927	96
185.996	-116
186.066	-524
186.136	66
186.205	-86
186.275	248
186.344	700
186.414	-29
186.483	66
186.553	610
186.622	1167
186.692	-230
186.761	-94
186.831	75
186.900	-362
186.970	56
187.039	-155
187.109	640
187.178	-387
187.248	70
187.317	209
187.387	-261
187.456	43
187.526	287
187.595	449
187.664	-649
187.734	651
187.803	-275
187.873	-47
187.942	376
188.012	221
188.081	-287
188.150	15
188.220	155
188.289	-309
188.358	123
188.428	89
188.497	-135
188.567	31
188.636	1
188.705	212
188.775	260
188.844	190
188.913	775
188.983	308
189.052	-193
189.121	357
189.191	347
189.260	143
189.329	1073
189.399	179
189.468	634
189.537	81
189.606	23
189.676	260
189.745	941
189.814	611
189.883	-111
189.953	679
190.022	1127
190.091	1329
190.161	913
190.230	56
190.299	-20
190.368	-248
190.437	786
190.507	441
190.576	510
190.645	305
190.714	750
190.783	209
190.853	461
190.922	129
190.991	368
191.060	663
191.129	-377
191.198	527
191.268	-219
191.337	93
191.406	444
191.475	821
191.544	101
191.613	557
191.682	-319
191.752	-152
191.821	304
191.890	-108
191.959	313
192.028	1000
192.097	573
192.166	-452
192.235	-168
192.304	-170
192.373	-41
192.442	506
192.511	370
192.580	-431
192.650	383
192.719	84
192.788	841
192.857	363
192.926	722
192.995	281
193.064	449
193.133	344
193.202	1179
193.271	582
193.340	1306
193.409	898
193.478	1016
193.547	433
193.615	1834
193.684	1726
193.753	1309
193.822	892
193.891	100
193.960	557
194.029	673
194.098	-61
194.167	-136
194.236	375
194.305	-647
194.374	-139
194.443	279
194.512	585
194.580	293
194.649	449
194.718	661
194.787	138
194.856	413
194.925	960
194.994	433
195.062	712
195.131	375
195.200	497
195.269	799
195.338	651
195.407	603
195.475	91
195.544	1328
195.613	582
195.682	-184
195.751	809
195.819	341
195.888	286
195.957	1277
196.026	457
196.094	999
196.163	809
196.232	749
196.301	654
196.369	459
196.438	972
196.507	154
196.576	54
196.644	248
196.713	167
196.782	-212
196.850	999
196.919	137
196.988	-91
197.056	1016
197.125	1062
197.194	412
197.262	564
197.331	60
197.400	417
197.468	177
197.537	73
197.606	176
197.674	535
197.743	1679
197.812	98
197.880	1407
197.949	962
198.017	821
198.086	804
198.155	545
198.223	796
198.292	2103
198.360	514
198.429	977
198.497	668
198.566	1366
198.635	1224
198.703	298
198.772	-169
198.840	1821
198.909	822
198.977	320
199.046	128
199.114	274
199.183	111
199.251	-85
199.320	593
199.388	-53
199.457	242
199.525	416
199.594	306
199.662	60
199.731	688
199.799	698
199.867	860
199.936	400
200.004	-242
200.073	605
200.141	206
200.210	1019
200.278	218
200.346	278
200.415	875
200.483	118
200.552	402
200.620	895
200.688	780
200.757	304
200.825	1098
200.893	695
200.962	428
201.030	590
201.098	438
201.167	181
201.235	557
201.303	639
201.372	203
201.440	447
201.508	827
201.577	22
201.645	327
201.713	172
201.781	120
201.850	541
201.918	801
201.986	793
202.055	743
202.123	505
202.191	667
202.259	369
202.327	262
202.396	150
202.464	591
202.532	581
202.600	1914
202.669	998
202.737	352
202.805	460
202.873	363
202.941	891
203.009	423
203.078	948
203.146	-7
203.214	874
203.282	467
203.350	867
203.418	568
203.487	-128
203.555	23
203.623	1265
203.691	281
203.759	37
203.827	384
203.895	274
203.963	601
204.031	736
204.099	427
204.168	-84
204.236	586
204.304	505
204.372	442
204.440	284
204.508	610
204.576	524
204.644	903
204.712	754
204.780	118
204.848	325
204.916	219
204.984	896
205.052	521
205.120	958
205.188	154
205.256	619
205.324	312
205.392	738
205.460	553
205.528	855
205.596	764
205.664	378
205.732	545
205.799	2475
205.867	2105
205.935	895
206.003	728
206.071	789
206.139	676
206.207	-181
206.275	909
206.343	657
206.411	644
206.478	669
206.546	945
206.614	402
206.682	-267
206.750	301
206.818	747
206.885	1141
206.953	-111
207.021	984
207.089	541
207.157	-510
207.225	177
207.292	304
207.360	826
207.428	447
207.496	760
207.563	477
207.631	674
207.699	908
207.767	853
207.834	336
207.902	876
207.970	535
208.038	555
208.105	441
208.173	913
208.241	1003
208.309	1648
208.376	1015
208.444	801
208.512	458
208.579	183
208.647	676
208.715	1202
208.782	752
208.850	407
208.918	985
208.985	885
209.053	802
209.120	1212
209.188	-17
209.256	935
209.323	423
209.391	1269
209.459	1315
209.526	702
209.594	690
209.661	801
209.729	1161
209.796	712
209.864	1211
209.932	59
209.999	799
210.067	1079
210.134	632
210.202	671
210.269	1048
210.337	1090
210.404	1488
210.472	338
210.539	704
210.607	488
210.674	937
210.742	1078
210.809	448
210.877	363
210.944	1011
211.012	1630
211.079	1524
211.146	553
211.214	694
211.281	1027
211.349	575
211.416	901
211.484	1162
211.551	411
211.618	964
211.686	565
211.753	612
211.821	1239
211.888	992
211.955	341
212.023	235
212.090	1115
212.157	674
212.225	289
212.292	2043
212.359	4419
212.427	8180
212.494	2857
212.561	1648
212.629	845
212.696	811
212.763	1132
212.831	957
212.898	906
212.965	694
213.032	1431
213.100	1334
213.167	1306
213.234	814
213.301	1920
213.369	470
213.436	890
213.503	1049
213.570	294
213.638	752
213.705	727
213.772	1251
213.839	726
213.906	776
213.973	999
214.041	906
214.108	802
214.175	917
214.242	563
214.309	1261
214.376	1096
214.444	1239
214.511	1167
214.578	1045
214.645	1005
214.712	1620
214.779	811
214.846	1023
214.913	2387
214.980	1116
215.048	1923
215.115	1461
215.182	1671
215.249	1084
215.316	911
215.383	1232
215.450	1041
215.517	445
215.584	1237
215.651	775
215.718	1248
215.785	2102
215.852	938
215.919	1451
215.986	1523
216.053	1170
216.120	827
216.187	640
216.254	637
216.321	403
216.388	840
216.455	1556
216.522	1599
216.589	1483
216.656	2338
216.722	2288
216.789	2265
216.856	2238
216.923	1270
216.990	1477
217.057	948
217.124	1759
217.191	1544
217.258	2530
217.324	2126
217.391	3100
217.458	1938
217.525	1731
217.592	2147
217.659	742
217.725	998
217.792	2505
217.859	3027
217.926	1176
217.993	407
218.059	1468
218.126	1091
218.193	1064
218.260	901
218.327	265
218.393	1569
218.460	971
218.527	465
218.594	1724
218.660	1614
218.727	2103
218.794	774
218.860	1137
218.927	633
218.994	-66
219.061	894
219.127	929
219.194	1950
219.261	1021
219.327	714
219.394	403
219.461	3
219.527	208
219.594	1112
219.661	1152
219.727	500
219.794	1349
219.860	528
219.927	571
219.994	1439
220.060	2690
220.127	1790
220.193	1531
220.260	1075
220.326	1962
220.393	3381
220.460	4577
220.526	2402
220.593	1605
220.659	2217
220.726	1948
220.792	4928
220.859	3640
220.925	5327
220.992	8139
221.058	6976
221.125	6524
221.191	4717
221.258	1884
221.324	1215
221.391	1128
221.457	1037
221.524	995
221.590	1602
221.657	5253
221.723	3088
221.789	4173
221.856	3349
221.922	1647
221.989	1923
222.055	1409
222.121	419
222.188	2063
222.254	1242
222.321	1394
222.387	-130
222.453	404
222.520	249
222.586	466
222.652	241
222.719	1069
222.785	1280
222.851	496
222.918	1086
222.984	889
223.050	407
223.116	355
223.183	788
223.249	304
223.315	-119
223.382	-256
223.448	133
223.514	21
223.580	445
223.647	871
223.713	358
223.779	722
223.845	-180
223.911	363
223.978	74
224.044	647
224.110	-232
224.176	749
224.242	545
224.309	-252
224.375	580
224.441	-30
224.507	-624
224.573	-638
224.639	650
224.705	1024
224.772	121
224.838	633
224.904	1006
224.970	-161
225.036	866
225.102	411
225.168	530
225.234	454
225.300	508
225.366	72
225.432	1225
225.499	616
225.565	-32
225.631	708
225.697	-15
225.763	989
225.829	468
225.895	1768
225.961	1773
226.027	1279
226.093	1405
226.159	2373
226.225	2950
226.291	7896
226.357	10889
226.423	5205
226.489	3004
226.554	2554
226.620	1810
226.686	2939
226.752	3238
226.818	5603
226.884	15886
226.950	11317
227.016	4343
227.082	2982
227.148	2414
227.214	1730
227.279	1759
227.345	670
227.411	1335
227.477	1508
227.543	4152
227.609	3125
227.674	1968
227.740	1956
227.806	765
227.872	1292
227.938	463
228.003	1716
228.069	854
228.135	-56
228.201	139
228.267	434
228.332	174
228.398	852
228.464	823
228.530	613
228.595	346
228.661	734
228.727	1804
228.792	1019
228.858	756
228.924	-250
228.990	1561
229.055	1623
229.121	741
229.187	897
229.252	427
229.318	-191
229.384	1164
229.449	1214
229.515	685
229.581	-394
229.646	682
229.712	447
229.777	2215
229.843	2436
229.909	1582
229.974	2176
230.040	1649
230.105	754
230.171	1142
230.236	2548
230.302	2797
230.368	1275
230.433	1093
230.499	1702
230.564	1734
230.630	443
230.695	687
230.761	159
230.826	356
230.892	1990
230.957	651
231.023	389
231.088	183
231.154	191
231.219	978
231.284	1745
231.350	1246
231.415	844
231.481	388
231.546	555
231.612	819
231.677	468
231.742	-462
231.808	1826
231.873	270
231.939	-338
232.004	2236
232.069	915
232.135	992
232.200	232
232.265	1214
232.331	1094
232.396	689
232.461	474
232.527	88
232.592	51
232.657	712
232.723	1623
232.788	506
232.853	869
232.918	1188
232.984	496
233.049	-380
233.114	1475
233.179	840
233.245	2906
233.310	2227
233.375	13
233.440	877
233.506	508
233.571	313
233.636	653
233.701	-46
233.766	2275
233.832	1774
233.897	749
233.962	291
234.027	1573
234.092	881
234.157	644
234.222	786
234.288	2154
234.353	6124
234.418	4825
234.483	2308
234.548	1174
234.613	1491
234.678	879
234.743	1383
234.808	5886
234.873	2662
234.938	2112
235.004	1267
235.069	1149
235.134	975
235.199	1017
235.264	900
235.329	902
235.394	825
235.459	1822
235.524	385
235.589	854
235.654	664
235.719	-346
235.784	1387
235.849	1240
235.913	2133
235.978	2737
236.043	2707
236.108	996
236.173	868
236.238	1382
236.303	458
236.368	276
236.433	2596
236.498	3480
236.563	2450
236.627	5501
236.692	19496
236.757	12136
236.822	4279
236.887	3653
236.952	2760
237.017	1594
237.081	3005
237.146	3318
237.211	7406
237.276	20155
237.341	28070
237.405	10433
237.470	4338
237.535	2906
237.600	1652
237.664	2222
237.729	945
237.794	2227
237.859	5287
237.923	2597
237.988	1643
238.053	2392
238.118	2379
238.182	7717
238.247	7117
238.312	3122
238.376	2073
238.441	344
238.506	2051
238.570	-17
238.635	1541
238.700	647
238.764	1237
238.829	3922
238.893	2414
238.958	2357
239.023	1964
239.087	627
239.152	1204
239.216	1126
239.281	1528
239.346	1423
239.410	675
239.475	1266
239.539	7849
239.604	3265
239.668	782
239.733	264
239.797	2217
239.862	6882
239.926	6634
239.991	2751
240.055	1206
240.120	849
240.184	961
240.249	576
240.313	518
240.378	987
240.442	4635
240.507	6596
240.571	1786
240.635	3057
240.700	3354
240.764	1394
240.829	1690
240.893	-553
240.957	1235
241.022	4887
241.086	6279
241.151	1836
241.215	589
241.279	1835
241.344	2969
241.408	2211
241.472	311
241.537	1740
241.601	1557
241.665	1075
241.730	910
241.794	693
241.858	1206
241.922	1651
241.987	654
242.051	297
242.115	625
242.179	1863
242.244	274
242.308	1582
242.372	1554
242.436	1100
242.501	1277
242.565	942
242.629	-351
242.693	833
242.757	690
242.822	353
242.886	1451
242.950	1202
243.014	187
243.078	787
243.142	1205
243.206	543
243.271	622
243.335	508
243.399	1968
243.463	11886
243.527	24441
243.591	7058
243.655	2868
243.719	994
243.783	2042
243.847	3523
243.911	3362
243.975	4915
244.040	2106
244.104	2483
244.168	1189
244.232	2123
244.296	4323
244.360	3741
244.424	1435
244.488	1109
244.552	1076
244.615	471
244.679	1094
244.743	1474
244.807	1392
244.871	1357
244.935	-278
244.999	369
245.063	1209
245.127	2138
245.191	3123
245.255	1908
245.319	2013
245.383	972
245.446	1740
245.510	500
245.574	1583
245.638	1534
245.702	1107
245.766	4419
245.829	1719
245.893	721
245.957	660
246.021	1339
246.085	508
246.149	1283
246.212	6120
246.276	7228
246.340	2679
246.404	1766
246.467	2953
246.531	2685
246.595	2641
246.659	1684
246.722	1544
246.786	2650
246.850	3575
246.913	2774
246.977	776
247.041	1531
247.104	1536
247.168	1915
247.232	6042
247.295	11419
247.359	4418
247.423	2369
247.486	5180
247.550	2214
247.614	2290
247.677	2115
247.741	1269
247.804	1205
247.868	562
247.932	5599
247.995	10000
248.059	2222
248.122	966
248.186	2868
248.249	4414
248.313	19559
248.376	16669
248.440	10389
248.503	2829
248.567	3282
248.630	4282
248.694	6440
248.757	9502
248.821	18466
248.884	10214
248.948	10195
249.011	14058
249.075	22756
249.138	15924
249.202	6726
249.265	3632
249.328	4815
249.392	3002
249.455	3497
249.519	2378
249.582	3663
249.645	5101
249.709	3222
249.772	2736
249.835	2910
249.899	2057
249.962	3256
250.025	2352
250.089	8712
250.152	8733
250.215	3953
250.279	2805
250.342	3224
250.405	2799
250.468	2589
250.532	3414
250.595	6115
250.658	29085
250.721	35014
250.785	12211
250.848	6632
250.911	2958
250.974	3974
251.038	6073
251.101	10351
251.164	4930
251.227	6738
251.290	4528
251.354	8697
251.417	37883
251.480	28364
251.543	23690
251.606	66932
251.669	38054
251.732	15294
251.795	16391
251.859	17311
251.922	40409
251.985	17863
252.048	8211
252.111	5017
252.174	5239
252.237	11048
252.300	20815
252.363	28550
252.426	48354
252.489	16734
252.552	9205
252.615	5850
252.678	6822
252.741	16624
252.804	25376
252.867	49047
252.930	25884
252.993	14408
253.056	8367
253.119	4943
253.182	4486
253.245	8672
253.308	5638
253.371	5049
253.434	3905
253.497	5073
253.559	10887
253.622	6824
253.685	8501
253.748	7018
253.811	4541
253.874	4690
253.937	3740
254.000	3405
254.062	7703
254.125	9586
254.188	10627
254.251	6838
254.314	2899
254.376	8141
254.439	7419
254.502	6110
254.565	8381
254.628	11494
254.690	6584
254.753	2870
254.816	2602
254.878	3228
254.941	8871
255.004	6226
255.067	3415
255.129	2394
255.192	1770
255.255	626
255.317	2599
255.380	1753
255.443	632
255.505	765
255.568	1153
255.631	1022
255.693	1188
255.756	693
255.819	1402
255.881	250
255.944	1249
256.006	136
256.069	731
256.132	1458
256.194	1933
256.257	4909
256.319	3696
256.382	2863
256.444	2664
256.507	1348
256.569	769
256.632	1078
256.694	3580
256.757	12474
256.819	25943
256.882	8419
256.944	3317
257.007	3745
257.069	2930
257.132	1811
257.194	1817
257.257	1277
257.319	727
257.381	1733
257.444	7144
257.506	35952
257.569	29656
257.631	15265
257.693	8347
257.756	4079
257.818	2412
257.880	1545
257.943	1551
258.005	1259
258.067	1091
258.130	1378
258.192	2368
258.254	4680
258.317	1956
258.379	1555
258.441	7344
258.503	4497
258.566	8757
258.628	9006
258.690	2125
258.753	2491
258.815	4362
258.877	1394
258.939	974
259.001	1568
259.064	1560
259.126	1798
259.188	2062
259.250	1709
259.312	2791
259.375	8024
259.437	3445
259.499	1758
259.561	1368
259.623	2050
259.685	897
259.747	1776
259.809	8675
259.872	12222
259.934	23599
259.996	16093
260.058	4519
260.120	1535
260.182	1407
260.244	632
260.306	556
260.368	1167
260.430	1113
260.492	3845
260.554	9077
260.616	4574
260.678	13796
260.740	11983
260.802	2983
260.864	2272
260.926	669
260.988	1922
261.050	1850
261.112	7025
261.174	17632
261.236	8896
261.298	2684
261.359	7459
261.421	7584
261.483	1633
261.545	2001
261.607	98
261.669	446
261.731	4517
261.793	8830
261.854	2398
261.916	2101
261.978	2140
262.040	1482
262.102	2031
262.164	3362
262.225	1267
262.287	2073
262.349	5842
262.411	2983
262.472	1429
262.534	4431
262.596	7315
262.658	1894
262.719	958
262.781	2971
262.843	7350
262.904	2729
262.966	1865
263.028	1628
263.090	21705
263.151	40375
263.213	12217
263.275	5793
263.336	1841
263.398	1981
263.459	1207
263.521	1011
263.583	5282
263.644	2219
263.706	745
263.767	205
263.829	141
263.891	4
263.952	-81
264.014	244
264.075	3010
264.137	5663
264.198	2893
264.260	-172
264.321	617
264.383	5213
264.444	9465
264.506	1955
264.567	868
264.629	4575
264.690	7535
264.752	2727
264.813	1471
264.875	255
264.936	1060
264.998	1139
265.059	143
265.120	462
265.182	2125
265.243	17472
265.305	10389
265.366	3274
265.427	1155
265.489	1341
265.550	-148
265.611	849
265.673	573
265.734	1093
265.795	1164
265.857	-783
265.918	518
265.979	3867
266.040	27037
266.102	14368
266.163	4249
266.224	3619
266.286	1890
266.347	317
266.408	653
266.469	1047
266.530	439
266.592	616
266.653	2894
266.714	3928
266.775	542
266.836	61
266.898	389
266.959	1779
267.020	1623
267.081	1874
267.142	868
267.203	-3
267.264	-162
267.326	1078
267.387	613
267.448	-77
267.509	1043
267.570	243
267.631	159
267.692	-585
267.753	121
267.814	-116
267.875	3481
267.936	5572
267.997	2602
268.058	2766
268.119	655
268.180	852
268.241	328
268.302	584
268.363	537
268.424	554
268.485	1102
268.546	-521
268.607	-413
268.668	-463
268.729	-951
268.790	274
268.851	1112
268.912	3355
268.972	4875
269.033	1239
269.094	605
269.155	28
269.216	-125
269.277	1054
269.338	463
269.398	-70
269.459	564
269.520	1439
269.581	2147
269.642	2936
269.702	814
269.763	933
269.824	391
269.885	1229
269.945	2500
270.006	1062
270.067	-319
270.128	304
270.188	528
270.249	-113
270.310	-50
270.370	1028
270.431	-367
270.492	-290
270.553	905
270.613	2664
270.674	7166
270.734	1684
270.795	641
270.856	2067
270.916	546
270.977	1079
271.038	854
271.098	717
271.159	2386
271.219	996
271.280	420
271.340	1186
271.401	1279
271.462	2921
271.522	2383
271.583	677
271.643	1087
271.704	805
271.764	1227
271.825	4257
271.885	19374
271.946	18372
272.006	5839
272.066	11568
272.127	15546
272.187	3806
272.248	1831
272.308	3469
272.369	13308
272.429	3934
272.489	4760
272.550	3591
272.610	5464
272.671	3259
272.731	3888
272.791	5564
272.852	2176
272.912	1541
272.972	1103
273.033	1047
273.093	2311
273.153	3327
273.214	1596
273.274	1280
273.334	13233
273.394	18109
273.455	5865
273.515	7384
273.575	16166
273.635	5364
273.696	9639
273.756	15774
273.816	5544
273.876	3100
273.936	10311
273.997	12488
274.057	2532
274.117	1437
274.177	4116
274.237	24892
274.297	15824
274.358	11260
274.418	14327
274.478	8407
274.538	3342
274.598	1980
274.658	13197
274.718	13522
274.778	3966
274.838	2120
274.898	7792
274.958	20394
275.018	18068
275.078	8437
275.138	4203
275.198	1830
275.258	1152
275.318	1909
275.378	4697
275.438	3891
275.498	2069
275.558	11821
275.618	21098
275.678	10587
275.738	7842
275.798	4304
275.858	2109
275.918	352
275.978	2249
276.038	1395
276.098	1243
276.157	4750
276.217	12007
276.277	4285
276.337	2521
276.397	1148
276.457	2114
276.517	1641
276.576	1198
276.636	-77
276.696	2536
276.756	7534
276.815	4111
276.875	2125
276.935	2970
276.995	1487
277.055	744
277.114	1187
277.174	3707
277.234	10505
277.293	2874
277.353	1729
277.413	848
277.472	1398
277.532	805
277.592	1971
277.651	13122
277.711	16040
277.771	5084
277.830	25315
277.890	13229
277.950	14416
278.009	36320
278.069	10859
278.128	16095
278.188	16624
278.248	7407
278.307	23403
278.367	9268
278.426	3112
278.486	1943
278.545	1440
278.605	1402
278.664	597
278.724	1610
278.783	8507
278.843	18267
278.902	3932
278.962	2557
279.021	3322
279.081	3828
279.140	3346
279.199	2526
279.259	3233
279.318	2702
279.378	3685
279.437	8464
279.496	35925
279.556	111931
279.615	63209
279.675	17665
279.734	10204
279.793	17183
279.853	23581
279.912	7271
279.971	4871
280.031	3005
280.090	10612
280.149	14691
280.208	13529
280.268	81797
280.327	57838
280.386	13989
280.445	12346
280.505	7671
280.564	4322
280.623	3127
280.682	7208
280.742	8558
280.801	2456
280.860	1279
280.919	1934
280.978	1095
281.037	1364
281.097	937
281.156	995
281.215	840
281.274	2641
281.333	15413
281.392	7120
281.451	1857
281.510	1997
281.569	674
281.628	870
281.688	1127
281.747	2138
281.806	1144
281.865	396
281.924	410
281.983	844
282.042	287
282.101	560
282.160	1362
282.219	351
282.278	1258
282.337	7946
282.396	3884
282.454	1357
282.513	2507
282.572	11575
282.631	4247
282.690	1543
282.749	965
282.808	1905
282.867	1693
282.926	1010
282.985	563
283.043	521
283.102	1439
283.161	168
283.220	7697
283.279	11371
283.338	2086
283.396	1411
283.455	1435
283.514	1757
283.573	3451
283.631	2089
283.690	1164
283.749	854
283.808	5134
283.866	4104
283.925	1353
283.984	2025
284.043	2735
284.101	2447
284.160	1527
284.219	3230
284.277	1979
284.336	4145
284.395	17504
284.453	9992
284.512	3725
284.570	6059
284.629	4641
284.688	4243
284.746	4713
284.805	5434
284.863	8179
284.922	9435
284.981	9978
285.039	14706
285.098	29654
285.156	77295
285.215	126220
285.273	118296
285.332	69128
285.390	37015
285.449	22075
285.507	14262
285.566	10253
285.624	7349
285.683	5343
285.741	4082
285.799	3745
285.858	3584
285.916	2966
285.975	2559
286.033	2051
286.091	2692
286.150	635
286.208	1329
286.267	2631
286.325	2792
286.383	4054
286.442	2292
286.500	1835
286.558	1411
286.616	1422
286.675	2736
286.733	1452
286.791	1979
286.850	2237
286.908	3225
286.966	5478
287.024	2130
287.083	1097
287.141	606
287.199	1931
287.257	2579
287.315	968
287.374	1731
287.432	5907
287.490	3641
287.548	1578
287.606	1934
287.664	1210
287.723	2848
287.781	3058
287.839	1194
287.897	1899
287.955	2604
288.013	3546
288.071	10628
288.129	71412
288.187	150806
288.245	53418
288.303	18482
288.361	11149
288.419	7233
288.477	4978
288.535	2469
288.593	2115
288.651	1061
288.709	731
288.767	1522
288.825	492
288.883	1104
288.941	606
288.999	773
289.057	779
289.115	811
289.173	1138
289.231	1411
289.289	1001
289.346	686
289.404	1181
289.462	2949
289.520	2861
289.578	1781
289.636	304
289.694	-174
289.751	467
289.809	1033
289.867	535
289.925	1142
289.983	1789
290.040	942
290.098	600
290.156	64
290.214	1745
290.271	1198
290.329	330
290.387	410
290.444	120
290.502	127
290.560	619
290.617	1193
290.675	839
290.733	1017
290.790	1658
290.848	495
290.906	1370
290.963	860
291.021	923
291.078	638
291.136	344
291.194	8518
291.251	13737
291.309	2754
291.366	1371
291.424	614
291.481	458
291.539	1309
291.596	477
291.654	66
291.711	-327
291.769	1376
291.826	3008
291.884	1274
291.941	321
291.999	845
292.056	1070
292.114	1199
292.171	-6
292.228	985
292.286	1297
292.343	3611
292.401	3881
292.458	1736
292.515	1062
292.573	1945
292.630	1684
292.687	1508
292.745	329
292.802	2967
292.859	7786
292.917	14823
292.974	6437
293.031	1930
293.089	1445
293.146	644
293.203	570
293.260	536
293.318	1503
293.375	3075
293.432	720
293.489	654
293.546	305
293.604	1554
293.661	10829
293.718	21746
293.775	10162
293.832	4923
293.889	3639
293.947	4117
294.004	2229
294.061	1664
294.118	6683
294.175	16253
294.232	18183
294.289	6081
294.346	2693
294.403	2794
294.460	2627
294.517	1130
294.574	712
294.631	538
294.688	943
294.745	7124
294.802	30021
294.859	25935
294.916	9776
294.973	5760
295.030	5081
295.087	2189
295.144	1540
295.201	1706
295.258	789
295.315	2062
295.372	12637
295.429	17561
295.486	6326
295.542	3875
295.599	16273
295.656	19692
295.713	15763
295.770	16958
295.827	6451
295.883	3108
295.940	2614
295.997	5469
296.054	3440
296.111	1781
296.167	1037
296.224	1010
296.281	835
296.338	474
296.394	905
296.451	1902
296.508	10483
296.564	14243
296.621	8504
296.678	23983
296.734	25387
296.791	8321
296.848	4791
296.904	4793
296.961	13859
297.018	22438
297.074	12462
297.131	4066
297.187	2487
297.244	5077
297.301	26605
297.357	33398
297.414	9747
297.470	4057
297.527	2239
297.583	2512
297.640	1240
297.696	1576
297.753	1144
297.809	1179
297.866	235
297.922	255
297.979	633
298.035	792
298.092	3079
298.148	14437
298.204	9271
298.261	3954
298.317	12120
298.374	24924
298.430	10902
298.486	5628
298.543	3588
298.599	3618
298.656	3807
298.712	9357
298.768	23014
298.824	12656
298.881	4440
298.937	2560
298.993	2597
299.050	2900
299.106	2056
299.162	1948
299.218	1557
299.275	1542
299.331	387
299.387	6295
299.443	25896
299.500	22056
299.556	9260
299.612	4002
299.668	3707
299.724	6833
299.780	5307
299.837	2877
299.893	4578
299.949	23570
300.005	20865
300.061	22392
300.117	32514
300.173	13709
300.229	6698
300.285	8817
300.341	8469
300.397	3872
300.453	2294
300.510	1693
300.566	1406
300.622	3845
300.678	16569
300.734	22696
300.790	21180
300.845	20859
300.901	16086
300.957	24238
301.013	13392
301.069	5271
301.125	4352
301.181	3472
301.237	2935
301.293	1993
301.349	861
301.405	441
301.461	1317
301.516	2074
301.572	2699
301.628	5089
301.684	3964
301.740	9219
301.796	12407
301.851	7938
301.907	13381
301.963	11173
302.019	27668
302.074	67221
302.130	54035
302.186	22823
302.242	10040
302.297	6058
302.353	7437
302.409	13769
302.464	8703
302.520	9072
302.576	26170
302.631	24121
302.687	13137
302.743	4704
302.798	2999
302.854	2683
302.910	2009
302.965	3273
303.021	6689
303.076	6435
303.132	10007
303.187	9683
303.243	4653
303.299	1729
303.354	1475
303.410	1392
303.465	1616
303.521	1156
303.576	111
303.632	2576
303.687	8012
303.743	21612
303.798	14364
303.853	5967
303.909	2192
303.964	2881
304.020	4361
304.075	7059
304.130	6944
304.186	13023
304.241	14107
304.297	9537
304.352	5001
304.358	4743
304.407	2647
304.449	2866
304.463	2945
304.518	2243
304.539	2314
304.573	2413
304.629	2147
304.630	2193
304.684	4346
304.720	13416
304.739	18051
304.794	21062
304.811	17489
304.850	8887
304.902	4036
304.905	3730
304.960	3005
304.992	3247
305.015	3430
305.071	2810
305.083	2624
305.126	1951
305.173	1257
305.181	1142
305.236	1048
305.264	1191
305.292	1336
305.347	1984
305.354	2125
305.402	3074
305.445	2931
305.457	2877
305.512	3662
305.535	3264
305.567	2692
305.622	3115
305.626	3417
305.678	8960
305.716	19947
305.733	24331
305.788	21955
305.807	19260
305.843	14284
305.897	20877
305.898	20961
305.953	17147
305.988	11791
306.008	8753
306.063	5384
306.078	4813
306.118	3413
306.168	2013
306.173	1897
306.228	1548
306.259	1835
306.283	2118
306.338	1335
306.349	1468
306.393	1960
306.440	2045
306.448	2051
306.503	1730
306.530	2327
306.558	3404
306.613	10711
306.620	11383
306.668	15652
306.711	20647
306.723	21527
306.778	15012
306.801	11760
306.833	7680
306.888	3784
306.892	3642
306.943	2480
306.982	2234
306.997	2166
307.052	1705
307.072	1815
307.107	2108
307.162	3132
307.163	3159
307.217	5924
307.253	7755
307.272	8403
307.327	7801
307.343	7044
307.381	5137
307.434	4625
307.436	4703
307.491	11283
307.524	16741
307.546	19336
307.600	17036
307.614	15121
307.655	8385
307.704	4079
307.710	3842
307.765	4196
307.795	6708
307.819	9157
307.874	15211
307.885	14657
307.929	9870
307.975	6884
307.984	6683
308.038	6981
308.065	8641
308.093	13589
308.148	35946
308.156	42339
308.202	81776
308.246	90490
308.257	86859
308.312	45447
308.336	32236
308.366	24529
308.421	15485
308.426	14886
308.475	9608
308.517	6781
308.530	6190
308.585	4598
308.607	4255
308.639	4109
308.694	4778
308.697	4995
308.748	10448
308.787	16109
308.803	17091
308.857	12493
308.877	10777
308.912	8278
308.967	6315
308.967	6310
309.021	7571
309.058	9995
309.076	12372
309.130	22377
309.148	27376
309.185	49053
309.238	98407
309.239	98936
309.293	119133
309.328	109357
309.348	91976
309.402	42125
309.418	30606
309.457	20224
309.508	12921
309.511	12621
309.566	10728
309.598	11357
309.620	13049
309.674	20149
309.688	21715
309.729	21619
309.778	16709
309.783	16162
309.837	10730
309.868	8599
309.892	8895
309.946	12856
309.959	14459
310.001	20575
310.049	24394
310.055	23744
310.109	14571
310.139	9805
310.163	7512
310.218	4374
310.229	3917
310.272	3224
310.319	2793
310.326	2712
310.381	2311
310.409	2162
310.435	2146
310.489	2135
310.499	2162
310.543	2135
310.589	2230
310.598	2292
310.652	2590
310.679	2659
310.706	2227
310.760	1386
310.769	1260
310.814	1271
310.859	1417
310.868	1441
310.923	1474
310.948	1497
310.977	1598
311.031	2049
311.038	2100
311.085	1639
311.128	959
311.139	956
311.193	1244
311.218	1357
311.247	1342
311.301	1231
311.308	1220
311.356	1451
311.398	1780
311.410	1823
311.464	1944
311.488	2010
311.518	1749
311.572	1207
311.578	1158
311.626	1820
311.668	2465
311.680	2472
311.734	2378
311.758	2366
311.788	2366
311.842	2346
311.847	2353
311.896	2873
311.937	3377
311.950	3294
312.004	2922
312.027	2768
312.058	2258
312.112	1369
312.117	1290
312.165	1883
312.207	2407
312.297	2203
312.386	1852
312.476	1678
312.566	3335
312.656	2211
312.745	1440
312.835	2323
312.925	1482
313.015	1710
313.104	2516
313.194	1063
313.284	1149
313.374	2020
313.463	1821
313.553	1485
313.643	1573
313.732	1106
313.822	1394
313.912	1581
314.001	1428
314.091	1892
314.180	2073
314.270	2411
314.360	2120
314.449	2557
314.539	1326
314.628	789
314.718	1648
314.808	1986
314.897	1269
314.987	1652
315.076	2243
315.166	2159
315.255	2575
315.345	2408
315.434	2176
315.524	2384
315.613	2125
315.703	3205
315.792	3999
315.881	11138
315.971	4904
316.060	4432
316.150	5878
316.239	6691
316.328	3730
316.418	1666
316.507	1551
316.597	1723
316.686	1595
316.775	1928
316.865	7360
316.954	2558
317.043	1001
317.133	1422
317.222	865
317.311	1123
317.400	895
317.490	2099
317.579	1805
317.668	1675
317.757	2477
317.847	7057
317.936	19963
318.025	8795
318.114	4742
318.203	3465
318.293	3908
318.382	7632
318.471	5690
318.560	8959
318.649	17619
318.738	3967
318.828	2245
318.917	2199
319.006	2669
319.095	8012
319.184	21429
319.273	12800
319.362	5501
319.451	1150
319.540	1028
319.629	3992
319.718	7040
319.807	2948
319.896	6834
319.985	27906
320.074	11663
320.163	2462
320.252	3611
320.341	3578
320.430	3117
320.519	3715
320.608	2601
320.697	1527
320.786	1836
320.875	2704
320.964	2534
321.053	4221
321.142	5960
321.230	6541
321.319	4937
321.408	11417
321.497	5804
321.586	5469
321.675	6472
321.764	6172
321.852	3674
321.941	5696
322.030	4519
322.119	4094
322.207	12165
322.296	10357
322.385	4123
322.474	4934
322.562	14075
322.651	8684
322.740	5149
322.829	7753
322.917	8475
323.006	4803
323.095	3720
323.183	2975
323.272	4346
323.361	7661
323.449	29699
323.538	11014
323.626	18097
323.715	14176
323.804	4283
323.892	16798
323.981	10417
324.069	2382
324.158	8465
324.246	11024
324.335	2803
324.424	4409
324.512	1326
324.601	1965
324.689	4611
324.778	11044
324.866	5877
324.954	1908
325.043	1439
325.131	2834
325.220	7447
325.308	8579
325.397	5282
325.485	4036
325.574	776
325.662	1719
325.750	1565
325.839	675
325.927	1069
326.015	1499
326.104	2521
326.192	4537
326.280	1407
326.369	652
326.457	2200
326.545	3352
326.634	1474
326.722	2118
326.810	280
326.898	1483
326.987	1657
327.075	2719
327.163	3761
327.251	1652
327.340	3088
327.428	6129
327.516	1831
327.604	1141
327.692	1553
327.781	859
327.869	3114
327.957	2988
328.045	1556
328.133	2068
328.221	1538
328.309	1105
328.397	1123
328.485	1767
328.574	1898
328.662	7082
328.750	4762
328.838	1941
328.926	753
329.014	1297
329.102	1492
329.190	4771
329.278	3507
329.366	742
329.454	1023
329.542	657
329.630	1000
329.718	1750
329.806	789
329.893	1343
329.981	1325
330.069	2046
330.157	7802
330.245	30569
330.333	18689
330.421	2643
330.509	2507
330.597	7545
330.684	5135
330.772	2131
330.860	2813
330.948	4205
331.036	1971
331.123	1064
331.211	794
331.299	1028
331.387	3100
331.475	6750
331.562	2346
331.650	1029
331.738	1254
331.825	1675
331.913	999
332.001	607
332.089	891
332.176	2556
332.264	8061
332.352	8149
332.439	2164
332.527	1464
332.614	618
332.702	1516
332.790	1580
332.877	3020
332.965	8762
333.052	1875
333.140	1449
333.228	5001
333.315	1728
333.403	1620
333.490	4402
333.578	4809
333.665	5646
333.753	3579
333.840	810
333.928	1413
334.015	4818
334.103	7977
334.190	29120
334.278	9534
334.365	3132
334.452	3073
334.540	1867
334.627	1436
334.715	3052
334.802	4750
334.889	29984
334.977	43007
335.064	6211
335.151	2447
335.239	2223
335.326	2527
335.413	12345
335.501	23345
335.588	3234
335.675	1175
335.762	1545
335.850	4077
335.937	2581
336.024	6961
336.111	37229
336.199	21710
336.286	3895
336.373	2373
336.460	1037
336.547	1182
336.635	1825
336.722	1459
336.809	1150
336.896	2275
336.983	6651
337.070	17781
337.157	32170
337.245	21932
337.332	20118
337.419	2384
337.506	1429
337.593	1626
337.680	4506
337.767	19345
337.854	5640
337.941	5268
338.028	6714
338.115	3317
338.202	1712
338.289	4582
338.376	22515
338.463	8537
338.550	8480
338.637	14372
338.724	3594
338.811	7228
338.898	1628
338.984	763
339.071	1597
339.158	1585
339.245	3833
339.332	4162
339.419	3617
339.506	4876
339.593	232
339.679	142
339.766	288
339.853	1290
339.940	2387
340.027	1077
340.113	1292
340.200	1108
340.287	1090
340.374	1143
340.460	2858
340.547	1059
340.634	2075
340.720	8332
340.807	5970
340.894	1483
340.980	879
341.067	1873
341.154	1200
341.240	1599
341.327	4350
341.414	1929
341.500	2010
341.587	1423
341.674	510
341.760	2988
341.847	2829
341.933	1287
342.020	718
342.106	799
342.193	411
342.279	1935
342.366	1506
342.452	2335
342.539	1048
342.625	2858
342.712	8663
342.798	4118
342.885	1703
342.971	441
343.058	425
343.144	418
343.230	1093
343.317	1269
343.403	627
343.490	849
343.576	-235
343.662	750
343.749	220
343.835	1859
343.921	2574
344.008	15836
344.094	53794
344.180	13971
344.267	2635
344.353	11142
344.439	15941
344.525	4520
344.612	1574
344.698	974
344.784	1573
344.870	640
344.957	703
345.043	1619
345.129	1094
345.215	2598
345.301	1689
345.387	1126
345.474	304
345.560	105
345.646	925
345.732	1364
345.818	862
345.904	668
345.990	1235
346.076	917
346.162	2093
346.249	1148
346.335	562
346.421	609
346.507	3790
346.593	19819
346.679	6039
346.765	708
346.851	1229
346.937	988
347.023	332
347.108	1697
347.194	194
347.280	684
347.366	1074
347.452	4208
347.538	21987
347.624	17100
347.710	14241
347.796	1927
347.882	1311
347.967	589
348.053	1313
348.139	891
348.225	87
348.311	330
348.397	820
348.482	693
348.568	1820
348.654	222
348.740	778
348.825	1167
348.911	1290
348.997	7636
349.083	23718
349.168	4188
349.254	1135
349.340	1350
349.425	731
349.511	452
349.597	1331
349.682	2208
349.768	11207
349.854	7494
349.939	1642
350.025	-132
350.110	506
350.196	561
350.282	555
350.367	1024
350.453	760
350.538	2130
350.624	995
350.709	1701
350.795	398
350.880	970
350.966	1011
351.051	1960
351.137	1385
351.222	1078
351.308	2485
351.393	9825
351.479	2807
351.564	1031
351.649	661
351.735	633
351.820	774
351.906	625
351.991	846
352.076	5423
352.162	10335
352.247	1434
352.332	623
352.418	1433
352.503	2919
352.588	11935
352.673	12450
352.759	2391
352.844	1070
352.929	1014
353.014	1301
353.100	1041
353.185	1695
353.270	3130
353.355	3535
353.441	566
353.526	782
353.611	2158
353.696	2835
353.781	2148
353.866	99
353.952	825
354.037	1606
354.122	5722
354.207	5318
354.292	1836
354.377	1181
354.462	1244
354.547	1337
354.632	662
354.717	1125
354.802	2176
354.887	992
354.972	925
355.057	-77
355.142	245
355.227	518
355.312	861
355.397	3012
355.482	8809
355.567	5363
355.652	2816
355.737	3301
355.822	11492
355.907	13054
355.991	2097
356.076	967
356.161	730
356.246	399
356.331	596
356.416	2323
356.501	20819
356.585	31753
356.670	4085
356.755	2444
356.840	2216
356.924	11423
357.009	57267
357.094	28589
357.179	4318
357.263	3019
357.348	2307
357.433	2208
357.517	2258
357.602	1414
357.687	1145
357.771	1444
357.856	6700
357.941	4177
358.025	8484
358.110	53640
358.195	34543
358.279	3833
358.364	1870
358.448	6303
358.533	22804
358.617	18873
358.702	17161
358.787	7612
358.871	2677
358.956	1927
359.040	431
359.125	664
359.209	922
359.294	1740
359.378	4497
359.462	2531
359.547	1095
359.631	994
359.716	564
359.800	886
359.885	1772
359.969	1016
360.053	842
360.138	1245
360.222	1288
360.306	2850
360.391	2241
360.475	2961
360.559	8570
360.644	7276
360.728	6514
360.812	9322
360.896	38885
360.981	17727
361.065	6923
361.149	1473
361.233	1959
361.318	1129
361.402	1213
361.486	1383
361.570	685
361.654	1255
361.739	3734
361.823	17980
361.907	43708
361.991	7889
362.075	2708
362.159	5340
362.243	4754
362.327	3543
362.411	8304
362.495	3951
362.580	2003
362.664	462
362.748	1827
362.832	2703
362.916	2129
363.000	10452
363.084	32762
363.168	51060
363.252	13624
363.336	3654
363.420	4144
363.503	16146
363.587	27515
363.671	4935
363.755	1163
363.839	3367
363.923	1870
364.007	3328
364.091	4297
364.175	5169
364.258	30508
364.342	26207
364.426	28308
364.510	19026
364.594	6838
364.677	5450
364.761	29003
364.845	29811
364.929	5137
365.013	4723
365.096	3174
365.180	4318
365.264	6548
365.347	31664
365.431	18163
365.515	3135
365.598	1289
365.682	1156
365.766	2163
365.849	3535
365.933	862
366.017	2479
366.100	1682
366.184	14
366.267	1861
366.351	86
366.435	329
366.518	110
366.602	733
366.685	51
366.769	1255
366.852	2258
366.936	4019
367.019	1969
367.103	1187
367.186	3988
367.270	1405
367.353	-109
367.436	913
367.520	1003
367.603	1128
367.687	274
367.770	3364
367.853	2026
367.937	6581
368.020	17110
368.104	3732
368.187	2346
368.270	3637
368.353	3101
368.437	4217
368.520	13460
368.603	8745
368.687	7219
368.770	19850
368.853	6248
368.936	3099
369.020	4491
369.103	1458
369.186	454
369.269	941
369.352	2166
369.436	3295
369.519	2247
369.602	657
369.685	1156
369.768	1113
369.851	1416
369.934	510
370.018	963
370.101	1961
370.184	3793
370.267	1219
370.350	2977
370.433	5392
370.516	12776
370.599	24926
370.682	5799
370.765	7984
370.848	10363
370.931	23416
371.014	12393
371.097	1286
371.180	1474
371.263	861
371.346	76
371.429	557
371.511	691
371.594	1338
371.677	3393
371.760	4476
371.843	3418
371.926	14625
372.009	47199
372.091	20180
372.174	8092
372.257	24487
372.340	12269
372.423	5053
372.505	7667
372.588	3012
372.671	5453
372.754	21209
372.836	14913
372.919	7715
373.002	18122
373.085	6632
373.167	3700
373.250	7973
373.332	21676
373.415	27614
373.498	65204
373.580	30265
373.663	25066
373.746	48260
373.828	11389
373.911	3476
373.993	3103
374.076	14504
374.159	18877
374.241	7069
374.324	15974
374.406	14993
374.489	13788
374.571	53500
374.654	28733
374.736	8368
374.819	29839
374.901	44769
374.983	56453
375.066	12655
375.148	2900
375.231	11346
375.313	28505
375.395	11305
375.478	2124
375.560	1068
375.643	2494
375.725	6046
375.807	37091
375.890	39715
375.972	14525
376.054	5840
376.136	11032
376.219	6076
376.301	8551
376.383	34484
376.465	17540
376.548	6296
376.630	7033
376.712	27346
376.794	17197
376.877	2048
376.959	421
377.041	1063
377.123	2264
377.205	4297
377.287	838
377.369	215
377.452	57
377.534	268
377.616	559
377.698	233
377.780	263
377.862	869
377.944	887
378.026	91
378.108	587
378.190	204
378.272	692
378.354	807
378.436	801
378.518	1190
378.600	5193
378.682	5549
378.764	10765
378.846	12372
378.928	3042
379.010	3382
379.091	1815
379.173	623
379.255	436
379.337	1050
379.419	4654
379.501	17900
379.583	10295
379.664	1540
379.746	3124
379.828	9838
379.910	16870
379.991	16915
380.073	3029
380.155	1788
380.237	1091
380.318	210
380.400	1252
380.482	2014
380.564	3351
380.645	3067
380.727	3607
380.809	2221
380.890	1413
380.972	807
381.053	656
381.135	1363
381.217	2769
381.298	12644
381.380	8107
381.461	4382
381.543	22650
381.624	40411
381.706	9536
381.787	2477
381.869	3903
381.951	9166
382.032	46336
382.113	39947
382.195	6314
382.276	4587
382.358	6639
382.439	24441
382.521	30099
382.602	49274
382.684	24934
382.765	29918
382.846	37689
382.928	46242
383.009	33950
383.090	15972
383.172	54650
383.253	115129
383.334	45624
383.416	39374
383.497	27640
383.578	8491
383.659	12750
383.741	45136
383.822	149951
383.903	105428
383.984	26506
384.066	46013
384.147	33818
384.228	7611
384.309	3870
384.390	3781
384.471	2843
384.553	1955
384.634	2883
384.715	3388
384.796	1182
384.877	2641
384.958	8476
385.039	15575
385.120	5154
385.201	2518
385.282	2515
385.363	2725
385.444	2326
385.525	4506
385.606	17904
385.687	22444
385.768	4552
385.849	4320
385.930	16874
386.011	41181
386.092	13811
386.173	2685
386.254	1520
386.335	2141
386.416	1672
386.496	6403
386.577	13389
386.658	5366
386.739	2786
386.820	2943
386.901	1619
386.981	2002
387.062	1272
387.143	1925
387.224	10676
387.304	13837
387.385	4781
387.466	1922
387.547	3946
387.627	2776
387.708	3730
387.789	19875
387.869	31633
387.950	11587
388.031	1051
388.111	-92
388.192	3859
388.273	6127
388.353	3718
388.434	2224
388.514	3433
388.595	20746
388.676	34263
388.756	15722
388.837	10617
388.917	7916
388.998	1004
389.078	1717
389.159	1418
389.239	278
389.320	2085
389.400	997
389.480	3608
389.561	13313
389.641	9659
389.722	2155
389.802	2694
389.883	4883
389.963	16586
390.043	13100
390.124	3432
390.204	4413
390.284	12718
390.365	10256
390.445	9219
390.525	24725
390.605	26117
390.686	8333
390.766	2688
390.846	990
390.927	866
391.007	276
391.087	1242
391.167	1175
391.247	-132
391.328	2160
391.408	3914
391.488	3001
391.568	805
391.648	1570
391.728	2121
391.808	2716
391.888	2485
391.969	5963
392.049	13100
392.129	7568
392.209	5082
392.289	16689
392.369	11993
392.449	7252
392.529	4687
392.609	4153
392.689	4813
392.769	14638
392.849	17662
392.929	10499
393.009	22168
393.089	23842
393.169	17811
393.248	46499
393.328	193265
393.408	286282
393.488	89380
393.568	20035
393.648	8835
393.728	6194
393.807	4248
393.887	3549
393.967	3221
394.047	4125
394.127	3229
394.206	6230
394.286	17140
394.366	89424
394.446	135087
394.525	32993
394.605	7339
394.685	5084
394.764	9012
394.844	17748
394.924	15306
395.003	4385
395.083	2093
395.163	2969
395.242	1951
395.322	2310
395.402	411
395.481	3514
395.561	5335
395.640	19634
395.720	18251
395.799	22081
395.879	21382
395.958	9261
396.038	24211
396.117	118211
396.197	175075
396.276	52155
396.356	12607
396.435	9767
396.515	7705
396.594	7891
396.673	14564
396.753	50675
396.832	189839
396.912	189343
396.991	44500
397.070	11563
397.150	4536
397.229	4323
397.308	5333
397.388	9333
397.467	5861
397.546	2312
397.625	510
397.705	2554
397.784	1934
397.863	1035
397.942	1026
398.022	1770
398.101	4022
398.180	18240
398.259	12502
398.338	3054
398.417	1573
398.497	1082
398.576	1586
398.655	531
398.734	1035
398.813	622
398.892	4051
398.971	19329
399.050	13676
399.129	883
399.208	554
399.287	1109
399.366	45
399.445	143
399.524	320
399.603	-501
399.682	1568
399.761	3856
399.840	19707
399.919	23366
399.998	3642
400.077	-180
400.156	-81
400.235	1438
400.313	-396
400.392	106
400.471	3949
400.550	10102
400.629	3348
400.708	1282
400.786	44
400.865	2176
400.944	3877
401.023	2667
401.102	-454
401.180	277
401.259	-191
401.338	180
401.416	715
401.495	382
401.574	374
401.652	-312
401.731	392
401.810	77
401.888	275
401.967	-706
402.046	150
402.124	163
402.203	611
402.281	866
402.360	134
402.438	4537
402.517	2696
402.596	1246
402.674	-193
402.753	69
402.831	110
402.910	188
402.988	2532
403.066	14256
403.145	12200
403.223	4747
403.302	11862
403.380	11527
403.459	9106
403.537	4241
403.615	1151
403.694	-568
403.772	169
403.850	106
403.929	1
404.007	-2
404.085	1367
404.164	1104
404.242	270
404.320	1710
404.398	3746
404.477	6625
404.555	30106
404.633	38677
404.711	7329
404.789	2414
404.868	356
404.946	-387
405.024	-368
405.102	-277
405.180	-301
405.258	-1121
405.336	214
405.415	-370
405.493	2164
405.571	1895
405.649	-733
405.727	-965
405.805	1127
405.883	931
405.961	934
406.039	1573
406.117	-422
406.195	855
406.273	3866
406.351	26507
406.429	23326
406.507	2272
406.585	-95
406.663	1182
406.740	802
406.818	-471
406.896	-1038
406.974	209
407.052	735
407.130	12585
407.208	26095
407.285	7415
407.363	133
407.441	-249
407.519	202
407.596	-26
407.674	2159
407.752	10418
407.830	14909
407.907	3965
407.985	21
408.063	211
408.141	-1613
408.218	446
408.296	500
408.373	56
408.451	318
408.529	-278
408.606	-900
408.684	181
408.762	-60
408.839	-323
408.917	-604
408.994	-376
409.072	-62
409.149	-184
409.227	247
409.304	1349
409.382	816
409.459	-182
409.537	2239
409.614	1696
409.692	565
409.769	232
409.846	1204
409.924	3137
410.001	1117
410.079	667
410.156	1038
410.233	880
410.311	376
410.388	319
410.465	-102
410.543	-85
410.620	377
410.697	260
410.775	107
410.852	-306
410.929	447
411.006	857
411.083	62
411.161	1341
411.238	2056
411.315	1118
411.392	89
411.469	471
411.547	88
411.624	-720
411.701	-841
411.778	399
411.855	759
411.932	265
412.009	45
412.086	557
412.163	190
412.240	57
412.317	462
412.394	30
412.471	-238
412.548	-193
412.625	-759
412.702	136
412.779	1084
412.856	1094
412.933	-1339
413.010	56
413.087	82
413.164	3971
413.241	8610
413.318	1579
413.395	228
413.471	241
413.548	601
413.625	38
413.702	-574
413.779	128
413.855	-287
413.932	-882
414.009	-1743
414.086	-182
414.162	-255
414.239	349
414.316	3295
414.393	12314
414.469	4863
414.546	259
414.623	-787
414.699	-478
414.776	4
414.853	-330
414.929	-216
415.006	-319
415.082	-615
415.159	-399
415.236	746
415.312	-140
415.389	839
415.465	-49
415.542	331
415.618	-808
415.695	257
415.771	-959
415.848	37
415.924	-146
416.000	-193
416.077	-29
416.153	-1318
416.230	-950
416.306	-413
416.383	-641
416.459	217
416.535	-1091
416.612	-1162
416.688	-319
416.764	-343
416.841	-739
416.917	-127
416.993	421
417.069	288
417.146	-663
417.222	113
417.298	433
417.374	-530
417.451	-328
417.527	-485
417.603	715
417.679	-24
417.755	342
417.831	-850
417.908	-203
417.984	-408
418.060	-1097
418.136	-83
418.212	1292
418.288	-439
418.364	116
418.440	-818
418.516	217
418.592	228
418.668	2070
418.744	2429
418.820	2354
418.896	-600
418.972	-853
419.048	-113
419.124	1459
419.200	-2
419.276	-765
419.352	-572
419.428	-775
419.504	-861
419.579	143
419.655	-862
419.731	-173
419.807	1558
419.883	2792
419.959	3034
420.034	1009
420.110	272
420.186	6062
420.262	8158
420.337	1718
420.413	88
420.489	758
420.565	322
420.640	-328
420.716	613
420.792	-1251
420.867	765
420.943	-470
421.019	429
421.094	1053
421.170	604
421.245	-923
421.321	629
421.397	210
421.472	2719
421.548	5626
421.623	6057
421.699	1997
421.774	1328
421.850	1142
421.925	1789
422.001	2334
422.076	2500
422.152	2568
422.227	3190
422.302	5826
422.378	7449
422.453	13691
422.529	32701
422.604	91475
422.679	173934
422.755	139042
422.830	57234
422.905	20734
422.981	11148
423.056	6660
423.131	5178
423.207	3237
423.282	2311
423.357	3432
423.432	2520
423.508	2057
423.583	3544
423.658	4204
423.733	1542
423.808	651
423.883	1258
423.959	1604
424.034	1029
424.109	1187
424.184	-137
424.259	680
424.334	287
424.409	151
424.484	85
424.559	374
424.634	22
424.709	596
424.784	518
424.859	59
424.934	-167
425.009	4942
425.084	9389
425.159	4818
425.234	1112
425.309	182
425.384	13
425.459	967
425.534	1344
425.609	448
425.683	-342
425.758	319
425.833	-49
425.908	793
425.983	1254
426.058	9182
426.132	5703
426.207	951
426.282	1389
426.357	687
426.431	138
426.506	333
426.581	57
426.655	486
426.730	-194
426.805	-403
426.879	450
426.954	-263
427.029	587
427.103	7103
427.178	24376
427.253	18805
427.327	1887
427.402	123
427.476	3067
427.551	2685
427.625	321
427.700	1315
427.774	-970
427.849	1015
427.923	-11
427.998	-196
428.072	-749
428.147	2466
428.221	6316
428.296	30594
428.370	27163
428.444	3866
428.519	1020
428.593	3565
428.667	4632
428.742	3857
428.816	5085
428.890	15534
428.965	38134
429.039	15785
429.113	4932
429.188	3238
429.262	980
429.336	494
429.410	4737
429.485	4604
429.559	3478
429.633	4292
429.707	786
429.781	2801
429.855	16048
429.930	38671
430.004	20795
430.078	20562
430.152	23954
430.226	39502
430.300	61412
430.374	14915
430.448	2834
430.522	4764
430.596	18603
430.670	19724
430.744	26944
430.818	59744
430.892	20247
430.966	2382
431.040	417
431.114	-88
431.188	-486
431.262	-407
431.336	24
431.410	1605
431.484	3964
431.557	5465
431.631	666
431.705	896
431.779	4245
431.853	26257
431.927	32506
432.000	6275
432.074	630
432.148	452
432.222	242
432.295	60
432.369	-84
432.443	249
432.516	6837
432.590	28236
432.664	18569
432.737	1755
432.811	-1078
432.885	-662
432.958	-218
433.032	61
433.106	-477
433.179	91
433.253	-729
433.326	-940
433.400	-756
433.473	-1011
433.547	-1156
433.620	-764
433.694	-335
433.767	1284
433.841	-443
433.914	-546
433.988	-682
434.061	109
434.134	-215
434.208	-270
434.281	-1108
434.355	-950
434.428	-236
434.501	-679
434.575	-639
434.648	-63
434.721	-401
434.795	-767
434.868	-554
434.941	-1455
435.014	-987
435.088	-664
435.161	-54
435.234	-58
435.307	1592
435.381	556
435.454	-315
435.527	1219
435.600	412
435.673	430
435.746	565
435.819	-340
435.892	-267
435.966	85
436.039	-1184
436.112	-89
436.185	43
436.258	-337
436.331	-990
436.404	-1168
436.477	-497
436.550	-206
436.623	-86
436.696	-684
436.769	-261
436.842	355
436.915	-96
436.987	-124
437.060	139
437.133	-389
437.206	-500
437.279	-105
437.352	-1124
437.425	-852
437.498	-483
437.570	256
437.643	1284
437.716	452
437.789	-1056
437.861	355
437.934	3819
438.007	3905
438.080	1294
438.152	220
438.225	1860
438.298	10359
438.370	45589
438.443	36127
438.516	7658
438.588	2209
438.661	-526
438.734	227
438.806	-704
438.879	358
438.951	147
439.024	2000
439.096	660
439.169	396
439.241	-296
439.314	-525
439.386	-216
439.459	511
439.531	1735
439.604	1041
439.676	111
439.749	-487
439.821	-319
439.893	-97
439.966	-151
440.038	-575
440.110	419
440.183	788
440.255	-283
440.327	103
440.400	3753
440.472	23004
440.544	31482
440.617	6304
440.689	1898
440.761	1453
440.833	4130
440.905	4403
440.978	296
441.050	-571
441.122	374
441.194	-69
441.266	54
441.338	-324
441.411	856
441.483	5030
441.555	14920
441.627	7314
441.699	1074
441.771	959
441.843	504
441.915	-592
441.987	-375
442.059	169
442.131	677
442.203	1049
442.275	1544
442.347	2861
442.419	3538
442.491	12875
442.563	48149
442.635	43139
442.706	12755
442.778	9767
442.850	3191
442.922	232
442.994	531
443.066	1994
443.137	2402
443.209	1466
443.281	2882
443.353	5453
443.425	18996
443.496	76376
443.568	117962
443.640	64829
443.711	16401
443.783	3510
443.855	2551
443.926	1400
443.998	791
444.070	2085
444.141	1228
444.213	1623
444.285	2708
444.356	2340
444.428	2346
444.499	1311
444.571	962
444.642	921
444.714	530
444.785	1095
444.857	2874
444.928	4987
445.000	6310
445.071	4644
445.143	6825
445.214	6135
445.285	5757
445.357	15550
445.428	46420
445.500	139113
445.571	132401
445.642	77434
445.714	32778
445.785	16674
445.856	7859
445.928	3550
445.999	3503
446.070	3153
446.141	2828
446.213	3329
446.284	1481
446.355	1115
446.426	1471
446.497	671
446.569	671
446.640	2416
446.711	2662
446.782	1665
446.853	583
446.924	1549
446.995	509
447.066	706
447.138	1755
447.209	1626
447.280	-69
447.351	-373
447.422	-619
447.493	14
447.564	803
447.635	1042
447.706	684
447.777	-416
447.847	-550
447.918	-663
447.989	360
448.060	1300
448.131	2476
448.202	5059
448.273	2187
448.344	2142
448.414	515
448.485	357
448.556	62
448.627	-725
448.698	474
448.768	-163
448.839	-231
448.910	964
448.981	2539
449.051	1313
449.122	-80
449.193	237
449.263	-658
449.334	33
449.405	392
449.475	2211
449.546	3586
449.616	2560
449.687	2781
449.758	1821
449.828	-623
449.899	-142
449.969	298
450.040	-102
450.110	-272
450.181	774
450.251	809
450.322	-105
450.392	-304
450.463	-62
450.533	-28
450.604	250
450.674	334
450.744	374
450.815	429
450.885	481
450.955	-355
451.026	275
451.096	-369
451.166	498
451.237	1286
451.307	6939
451.377	7155
451.447	945
451.518	631
451.588	771
451.658	764
451.728	102
451.799	4449
451.869	11801
451.939	5366
452.009	895
452.079	553
452.149	432
452.219	726
452.289	6318
452.360	11473
452.430	3775
452.500	1197
452.570	1508
452.640	2478
452.710	7109
452.780	14401
452.850	13018
452.920	9617
452.990	5593
453.060	1890
453.129	1524
453.199	3305
453.269	5285
453.339	29266
453.409	53299
453.479	34926
453.549	53130
453.619	65094
453.688	48260
453.758	10137
453.828	1469
453.898	749
453.968	931
454.037	797
454.087	698
454.107	646
454.168	239
454.177	166
454.247	294
454.249	328
454.316	610
454.330	632
454.386	578
454.411	1366
454.456	2300
454.492	5378
454.525	8103
454.574	7039
454.595	6656
454.655	1921
454.665	1162
454.734	1078
454.736	1181
454.804	3261
454.817	4073
454.873	6200
454.898	8763
454.943	13196
454.979	10283
455.013	7959
455.060	4285
455.082	2753
455.141	2802
455.152	2763
455.221	5834
455.222	6036
455.291	12732
455.303	12894
455.360	14150
455.384	14559
455.430	13973
455.465	14025
455.499	14339
455.546	11443
455.569	9574
455.627	8938
455.638	9028
455.707	3348
455.708	3345
455.777	1079
455.789	1078
455.846	811
455.869	910
455.916	1211
455.950	954
455.985	660
456.031	1101
456.054	1277
456.112	1430
456.124	1486
456.193	953
456.193	936
456.262	758
456.274	953
456.332	1894
456.355	2031
456.401	1580
456.436	1336
456.470	1419
456.516	1287
456.540	1202
456.597	494
456.609	347
456.678	952
456.678	942
456.747	339
456.759	202
456.817	-208
456.840	47
456.886	600
456.920	842
456.955	1087
457.001	1664
457.024	2018
457.082	1883
457.093	1873
457.162	3870
457.163	3897
457.232	2523
457.243	2457
457.301	2228
457.324	1678
457.370	981
457.405	1302
457.439	1850
457.485	1627
457.508	1409
457.566	1820
457.577	1992
457.646	3157
457.647	3185
457.715	5690
457.727	6159
457.784	10075
457.808	12681
457.853	14510
457.889	17006
457.922	17270
457.969	14666
457.991	16339
458.050	17597
458.060	17983
458.129	26303
458.130	26690
458.198	24759
458.211	22872
458.267	19048
458.292	14342
458.336	9807
458.372	8569
458.405	9625
458.453	13577
458.474	16861
458.533	28310
458.543	28743
458.611	39610
458.614	40111
458.680	30963
458.694	25508
458.749	17292
458.775	12635
458.818	6389
458.855	4918
458.887	3892
458.936	3537
458.955	3306
459.016	2639
459.024	2568
459.093	2730
459.097	2747
459.162	2689
459.177	2579
459.230	2812
459.257	3132
459.299	3255
459.338	3468
459.368	3667
459.418	3954
459.437	3759
459.499	3805
459.505	3901
459.574	2562
459.579	2575
459.643	2073
459.659	2049
459.711	2612
459.740	2584
459.780	2319
459.820	2192
459.849	2328
459.900	3042
459.917	3097
459.981	3237
459.986	3212
460.054	2626
460.061	2570
460.123	2964
460.141	2949
460.191	2900
460.222	3313
460.260	3769
460.302	4556
460.328	4416
460.382	3487
460.397	3703
460.462	4341
460.465	4452
460.534	7593
460.543	7962
460.602	18703
460.623	22953
460.671	37011
460.703	48982
460.739	40626
460.783	32515
460.808	31157
460.864	13243
460.876	11578
460.944	3458
460.945	3374
461.013	3132
461.024	3116
461.081	3011
461.104	3115
461.150	2974
461.184	3008
461.218	3018
461.264	2676
461.286	2827
461.345	3454
461.355	3405
461.423	3105
461.425	3089
461.491	4163
461.505	4510
461.559	8355
461.585	9983
461.628	15313
461.665	20420
461.696	20702
461.745	22703
461.764	19601
461.825	8716
461.832	8887
461.901	4754
461.905	4676
461.969	3324
461.985	3298
462.037	3851
462.065	4021
462.105	4760
462.145	5540
462.173	7427
462.225	10983
462.241	12060
462.305	17107
462.310	16540
462.378	8425
462.385	7292
462.446	5840
462.465	5008
462.514	3796
462.545	3680
462.582	3657
462.625	3855
462.650	3709
462.705	3316
462.718	3475
462.785	4311
462.786	4355
462.854	6570
462.865	7023
462.922	8154
462.945	8676
462.990	6172
463.025	4123
463.058	4348
463.104	3747
463.126	3410
463.184	3167
463.194	3227
463.262	3786
463.264	3811
463.330	3829
463.344	3779
463.398	4106
463.424	4280
463.466	4173
463.504	4190
463.533	4317
463.583	4411
463.601	4677
463.663	5208
463.669	5362
463.737	7598
463.743	7780
463.805	11702
463.823	12980
463.873	20977
463.903	25656
463.940	24694
463.982	24280
464.008	19488
464.062	9062
464.076	8806
464.142	4848
464.144	4793
464.211	3672
464.221	3659
464.279	3905
464.301	3974
464.347	4967
464.381	5664
464.414	5949
464.461	6414
464.482	6524
464.540	7014
464.550	6795
464.617	4888
464.620	4813
464.685	6184
464.699	6534
464.753	6968
464.779	7145
464.820	7604
464.859	8078
464.888	8101
464.938	8003
464.956	8174
465.018	8600
465.023	8468
465.091	6931
465.098	6752
465.158	6577
465.177	6477
465.226	6607
465.257	6744
465.293	6915
465.336	7128
465.361	7775
465.416	8977
465.428	9834
465.495	14745
465.496	14827
465.563	24024
465.575	25611
465.631	29653
465.654	31539
465.698	19017
465.734	8381
465.765	8086
465.813	6702
465.833	6318
465.893	5955
465.900	5951
465.968	5948
465.972	5944
466.035	6268
466.052	6342
466.102	5982
466.131	5781
466.170	6139
466.210	6495
466.237	6752
466.290	7200
466.304	7135
466.369	6700
466.372	6737
466.439	7733
466.449	7840
466.506	9108
466.528	9616
466.573	14778
466.607	18557
466.641	27083
466.687	38973
466.708	41281
466.766	47476
466.775	43642
466.842	14441
466.845	13031
466.909	10339
466.925	9680
466.977	9446
467.004	9440
467.044	9190
467.083	8911
467.111	9332
467.163	10118
467.178	10463
467.242	11832
467.245	11797
467.312	10752
467.321	10600
467.379	10835
467.400	10894
467.446	12385
467.480	13432
467.559	10430
467.638	8361
467.717	9615
467.796	10751
467.875	11300
467.955	10282
468.034	19280
468.113	43509
468.192	61026
468.271	12971
468.350	11413
468.429	14677
468.508	15018
468.588	11407
468.667	9574
468.746	10848
468.825	9280
468.904	8377
468.983	10701
469.062	17077
469.141	18860
469.220	7901
469.299	8589
469.378	8557
469.456	10770
469.535	9898
469.614	9388
469.693	9520
469.772	12992
469.851	19072
469.930	11349
470.009	8796
470.088	8947
470.166	11792
470.245	16958
470.324	18277
470.403	11232
470.482	8907
470.560	8184
470.639	8346
470.718	10244
470.797	8830
470.875	10582
470.954	15071
471.033	16611
471.111	6790
471.190	7036
471.269	6442
471.347	6580
471.426	7637
471.505	9821
471.583	8569
471.662	7380
471.740	7407
471.819	7228
471.898	6622
471.976	7745
472.055	7389
472.133	9143
472.212	12204
472.290	12176
472.369	6535
472.447	6930
472.526	6065
472.604	8213
472.683	7272
472.761	7656
472.839	7347
472.918	7630
472.996	7098
473.075	8325
473.153	8470
473.231	7748
473.310	8386
473.388	8190
473.466	7433
473.545	9742
473.623	11049
473.701	10303
473.780	7150
473.858	7532
473.936	8496
474.014	7002
474.093	9523
474.171	14819
474.249	20390
474.327	11029
474.405	6631
474.484	6942
474.562	6843
474.640	7077
474.718	7325
474.796	7715
474.874	7045
474.952	6635
475.030	6682
475.108	6799
475.187	7888
475.265	8439
475.343	11704
475.421	12033
475.499	6481
475.577	8022
475.655	11274
475.733	23585
475.811	41312
475.889	36800
475.966	18619
476.044	7681
476.122	9039
476.200	12299
476.278	8687
476.356	6067
476.434	7564
476.512	9589
476.590	12165
476.667	9813
476.745	6906
476.823	7225
476.901	6346
476.979	7150
477.056	7800
477.134	7286
477.212	6723
477.290	6279
477.367	5698
477.445	6241
477.523	5837
477.601	6529
477.678	6559
477.756	8162
477.834	8842
477.911	5491
477.989	6985
478.066	6873
478.144	7618
478.222	9101
478.299	13351
478.377	10864
478.454	6596
478.532	6431
478.609	6350
478.687	6449
478.764	5538
478.842	6457
478.919	7496
478.997	6204
479.074	5821
479.152	7469
479.229	10521
479.307	5716
479.384	5109
479.461	5594
479.539	6950
479.616	7713
479.694	6282
479.771	7658
479.848	7942
479.926	11709
480.003	10729
480.080	5777
480.157	5636
480.235	5553
480.312	5485
480.389	7670
480.467	12390
480.544	16006
480.621	8138
480.698	7331
480.775	8555
480.853	9056
480.930	7396
481.007	6760
481.084	8629
481.161	9556
481.238	8043
481.315	5829
481.392	5465
481.470	6241
481.547	6150
481.624	5594
481.701	6232
481.778	6204
481.855	7860
481.932	12827
482.009	22531
482.086	11979
482.163	6774
482.240	11480
482.317	17809
482.393	12430
482.470	7182
482.547	7383
482.624	5780
482.701	7116
482.778	5768
482.855	5571
482.932	4944
483.009	6083
483.085	6112
483.162	9307
483.239	8796
483.316	6976
483.393	7102
483.469	6169
483.546	7397
483.623	8754
483.699	5210
483.776	5852
483.853	7944
483.930	13972
484.006	34759
484.083	56599
484.160	21131
484.236	28741
484.313	20977
484.389	16407
484.466	16336
484.543	16014
484.619	16523
484.696	18444
484.772	17858
484.849	17936
484.925	14400
485.002	13859
485.078	15398
485.155	14454
485.231	12780
485.308	13433
485.384	13902
485.461	18890
485.537	33281
485.614	36241
485.690	13574
485.766	12708
485.843	13976
485.919	19601
485.995	17511
486.072	11815
486.148	12572
486.224	11254
486.301	12517
486.377	15079
486.453	13947
486.530	13790
486.606	17933
486.682	20264
486.758	26579
486.835	30103
486.911	24676
486.987	44492
487.063	38297
487.139	44159
487.215	29425
487.292	15240
487.368	13687
487.444	16366
487.520	22206
487.596	23358
487.672	44372
487.748	114082
487.824	151874
487.900	37382
487.976	17389
488.052	17186
488.128	19990
488.204	15954
488.280	13185
488.356	18830
488.432	39632
488.508	56711
488.584	14951
488.660	10690
488.736	12339
488.812	12342
488.888	16546
488.964	22824
489.039	46329
489.115	64444
489.191	31491
489.267	12692
489.343	11491
489.418	10371
489.494	10243
489.570	9525
489.646	10132
489.722	10425
489.797	11413
489.873	21394
489.949	46944
490.024	30715
490.100	10271
490.176	9569
490.251	12082
490.327	16287
490.403	8721
490.478	8952
490.554	7787
490.629	8322
490.705	7948
490.781	9347
490.856	9012
490.932	10840
491.007	9374
491.083	10483
491.158	9082
491.234	15623
491.309	33608
491.385	28757
491.460	8861
491.536	10159
491.611	9076
491.686	9857
491.762	14184
491.837	29128
491.913	49266
491.988	69709
492.063	73511
492.139	22887
492.214	12847
492.289	7216
492.365	8051
492.440	10005
492.515	9331
492.590	8915
492.666	7172
492.741	12050
492.816	17911
492.891	8684
492.967	6766
493.042	6708
493.117	6807
493.192	8286
493.267	14376
493.342	38949
493.418	44568
493.493	9101
493.568	5494
493.643	7072
493.718	10194
493.793	15506
493.868	15183
493.943	8072
494.018	7399
494.093	7029
494.168	6648
494.243	5177
494.318	5434
494.393	5794
494.468	6027
494.543	5699
494.618	6781
494.693	6118
494.768	5936
494.842	6893
494.917	5039
494.992	6463
495.067	4357
495.142	4872
495.217	5174
495.292	5535
495.366	6742
495.441	9241
495.516	12218
495.591	20287
495.665	65978
495.740	139271
495.815	39849
495.890	9811
495.964	7572
496.039	10339
496.114	8575
496.188	9976
496.263	9552
496.338	8704
496.412	9816
496.487	11111
496.561	11590
496.636	11656
496.710	9473
496.785	10476
496.860	11510
496.934	9409
497.009	8433
497.083	8878
497.158	9118
497.232	11610
497.307	14242
497.381	11488
497.455	14775
497.530	18720
497.604	12200
497.679	13853
497.753	23009
497.827	28533
497.902	25296
497.976	35886
498.050	100249
498.125	333094
498.199	260469
498.273	37901
498.348	28079
498.422	21987
498.496	19185
498.570	17863
498.645	12568
498.719	13441
498.793	17022
498.867	29330
498.941	45781
499.016	141791
499.090	342104
499.164	75239
499.238	9963
499.312	10685
499.386	12162
499.460	11188
499.534	10156
499.609	13690
499.683	21509
499.757	25327
499.831	66832
499.905	235393
499.979	167546
500.053	26927
500.127	23673
500.201	15475
500.275	9642
500.349	10073
500.422	10978
500.496	21229
500.570	50043
500.644	127138
500.718	214101
500.792	31245
500.866	10131
500.940	14386
501.013	10560
501.087	11722
501.161	20318
501.235	31829
501.309	80336
501.382	205336
501.456	137307
501.530	34185
501.603	59412
501.677	16484
501.751	8855
501.825	12402
501.898	27984
501.972	77425
502.046	34560
502.119	13464
502.193	35107
502.266	83805
502.340	31189
502.413	38361
502.487	67722
502.561	34126
502.634	9198
502.708	8514
502.781	7157
502.855	6350
502.928	5461
503.002	5703
503.075	5261
503.149	6442
503.222	5031
503.295	7120
503.369	9305
503.442	17689
503.516	63371
503.589	143335
503.662	74435
503.736	28229
503.809	67307
503.882	48534
503.956	81052
504.029	66873
504.102	63718
504.175	77748
504.249	21462
504.322	12781
504.395	10028
504.468	6707
504.542	6356
504.615	5493
504.688	4684
504.761	4616
504.834	7249
504.907	8832
504.980	12392
505.053	7159
505.127	7286
505.200	10823
505.273	10623
505.346	6053
505.419	5043
505.492	4056
505.565	3328
505.638	4865
505.711	4191
505.784	4517
505.857	3276
505.930	5000
506.003	3437
506.076	6214
506.149	6904
506.221	9380
506.294	10308
506.367	34135
506.440	104427
506.513	38567
506.586	9985
506.659	5741
506.731	4319
506.804	6356
506.877	9103
506.950	6236
507.022	4891
507.095	6266
507.168	8208
507.241	5343
507.313	2450
507.386	4980
507.459	6518
507.531	4562
507.604	3221
507.677	4315
507.749	2613
507.822	5546
507.894	11379
507.967	12302
508.040	6282
508.112	6596
508.185	6087
508.257	4987
508.330	8061
508.402	6150
508.475	5657
508.547	6234
508.620	7068
508.692	12744
508.765	5273
508.837	4273
508.909	4895
508.982	4795
509.054	5918
509.127	3963
509.199	3860
509.271	3882
509.344	3400
509.416	4096
509.488	3947
509.560	4192
509.633	4811
509.705	5516
509.777	5026
509.849	8296
509.922	4354
509.994	5158
510.066	3795
510.138	4676
510.210	10489
510.283	9212
510.355	7224
510.427	6714
510.499	5594
510.571	6315
510.643	6448
510.715	10193
510.787	7332
510.859	6593
510.931	7620
511.003	9957
511.076	8944
511.148	5789
511.219	6016
511.291	11468
511.363	12077
511.435	4478
511.507	3697
511.579	5565
511.651	4382
511.723	5287
511.795	4170
511.867	5428
511.939	7811
512.010	18316
512.082	10425
512.154	5348
512.226	6703
512.298	9210
512.369	12630
512.441	9844
512.513	8624
512.585	7188
512.656	7470
512.728	8650
512.800	5532
512.871	5789
512.943	6669
513.015	5191
513.086	5238
513.158	6163
513.230	6657
513.301	10541
513.373	11324
513.444	6181
513.516	4819
513.588	5495
513.659	5230
513.731	8134
513.802	8064
513.874	16520
513.945	25073
514.016	7564
514.088	4987
514.159	6287
514.231	9305
514.302	11305
514.374	8219
514.445	8826
514.516	20168
514.588	11578
514.659	8696
514.730	17885
514.802	10873
514.873	8194
514.944	9088
515.016	8227
515.087	9225
515.158	12786
515.229	16418
515.301	10162
515.372	10848
515.443	6411
515.514	6096
515.585	5665
515.656	5690
515.728	5645
515.799	5064
515.870	6169
515.941	6409
516.012	6960
516.083	8444
516.154	8888
516.225	12463
516.296	9788
516.367	8606
516.438	10655
516.509	15224
516.580	32449
516.651	96798
516.722	285753
516.793	85394
516.864	18506
516.935	17973
517.006	22868
517.077	41979
517.148	110126
517.219	375248
517.289	451790
517.360	122086
517.431	31212
517.502	11243
517.573	11007
517.643	10316
517.714	11558
517.785	10530
517.856	12017
517.926	13703
517.997	15385
518.068	21819
518.138	36518
518.209	77908
518.280	270942
518.350	778882
518.421	201771
518.492	23015
518.562	17131
518.633	18594
518.703	20304
518.774	42555
518.845	101706
518.915	81275
518.986	23253
519.056	18176
519.127	30298
519.197	47415
519.268	106706
519.338	52104
519.408	14930
519.479	15238
519.549	10754
519.620	7449
519.690	5802
519.760	6602
519.831	7306
519.901	7087
519.971	5468
520.042	6806
520.112	8470
520.182	8706
520.253	8504
520.323	6231
520.393	7653
520.463	11914
520.534	6913
520.604	15629
520.674	8986
520.744	10015
520.814	18045
520.885	20955
520.955	40744
521.025	126425
521.095	34063
521.165	7028
521.235	7119
521.305	6043
521.375	5958
521.445	6398
521.515	8527
521.585	9449
521.655	8202
521.725	7965
521.795	7353
521.865	4194
521.935	10370
522.005	8075
522.075	5413
522.145	6175
522.215	7129
522.285	11385
522.355	16821
522.424	30854
522.494	22858
522.564	11765
522.634	24861
522.704	59101
522.774	17021
522.843	6415
522.913	5411
522.983	7112
523.053	5705
523.122	6570
523.192	11679
523.262	34595
523.331	25881
523.401	5695
523.471	4998
523.540	5457
523.610	3976
523.680	4200
523.749	5085
523.819	6323
523.888	6167
523.958	4240
524.027	4632
524.097	4901
524.166	5464
524.236	5156
524.305	5599
524.375	4585
524.444	4377
524.514	5552
524.583	5557
524.653	7224
524.722	8506
524.791	3349
524.861	5378
524.930	4233
524.999	5978
525.069	7781
525.138	6994
525.207	7243
525.277	6069
525.346	5040
525.415	5070
525.484	6034
525.554	7432
525.623	5363
525.692	6791
525.761	6321
525.830	8277
525.900	9982
525.969	18740
526.038	34438
526.107	74289
526.176	189350
526.245	128685
526.314	46681
526.383	106825
526.452	132488
526.522	227884
526.591	179064
526.660	37638
526.729	21234
526.797	32439
526.867	76059
526.935	256294
527.004	463044
527.073	202433
527.142	15626
527.211	8336
527.280	8572
527.349	8613
527.418	3358
527.487	5194
527.555	3818
527.624	3638
527.693	2963
527.762	5412
527.831	3291
527.899	4092
527.968	4712
528.037	3056
528.106	5846
528.174	10287
528.243	9267
528.312	14664
528.380	14806
528.449	4407
528.518	2998
528.586	2095
528.655	3497
528.723	2831
528.792	2882
528.861	4088
528.929	2253
528.998	4037
529.066	1860
529.135	3057
529.203	2754
529.272	2593
529.340	3638
529.409	4126
529.477	2741
529.545	5458
529.614	6295
529.682	6412
529.751	7142
529.819	7721
529.887	4460
529.956	3319
530.024	4075
530.092	3116
530.161	5001
530.229	6966
530.297	3348
530.365	3738
530.434	2901
530.502	2056
530.570	3777
530.638	2133
530.707	4282
530.775	5034
530.843	2824
530.911	2841
530.979	2895
531.047	3659
531.115	4326
531.183	2494
531.252	2965
531.320	3835
531.388	2199
531.456	3336
531.524	2025
531.592	4457
531.660	4069
531.728	2954
531.796	2793
531.864	2672
531.932	2906
532.000	3615
532.067	3458
532.135	4157
532.203	4691
532.271	5680
532.339	9818
532.407	25026
532.475	11190
532.542	7140
532.610	9292
532.678	15038
532.746	54279
532.814	107358
532.881	19492
532.949	4666
533.017	4455
533.084	4091
533.152	3534
533.220	3738
533.287	3935
533.355	4988
533.423	3749
533.490	3247
533.558	4325
533.625	4736
533.693	4651
533.761	4737
533.828	4992
533.896	4390
533.963	10191
534.031	11057
534.098	14787
534.166	6679
534.233	3062
534.300	5161
534.368	5393
534.435	4964
534.503	4784
534.570	5696
534.637	5611
534.705	7862
534.772	11753
534.840	25335
534.907	90664
534.974	92595
535.041	9770
535.109	8282
535.176	4063
535.243	5153
535.310	4807
535.378	4108
535.445	3545
535.512	4082
535.579	4960
535.646	3873
535.714	4848
535.781	6211
535.848	5793
535.915	6243
535.982	4718
536.049	4508
536.116	5576
536.183	4721
536.250	4982
536.317	4861
536.384	6719
536.451	9675
536.518	7792
536.585	5875
536.652	9085
536.719	11378
536.786	6920
536.853	8324
536.920	12473
536.987	18026
537.053	17489
537.120	58653
537.187	40141
537.254	5858
537.321	4499
537.388	5964
537.454	4398
537.521	4842
537.588	4898
537.654	6386
537.721	4949
537.788	6570
537.855	4831
537.921	5332
537.988	4950
538.055	5861
538.121	5841
538.188	6883
538.254	8134
538.321	15680
538.388	9548
538.454	5613
538.521	5298
538.587	5581
538.654	4648
538.720	5124
538.787	5471
538.853	7084
538.920	7139
538.986	5988
539.053	5239
539.119	5881
539.185	6144
539.252	7369
539.318	8568
539.385	8162
539.451	6473
539.517	8735
539.583	9692
539.650	20006
539.716	39562
539.782	10386
539.849	5708
539.915	6032
539.981	5973
540.047	7406
540.114	6792
540.180	6939
540.246	6969
540.312	9651
540.378	17292
540.444	18352
540.510	19692
540.576	44941
540.643	12349
540.709	5281
540.775	4954
540.841	6027
540.907	8873
540.973	11684
541.039	9017
541.105	10772
541.171	6542
541.237	5373
541.303	6803
541.369	7829
541.435	9176
541.500	14235
541.566	8059
541.632	5417
541.698	5132
541.764	6214
541.830	5126
541.896	4522
541.961	5404
542.027	4928
542.093	5650
542.159	6958
542.224	6790
542.290	10085
542.356	14133
542.421	16269
542.487	7353
542.553	5736
542.618	6399
542.684	6499
542.750	5718
542.815	8966
542.881	13924
542.947	40885
543.012	24471
543.078	5042
543.143	4836
543.209	6318
543.274	5694
543.340	9501
543.405	16445
543.471	21377
543.536	5939
543.602	5845
543.667	5025
543.732	7028
543.798	5114
543.863	6180
543.928	4301
543.994	4466
544.059	5651
544.124	5921
544.190	5217
544.255	6260
544.320	5674
544.386	6748
544.451	8630
544.516	10639
544.581	10764
544.646	26930
544.712	35267
544.777	9418
544.842	6884
544.907	8350
544.972	7299
545.037	7391
545.102	6949
545.168	7954
545.233	8076
545.298	9164
545.363	9746
545.428	11875
545.493	19216
545.558	31877
545.623	13368
545.688	8480
545.753	7352
545.818	8026
545.883	9027
545.947	8768
546.012	9529
546.077	8995
546.142	9215
546.207	9207
546.272	11399
546.337	10762
546.401	10844
546.466	9344
546.531	9374
546.596	10818
546.661	10854
546.725	11702
546.790	10179
546.855	10824
546.919	11471
546.984	13728
547.049	15162
547.113	17965
547.178	17540
547.243	20457
547.307	23362
547.372	25883
547.436	26844
547.501	26049
547.565	27086
547.630	26697
547.695	25613
547.759	28650
547.823	25726
547.888	24272
547.952	25107
548.017	27279
548.081	28639
548.146	31299
548.210	29192
548.274	28699
548.339	27948
548.403	25766
548.468	23499
548.532	24075
548.596	24613
548.660	24546
548.725	29114
548.789	31788
548.853	31704
548.917	28066
548.982	29496
549.046	27874
549.110	21213
549.174	23789
549.238	25350
549.303	27816
549.367	28944
549.431	26112
549.495	26336
549.559	26463
549.623	30098
549.687	34255
549.751	35992
549.815	39391
549.879	40247
549.943	35008
550.007	39336
550.071	37902
550.135	37464
550.199	33232
550.263	32273
550.327	33075
550.391	35581
550.455	35105
550.519	36640
550.582	39990
550.646	45861
550.710	47134
550.774	43916
550.838	44493
550.901	44429
550.965	49066
551.029	51279
551.093	56460
551.156	64732
551.220	84354
551.284	92035
551.347	63707
551.411	71428
551.475	68574
551.538	48321
551.602	43319
551.666	41864
551.729	38320
551.793	38818
551.856	38775
551.920	37276
551.983	36652
552.047	36683
552.110	37579
552.174	36831
552.237	38071
552.301	35486
552.364	34433
552.428	33721
552.491	35572
552.554	35997
552.618	35692
552.681	38172
552.745	38080
552.808	44589
552.871	51594
552.934	38937
552.998	35418
553.061	35471
553.124	34186
553.187	33706
553.251	35042
553.314	35321
553.377	37911
553.440	42375
553.503	55462
553.567	62838
553.630	38829
553.693	37518
553.756	37323
553.819	37179
553.882	35553
553.945	35225
554.008	35480
554.071	36161
554.134	35876
554.197	33110
554.260	34013
554.323	35286
554.386	35384
554.449	36290
554.512	36168
554.575	34243
554.638	35216
554.701	33716
554.764	33188
554.827	32448
554.889	30630
554.952	29852
555.015	29223
555.078	29947
555.141	29916
555.203	29595
555.266	29432
555.329	29489
555.391	28460
555.454	28041
555.517	27432
555.580	25847
555.642	24953
555.705	24387
555.768	24573
555.830	23508
555.893	23099
555.955	22278
556.018	22767
556.080	21895
556.143	22650
556.206	22657
556.268	22919
556.330	22607
556.393	22184
556.455	21626
556.518	25329
556.580	22969
556.643	19870
556.705	18690
556.767	18458
556.830	19822
556.892	19648
556.955	22036
557.017	19475
557.079	17686
557.142	18193
557.204	18640
557.266	25901
557.328	20402
557.391	15888
557.453	15173
557.515	15437
557.577	15671
557.639	16375
557.701	14436
557.764	13642
557.826	15418
557.888	16735
557.950	18216
558.012	21805
558.074	30256
558.136	58766
558.198	121105
558.260	37063
558.322	15791
558.384	16730
558.446	18825
558.508	22536
558.570	29478
558.632	46162
558.694	71920
558.756	106295
558.818	254503
558.880	531202
558.942	148048
559.003	124745
559.065	51756
559.127	24246
559.189	25928
559.251	37706
559.312	63949
559.374	125668
559.436	355640
559.498	144769
559.559	26055
559.621	27666
559.683	39948
559.744	68736
559.806	176867
559.868	235814
559.929	40693
559.991	32838
560.052	49435
560.114	124886
560.176	75424
560.237	71721
560.299	103918
560.360	20449
560.422	11333
560.483	11341
560.545	9830
560.606	11073
560.667	10152
560.729	8893
560.790	8733
560.852	9067
560.913	9146
560.974	8907
561.036	8570
561.097	8638
561.158	9792
561.220	9673
561.281	9060
561.342	10064
561.403	11610
561.465	12970
561.526	23351
561.587	27199
561.648	9871
561.709	8888
561.771	7699
561.832	8664
561.893	8044
561.954	8107
562.015	7918
562.076	8750
562.137	8575
562.198	7776
562.259	8160
562.320	7981
562.381	9626
562.442	10945
562.503	9072
562.564	7494
562.625	8013
562.686	8347
562.747	8388
562.808	8587
562.869	7916
562.930	10712
562.991	8782
563.051	8404
563.112	7443
563.173	7692
563.234	7025
563.294	8263
563.355	6873
563.416	8117
563.477	7595
563.537	7621
563.598	8833
563.659	8267
563.720	7763
563.780	7794
563.841	7860
563.901	8407
563.962	8039
564.023	8438
564.083	7829
564.144	8753
564.204	7744
564.265	8879
564.325	10030
564.386	17463
564.446	14102
564.507	7755
564.567	7538
564.628	7449
564.688	7542
564.749	8375
564.809	8845
564.869	10401
564.930	8419
564.990	8567
565.050	6831
565.111	8704
565.171	6980
565.231	7171
565.292	8058
565.352	7111
565.412	8215
565.472	8481
565.532	8151
565.593	6653
565.653	7462
565.713	7976
565.773	8944
565.833	9360
565.893	11696
565.953	8506
566.013	8218
566.074	9420
566.134	11817
566.194	16586
566.254	16009
566.314	11883
566.374	8109
566.434	8642
566.494	8016
566.554	8923
566.614	8797
566.673	9464
566.733	10141
566.793	11080
566.853	10645
566.913	11459
566.973	11118
567.033	11798
567.092	10742
567.152	11645
567.212	11005
567.272	11297
567.331	11471
567.391	12175
567.451	13484
567.511	15301
567.570	15108
567.630	11113
567.690	10292
567.749	11142
567.809	11874
567.868	13147
567.928	13794
567.988	16927
568.047	19227
568.107	24110
568.166	32224
568.226	46777
568.285	63361
568.345	50348
568.404	39330
568.464	32296
568.523	32344
568.582	34502
568.642	40395
568.701	52209
568.761	71654
568.820	110739
568.879	100660
568.939	70684
568.998	49664
569.057	38799
569.116	30834
569.176	25672
569.235	21217
569.294	19346
569.353	17953
569.413	15653
569.472	14656
569.531	12695
569.590	12330
569.649	11687
569.708	11850
569.767	11924
569.827	12827
569.886	11855
569.945	10300
570.004	10004
570.063	9479
570.122	9715
570.181	10928
570.240	11101
570.299	10948
570.358	11428
570.417	9087
570.475	8805
570.534	9345
570.593	9763
570.652	9584
570.711	9779
570.770	8401
570.829	10423
570.887	9494
570.946	9878
571.005	8888
571.064	9185
571.122	10067
571.181	9260
571.240	7845
571.299	8614
571.357	8659
571.416	9650
571.475	10129
571.533	10179
571.592	7896
571.650	9417
571.709	8375
571.768	8784
571.826	8340
571.885	8389
571.943	8038
572.002	7897
572.060	8519
572.119	7426
572.177	6732
572.236	8040
572.294	6882
572.352	7288
572.411	7914
572.469	7599
572.528	7855
572.586	8578
572.644	8454
572.703	10972
572.761	8264
572.819	7515
572.877	7917
572.936	7493
572.994	7129
573.052	7705
573.110	7056
573.169	8125
573.227	6643
573.285	7336
573.343	7387
573.401	7027
573.459	7086
573.517	6218
573.576	7783
573.634	8491
573.692	8079
573.750	8162
573.808	6912
573.866	7301
573.924	9860
573.982	9312
574.040	6595
574.098	6816
574.155	7460
574.213	8026
574.271	7771
574.329	7777
574.387	6354
574.445	6971
574.503	7185
574.560	6377
574.618	6509
574.676	7129
574.734	6921
574.792	7108
574.849	7095
574.907	5986
574.965	6752
575.022	4726
575.080	6028
575.138	6823
575.195	5945
575.253	7063
575.311	6839
575.368	6977
575.426	5895
575.483	6606
575.541	5498
575.598	6514
575.656	7145
575.713	7131
575.771	6283
575.828	7548
575.886	6539
575.943	6605
576.001	7663
576.058	6950
576.115	7557
576.173	8422
576.230	8965
576.287	9664
576.345	7113
576.402	7634
576.459	7906
576.517	8066
576.574	8519
576.631	7689
576.688	7373
576.746	6848
576.803	6636
576.860	7148
576.917	7084
576.974	6764
577.031	6788
577.089	7006
577.146	7733
577.203	7507
577.260	7152
577.317	8314
577.374	8199
577.431	7440
577.488	6828
577.545	6480
577.602	7722
577.659	7424
577.716	8417
577.773	7164
577.830	6320
577.886	7576
577.943	6968
578.000	7010
578.057	7670
578.114	7084
578.171	7445
578.227	7655
578.284	7105
578.341	7601
578.398	8854
578.454	7924
578.511	9121
578.568	8970
578.625	8113
578.681	7351
578.738	6711
578.794	7324
578.851	7227
578.908	7379
578.964	7412
579.021	8529
579.077	7769
579.134	7516
579.190	7077
579.247	7155
579.303	7299
579.360	7199
579.416	6666
579.473	6688
579.529	6712
579.586	7669
579.642	6566
579.698	7190
579.755	7401
579.811	8225
579.867	7314
579.924	7025
579.980	6476
580.036	8036
580.093	8373
580.149	9309
580.205	10085
580.261	8303
580.317	8415
580.374	9377
580.430	10041
580.486	10019
580.542	8512
580.598	8729
580.619	8582
580.654	8336
580.692	8691
580.710	8884
580.765	7495
580.767	7458
580.823	8986
580.838	8813
580.879	8372
580.911	8431
580.935	8493
580.984	7947
580.991	7883
581.047	8377
581.057	8318
581.103	8068
581.130	8462
581.159	8903
581.203	8998
581.215	9030
581.270	8973
581.276	8878
581.326	7981
581.349	8362
581.382	8983
581.422	9096
581.438	9150
581.494	9256
581.494	9252
581.550	9546
581.567	9404
581.606	9151
581.640	9094
581.661	9045
581.713	8901
581.717	8899
581.773	8270
581.786	8388
581.829	8808
581.859	8697
581.885	8613
581.932	8840
581.940	8883
581.996	8926
582.004	8908
582.052	8705
582.077	8519
582.107	8396
582.150	9442
582.163	9757
582.219	9289
582.223	9345
582.274	9981
582.296	9860
582.330	9849
582.368	10267
582.386	10333
582.441	9184
582.441	9185
582.497	9515
582.514	9325
582.552	8933
582.587	9518
582.608	9914
582.659	9098
582.663	9015
582.719	9406
582.732	9365
582.774	9435
582.805	9606
582.830	9727
582.877	9669
582.885	9662
582.941	9218
582.950	9348
582.996	9992
583.023	10414
583.052	10900
583.095	10749
583.107	10699
583.162	10904
583.168	10933
583.218	11075
583.240	10790
583.273	10430
583.313	9987
583.328	9840
583.384	10342
583.385	10327
583.439	9761
583.458	9798
583.494	9841
583.531	9735
583.549	9749
583.603	9705
583.605	9699
583.660	9813
583.676	9947
583.715	10445
583.748	10462
583.770	10405
583.820	10658
583.825	10677
583.881	10513
583.893	10441
583.936	10264
583.965	10005
583.991	9786
584.038	10861
584.046	11023
584.101	10255
584.110	10381
584.156	11365
584.183	11400
584.211	11076
584.255	10921
584.266	11018
584.321	11372
584.328	11397
584.376	11264
584.400	10964
584.431	10667
584.472	10960
584.486	11007
584.541	11440
584.545	11447
584.596	11658
584.617	11839
584.651	12301
584.689	12400
584.706	12296
584.761	12134
584.762	12137
584.816	12378
584.834	12405
584.871	12574
584.906	12810
584.926	12851
584.978	12712
584.980	12718
585.035	13797
585.051	13930
585.090	14295
585.123	14965
585.145	15331
585.195	15784
585.200	15846
585.254	17036
585.267	17416
585.309	18731
585.340	20481
585.364	21852
585.412	23599
585.419	23758
585.473	28463
585.484	29717
585.528	35976
585.556	41233
585.583	47757
585.628	61833
585.637	67091
585.692	127423
585.700	139480
585.747	203069
585.772	173375
585.801	111246
585.845	48679
585.856	38422
585.910	23980
585.917	22634
585.965	20283
585.989	19674
586.019	19043
586.061	18554
586.074	18549
586.128	19174
586.133	19211
586.183	19625
586.205	20149
586.237	20817
586.277	20235
586.292	20046
586.346	20592
586.349	20642
586.401	21343
586.421	21558
586.455	21880
586.493	22688
586.509	23291
586.564	25161
586.565	25297
586.618	32640
586.637	33180
586.672	31436
586.709	28445
586.727	26981
586.781	26186
586.781	26178
586.835	25245
586.853	25184
586.889	24726
586.925	24244
586.944	24431
586.996	25960
586.998	25984
587.052	26362
587.068	26678
587.106	27399
587.140	27757
587.161	28047
587.212	29520
587.215	29583
587.269	30408
587.284	30812
587.323	31802
587.356	32393
587.377	32588
587.427	33772
587.431	33876
587.485	34863
587.499	35259
587.539	36664
587.571	37941
587.593	38956
587.643	41501
587.648	41686
587.702	43992
587.715	44469
587.755	46795
587.786	49170
587.810	50454
587.858	52556
587.864	52836
587.917	57211
587.930	58152
587.971	61934
588.001	65141
588.025	67767
588.073	72969
588.079	73753
588.133	81650
588.145	83757
588.187	91702
588.217	97684
588.241	103332
588.288	115694
588.295	117414
588.348	133571
588.360	137591
588.402	154661
588.431	168110
588.456	180888
588.503	209685
588.510	214481
588.564	258417
588.575	268999
588.617	316690
588.646	353255
588.671	394535
588.718	480393
588.725	498723
588.778	653524
588.789	687725
588.832	870745
588.861	996554
588.886	1081806
588.932	1190416
588.939	1180163
588.993	1034977
589.004	1029331
589.047	1132051
589.075	1155977
589.100	1061498
589.147	848308
589.154	821102
589.207	627272
589.218	591413
589.261	530350
589.290	498955
589.314	503150
589.361	521327
589.368	533223
589.421	651073
589.433	679879
589.475	860398
589.504	982829
589.528	1040956
589.576	1089101
589.582	1081064
589.635	1042893
589.647	1023064
589.689	838024
589.718	694754
589.742	587218
589.790	390013
589.795	378011
589.849	278196
589.861	257018
589.902	218490
589.932	191105
589.955	176091
590.004	146675
590.009	144466
590.062	123396
590.075	118553
590.115	107906
590.146	100010
590.168	95344
590.218	86140
590.222	85547
590.275	78309
590.289	76518
590.328	72432
590.360	69470
590.381	67427
590.431	63009
590.435	62718
590.488	58262
590.503	57060
590.541	55010
590.574	53306
590.594	52614
590.645	51154
590.647	50997
590.700	47006
590.716	45948
590.753	44551
590.787	43249
590.806	42869
590.859	41975
590.859	41933
590.912	40248
590.930	39804
590.965	39121
591.001	38437
591.018	37934
591.071	36414
591.072	36415
591.124	36024
591.143	35942
591.177	35325
591.214	34681
591.230	34633
591.283	34687
591.285	34689
591.336	33586
591.356	33187
591.389	32767
591.427	32162
591.442	31789
591.495	30608
591.498	30526
591.547	30103
591.569	29961
591.600	29787
591.640	29521
591.653	29407
591.706	29080
591.711	29038
591.759	29149
591.782	29348
591.811	29553
591.853	29729
591.864	29473
591.917	28152
591.924	27974
591.969	28159
591.995	28316
592.022	28198
592.066	28024
592.075	27963
592.127	27555
592.137	27526
592.180	29367
592.208	30486
592.233	29537
592.279	27696
592.285	27611
592.338	27001
592.350	26877
592.390	26636
592.421	26442
592.443	26043
592.491	25224
592.495	25268
592.548	26064
592.562	26288
592.600	26237
592.633	26216
592.653	25759
592.704	24444
592.705	24592
592.775	25083
592.846	24973
592.916	24874
592.987	25437
593.058	26134
593.128	24904
593.199	24329
593.270	24704
593.341	24449
593.411	24323
593.482	24040
593.553	24387
593.623	24371
593.694	24612
593.764	25616
593.835	24867
593.906	24084
593.976	25267
594.047	24888
594.117	26383
594.188	28054
594.258	24946
594.329	24905
594.399	25727
594.470	25515
594.540	25610
594.611	26457
594.681	25350
594.751	26306
594.822	26418
594.892	27079
594.963	27300
595.033	27682
595.103	28662
595.174	28188
595.244	31224
595.314	35823
595.384	30890
595.455	29598
595.525	29315
595.595	31041
595.665	30625
595.736	30315
595.806	31366
595.876	30752
595.946	30749
596.016	30357
596.087	31757
596.157	31596
596.227	31443
596.297	32304
596.367	33955
596.437	36283
596.507	38836
596.577	40956
596.647	38471
596.717	37616
596.787	37902
596.857	37377
596.927	37404
596.997	37492
597.067	39190
597.137	39613
597.207	40079
597.277	39956
597.347	38097
597.417	37837
597.487	37982
597.557	38527
597.626	39301
597.696	39699
597.766	41872
597.836	42191
597.906	38803
597.975	35714
598.045	35184
598.115	37033
598.185	37790
598.254	41956
598.324	45256
598.394	46150
598.464	44906
598.533	44674
598.603	42147
598.672	40517
598.742	40885
598.812	41406
598.881	40856
598.951	41788
599.020	42192
599.090	42330
599.159	43918
599.229	41815
599.299	41685
599.368	41786
599.437	42118
599.507	39480
599.576	39633
599.646	37714
599.715	37330
599.785	37868
599.854	36233
599.924	37144
599.993	36400
600.062	36944
600.132	36491
600.201	37223
600.270	42959
600.340	46593
600.409	45425
600.478	45773
600.547	45336
600.617	44384
600.686	36208
600.755	33227
600.824	32501
600.894	31662
600.963	31581
601.032	31471
601.101	31745
601.170	29486
601.239	29364
601.308	29847
601.378	30049
601.447	28324
601.516	28452
601.585	28557
601.654	30839
601.723	30319
601.792	28751
601.861	32312
601.930	33216
601.999	34296
602.068	31995
602.137	32401
602.206	33373
602.275	33617
602.343	34791
602.412	34490
602.481	33000
602.550	33024
602.619	33647
602.688	33977
602.756	35061
602.825	34826
602.894	35067
602.963	35286
603.032	35425
603.100	36018
603.169	36321
603.238	36483
603.307	36946
603.375	37277
603.444	37317
603.513	36847
603.581	37589
603.650	38683
603.719	37059
603.787	37560
603.856	38462
603.924	39123
603.993	40571
604.061	42201
604.130	43173
604.198	44577
604.267	45089
604.335	45053
604.404	45684
604.472	46789
604.541	46757
604.609	46917
604.678	48071
604.746	48574
604.815	48126
604.883	50496
604.951	50128
605.020	49409
605.088	50374
605.156	51194
605.225	51468
605.293	52209
605.361	52239
605.429	52142
605.498	54089
605.566	54383
605.634	56310
605.702	59526
605.771	61150
605.839	60452
605.907	59331
605.975	56848
606.043	56450
606.111	56601
606.180	55730
606.248	56975
606.316	55785
606.384	56289
606.452	57484
606.520	57215
606.588	59278
606.656	59392
606.724	57281
606.792	55409
606.860	50937
606.928	45876
606.996	43220
607.064	42400
607.132	43070
607.200	44759
607.267	46813
607.335	48128
607.403	49499
607.471	48786
607.539	46444
607.607	47844
607.674	42748
607.742	42095
607.810	42848
607.878	41679
607.946	42121
608.013	43558
608.081	45237
608.149	45236
608.216	45732
608.284	48451
608.352	47239
608.419	48501
608.487	48607
608.555	47635
608.622	46712
608.690	48791
608.757	54069
608.825	56132
608.893	54426
608.960	52355
609.028	51054
609.095	52575
609.163	50692
609.230	46885
609.298	41728
609.365	42365
609.432	45592
609.500	49388
609.567	55546
609.635	63239
609.702	70002
609.769	66932
609.837	56957
609.904	45367
609.971	45852
610.039	50194
610.106	57095
610.173	94238
610.241	204956
610.308	190658
610.375	68717
610.442	50494
610.509	45496
610.577	46339
610.644	46439
610.711	47951
610.778	49003
610.845	51041
610.912	54095
610.980	56034
611.047	58781
611.114	56877
611.181	54238
611.248	53300
611.315	55424
611.382	57555
611.449	59488
611.516	59853
611.583	60382
611.650	59592
611.717	61712
611.784	63127
611.851	63703
611.918	68776
611.984	77078
612.051	99104
612.118	173709
612.185	414099
612.252	428376
612.319	110340
612.386	77732
612.452	73765
612.519	69114
612.586	69282
612.653	70396
612.719	70063
612.786	68507
612.853	64451
612.919	62434
612.986	63893
613.053	60133
613.120	56890
613.186	55033
613.253	57247
613.319	55553
613.386	54754
613.453	56861
613.519	57193
613.586	57031
613.652	62195
613.719	58628
613.785	58613
613.852	57141
613.918	56559
613.985	57994
614.051	61058
614.118	68171
614.184	71449
614.250	58907
614.317	57691
614.383	57193
614.449	58846
614.516	58666
614.582	57912
614.648	58764
614.715	56288
614.781	56463
614.847	56021
614.914	57116
614.980	54752
615.046	54019
615.112	55654
615.179	57167
615.245	58606
615.311	60690
615.377	68689
615.443	75137
615.509	64643
615.575	61076
615.642	61599
615.708	62473
615.774	64838
615.840	68978
615.906	75309
615.972	89361
616.038	136611
616.104	235462
616.170	493058
616.236	650045
616.302	165861
616.368	99862
616.434	78701
616.500	70362
616.565	71984
616.631	84233
616.697	78727
616.763	74516
616.829	93466
616.895	152013
616.961	177543
617.026	93051
617.092	63202
617.158	60458
617.224	59950
617.289	56401
617.355	55090
617.421	54007
617.487	53245
617.552	52503
617.618	51531
617.684	51186
617.749	53909
617.815	49600
617.880	49322
617.946	48513
618.012	49334
618.077	51414
618.143	50255
618.208	48694
618.274	51313
618.339	54020
618.405	47967
618.470	45445
618.536	47309
618.601	46527
618.667	44277
618.732	43159
618.798	42312
618.863	41505
618.928	41214
618.994	41581
619.059	41844
619.124	44323
619.190	43814
619.255	40989
619.320	41664
619.386	41690
619.451	40950
619.516	40742
619.581	40666
619.647	42844
619.712	42051
619.777	40767
619.842	41499
619.907	41930
619.972	41849
620.038	41222
620.103	40178
620.168	40064
620.233	41577
620.298	42132
620.363	40635
620.428	42349
620.493	42681
620.558	43283
620.623	43847
620.688	44375
620.753	43733
620.818	44632
620.883	43741
620.948	44270
621.013	43280
621.078	43146
621.143	42783
621.207	45415
621.272	43523
621.337	43545
621.402	43660
621.467	45351
621.532	46586
621.596	44361
621.661	43843
621.726	42768
621.791	42125
621.855	44026
621.920	44543
621.985	44130
622.049	45300
622.114	45642
622.179	44384
622.243	44815
622.308	46490
622.373	47847
622.437	48330
622.502	45243
622.566	45201
622.631	43409
622.695	46477
622.760	44856
622.824	44259
622.889	44524
622.953	45543
623.018	49437
623.082	51668
623.147	47014
623.211	46806
623.276	45275
623.340	45627
623.404	43759
623.469	43656
623.533	43695
623.597	42564
623.662	42365
623.726	41388
623.790	38903
623.854	38257
623.919	38605
623.983	38488
624.047	38801
624.111	39948
624.176	39565
624.240	40182
624.304	42659
624.368	40195
624.432	39502
624.496	39972
624.560	42177
624.625	44071
624.689	41575
624.753	42469
624.817	42517
624.881	39873
624.945	38650
625.009	36703
625.073	36533
625.137	38773
625.201	40185
625.265	40566
625.329	38201
625.393	38843
625.456	38922
625.520	39013
625.584	39959
625.648	41165
625.712	44925
625.776	58452
625.839	67584
625.903	48775
625.967	32222
626.031	37453
626.095	48633
626.158	41766
626.222	31440
626.286	27784
626.349	27025
626.413	26806
626.477	27272
626.540	26803
626.604	25252
626.668	25775
626.731	24406
626.795	24196
626.858	25022
626.922	23490
626.986	24288
627.049	23077
627.113	24718
627.176	24625
627.240	23663
627.303	23240
627.366	22838
627.430	24575
627.493	22602
627.557	23120
627.620	23233
627.684	22641
627.747	24165
627.810	22046
627.874	20688
627.937	19288
628.000	21084
628.064	20649
628.127	18479
628.190	18866
628.253	19131
628.317	18036
628.380	17508
628.443	16165
628.506	16684
628.569	17001
628.632	16070
628.696	14276
628.759	14871
628.822	14936
628.885	14852
628.948	14520
629.011	14566
629.074	13781
629.137	14037
629.200	13159
629.263	13713
629.326	13149
629.389	12354
629.452	13121
629.515	13707
629.578	12768
629.641	13122
629.704	13681
629.767	13272
629.830	12622
629.892	11992
629.955	12411
630.018	13335
630.081	12404
630.144	13884
630.207	12152
630.269	13294
630.332	12357
630.395	12302
630.458	12145
630.520	10961
630.583	11773
630.646	11526
630.708	11168
630.771	10571
630.834	11958
630.896	11328
630.959	11086
631.021	10889
631.084	10920
631.146	11706
631.209	12032
631.272	10755
631.334	10865
631.397	11335
631.459	10376
631.522	11333
631.584	11675
631.646	11286
631.709	12729
631.771	13116
631.834	12691
631.896	12130
631.958	10119
632.021	10735
632.083	10553
632.145	11146
632.208	10158
632.270	10462
632.332	9997
632.395	9837
632.457	11196
632.519	9220
632.581	10657
632.643	9863
632.706	10465
632.768	9527
632.830	10091
632.892	9702
632.954	9452
633.016	11024
633.078	9620
633.141	9871
633.203	10303
633.265	10727
633.327	9825
633.389	9822
633.451	10413
633.513	11017
633.575	10925
633.637	9767
633.698	10355
633.760	10795
633.822	10098
633.884	10005
633.946	9916
634.008	10239
634.070	11293
634.132	11076
634.193	11458
634.255	12051
634.317	12699
634.379	12919
634.441	10584
634.502	10417
634.564	10589
634.626	10151
634.687	10612
634.749	8747
634.811	10216
634.873	8194
634.934	9623
634.996	9252
635.057	9142
635.119	9070
635.181	9293
635.242	9516
635.304	8147
635.365	9923
635.427	9034
635.488	9562
635.550	8849
635.611	9116
635.673	7995
635.734	9765
635.796	9893
635.857	10590
635.918	10670
635.980	11773
636.041	11319
636.102	11820
636.164	11921
636.225	11354
636.286	10344
636.348	10512
636.409	9190
636.470	8829
636.531	9363
636.593	9310
636.654	9445
636.715	8146
636.776	7918
636.838	8451
636.899	9356
636.960	8038
637.021	8575
637.082	8168
637.143	8211
637.204	7093
637.265	6901
637.326	8562
637.387	8089
637.448	7338
637.509	7510
637.570	8183
637.631	8168
637.692	8025
637.753	7026
637.814	7669
637.875	7375
637.936	8122
637.997	7602
638.058	8181
638.119	8042
638.179	7674
638.240	6798
638.301	7552
638.362	7722
638.423	6802
638.483	7259
638.544	6594
638.605	6901
638.666	6123
638.726	6920
638.787	7837
638.848	6374
638.908	6972
638.969	7342
639.030	6449
639.090	5447
639.151	6897
639.211	7938
639.272	7326
639.332	9549
639.393	9004
639.453	6180
639.514	6906
639.574	7401
639.635	6478
639.695	6776
639.756	6668
639.816	7337
639.877	7086
639.937	8061
639.997	10108
640.058	7232
640.118	6116
640.178	6743
640.239	5854
640.299	6221
640.359	5851
640.420	6147
640.480	6367
640.540	6867
640.600	7623
640.661	6486
640.721	6942
640.781	9118
640.841	6381
640.901	6839
640.961	7096
641.021	6676
641.082	6711
641.142	8109
641.202	8212
641.262	6379
641.322	7139
641.382	5764
641.442	6187
641.502	6081
641.562	6564
641.622	6637
641.682	6658
641.742	7161
641.802	7102
641.861	6010
641.921	6316
641.981	6639
642.041	7137
642.101	6827
642.161	5551
642.221	6087
642.280	6136
642.340	4907
642.400	5230
642.460	6605
642.519	6174
642.579	5820
642.639	6282
642.698	4792
642.758	7858
642.818	5808
642.877	5858
642.937	5194
642.997	6389
643.056	8243
643.116	5617
643.175	6896
643.235	5815
643.294	6449
643.354	7115
643.414	6647
643.473	7528
643.532	9888
643.592	11743
643.651	17390
643.711	29625
643.770	53615
643.830	114393
643.889	337686
643.948	166789
644.008	20848
644.067	10924
644.126	9228
644.186	7928
644.245	7338
644.304	5443
644.363	6707
644.423	5825
644.482	5971
644.541	6084
644.600	5362
644.659	7573
644.719	7560
644.778	10263
644.837	15743
644.896	28270
644.955	73334
645.014	51033
645.073	10366
645.132	6833
645.191	7349
645.250	5500
645.309	6933
645.368	5744
645.427	7587
645.486	7968
645.545	18750
645.604	9951
645.663	6583
645.722	6057
645.781	6750
645.840	7635
645.898	7969
645.957	11124
646.016	15996
646.075	27631
646.134	50374
646.192	111852
646.251	273521
646.310	78152
646.369	12288
646.427	9679
646.486	7158
646.545	6740
646.603	6072
646.662	5321
646.721	5355
646.779	5519
646.838	4496
646.896	6170
646.955	7647
647.014	10053
647.072	16477
647.131	40584
647.189	43194
647.248	7164
647.306	5157
647.365	4898
647.423	3802
647.481	5548
647.540	2720
647.598	4006
647.657	4426
647.715	4338
647.773	3368
647.832	4528
647.890	3509
647.948	3715
648.007	4119
648.065	3053
648.123	3173
648.181	4583
648.240	3600
648.298	4447
648.356	3211
648.414	3987
648.472	4093
648.531	4287
648.589	3591
648.647	3498
648.705	3604
648.763	3407
648.821	3692
648.879	3420
648.937	4372
648.995	5428
649.053	5200
649.111	7092
649.169	12209
649.227	21563
649.285	38017
649.343	114156
649.401	116938
649.459	17318
649.516	11489
649.574	6246
649.632	8738
649.690	12075
649.748	6966
649.806	7588
649.863	13766
649.921	27703
649.979	35393
650.037	7798
650.094	2612
650.152	3514
650.210	2995
650.268	3226
650.325	3122
650.383	3488
650.440	2265
650.498	3007
650.556	2619
650.613	2649
650.671	2815
650.728	2627
650.786	2991
650.843	2464
650.901	2780
650.958	2580
651.016	2476
651.073	2966
651.131	2091
651.188	1597
651.246	2825
651.303	2074
651.360	2807
651.418	2299
651.475	1575
651.532	1364
651.590	2948
651.647	2243
651.704	1929
651.762	2271
651.819	3017
651.876	1626
651.933	1950
651.990	2684
652.048	2182
652.105	1929
652.162	2527
652.219	2559
652.276	2358
652.333	2194
652.390	1511
652.448	1795
652.505	1763
652.562	1655
652.619	1494
652.676	2008
652.733	2733
652.790	2299
652.847	763
652.904	2320
652.961	-41
653.017	1145
653.074	3216
653.131	1989
653.188	585
653.245	1433
653.302	1644
653.359	1443
653.415	1933
653.472	1193
653.529	1963
653.586	1483
653.642	986
653.699	1947
653.756	871
653.813	1464
653.869	2581
653.926	1643
653.983	2112
654.039	2033
654.096	1889
654.152	2541
654.209	1348
654.266	2352
654.322	762
654.379	2012
654.435	2562
654.492	2369
654.548	3015
654.605	3036
654.661	3326
654.717	2297
654.774	1860
654.830	1535
654.887	1237
654.943	1804
655.000	1966
655.056	1616
655.112	2150
655.168	1046
655.225	2308
655.281	2316
655.337	2010
655.394	3085
655.450	2551
655.506	2183
655.562	2401
655.618	3962
655.675	1232
655.731	1833
655.787	1025
655.843	1916
655.899	1003
655.955	1796
656.011	1486
656.067	696
656.123	1746
656.179	1366
656.235	2250
656.291	967
656.347	2332
656.403	1246
656.459	1454
656.515	2392
656.571	1804
656.627	1717
656.683	1083
656.739	1799
656.795	2128
656.850	1131
656.906	1581
656.962	2266
657.018	1405
657.074	718
657.129	1446
657.185	2835
657.241	4346
657.297	4201
657.352	2130
657.408	724
657.464	2938
657.519	879
657.575	416
657.630	960
657.686	1179
657.742	838
657.797	1354
657.853	775
657.908	1945
657.964	401
658.019	1551
658.075	1430
658.130	1170
658.186	536
658.241	408
658.297	1019
658.352	938
658.407	1322
658.463	1116
658.518	2237
658.573	1221
658.629	356
658.684	1631
658.739	1993
658.795	960
658.850	1014
658.905	874
658.960	1360
659.016	436
659.071	1468
659.126	1015
659.181	647
659.236	3058
659.291	3041
659.346	2081
659.401	1247
659.457	2344
659.512	1855
659.567	2964
659.622	882
659.677	1065
659.732	283
659.787	1177
659.842	668
659.897	1820
659.952	1296
660.007	728
660.061	999
660.116	45
660.171	1164
660.226	926
660.281	1356
660.336	369
660.391	1615
660.445	758
660.500	656
660.555	990
660.610	783
660.664	1799
660.719	974
660.774	1021
660.828	1232
660.883	974
660.938	1687
660.992	499
661.047	2297
661.101	1959
661.156	699
661.211	702
661.265	1327
661.320	1003
661.374	1088
661.429	803
661.483	1821
661.538	1341
661.592	71
661.647	686
661.701	1353
661.755	1265
661.810	1027
661.864	525
661.919	902
661.973	1562
662.027	485
662.081	1052
662.136	880
662.190	355
662.244	751
662.299	326
662.353	1574
662.407	1391
662.461	432
662.515	1808
662.569	370
662.624	1436
662.678	868
662.732	675
662.786	514
662.840	1353
662.894	1400
662.948	1718
663.002	1317
663.056	832
663.110	-325
663.164	685
663.218	1636
663.272	1526
663.326	1436
663.380	660
663.434	1563
663.488	-186
663.542	1519
663.595	1548
663.649	852
663.703	1786
663.757	559
663.811	490
663.864	216
663.918	1115
663.972	1310
664.026	731
664.079	-17
664.133	818
664.187	1146
664.240	968
664.294	1079
664.348	1060
664.401	648
664.455	1395
664.508	1419
664.562	1002
664.615	947
664.669	220
664.722	1015
664.776	-113
664.829	750
664.883	609
664.936	43
664.990	450
665.043	1526
665.097	436
665.150	1440
665.203	307
665.257	1288
665.310	1098
665.363	551
665.417	659
665.470	833
665.523	1280
665.576	1354
665.630	812
665.683	799
665.736	1404
665.789	1402
665.842	613
665.895	849
665.949	1362
666.002	590
666.055	1020
666.108	1630
666.161	698
666.214	1433
666.267	1037
666.320	1620
666.373	1625
666.426	920
666.479	-164
666.532	568
666.585	357
666.638	1591
666.691	1125
666.744	1829
666.796	1355
666.849	959
666.902	1080
666.955	1074
667.008	912
667.060	1201
667.113	824
667.166	647
667.219	895
667.271	1088
667.324	486
667.377	1037
667.430	799
667.482	274
667.535	1628
667.587	931
667.640	1394
667.693	833
667.745	2035
667.798	3287
667.850	1553
667.903	1296
667.955	632
668.008	1076
668.060	1345
668.113	1379
668.165	1145
668.218	1431
668.270	718
668.322	1527
668.375	1118
668.427	1860
668.479	271
668.532	1192
668.584	1087
668.636	974
668.689	631
668.741	978
668.793	1490
668.845	837
668.898	1050
668.950	1199
669.002	898
669.054	-381
669.106	687
669.158	1273
669.211	1007
669.263	1745
669.315	1555
669.367	1548
669.419	1107
669.471	1018
669.523	1113
669.575	1924
669.627	1176
669.679	1388
669.731	557
669.783	1147
669.835	2025
669.886	723
669.938	1064
669.990	438
670.042	758
670.094	951
670.146	395
670.197	1199
670.249	1512
670.301	1273
670.353	2786
670.404	3748
670.456	3596
670.508	5851
670.560	11200
670.611	18781
670.663	31903
670.715	64041
670.766	156210
670.818	82769
670.869	10217
670.921	4425
670.972	3865
671.024	1676
671.075	2035
671.127	595
671.178	1847
671.230	1827
671.281	1647
671.333	1037
671.384	1443
671.436	1730
671.487	2117
671.538	2942
671.590	3477
671.641	6057
671.692	8898
671.744	21071
671.795	21756
671.846	6227
671.897	2841
671.949	2676
672.000	1964
672.051	875
672.102	1144
672.153	597
672.204	1772
672.256	1230
672.307	947
672.358	908
672.409	1152
672.460	1440
672.511	868
672.562	789
672.613	524
672.664	1127
672.715	433
672.766	1432
672.817	112
672.868	-44
672.919	529
672.970	-89
673.021	68
673.071	986
673.122	1249
673.173	1162
673.224	1084
673.275	113
673.326	1175
673.376	618
673.427	-220
673.478	1026
673.528	914
673.579	285
673.630	406
673.680	733
673.731	338
673.782	809
673.832	122
673.883	436
673.934	31
673.984	1351
674.035	805
674.085	455
674.136	646
674.186	371
674.237	902
674.287	1546
674.338	1142
674.388	624
674.438	661
674.489	550
674.539	683
674.589	429
674.640	472
674.690	565
674.740	576
674.791	221
674.841	953
674.891	813
674.942	1111
674.992	456
675.042	208
675.092	79
675.142	1417
675.193	510
675.243	273
675.293	38
675.343	783
675.393	968
675.443	1461
675.493	756
675.543	-41
675.593	342
675.643	273
675.693	904
675.743	702
675.793	444
675.843	-483
675.893	101
675.943	420
675.993	235
676.043	70
676.093	623
676.142	-141
676.192	354
676.242	1321
676.292	-150
676.341	-394
676.391	21
676.441	353
676.491	129
676.540	-339
676.590	249
676.640	-421
676.689	161
676.739	-547
676.789	3
676.838	550
676.888	103
676.937	-257
676.987	585
677.037	-186
677.086	-168
677.136	101
677.185	279
677.235	782
677.284	30
677.333	-354
677.383	411
677.432	602
677.482	-92
677.531	225
677.580	729
677.630	-210
677.679	218
677.728	-102
677.778	314
677.827	160
677.876	246
677.925	435
677.975	880
678.024	360
678.073	-247
678.122	-9
678.171	-77
678.220	398
678.269	683
678.319	138
678.368	209
678.417	-509
678.466	719
678.515	-36
678.564	852
678.613	260
678.662	-561
678.711	-52
678.760	707
678.809	-229
678.857	490
678.906	610
678.955	144
679.004	109
679.053	-84
679.102	168
679.151	242
679.199	655
679.248	-25
679.297	-893
679.346	-132
679.394	545
679.443	-225
679.492	-308
679.540	315
679.589	-373
679.638	207
679.686	-409
679.735	537
679.784	320
679.832	237
679.881	394
679.929	-278
679.978	-293
680.026	-119
680.075	959
680.123	-400
680.172	292
680.220	167
680.268	685
680.317	-137
680.365	-963
680.414	-253
680.462	-180
680.510	-224
680.559	270
680.607	-180
680.655	-364
680.703	-839
680.752	-478
680.800	222
680.848	217
680.896	-32
680.945	-379
680.993	166
681.041	646
681.089	-397
681.137	-191
681.185	-765
681.233	-265
681.258	-168
681.281	-128
681.329	-112
681.377	359
681.380	413
681.425	347
681.473	644
681.502	283
681.521	-64
681.569	611
681.617	1233
681.624	1230
681.665	821
681.713	1023
681.745	1266
681.761	1297
681.809	1014
681.857	1485
681.867	1523
681.904	1422
681.952	2134
681.989	2051
682.000	1961
682.048	1161
682.096	1752
682.111	2037
682.143	2470
682.191	2360
682.233	1979
682.239	1872
682.286	1826
682.334	1742
682.354	1905
682.382	1982
682.430	2837
682.476	3082
682.477	3040
682.525	2706
682.572	3037
682.598	2970
682.620	2832
682.667	2702
682.715	3926
682.720	3936
682.763	3622
682.810	3731
682.841	3537
682.857	3319
682.905	3111
682.952	3809
682.963	3951
683.000	4332
683.047	3927
683.085	4515
683.095	4619
683.142	4521
683.190	4666
683.206	4634
683.237	4467
683.284	4948
683.328	5019
683.332	4978
683.379	4502
683.426	5288
683.449	4956
683.473	4565
683.521	5055
683.568	5784
683.571	5778
683.615	5179
683.662	5708
683.693	5892
683.709	5925
683.757	5708
683.804	5534
683.814	5533
683.851	5368
683.898	5945
683.936	6163
683.945	6180
683.992	6528
684.039	6049
684.057	6344
684.086	6807
684.133	6387
684.179	6940
684.180	6917
684.227	6867
684.274	6913
684.300	7208
684.321	7453
684.368	7272
684.415	7225
684.422	7336
684.462	7747
684.509	7537
684.543	7187
684.556	7017
684.603	7615
684.649	7626
684.665	7475
684.696	7231
684.743	7880
684.786	8541
684.790	8547
684.837	8610
684.883	8660
684.908	8795
684.930	9154
684.977	8891
685.023	9952
685.029	10062
685.070	10034
685.117	8927
685.150	8996
685.164	9085
685.210	9989
685.257	9729
685.272	9881
685.303	10125
685.350	9921
685.393	10089
685.396	10078
685.443	10525
685.490	10814
685.514	10640
685.536	10482
685.583	10952
685.629	10803
685.636	10794
685.675	10312
685.722	10469
685.757	10351
685.768	10383
685.815	10920
685.861	11181
685.878	11178
685.908	11080
685.954	11027
686.000	11802
686.000	11805
686.047	11702
686.093	11832
686.121	12391
686.139	12674
686.185	12963
686.232	12677
686.242	12813
686.278	12842
686.324	12453
686.363	12079
686.370	12052
686.416	11878
686.463	12117
686.484	12091
686.509	12111
686.555	12087
686.601	12312
686.606	12319
686.647	12239
686.693	12628
686.727	12428
686.739	12342
686.785	12761
686.831	12631
686.848	12576
686.877	12489
686.923	11983
686.969	12778
686.969	12779
687.015	12143
687.061	12787
687.090	12802
687.107	12878
687.153	13509
687.199	13580
687.211	13630
687.245	13535
687.291	13162
687.332	13387
687.336	13440
687.382	14266
687.428	13446
687.453	13984
687.474	14191
687.520	14099
687.565	13588
687.574	13569
687.611	13893
687.657	14221
687.695	13859
687.702	13848
687.748	15051
687.794	15596
687.816	15858
687.839	15726
687.885	15093
687.931	15300
687.937	15203
687.976	14704
688.022	14507
688.058	14390
688.067	14485
688.113	14722
688.158	15219
688.179	15297
688.204	15135
688.249	15074
688.295	14879
688.300	14844
688.340	15156
688.386	15626
688.421	15678
688.431	15618
688.477	15636
688.522	16035
688.542	15818
688.567	15656
688.613	15949
688.658	15979
688.663	16035
688.703	16425
688.749	15892
688.784	16264
688.794	16436
688.839	16227
688.884	16122
688.905	16206
688.930	16153
688.975	15912
689.020	15739
689.026	15688
689.065	15905
689.110	16342
689.146	16713
689.155	16761
689.201	16693
689.246	16519
689.267	16604
689.291	16776
689.336	16470
689.381	16648
689.388	16643
689.426	16853
689.471	16740
689.509	17175
689.516	17230
689.561	17430
689.606	16915
689.630	16820
689.651	16751
689.696	16473
689.741	15998
689.750	16099
689.785	16826
689.830	16546
689.871	17150
689.875	17210
689.920	16569
689.965	16838
689.992	16629
690.010	16656
690.054	16611
690.099	17001
690.112	17079
690.144	17259
690.189	17211
690.233	17477
690.233	17503
690.278	17257
690.323	17603
690.354	17465
690.367	17441
690.412	17369
690.457	17144
690.474	17213
690.501	17383
690.546	17426
690.590	17664
690.595	17620
690.635	17664
690.680	17670
690.716	17832
690.724	18001
690.769	18992
690.813	19634
690.836	20000
690.857	20318
690.902	20659
690.946	21336
690.957	21404
690.991	23841
691.035	27158
691.077	30423
691.080	30645
691.124	33795
691.168	36556
691.198	38709
691.213	37255
691.257	32323
691.301	27621
691.318	25605
691.346	24514
691.390	22872
691.434	21588
691.439	21319
691.478	20491
691.522	20520
691.559	20109
691.567	20222
691.611	20180
691.655	20824
691.680	20953
691.699	20818
691.743	20882
691.787	20344
691.800	20189
691.831	20380
691.875	20857
691.919	21070
691.921	21036
691.964	21372
692.008	21962
692.041	22163
692.052	22130
692.096	22099
692.139	21809
692.162	21755
692.183	21756
692.227	21116
692.271	21177
692.282	21047
692.315	21209
692.359	21512
692.402	21419
692.403	21459
692.447	21526
692.490	21681
692.523	21523
692.534	21599
692.578	21825
692.622	21923
692.643	21995
692.666	21918
692.709	21704
692.753	20918
692.763	20907
692.797	21374
692.840	21382
692.884	21392
692.884	21439
692.928	21810
692.971	22126
693.004	22013
693.015	21951
693.059	21887
693.102	21736
693.124	21621
693.146	21656
693.189	21514
693.233	21393
693.245	21318
693.276	21828
693.320	22556
693.363	23063
693.365	23042
693.407	23511
693.450	23775
693.485	24042
693.493	24278
693.537	25021
693.580	25579
693.605	26205
693.624	27278
693.667	29330
693.710	31345
693.725	32035
693.753	37214
693.797	44963
693.840	53247
693.845	54099
693.883	59441
693.926	65266
693.966	70496
693.970	69476
694.013	57377
694.056	45627
694.086	37062
694.099	36050
694.142	32815
694.185	29455
694.206	27758
694.229	27198
694.272	26146
694.315	25072
694.326	24739
694.358	24690
694.401	24324
694.444	24137
694.446	24078
694.487	24687
694.530	25140
694.566	25406
694.573	25364
694.616	24794
694.659	24181
694.686	23660
694.702	23475
694.745	22875
694.787	22522
694.806	22160
694.830	22273
694.873	22796
694.916	22845
694.926	22850
694.959	22852
695.002	22747
695.044	22668
695.046	22615
695.087	23190
695.130	23488
695.166	23760
695.172	23794
695.215	23653
695.258	23551
695.286	23267
695.301	23470
695.343	24162
695.386	24833
695.406	25030
695.428	24727
695.471	24094
695.514	23452
695.526	23203
695.556	23887
695.599	24933
695.641	25843
695.646	25867
695.684	25423
695.726	25019
695.766	24441
695.769	24525
695.811	25039
695.854	25376
695.886	25639
695.896	25661
695.938	25504
695.981	25156
696.005	25018
696.023	25140
696.065	25282
696.108	25255
696.125	25196
696.150	25473
696.192	25912
696.235	26224
696.245	26241
696.277	26254
696.319	26324
696.361	26428
696.365	26351
696.404	26065
696.446	25858
696.485	25511
696.488	25594
696.530	25701
696.572	26006
696.604	26146
696.614	26237
696.656	26242
696.698	26357
696.724	26360
696.740	26200
696.783	25522
696.825	24826
696.844	24517
696.867	24881
696.909	25178
696.951	25724
696.964	25790
696.992	25835
697.034	25775
697.076	25760
697.083	25703
697.118	26175
697.160	26525
697.202	26880
697.203	26819
697.244	26942
697.286	26973
697.323	26947
697.327	27015
697.369	26930
697.411	26874
697.442	26703
697.453	26800
697.494	26972
697.536	27091
697.562	27133
697.578	27339
697.620	27591
697.661	27972
697.682	28050
697.703	28262
697.744	28518
697.786	28879
697.801	28885
697.828	29040
697.869	29244
697.911	29363
697.921	29333
697.952	29012
697.994	28439
698.035	27868
698.040	27721
698.077	27519
698.118	27201
698.160	26930
698.160	26853
698.201	27270
698.243	27612
698.279	27850
698.284	27957
698.325	28209
698.367	28509
698.399	28635
698.408	28783
698.449	29090
698.491	29404
698.518	29543
698.532	29477
698.573	29036
698.614	28575
698.638	28213
698.656	28512
698.697	29070
698.738	29628
698.757	29788
698.779	29903
698.820	30006
698.862	30103
698.877	30049
698.903	30099
698.944	30059
698.985	30020
698.996	29926
699.026	30121
699.067	30275
699.116	30376
699.235	30071
699.354	29314
699.474	29623
699.593	29392
699.713	30791
699.832	28187
699.951	30077
700.070	29685
700.190	28624
700.309	28249
700.428	27783
700.547	28428
700.667	26990
700.786	27535
700.905	26021
701.024	26161
701.143	27506
701.262	25974
701.381	26715
701.500	27271
701.619	27761
701.738	26528
701.857	25611
701.976	25150
702.095	24306
702.214	25866
702.333	27352
702.452	26157
702.571	25528
702.690	25897
702.809	25972
702.928	25123
703.047	25083
703.165	24605
703.284	24696
703.403	24307
703.522	25506
703.640	24914
703.759	25656
703.878	28486
703.997	25727
704.115	23564
704.234	22950
704.353	23686
704.471	23303
704.590	22588
704.708	22659
704.827	21898
704.946	22987
705.064	22768
705.183	23669
705.301	23660
705.420	30314
705.538	31702
705.656	28325
705.775	25994
705.893	30176
706.012	43331
706.130	29820
706.249	27889
706.367	26646
706.485	27451
706.604	26870
706.722	26521
706.840	28853
706.958	30832
707.077	30942
707.195	26547
707.313	25098
707.431	24596
707.549	24882
707.668	24394
707.786	24504
707.904	24626
708.022	24161
708.140	23948
708.258	21874
708.376	23189
708.494	23305
708.612	24249
708.730	30261
708.848	34040
708.966	29930
709.084	29038
709.202	27734
709.320	27630
709.438	27695
709.556	28629
709.674	27110
709.791	27125
709.909	25847
710.027	26629
710.145	26780
710.263	25875
710.380	26557
710.498	26575
710.616	26770
710.733	26145
710.851	25701
710.969	25555
711.086	24660
711.204	25636
711.322	25023
711.439	24426
711.557	25498
711.674	24608
711.792	24495
711.909	24273
712.027	25486
712.144	24574
712.262	23709
712.379	23845
712.497	29735
712.614	35528
712.732	31852
712.849	29083
712.966	28499
713.084	30710
713.201	30788
713.318	28949
713.436	29559
713.553	29016
713.670	28900
713.787	29826
713.905	30933
714.022	29229
714.139	28523
714.256	30452
714.373	32792
714.490	43850
714.608	72473
714.725	241020
714.842	665847
714.959	105932
715.076	35014
715.193	28646
715.310	28754
715.427	25313
715.544	25026
715.661	24141
715.778	24676
715.895	26861
716.011	26136
716.128	26289
716.245	24500
716.362	25898
716.479	26504
716.596	24064
716.713	23228
716.829	23102
716.946	24088
717.063	22178
717.180	22656
717.296	22303
717.413	22552
717.530	21766
717.646	22123
717.763	21942
717.880	22075
717.996	21744
718.113	21897
718.229	19872
718.346	20886
718.462	20178
718.579	21440
718.695	25248
718.812	27264
718.928	22637
719.045	23768
719.161	18897
719.277	19887
719.394	19437
719.510	20647
719.626	20175
719.743	23753
719.859	26192
719.975	34505
720.092	76053
720.208	281111
720.324	121457
720.440	25352
720.557	23190
720.673	24802
720.789	29674
720.905	41265
721.021	39158
721.137	19297
721.253	19023
721.369	19415
721.486	20246
721.602	22691
721.718	19898
721.834	17823
721.950	18018
722.066	17201
722.181	17269
722.297	18529
722.413	18012
722.529	16847
722.645	17887
722.761	16678
722.877	16257
722.993	16632
723.108	17628
723.224	17336
723.340	17211
723.456	16842
723.571	16023
723.687	16528
723.803	16443
723.918	15692
724.034	15836
724.150	15341
724.265	15674
724.381	19658
724.497	30978
724.612	17988
724.728	15147
724.843	14740
724.959	15504
725.074	18461
725.190	29059
725.305	16895
725.421	15585
725.536	13084
725.651	13777
725.767	14280
725.882	13852
725.997	14395
726.113	14272
726.228	13424
726.343	14434
726.459	13852
726.574	13903
726.689	14409
726.804	13057
726.920	14309
727.035	14008
727.150	14259
727.265	13268
727.380	13987
727.495	13901
727.610	13101
727.725	13204
727.841	13600
727.956	15327
728.071	20198
728.186	13459
728.301	12856
728.416	13159
728.531	13645
728.645	12051
728.760	12539
728.875	13360
728.990	12427
729.105	12848
729.220	13208
729.335	12910
729.449	12339
729.564	12076
729.679	11845
729.794	11970
729.908	11962
730.023	12353
730.138	12440
730.253	11198
730.367	11764
730.482	11009
730.596	11407
730.711	12014
730.826	12954
730.940	13376
731.055	12811
731.169	12782
731.284	12273
731.398	11120
731.513	12389
731.627	13208
731.742	12593
731.856	15734
731.970	13922
732.085	14261
732.199	16296
732.313	21754
732.428	39269
732.542	106741
732.656	156307
732.771	34979
732.885	17494
732.999	15370
733.113	15826
733.227	14907
733.342	14982
733.456	14156
733.570	14128
733.684	13657
733.798	12932
733.912	14096
734.026	12764
734.140	13240
734.254	13752
734.368	13928
734.482	20221
734.596	13239
734.710	12975
734.824	12659
734.938	11961
735.052	12134
735.166	12866
735.280	13405
735.393	12384
735.507	12266
735.621	12974
735.735	15542
735.849	16113
735.962	11925
736.076	12142
736.190	12416
736.303	12597
736.417	16427
736.531	12132
736.644	11985
736.758	10609
736.872	11057
736.985	11350
737.099	11814
737.212	10708
737.326	11045
737.439	10509
737.553	11172
737.666	11480
737.780	10391
737.893	10343
738.007	10331
738.120	11042
738.233	9913
738.347	10748
738.460	10228
738.573	11657
738.687	10618
738.800	10973
738.913	11956
739.026	11111
739.140	10981
739.253	10809
739.366	10544
739.479	9770
739.592	9796
739.705	9942
739.818	9876
739.932	9936
740.045	9283
740.158	10708
740.271	9761
740.384	9994
740.497	9264
740.610	10484
740.723	9747
740.836	10434
740.949	9013
741.062	11121
741.174	11679
741.287	9312
741.400	9676
741.513	9776
741.626	10359
741.739	9586
741.851	8888
741.964	9546
742.077	9774
742.189	9925
742.302	9653
742.415	9949
742.527	9510
742.640	9417
742.753	8338
742.865	8630
742.978	8413
743.090	9644
743.203	8640
743.316	9809
743.428	8196
743.541	8411
743.653	8594
743.766	8650
743.878	8480
743.990	9950
744.103	10470
744.215	9109
744.327	8929
744.440	9276
744.552	10863
744.664	9752
744.777	8368
744.889	8884
745.001	7900
745.113	8213
745.226	7870
745.338	8451
745.450	8167
745.562	9137
745.674	8471
745.786	7501
745.898	7627
746.010	8272
746.122	8660
746.234	8353
746.347	8562
746.459	8895
746.570	7701
746.682	7310
746.794	8374
746.906	7353
747.018	7569
747.130	8754
747.242	7479
747.354	7096
747.466	8983
747.577	7090
747.689	7989
747.801	8108
747.913	7849
748.024	6880
748.136	7211
748.248	7945
748.359	7879
748.471	6756
748.583	7616
748.694	6823
748.806	8875
748.918	8552
749.029	8785
749.141	8181
749.252	8398
749.364	8513
749.475	9442
749.587	10451
749.698	7715
749.809	6988
749.921	7222
750.032	7054
750.144	6670
750.255	6634
750.366	7144
750.478	7452
750.589	7024
750.700	7387
750.811	7436
750.923	7314
751.034	8760
751.145	14335
751.256	7778
751.367	6549
751.479	6415
751.590	6463
751.701	6369
751.812	6733
751.923	6132
752.034	6984
752.145	7431
752.256	6587
752.367	6632
752.478	6906
752.589	7337
752.700	6537
752.811	5659
752.922	6195
753.032	6563
753.143	7266
753.254	7033
753.365	6569
753.476	7008
753.586	7126
753.697	6497
753.808	7060
753.919	5683
754.029	7350
754.140	6961
754.251	6695
754.361	6366
754.472	6188
754.582	7405
754.693	6324
754.804	6481
754.914	6430
755.025	5991
755.135	7092
755.246	7038
755.356	5961
755.466	6247
755.577	5918
755.687	6059
755.798	6461
755.908	6729
756.018	6876
756.129	6779
756.239	5907
756.349	6330
756.460	6852
756.570	5922
756.680	6467
756.790	6649
756.900	7246
757.011	6559
757.121	5817
757.231	6642
757.341	6676
757.451	6510
757.561	5510
757.671	6543
757.781	4875
757.891	6678
758.001	6539
758.111	5803
758.221	7723
758.331	6868
758.441	7400
758.551	7021
758.661	8099
758.771	6325
758.880	6660
758.990	7194
759.100	7486
759.210	7150
759.320	6447
759.429	6351
759.539	8309
759.649	7231
759.758	6900
759.868	7294
759.978	6729
760.087	8346
760.197	7536
760.307	7131
760.416	7449
760.526	7105
760.635	7708
760.745	7406
760.854	8518
760.964	8073
761.073	9288
761.182	8074
761.292	8142
761.401	7142
761.511	8194
761.620	7609
761.729	7234
761.839	7446
761.948	7214
762.057	7563
762.166	7820
762.276	7228
762.385	8039
762.494	8625
762.603	8001
762.712	7937
762.822	8774
762.931	8096
763.040	8332
763.149	8704
763.258	8280
763.367	9152
763.476	8975
763.585	9191
763.694	9844
763.803	9387
763.912	9769
764.021	10630
764.130	10533
764.238	11159
764.347	10652
764.456	10880
764.565	11987
764.674	11745
764.783	12785
764.891	13532
765.000	15690
765.109	16517
765.217	17874
765.326	20784
765.435	23828
765.543	28625
765.652	32873
765.761	41339
765.869	56042
765.978	80714
766.086	127039
766.195	217807
766.303	432243
766.412	832365
766.520	895469
766.629	726441
766.737	333687
766.846	168442
766.954	105385
767.062	72986
767.171	55870
767.279	43402
767.387	34432
767.496	29203
767.604	24719
767.712	21693
767.820	19640
767.928	20046
768.037	17130
768.145	17260
768.253	16778
768.361	15716
768.469	15779
768.577	14992
768.685	16506
768.793	16921
768.901	18173
769.009	20433
769.117	22319
769.225	26734
769.333	35873
769.441	53004
769.549	87117
769.657	163940
769.765	383481
769.873	779014
769.981	697786
770.088	299114
770.196	120134
770.304	68820
770.412	46524
770.519	35175
770.627	27563
770.735	22645
770.842	20226
770.950	17935
771.058	16089
771.165	14843
771.273	13558
771.380	13694
771.488	12729
771.595	13368
771.703	12879
771.810	11602
771.918	11148
772.025	11182
772.133	10870
772.240	11778
772.348	11867
772.455	11564
772.562	10651
772.670	10799
772.777	9727
772.884	10438
772.991	9208
773.099	9304
773.206	9210
773.313	9393
773.420	8439
773.528	8014
773.635	8888
773.742	9790
773.849	8769
773.956	8581
774.063	8494
774.170	8062
774.277	8677
774.384	8360
774.491	8001
774.598	8013
774.705	8278
774.812	8545
774.919	8772
775.026	8613
775.133	8622
775.239	8630
775.346	7904
775.453	8042
775.560	7653
775.667	7444
775.773	8314
775.880	7619
775.987	8350
776.093	6952
776.200	7088
776.307	7172
776.413	7039
776.520	7622
776.627	7473
776.733	6719
776.840	6664
776.946	8247
777.053	7833
777.159	7145
777.266	7006
777.372	7236
777.478	7518
777.585	7369
777.691	6476
777.798	7235
777.904	7706
778.010	7979
778.117	9389
778.223	6451
778.329	6401
778.435	6823
778.542	6816
778.648	6847
778.754	6088
778.860	5929
778.966	6834
779.072	6457
779.178	6131
779.284	6219
779.391	5585
779.497	6456
779.603	7278
779.708	6762
779.815	9944
779.920	20894
780.026	69881
780.132	37278
780.238	8414
780.344	5972
780.450	6115
780.556	6794
780.661	5335
780.767	6211
780.873	6000
780.979	5325
781.085	6592
781.190	5862
781.296	5138
781.402	4950
781.507	6145
781.613	5372
781.719	4945
781.824	5588
781.930	6392
782.035	5864
782.141	5883
782.246	5305
782.352	5534
782.457	5785
782.563	4671
782.668	5826
782.773	5750
782.879	5321
782.984	6114
783.090	6371
783.195	5513
783.300	6727
783.405	5314
783.511	4849
783.616	5262
783.721	5335
783.826	6038
783.932	4515
784.037	5802
784.142	4202
784.247	5081
784.352	5072
784.457	4730
784.562	4508
784.667	4905
784.772	4475
784.877	4113
784.982	5163
785.087	4970
785.192	4521
785.297	4713
785.402	4292
785.507	4849
785.611	4884
785.716	5396
785.821	4739
785.926	5070
786.031	4288
786.135	3596
786.240	5150
786.345	4986
786.450	4783
786.554	4371
786.659	3891
786.763	4661
786.868	3942
786.973	4754
787.077	4336
787.182	3220
787.286	4587
787.391	4346
787.495	5191
787.600	4427
787.704	3621
787.809	4781
787.913	4296
788.017	4955
788.122	4663
788.226	4727
788.330	3739
788.435	4342
788.539	4971
788.643	3603
788.747	4138
788.852	4566
788.956	3452
789.060	3927
789.164	3412
789.268	4012
789.372	4968
789.476	4127
789.580	4010
789.684	3953
789.788	4538
789.892	4533
789.996	3806
790.100	3857
790.204	4332
790.308	3919
790.412	3929
790.516	4020
790.620	4165
790.724	5096
790.828	4303
790.931	3771
791.035	4465
791.139	3454
791.242	3258
791.346	4708
791.450	3661
791.554	3735
791.657	3980
791.761	3588
791.864	3791
791.968	4112
792.072	4074
792.175	4290
792.279	3104
792.382	4248
792.486	3808
792.589	3516
792.693	3857
792.796	3237
792.899	3723
793.003	3646
793.106	2984
793.209	3845
793.313	4268
793.416	3096
793.519	3400
793.623	4394
793.726	5220
793.829	4224
793.932	3703
794.035	3556
794.138	4713
794.242	4349
794.345	3929
794.448	4772
794.551	5877
794.654	12213
794.757	32003
794.860	21649
794.963	5552
795.066	3458
795.169	4266
795.272	3064
795.375	3724
795.477	3173
795.580	3019
795.683	2711
795.786	2966
795.889	2791
795.991	3603
796.094	3409
796.197	3564
796.300	4387
796.402	3568
796.505	2959
796.608	2868
796.710	2988
796.813	3091
796.915	3367
797.018	3792
797.120	4101
797.223	2722
797.326	3406
797.428	3874
797.530	3271
797.633	2671
797.735	3368
797.838	3630
797.940	5990
798.042	3534
798.145	3227
798.247	2895
798.349	2600
798.452	2656
798.554	2757
798.656	2716
798.758	4250
798.860	3598
798.962	3361
799.065	2567
799.167	2948
799.269	3695
799.371	2791
799.473	3348
799.575	3301
799.677	3614
799.779	4922
799.881	3320
799.983	4381
800.085	2580
800.187	2618
800.289	2535
800.390	2352
800.492	2978
800.594	3609
800.696	2398
800.798	3035
800.899	2409
801.001	2503
801.103	2392
801.205	2838
801.306	3416
801.408	2681
801.509	2165
801.611	2193
801.713	2095
801.814	3095
801.916	3132
802.017	2689
802.119	1898
802.220	2924
802.322	1313
802.423	2587
802.525	3241
802.626	3285
802.727	2529
802.829	3357
802.930	1447
803.031	3620
803.133	2193
803.234	1776
803.335	2902
803.436	2392
803.538	1740
803.639	2212
803.740	1874
803.841	2316
803.942	2133
804.043	2985
804.144	2476
804.245	2607
804.346	2012
804.447	1727
804.548	2863
804.649	3826
804.750	2154
804.851	2665
804.952	2311
805.053	2403
805.154	2603
805.255	3022
805.355	2101
805.456	2058
805.557	2299
805.658	1492
805.758	2027
805.859	2309
805.960	2747
806.061	2277
806.161	1698
806.262	2142
806.362	2425
806.463	2677
806.564	2592
806.664	2798
806.765	2037
806.865	3399
806.966	2414
807.066	2571
807.166	2064
807.267	2390
807.367	1955
807.468	2746
807.568	2237
807.668	2364
807.769	2442
807.869	2554
807.969	2330
808.069	2661
808.170	2696
808.270	2365
808.370	1852
808.470	2450
808.570	2527
808.670	2596
808.770	2365
808.870	2070
808.970	2189
809.070	1888
809.170	1263
809.271	2505
809.370	2506
809.470	1587
809.570	2129
809.670	1685
809.770	2202
809.870	3112
809.970	2159
810.070	1436
810.169	2315
810.269	2080
810.369	2887
810.469	2214
810.568	2588
810.668	2277
810.768	2129
810.867	2109
810.967	1878
811.066	1586
811.166	1526
811.265	2524
811.365	1818
811.464	2115
811.564	1855
811.663	2155
811.763	2159
811.862	2226
811.962	2218
812.061	2366
812.160	2497
812.260	3067
812.359	2566
812.458	2246
812.557	3428
812.657	4250
812.756	4029
812.855	2319
812.954	2668
813.053	2180
813.153	2446
813.252	2648
813.351	2170
813.450	2055
813.549	2477
813.648	2850
813.747	2184
813.846	1974
813.945	2871
814.044	1988
814.143	2974
814.242	3342
814.341	2630
814.439	1918
814.538	2199
814.637	2968
814.736	3104
814.835	2851
814.933	2228
815.032	3302
815.131	3699
815.229	3824
815.328	5600
815.427	4879
815.525	4101
815.624	4712
815.722	4484
815.821	5361
815.919	5188
816.018	5416
816.116	6058
816.215	4871
816.313	5181
816.412	5432
816.510	6257
816.609	6827
816.707	6770
816.805	7069
816.904	6729
817.002	7601
817.100	8211
817.198	8775
817.296	9845
817.395	9997
817.493	12293
817.591	12871
817.689	16004
817.787	20547
817.885	29180
817.983	45067
818.081	83917
818.179	173441
818.277	377294
818.375	576668
818.473	300204
818.571	114537
818.669	62297
818.767	48579
818.865	43079
818.963	46211
819.061	58725
819.158	87958
819.256	150531
819.354	290077
819.452	567725
819.549	665315
819.647	352285
819.745	155293
819.842	83788
819.940	54911
820.038	39266
820.135	30622
820.233	23175
820.330	20008
820.428	15628
820.525	14892
820.623	12506
820.720	10922
820.818	10702
820.915	9906
821.012	8687
821.110	7263
821.207	7947
821.304	7900
821.402	6733
821.499	7177
821.596	6798
821.693	5461
821.791	6061
821.888	5975
821.985	6650
822.082	7419
822.179	5932
822.276	5055
822.373	5227
822.470	4379
822.567	4969
822.664	4410
822.761	4585
822.858	3659
822.955	4429
823.052	4079
823.149	4354
823.246	4052
823.343	3980
823.440	3888
823.536	2785
823.633	3763
823.730	2451
823.827	4065
823.923	4247
824.020	4720
824.117	2624
824.213	3261
824.310	4378
824.407	2840
824.503	3667
824.600	3596
824.696	3393
824.793	3226
824.889	2899
824.986	3883
825.082	2720
825.179	2805
825.275	3538
825.371	3240
825.468	3096
825.564	1911
825.660	2730
825.757	3522
825.853	3614
825.949	2921
826.045	3003
826.142	2764
826.238	2976
826.334	2797
826.430	3059
826.526	3035
826.622	2099
826.718	2697
826.814	2732
826.910	2872
827.006	2756
827.102	2273
827.198	2931
827.294	2983
827.390	2440
827.486	2853
827.582	1088
827.678	1538
827.774	2865
827.869	2517
827.965	2680
828.061	1562
828.157	2110
828.252	3355
828.348	2412
828.444	3069
828.539	2364
828.635	2732
828.731	3395
828.826	2039
828.922	2420
829.017	2004
829.113	2716
829.208	1970
829.304	1718
829.399	2846
829.495	3750
829.590	2645
829.685	2198
829.781	2727
829.876	3227
829.971	2208
830.066	1635
830.162	2154
830.257	2100
830.352	2368
830.447	2779
830.543	2894
830.638	1584
830.733	2865
830.828	2187
830.923	2844
831.018	3009
831.113	2818
831.208	2196
831.303	2369
831.398	1939
831.493	2153
831.588	1777
831.683	1838
831.778	2287
831.873	1234
831.967	2465
832.062	1921
832.157	1791
832.252	2886
832.346	2081
832.441	2972
832.536	2342
832.631	3951
832.725	4889
832.820	2599
832.914	1370
833.009	2089
833.104	2175
833.198	2148
833.293	2279
833.387	1823
833.482	1990
833.576	1880
833.670	2137
833.765	1858
833.859	1531
833.954	2628
834.048	1974
834.142	1557
834.237	1050
834.331	1696
834.425	2367
834.519	1072
834.613	2395
834.708	1889
834.802	1428
834.896	336
834.990	1546
835.084	1857
835.178	1985
835.272	1363
835.366	1309
835.460	2835
835.554	2195
835.648	1702
835.742	1231
835.836	1457
835.930	1362
836.024	1732
836.117	1963
836.211	1939
836.305	2607
836.399	2437
836.493	1773
836.586	1683
836.680	1382
836.774	1915
836.867	1747
836.961	1082
837.055	948
837.148	1092
837.242	1700
837.335	1218
837.429	1905
837.522	1675
837.616	1015
837.709	2894
837.803	3321
837.896	2577
837.989	1759
838.083	2114
838.176	2253
838.269	3912
838.363	2776
838.456	1253
838.549	1415
838.642	2621
838.735	5272
838.829	4631
838.922	1389
839.015	1815
839.108	1566
839.201	1374
839.294	1607
839.387	2129
839.480	1186
839.573	812
839.666	1816
839.759	1902
839.852	1247
839.945	1305
840.038	1426
840.131	1456
840.223	903
840.316	1600
840.409	1333
840.502	1621
840.594	2874
840.687	364
840.780	1262
840.873	1561
840.965	913
841.058	1506
841.150	1902
841.243	3300
841.336	2229
841.428	950
841.521	297
841.613	1320
841.706	2130
841.798	1317
841.890	1286
841.983	1228
842.075	1635
842.167	1642
842.260	1657
842.352	1891
842.444	1580
842.537	2641
842.629	4237
842.721	2802
842.813	670
842.905	874
842.997	860
843.090	1605
843.182	1800
843.274	3088
843.366	6136
843.458	10521
843.550	11686
843.642	4134
843.734	1371
843.826	1393
843.918	1829
844.009	1437
844.101	1073
844.193	129
844.285	1130
844.377	1527
844.469	1755
844.560	871
844.652	1079
844.744	2041
844.835	1006
844.927	674
845.019	1301
845.110	2288
845.202	1255
845.293	1579
845.385	1194
845.476	814
845.568	1655
845.659	1203
845.751	1231
845.842	938
845.934	710
846.025	771
846.116	1059
846.208	1785
846.299	706
846.390	1279
846.482	177
846.573	776
846.664	2017
846.755	1309
846.846	2776
846.937	670
847.029	1527
847.120	1033
847.211	234
847.302	1345
847.393	1527
847.484	1800
847.575	1327
847.666	732
847.757	1400
847.847	1710
847.938	1576
848.029	1251
848.120	1302
848.211	564
848.302	754
848.392	473
848.483	1355
848.574	721
848.664	495
848.755	1185
848.846	1583
848.936	768
849.027	967
849.118	1164
849.208	847
849.299	1121
849.389	2255
849.480	3717
849.570	6129
849.661	9940
849.751	19853
849.841	17454
849.932	3691
850.022	1160
850.112	2127
850.203	1157
850.293	1110
850.383	1312
850.474	876
850.564	922
850.654	1183
850.744	437
850.834	1175
850.924	660
851.014	919
851.104	1176
851.194	574
851.284	279
851.374	1056
851.464	1525
851.554	1379
851.644	956
851.734	1773
851.824	1518
851.914	762
852.004	1178
852.094	1042
852.183	1529
852.273	1209
852.363	970
852.452	212
852.542	847
852.632	-88
852.721	554
852.811	668
852.901	892
852.990	1213
853.080	798
853.169	619
853.259	511
853.348	1001
853.438	1478
853.527	1855
853.617	2501
853.706	4847
853.795	7570
853.885	16265
853.974	33582
854.063	55347
854.152	110662
854.242	98302
854.331	20443
854.420	4794
854.509	2995
854.598	3035
854.687	2447
854.777	1516
854.866	1621
854.955	2072
855.044	305
855.133	890
855.222	801
855.311	856
855.400	476
855.488	1225
855.577	931
855.666	720
855.755	1100
855.844	825
855.933	1644
856.021	1360
856.110	1028
856.199	975
856.288	1087
856.376	57
856.465	136
856.554	1179
856.642	754
856.731	866
856.819	959
856.908	984
856.996	-142
857.085	406
857.173	400
857.262	578
857.350	415
857.438	151
857.527	1702
857.615	1065
857.703	702
857.792	879
857.880	369
857.968	957
858.056	898
858.145	322
858.233	704
858.321	450
858.409	746
858.497	297
858.585	680
858.673	1015
858.761	-581
858.849	831
858.937	-53
859.025	234
859.113	659
859.201	163
859.289	1504
859.377	994
859.465	207
859.552	1155
859.640	820
859.728	658
859.816	1079
859.903	912
859.991	542
860.079	876
860.166	1066
860.254	657
860.342	1221
860.429	-64
860.517	-147
860.604	390
860.692	645
860.779	194
860.867	-103
860.954	636
861.042	437
861.129	707
861.216	1369
861.304	0
861.391	1151
861.478	148
861.565	933
861.653	768
861.740	411
861.827	697
861.914	-377
862.001	284
862.089	511
862.176	936
862.263	-184
862.350	-627
862.437	817
862.524	520
862.611	492
862.698	556
862.785	604
862.871	758
862.958	1126
863.045	389
863.132	592
863.219	698
863.306	-105
863.392	406
863.479	460
863.566	128
863.652	412
863.739	1265
863.826	958
863.912	-290
863.999	349
864.086	212
864.172	547
864.259	109
864.345	66
864.432	1051
864.518	1634
864.604	824
864.691	1119
864.777	1273
864.863	1619
864.950	1472
865.036	1681
865.122	3435
865.209	3691
865.295	3181
865.381	2833
865.467	3702
865.553	3215
865.639	3402
865.726	5603
865.812	9623
865.898	18211
865.984	28903
866.070	41834
866.156	76403
866.242	45043
866.328	10683
866.414	4082
866.499	3241
866.585	3085
866.671	3810
866.757	2232
866.843	3456
866.928	2759
867.014	2481
867.100	3034
867.186	1383
867.271	2293
867.357	2452
867.442	2691
867.528	3108
867.614	2988
867.699	2341
867.785	2484
867.870	2065
867.956	2244
868.041	2231
868.127	2553
868.212	2460
868.297	2268
868.383	2419
868.468	3215
868.553	3661
868.639	4598
868.724	4854
868.809	8276
868.894	4350
868.979	2417
869.065	2317
869.150	1369
869.235	1889
869.320	1539
869.405	2010
869.490	1023
869.575	2429
869.660	957
869.745	1680
869.830	1726
869.915	1690
870.000	1751
870.085	567
870.169	2334
870.254	2253
870.339	1710
870.424	932
870.509	1746
870.593	1852
870.678	1982
870.763	1221
870.847	1866
870.932	966
871.016	1990
871.101	1795
871.186	1543
871.270	1890
871.355	1613
871.439	1057
871.523	1518
871.608	1676
871.692	1510
871.777	1790
871.861	2076
871.945	732
872.030	1703
872.114	1573
872.198	734
872.282	921
872.367	1594
872.451	763
872.535	699
872.619	1278
872.703	825
872.787	905
872.871	1546
872.955	1474
873.039	610
873.123	361
873.207	1709
873.291	967
873.375	485
873.459	1452
873.543	1626
873.627	1309
873.711	801
873.794	685
873.878	926
873.962	672
874.045	1219
874.129	1341
874.137	1339
874.213	1319
874.245	1000
874.296	484
874.352	905
874.380	1107
874.460	726
874.464	712
874.547	836
874.568	837
874.631	799
874.676	934
874.714	1054
874.784	1395
874.798	1468
874.881	2579
874.892	2332
874.965	601
874.999	718
875.048	887
875.107	899
875.131	890
875.215	1436
875.215	1436
875.298	1043
875.323	1095
875.381	1233
875.430	1387
875.465	1496
875.538	1534
875.548	1542
875.631	799
875.646	885
875.714	1295
875.753	1200
875.798	1077
875.861	1004
875.881	958
875.964	1414
875.968	1378
876.047	866
876.076	1035
876.130	1338
876.183	988
876.213	788
876.291	1512
876.296	1559
876.379	764
876.398	795
876.462	901
876.506	823
876.545	794
876.613	1070
876.628	1093
876.711	894
876.721	882
876.794	886
876.828	987
876.877	1166
876.935	931
876.960	842
877.043	1109
877.043	1108
877.125	909
877.150	1040
877.208	1482
877.258	1867
877.291	2005
877.365	978
877.374	883
877.456	374
877.472	448
877.539	575
877.579	858
877.622	1258
877.687	1313
877.704	1300
877.787	1118
877.794	1118
877.869	1101
877.901	1213
877.952	1461
878.008	1130
878.034	910
878.115	850
878.117	853
878.199	655
878.222	906
878.282	1422
878.329	1207
878.364	1107
878.437	1035
878.447	1006
878.529	1119
878.544	1095
878.611	1096
878.651	976
878.694	845
878.758	551
878.776	433
878.858	1566
878.865	1519
878.941	980
878.972	928
879.023	937
879.078	749
879.105	639
879.185	986
879.187	997
879.269	918
879.292	929
879.351	555
879.399	272
879.433	292
879.506	759
879.516	828
879.598	928
879.613	882
879.680	322
879.720	457
879.762	660
879.827	363
879.844	350
879.926	619
879.933	674
880.007	906
880.040	947
880.089	1085
880.147	1427
880.171	1636
880.253	1946
880.254	1952
880.335	2870
880.360	3107
880.417	3622
880.467	3921
880.499	4517
880.574	8207
880.580	8347
880.662	5776
880.680	4803
880.744	1802
880.787	1320
880.825	1055
880.893	765
880.907	755
880.989	537
881.000	592
881.070	859
881.106	863
881.152	846
881.213	632
881.233	544
881.315	273
881.319	289
881.396	615
881.426	422
881.478	-9
881.532	283
881.559	596
881.639	626
881.641	618
881.722	307
881.745	203
881.803	93
881.852	417
881.885	717
881.958	644
881.966	594
882.047	894
882.064	973
882.129	1462
882.171	1290
882.210	1125
882.277	1285
882.291	1279
882.372	1214
882.383	1171
882.454	977
882.489	875
882.535	892
882.596	934
882.616	843
882.697	432
882.702	417
882.778	426
882.808	509
882.859	739
882.914	636
882.940	526
883.020	712
883.021	715
883.102	771
883.127	793
883.183	776
883.233	774
883.264	703
883.339	116
883.345	107
883.426	488
883.445	571
883.507	622
883.551	615
883.587	700
883.657	771
883.668	752
883.749	783
883.763	717
883.830	89
883.869	-117
883.910	112
883.975	546
883.991	602
884.072	651
884.081	674
884.152	867
884.187	928
884.233	798
884.292	611
884.314	690
884.394	897
884.398	910
884.475	417
884.504	219
884.555	449
884.610	634
884.636	552
884.716	478
884.716	482
884.797	885
884.821	1027
884.877	957
884.927	574
884.958	449
885.033	607
885.038	609
885.118	155
885.139	164
885.199	277
885.244	350
885.279	421
885.350	375
885.359	410
885.439	1119
885.456	1101
885.520	647
885.561	610
885.600	531
885.667	336
885.680	342
885.760	483
885.773	502
885.840	732
885.878	730
885.920	744
885.984	889
886.000	801
886.080	426
886.089	391
886.160	253
886.195	207
886.240	509
886.300	723
886.320	718
886.400	723
886.406	732
886.480	374
886.511	201
886.560	648
886.616	1180
886.640	1127
886.720	678
886.722	671
886.800	-67
886.827	-344
886.879	349
886.932	1154
886.959	1088
887.038	645
887.039	649
887.119	952
887.143	1112
887.198	963
887.248	823
887.278	853
887.354	646
887.358	632
887.437	506
887.459	495
887.517	569
887.564	499
887.596	459
887.669	411
887.676	395
887.755	405
887.774	334
887.835	-99
887.880	-304
887.914	-75
887.985	253
887.994	243
888.073	290
888.090	292
888.153	451
888.195	532
888.232	409
888.300	168
888.311	187
888.391	370
888.405	405
888.470	607
888.510	729
888.549	632
888.615	416
888.628	351
888.708	67
888.720	13
888.787	686
888.825	1055
888.866	705
888.930	234
888.945	261
889.024	335
889.035	358
889.103	464
889.140	477
889.182	700
889.245	1085
889.261	1072
889.340	980
889.349	967
889.419	918
889.454	903
889.498	670
889.559	338
889.577	472
889.656	1079
889.664	1141
889.735	899
889.768	784
889.814	942
889.873	1152
889.978	811
890.083	186
890.187	423
890.292	260
890.397	1308
890.501	1459
890.606	769
890.710	876
890.815	794
890.919	488
891.024	967
891.128	1203
891.233	931
891.337	857
891.442	1011
891.546	944
891.650	216
891.755	969
891.859	482
891.963	254
892.068	55
892.172	667
892.276	722
892.380	763
892.484	337
892.589	1173
892.693	292
892.797	-294
892.901	1511
893.005	688
893.109	865
893.213	-7
893.317	297
893.421	595
893.525	743
893.629	366
893.733	402
893.837	501
893.941	225
894.045	1162
894.148	250
894.252	258
894.356	782
894.460	837
894.564	1020
894.667	486
894.771	-140
894.875	-123
894.978	1047
895.082	195
895.186	486
895.289	588
895.393	865
895.496	1030
895.600	313
895.703	156
895.807	26
895.910	485
896.014	615
896.117	40
896.221	155
896.324	376
896.427	-129
896.531	81
896.634	706
896.737	499
896.840	512
896.944	-188
897.047	517
897.150	1319
897.253	621
897.356	671
897.460	209
897.563	473
897.666	18
897.769	710
897.872	575
897.975	499
898.078	280
898.181	122
898.284	271
898.387	656
898.490	538
898.593	511
898.695	289
898.798	1470
898.901	386
899.004	866
899.107	163
899.209	554
899.312	64
899.415	197
899.518	-109
899.620	178
899.723	-232
899.826	304
899.928	821
900.031	-61
900.133	238
900.236	613
900.338	272
900.441	489
900.543	170
900.646	-164
900.748	514
900.851	-296
900.953	409
901.055	654
901.158	607
901.260	173
901.362	231
901.465	-320
901.567	434
901.669	984
901.771	-343
901.873	38
901.976	215
902.078	65
902.180	671
902.282	787
902.384	146
902.486	382
902.588	569
902.690	489
902.792	-361
902.894	332
902.996	215
903.098	290
903.200	459
903.302	242
903.404	335
903.505	-442
903.607	281
903.709	607
903.811	321
903.913	701
904.014	489
904.116	-514
904.218	35
904.319	650
904.421	575
904.523	1102
904.624	-151
904.726	679
904.827	106
904.929	691
905.030	-473
905.132	485
905.233	298
905.335	343
905.436	-169
905.537	155
905.639	83
905.740	517
905.841	-239
905.943	52
906.044	-345
906.145	448
906.247	-840
906.348	183
906.449	38
906.550	71
906.651	773
906.752	311
906.854	357
906.955	224
907.056	-74
907.157	-336
907.258	-14
907.359	3
907.460	-85
907.561	424
907.662	150
907.762	-239
907.863	-870
907.964	906
908.065	298
908.166	43
908.267	-438
908.367	-57
908.468	-424
908.569	608
908.670	684
908.770	661
908.871	172
908.971	711
909.072	776
909.173	417
909.273	41
909.374	459
909.474	320
909.575	-133
909.675	451
909.776	-182
909.876	537
909.977	490
910.077	-242
910.177	106
910.278	231
910.378	-87
910.478	482
910.579	-61
910.679	281
910.779	-324
910.879	113
910.980	-51
911.080	548
911.180	-169
911.280	-139
911.380	311
911.480	-14
911.580	-617
911.680	-481
911.780	498
911.880	306
911.980	-88
912.080	660
912.180	237
912.280	-198
912.380	97
912.480	163
912.580	-491
912.679	-592
912.779	362
912.879	576
912.979	140
913.078	4
913.178	-340
913.278	474
913.377	-330
913.477	302
913.577	-77
913.676	-143
913.776	-460
913.875	10
913.975	156
914.074	327
914.174	463
914.273	-1014
914.373	435
914.472	182
914.572	-377
914.671	-1024
914.770	-349
914.870	127
914.969	139
915.068	75
915.167	-900
915.267	312
915.366	-54
915.465	78
915.564	428
915.663	124
915.763	-303
915.862	-37
915.961	-160
916.060	-83
916.159	-421
916.258	-231
916.357	-319
916.456	-382
916.555	280
916.654	271
916.752	-81
916.851	-89
916.950	829
917.049	442
917.148	849
917.247	-236
917.345	235
917.444	-65
917.543	27
917.642	224
917.740	-12
917.839	144
917.937	225
918.036	41
918.135	802
918.233	-462
918.332	-346
918.430	-785
918.529	-804
918.627	69
918.726	119
918.824	426
918.923	101
919.021	-157
919.119	-190
919.218	-77
919.316	-106
919.414	-111
919.512	-235
919.611	-312
919.709	119
919.807	-793
919.905	721
920.003	-307
920.102	257
920.200	-137
920.298	806
920.396	-41
920.494	247
920.592	-417
920.690	828
920.788	127
920.886	-294
920.984	172
921.082	94
921.180	-42
921.277	414
921.375	436
921.473	301
921.571	223
921.669	712
921.766	82
921.864	266
921.962	612
922.060	191
922.157	840
922.255	236
922.352	600
922.450	-33
922.548	318
922.645	1018
922.743	299
922.840	1075
922.938	1500
923.035	967
923.133	1134
923.230	995
923.327	1860
923.425	2170
923.522	1952
923.619	1215
923.717	717
923.814	1488
923.911	635
924.008	1101
924.106	1292
924.203	801
924.300	576
924.397	1576
924.494	1249
924.591	839
924.688	560
924.786	678
924.883	796
924.979	1961
925.077	1006
925.173	1630
925.270	759
925.367	1719
925.464	1475
925.561	732
925.658	1381
925.755	371
925.852	1227
925.948	2254
926.045	888
926.142	452
926.239	1624
926.335	774
926.432	821
926.529	1460
926.625	1104
926.722	159
926.818	484
926.915	1277
927.011	1067
927.108	551
927.204	116
927.301	1146
927.397	842
927.494	677
927.590	1399
927.687	275
927.783	854
927.879	1556
927.976	909
928.072	639
928.168	709
928.264	1261
928.361	80
928.457	690
928.553	275
928.649	560
928.745	26
928.841	264
928.937	830
929.033	1577
929.129	386
929.225	949
929.321	543
929.417	43
929.513	301
929.609	685
929.705	451
929.801	451
929.897	683
929.993	373
930.089	936
930.184	905
930.280	-221
930.376	366
930.471	-119
930.567	-119
930.663	312
930.758	708
930.854	534
930.950	-513
931.045	392
931.141	795
931.236	1304
931.332	455
931.427	-348
931.523	691
931.618	648
931.714	-6
931.809	218
931.905	212
932.000	-78
932.095	420
932.191	-113
932.286	574
932.381	638
932.476	110
932.572	442
932.667	682
932.762	-144
932.857	333
932.952	647
933.047	475
933.142	28
933.237	313
933.332	193
933.427	661
933.522	481
933.617	719
933.712	945
933.807	784
933.902	9
933.997	1626
934.092	126
934.187	438
934.282	817
934.376	1122
934.471	-110
934.566	1043
934.661	-52
934.755	620
934.850	1274
934.945	409
935.039	457
935.134	381
935.228	-637
935.323	1416
935.417	234
935.512	339
935.606	-580
935.701	1234
935.795	200
935.890	369
935.984	-76
936.079	-195
936.173	272
936.267	165
936.362	223
936.456	196
936.550	-18
936.644	1178
936.738	352
936.833	226
936.927	-61
937.021	633
937.115	135
937.209	819
937.303	556
937.397	-553
937.491	255
937.585	92
937.679	148
937.773	862
937.867	299
937.961	1129
938.055	-130
938.149	1481
938.243	-251
938.337	583
938.430	82
938.524	1216
938.618	233
938.712	349
938.805	258
938.899	716
938.993	1023
939.086	983
939.180	-811
939.274	-378
939.367	-333
939.461	632
939.554	118
939.648	430
939.741	-225
939.835	253
939.928	387
940.022	395
940.115	-230
940.208	850
940.302	430
940.395	699
940.488	373
940.582	689
940.675	62
940.768	213
940.861	78
940.954	165
941.048	560
941.141	111
941.234	-75
941.327	95
941.420	616
941.513	229
941.606	-72
941.699	813
941.792	-9
941.885	169
941.978	119
942.071	320
942.164	-199
942.257	-27
942.349	-1
942.442	551
942.535	331
942.628	-239
942.721	897
942.813	-414
942.906	425
942.999	479
943.091	293
943.184	123
943.277	-872
943.369	917
943.462	-463
943.554	26
943.647	-217
943.739	707
943.832	-78
943.924	-815
944.017	362
944.109	289
944.201	-384
944.294	28
944.386	-315
944.478	-336
944.571	-106
944.663	76
944.755	-172
944.847	1203
944.940	218
945.032	-332
945.124	-461
945.216	820
945.308	93
945.400	452
945.492	-566
945.584	-442
945.676	-530
945.768	382
945.860	414
945.952	550
946.044	-83
946.136	167
946.228	-221
946.320	180
946.412	-788
946.503	98
946.595	544
946.687	87
946.779	-498
946.870	117
946.962	-658
947.054	-336
947.145	-682
947.237	-90
947.329	-631
947.420	617
947.512	134
947.603	103
947.695	-166
947.786	-330
947.878	-486
947.969	-664
948.061	517
948.152	175
948.243	-777
948.335	-649
948.426	257
948.517	-931
948.609	-440
948.700	-145
948.791	6
948.882	-531
948.973	-1129
949.065	-934
949.156	-55
949.247	-926
949.338	-547
949.429	-551
949.520	126
949.611	-136
949.702	31
949.793	-240
949.884	1
949.975	290
950.066	-637
950.157	-75
950.247	-627
950.338	-732
950.429	-648
950.520	-756
950.611	11
950.701	176
950.792	-507
950.883	-999
950.973	-218
951.064	-188
951.155	294
951.245	-889
951.336	-931
951.427	346
951.517	372
951.608	-71
951.698	-34
951.788	326
951.879	31
951.969	-277
952.060	-657
952.150	-250
952.240	-363
952.331	-1081
952.421	441
952.511	-815
952.602	-415
952.692	-468
952.782	-935
952.872	344
952.962	-954
953.052	-337
953.143	-83
953.233	-57
953.323	-89
953.413	-322
953.503	251
953.593	-6
953.683	-160
953.773	-1364
953.863	-188
953.953	5
954.042	113
954.132	-175
954.222	-114
954.312	-702
954.402	-677
954.492	-576
954.581	-268
954.671	-73
954.761	-806
954.850	533
954.940	-124
955.030	-172
955.119	-851
955.209	247
955.298	-298
955.388	-481
955.477	-670
955.567	-253
955.656	-140
955.746	405
955.835	-518
955.925	-221
956.014	-1127
956.103	-73
956.193	-217
956.282	-187
956.371	260
956.461	-224
956.550	-42
956.639	-566
956.728	-538
956.817	-1051
956.906	-1481
956.995	462
957.085	-418
957.174	503
957.263	-766
957.352	-368
957.441	-639
957.530	-871
957.619	-633
957.708	-113
957.796	-1223
957.885	-679
957.974	-430
958.063	-233
958.152	-394
958.241	438
958.329	39
958.418	-135
958.507	-1291
958.596	-62
958.684	-650
958.773	-673
958.861	-807
958.950	-486
959.039	-91
959.127	-628
959.216	-392
959.304	-546
959.393	-76
959.481	283
959.570	-663
959.658	-1106
959.746	-828
959.835	-126
959.923	-827
960.011	-936
960.100	-79
960.188	-88
960.276	-602
960.365	105
960.453	-829
960.541	-207
960.629	-179
960.717	-424
960.805	-951
960.893	-228
960.981	-536
961.069	47
961.158	-340
961.245	313
961.333	-80
961.421	-821
961.509	-933
961.597	398
961.685	-615
961.773	-619
961.861	-1077
961.949	-308
962.036	-1035
962.124	-39
962.212	-130
962.299	-80
962.387	-261
962.475	579
962.562	-558
962.650	-477
962.738	-682
962.825	-195
962.913	-956
963.000	-540
963.088	-994
963.175	-127
963.263	-503
963.350	-487
963.438	-840
963.525	-794
963.612	152
963.700	1074
963.787	3071
963.874	3307
963.962	728
964.049	-932
964.136	-106
964.223	-93
964.310	-560
964.398	31
964.485	-912
964.572	-182
964.659	-151
964.746	711
964.833	151
964.920	-380
965.007	-775
965.094	-565
965.181	-677
965.268	-587
965.355	-557
965.441	-433
965.528	-819
965.615	-632
965.702	-895
965.789	-3
965.875	-768
965.962	-663
966.049	-547
966.136	541
966.222	-1008
966.309	-469
966.395	-835
966.482	-230
966.569	-42
966.655	-773
966.742	-461
966.828	-663
966.915	-878
967.001	-1356
967.087	-1433
967.174	-126
967.260	564
967.347	162
967.433	186
967.519	2023
967.605	870
967.692	-396
967.778	-478
967.864	-784
967.950	-658
968.036	-259
968.123	-481
968.209	-638
968.295	-384
968.381	240
968.467	-935
968.553	-524
968.639	-567
968.725	-591
968.811	157
968.897	1007
968.983	-604
969.069	-1090
969.154	-552
969.240	-281
969.326	-838
969.412	43
969.497	-388
969.583	-544
969.669	-143
969.755	-304
969.840	-548
969.926	555
970.012	-519
970.097	-566
970.183	-233
970.268	883
970.354	-305
970.439	-206
970.525	921
970.610	718
970.696	261
970.781	356
970.866	-1177
970.952	-719
971.037	-855
971.122	-725
971.208	-308
971.293	-451
971.378	-1093
971.463	-498
971.549	-158
971.634	94
971.719	-512
971.804	-274
971.889	-9
971.974	-398
972.059	-4
972.144	-720
972.229	103
972.314	-687
972.399	-814
972.484	-739
972.569	-379
972.654	-485
972.739	493
972.824	740
972.908	939
972.993	-438
973.078	-875
973.163	-518
973.247	-170
973.332	-1374
973.417	73
973.501	-1161
973.586	-798
973.671	-128
973.755	-595
973.840	4
973.924	-96
974.009	-217
974.093	-275
974.178	329
974.262	-864
974.346	470
974.431	-284
974.515	-539
974.600	-1366
974.684	-1049
974.768	-728
974.852	-631
974.937	-913
975.021	-393
975.105	-574
975.189	-741
975.273	-871
975.358	-429
975.442	-82
975.526	339
975.610	-936
975.694	-570
975.778	-662
975.862	-466
975.946	-1245
976.030	145
976.114	-965
976.198	-299
976.281	-699
976.365	19
976.449	-914
976.533	-549
976.617	-583
976.700	-125
976.784	-276
976.868	-145
976.951	-49
977.035	-776
977.119	-664
977.202	-701
977.286	-855
977.369	-556
977.453	159
977.536	94
977.620	-537
977.703	-528
977.787	-993
977.870	-185
977.953	-501
978.037	-708
978.120	580
978.203	366
978.287	109
978.370	410
978.453	-442
978.536	-567
978.620	-107
978.703	120
978.786	50
978.869	88
978.952	-1963
979.035	462
979.118	-397
979.201	-1220
979.284	-414
979.367	-579
979.450	-301
979.533	-625
979.616	-225
979.699	-674
979.782	-401
979.865	-383
979.948	-669
980.030	-839
980.113	-457
980.196	-1252
980.279	-364
980.361	-636
980.444	-779
980.526	176
980.609	-1027
980.692	-13
980.774	533
980.857	-626
980.939	-121
981.022	-707
981.104	-1234
981.187	-620
981.269	-467
981.352	-789
981.434	-800
981.516	-1267
981.599	-396
981.681	-674
981.763	-861
981.846	-368
981.928	-1174
982.010	-631
982.092	-591
982.174	-617
982.256	-453
982.339	202
982.421	-135
982.503	78
982.585	-1271
982.667	-1175
982.749	-192
982.831	-362
982.913	-1432
982.995	-279
983.077	-620
983.158	45
983.240	-170
983.322	104
983.404	-937
983.486	-492
983.568	-492
983.649	12
983.731	-640
983.813	-1054
983.894	-907
983.976	-825
984.058	-1126
984.139	-315
984.221	-1614
984.302	175
984.384	-1275
984.465	-1220
984.547	-872
984.628	-1055
984.710	-699
984.791	-395
984.872	-706
984.954	-1037
985.035	-747
985.116	-1324
985.198	-1374
985.279	-92
985.360	-856
985.441	-649
985.522	-1052
985.604	-12
985.685	-1203
985.766	677
985.847	-26
985.928	-420
986.009	-865
986.090	-357
986.171	-694
986.252	-84
986.333	-451
986.414	-848
986.495	-553
986.576	-473
986.656	-409
986.737	234
986.818	-626
986.899	-1214
986.980	-1189
987.060	-563
987.141	-894
987.222	-895
987.302	108
987.383	368
987.464	-740
987.544	-223
987.625	-702
987.705	411
987.786	-216
987.866	-1031
987.947	520
988.027	-267
988.108	-452
988.188	-346
988.268	-689
988.349	-896
988.429	-617
988.509	-317
988.589	-259
988.670	-1185
988.750	201
988.830	165
988.910	-696
988.990	-484
989.070	-571
989.151	-154
989.231	-521
989.311	-379
989.391	-516
989.471	-217
989.551	-695
989.631	-233
989.711	-501
989.791	-703
989.870	-685
989.950	-276
990.030	-650
990.110	-740
990.190	-1129
990.269	216
990.349	-763
990.429	-888
990.509	-652
990.588	-30
990.668	-533
990.747	227
990.827	-1010
990.907	150
990.986	-523
991.066	-290
991.145	-290
991.225	382
991.304	-184
991.383	-291
991.463	-1276
991.542	-374
991.622	-822
991.701	-981
991.780	-557
991.859	99
991.939	-1007
992.018	-500
992.097	5
992.176	-909
992.256	-1204
992.335	-515
992.414	-359
992.493	-507
992.572	-832
992.651	319
992.730	-1666
992.809	-954
992.888	-646
992.967	-441
993.046	-566
993.125	-1585
993.203	-1100
993.282	386
993.361	-867
993.440	-1001
993.519	-935
993.597	-839
993.676	-1046
993.755	-301
993.834	-1124
993.912	-780
993.991	-224
994.069	-342
994.148	-792
994.226	-1029
994.305	-957
994.384	-686
994.462	-243
994.540	-740
994.619	-1787
994.697	-487
994.776	-1342
994.854	-1003
994.932	-837
995.011	-656
995.089	-582
995.167	-313
995.245	-507
995.324	-1096
995.402	-437
995.480	-1426
995.558	-373
995.636	-660
995.714	-1639
995.792	-228
995.870	-1272
995.948	-1389
996.026	-1157
996.104	-800
996.182	-576
996.260	-653
996.338	-1261
996.416	-908
996.494	-1572
996.572	-1068
996.649	-1232
996.727	-1728
996.805	-703
996.883	-1420
996.960	-1737
997.038	-1386
997.116	-80
997.193	-1199
997.271	-1145
997.348	-475
997.426	-1363
997.504	-1481
997.581	-86
997.658	-286
997.736	-2021
997.813	-1258
997.891	-855
997.968	-766
998.046	-951
998.123	-612
998.200	-1079
998.277	-1139
998.355	-886
998.432	-1858
998.509	-1315
998.586	-318
998.663	-723
998.741	-1851
998.818	-1750
998.895	-1522
998.972	-1053
999.049	-1093
999.126	-1448
999.203	-552
999.280	-1465
999.357	-1043
999.434	-1174
999.511	-626
999.587	-1211
999.664	-1553
999.741	-763
999.818	19
999.895	-1709
999.971	-1234
1000.048	-1186
1000.125	3
1000.202	-1420
1000.278	-1240
1000.355	-921
1000.431	-1430
1000.508	-1626
1000.584	-1367
1000.661	-994
1000.738	-1503
1000.814	-1706
1000.890	-1277
1000.967	-1542
1001.043	-645
1001.120	-1824
1001.196	-1653
1001.272	-956
1001.349	-579
1001.425	-961
1001.501	-956
1001.577	-1594
1001.654	-979
1001.730	-905
1001.806	-1312
1001.882	-1802
1001.958	-854
1002.034	-898
1002.110	-1284
1002.186	-1722
1002.262	-1218
1002.338	-2788
1002.414	-899
1002.490	-933
1002.566	-1267
1002.642	-1685
1002.718	-667
1002.794	-769
1002.870	-1725
1002.945	-1099
1003.021	-1297
1003.097	-1754
1003.173	-532
1003.248	-1577
1003.324	-1360
1003.400	-1323
1003.475	-1392
1003.551	-1193
1003.626	-1389
1003.702	-814
1003.777	-1592
1003.853	-1820
1003.928	-790
1004.004	-1162
1004.079	-1403
1004.155	-1213
1004.230	-2339
1004.305	-558
1004.381	-1594
1004.456	-732
1004.531	-1256
1004.607	-1672
1004.682	-744
1004.757	-717
1004.832	-1395
1004.907	-1320
1004.982	-1706
1005.057	-1717
1005.133	-1533
1005.208	-1139
1005.283	-1832
1005.358	-362
1005.433	-1259
1005.508	-1377
1005.583	-1946
1005.657	-1566
1005.732	-1747
1005.807	-1327
1005.882	-939
1005.957	-1207
1006.032	-1631
1006.106	-1081
1006.181	-1488
1006.256	-1126
1006.331	-2352
1006.405	-2015
1006.480	-1241
1006.554	-2282
1006.629	-1943
1006.704	-1856
1006.778	-2365
1006.853	-1227
1006.927	-1393
1007.002	-1933
1007.076	-1012
1007.150	-1281
1007.225	-1594
1007.299	-1651
1007.373	-1518
1007.448	-1197
1007.522	-927
1007.596	-1610
1007.671	-1256
1007.745	-1188
1007.819	-2021
1007.893	-2225
1007.967	-1807
1008.041	-2331
1008.115	-1075
1008.190	-1242
1008.264	-1756
1008.338	-2935
1008.412	-2259
1008.486	-984
1008.560	-1321
1008.633	-2418
1008.707	-1929
1008.781	-1210
1008.855	-1773
1008.929	-1389
1009.003	-1801
1009.076	-1091
1009.150	-1254
1009.224	-1950
1009.298	-1689
1009.371	-2079
1009.445	-1157
1009.519	-2263
1009.592	-891
1009.666	-1602
1009.739	-1802
1009.813	-1851
1009.886	-871
1009.960	-2050
1010.033	-1865
1010.107	-2280
1010.180	-1950
1010.253	-1797
1010.327	-2363
1010.400	-1935
1010.473	-2021
1010.547	-934
1010.620	-2387
1010.693	-1320
1010.766	-1563
1010.840	-1537
1010.913	-2200
1010.986	-2681
1011.059	-1561
1011.132	-1892
1011.205	-1316
1011.278	-1947
1011.351	-1643
1011.424	-1524
1011.497	-2365
1011.570	-2092
1011.643	-1550
1011.716	-2585
1011.789	-1930
1011.862	-1720
1011.934	-873
1012.007	-2429
1012.080	-1990
1012.153	-2023
1012.225	-1860
1012.298	-2611
1012.371	-1651
1012.443	-1310
1012.516	-1984
1012.588	-1716
1012.661	-2230
1012.733	-2040
1012.806	-1753
1012.879	-1696
1012.951	-2145
1013.023	-1698
1013.096	-2154
1013.168	-2497
1013.241	-1812
1013.313	-1900
1013.385	-2316
1013.458	-1494
1013.530	-1988
1013.602	-2591
1013.674	-1940
1013.746	-2428
1013.819	-1835
1013.891	-1441
1013.963	-2356
1014.035	-1916
1014.107	-1851
1014.179	-1961
1014.251	-1766
1014.323	-1860
1014.395	-1317
1014.467	-1656
1014.539	-2247
1014.611	-2305
1014.683	-1834
1014.754	-2012
1014.826	-2492
1014.898	-1992
1014.970	-2815
1015.042	-1370
1015.113	-1754
1015.185	-2891
1015.257	-2368
1015.328	-2902
1015.400	-1952
1015.471	-1599
1015.543	-1942
1015.615	-1481
1015.686	-1612
1015.757	-1807
1015.829	-1358
1015.901	-2465
1015.972	-1952
1016.043	-1996
1016.115	-1877
1016.186	-1496
1016.257	-2788
1016.328	-1649
1016.400	-2005
1016.471	-2552
1016.542	-2035
1016.613	-974
1016.685	-1842
1016.756	-2274
1016.827	-1790
1016.898	-2556
1016.969	-1033
1017.040	-2673
1017.111	-2314
1017.182	-2111
1017.253	-1871
1017.324	-1905
1017.395	-941
1017.466	-1845
1017.537	-1819
1017.608	-2758
1017.678	-1930
1017.749	-1978
1017.820	-1226
1017.891	-1764
1017.961	-2123
1018.032	-2010
1018.103	-1692
1018.173	-2815
1018.244	-2536
1018.315	-2315
1018.385	-1762
1018.456	-1970
1018.526	-2125
1018.597	-3025
1018.667	-1862
1018.738	-2080
1018.808	-2102
1018.878	-2511
1018.949	-1232
1019.019	-1624
1019.089	-2124
1019.160	-1883
1019.230	-2093
1019.300	-1655
1019.371	-2940
1019.441	-1258
1019.511	-1419
1019.581	-2412
1019.651	-2096
1019.721	-2018
1019.791	-2312
1019.861	-2005
1019.931	-1835
1020.001	-2278
1020.071	-1150
1020.141	-2003
1020.211	-1634
1020.281	-2093
1020.351	-1429
1020.421	-2345
1020.491	-1224
1020.560	-2082
1020.630	-2461
1020.700	-1531
1020.770	-2553
1020.839	-2043
1020.909	-1987
1020.979	-2295
1021.048	-1396
1021.118	-1640
1021.187	-1586
1021.257	-1571
1021.326	-1020
1021.396	-2279
1021.465	-1547
1021.535	-1476
1021.604	-1907
1021.674	-2066
1021.743	-2460
1021.812	-2285
1021.882	-2096
1021.951	-2573
1022.020	-2203
1022.089	-1341
1022.159	-2364
1022.228	-1843
1022.297	-2123
1022.366	-2094
1022.435	-1610
1022.504	-2762
1022.573	-1647
1022.642	-1531
1022.711	-2307
1022.781	-1613
1022.849	-1282
1022.918	-2269
1022.987	-1994
1023.056	-1860
1023.125	-1596
1023.194	-2031
1023.263	-1898
1023.331	-1928
1023.400	-2300
1023.469	-1727
1023.538	-2182
1023.606	-1767
1023.675	-2067
1023.744	-2632
1023.812	-2512
1023.881	-1474
1023.949	-2057
1024.018	-2351
1024.086	-1897
1024.155	-2319
1024.223	-2275
1024.292	-1652
1024.360	-1235
1024.429	-2666
1024.497	-1957
1024.565	-1524
1024.634	-2049
1024.702	-2239
1024.770	-1748
1024.838	-2102
1024.907	-1551
1024.975	-2133
1025.043	-2324
1025.111	-1909
1025.179	-858
1025.247	-2818
1025.315	-2317
1025.383	-2407
1025.451	-2085
1025.519	-2521
1025.587	-2031
1025.655	-2458
1025.723	-2048
1025.791	-2295
1025.859	-1106
1025.927	-1759
1025.995	-1827
1026.062	-1955
1026.130	-1615
1026.198	-1866
1026.266	-2016
1026.333	-2179
1026.401	-1198
1026.469	-2383
1026.536	-2310
1026.604	-2264
1026.671	-2429
1026.739	-1692
1026.806	-2020
1026.874	-3015
1026.941	-1789
1027.009	-1842
1027.076	-2436
1027.144	-1259
1027.211	-2089
1027.278	-2550
1027.345	-2672
1027.413	-3009
1027.480	-1668
1027.547	-1573
1027.614	-2172
1027.682	-1751
1027.749	-1739
1027.816	-2520
1027.883	-1620
1027.950	-1499
1028.017	-2183
1028.084	-1840
1028.151	-1884
1028.218	-2546
1028.285	-1344
1028.352	-2872
1028.419	-2227
1028.486	-1572
1028.553	-1375
1028.619	-1780
1028.686	-1265
1028.753	-2684
1028.820	-1595
1028.886	-2146
1028.953	-2116
1029.020	-2025
1029.086	-1861
1029.153	-2255
1029.220	-1070
1029.286	-1644
1029.353	-2415
1029.419	-2840
1029.486	-2579
1029.552	-2874
1029.619	-2313
1029.685	-2159
1029.751	-2826
1029.818	-1762
1029.884	-1359
1029.951	-2370
1030.017	-2471
1030.083	-2169
1030.149	-1609
1030.216	-2635
1030.282	-1821
1030.348	-2917
1030.414	-1542
1030.480	-1726
1030.546	-1583
1030.612	-2133
1030.678	-2479
1030.744	-1845
1030.810	-2122
1030.876	-1874
1030.942	-965
1031.008	-2013
1031.074	-2361
1031.140	-2590
1031.206	-1446
1031.272	-2451
1031.337	-2298
1031.403	-2112
1031.469	-2031
1031.534	-2116
1031.600	-2239
1031.666	-2338
1031.731	-2466
1031.797	-2402
1031.863	-1949
1031.928	-1935
1031.994	-1974
1032.059	-1649
1032.125	-1837
1032.190	-2798
1032.256	-2325
1032.321	-2427
1032.386	-2084
1032.452	-2079
1032.517	-1831
1032.582	-2527
1032.647	-1723
1032.713	-2490
1032.778	-1690
1032.843	-2684
1032.908	-2514
1032.974	-1256
1033.039	-1707
1033.104	-2347
1033.169	-2324
1033.234	-2011
1033.299	-2185
1033.364	-2075
1033.429	-1576
1033.494	-1844
1033.559	-1498
1033.624	-2832
1033.688	-1626
1033.753	-2414
1033.818	-1268
1033.883	-1314
1033.948	-1994
1034.013	-1699
1034.077	-1238
1034.142	-2179
1034.207	-1361
1034.271	-1807
1034.336	-1614
1034.400	-1492
1034.465	-1521
1034.530	-2103
1034.594	-1424
1034.658	-1368
1034.723	-2520
1034.787	-2019
1034.852	-2125
1034.916	-1323
1034.981	-2243
1035.045	-2084
1035.109	-2138
1035.173	-1628
1035.238	-1868
1035.302	-1852
1035.366	-2514
1035.430	-2043
1035.495	-2298
1035.559	-1811
1035.623	-1554
1035.687	-1705
1035.751	-2183
1035.815	-2391
1035.879	-1702
1035.943	-1931
1036.007	-1760
1036.071	-2459
1036.135	-2711
1036.198	-1771
1036.262	-1937
1036.326	-1961
1036.390	-1390
1036.454	-1957
1036.517	-2027
1036.581	-1233
1036.645	-1190
1036.709	-1680
1036.772	-1884
1036.836	-1931
1036.900	-2012
1036.963	-2115
1037.026	-2105
1037.090	-1499
1037.154	-1850
1037.217	-1975
1037.280	-2419
1037.344	-2056
1037.407	-1915
1037.471	-2887
1037.534	-2218
1037.597	-2453
1037.661	-1696
1037.724	-1730
1037.787	-2019
1037.850	-2824
1037.913	-1844
1037.977	-2093
1038.040	-2565
1038.103	-2253
1038.166	-2091
1038.229	-1467
1038.292	-2784
1038.355	-1513
1038.418	-2680
1038.481	-1513
1038.544	-2547
1038.607	-2202
1038.670	-1750
1038.732	-2048
1038.795	-1648
1038.858	-1682
1038.921	-1628
1038.984	-2026
1039.046	-2535
1039.109	-1984
1039.172	-2046
1039.234	-3140
1039.297	-2126
1039.360	-2642
1039.422	-1489
1039.485	-2603
1039.547	-2856
1039.610	-1664
1039.672	-2065
1039.734	-2896
1039.797	-1179
1039.859	-1491
1039.922	-2318
1039.984	-2052
1040.046	-1661
1040.109	-1983
1040.171	-2440
1040.233	-1912
1040.295	-1936
1040.358	-1592
1040.420	-2157
1040.482	-1760
1040.544	-2156
1040.606	-2315
1040.668	-1632
1040.730	-2270
1040.792	-2589
1040.854	-2533
1040.916	-2072
1040.978	-2077
1041.040	-1128
1041.102	-1116
1041.164	-2365
1041.225	-2208
1041.287	-1552
1041.349	-1859
1041.411	-1702
1041.472	-1539
1041.534	-1354
1041.596	-2321
1041.657	-1625
1041.719	-1734
1041.781	-1839
1041.842	-1504
1041.904	-1892
1041.965	-2028
1042.027	-1734
1042.088	-1948
1042.150	-1954
1042.211	-1475
1042.272	-2038
1042.334	-1740
1042.395	-1453
1042.456	-1918
1042.518	-1738
1042.579	-1232
1042.640	-2268
1042.701	-2292
1042.763	-1276
1042.824	-2449
1042.885	-2153
1042.946	-1873
1043.007	-1462
1043.068	-1530
1043.129	-1580
1043.190	-2381
1043.251	-1882
1043.312	-1149
1043.373	-2290
1043.434	-1684
1043.495	-1802
1043.556	-1585
1043.616	-1810
1043.677	-2030
1043.738	-1218
1043.799	-2394
1043.859	-1866
1043.920	-2661
1043.981	-1622
1044.041	-2828
1044.102	-1522
1044.162	-2033
1044.223	-1605
1044.284	-2489
1044.344	-1931
1044.405	-1595
1044.465	-1609
1044.525	-1929
1044.586	-1502
1044.646	-1431
1044.707	-1739
1044.767	-1792
1044.827	-1841
1044.887	-1411
1044.948	-1178
1045.008	-1882
1045.068	-1935
1045.128	-1586
1045.188	-2074
1045.249	-1473
1045.309	-2418
1045.369	-1466
1045.429	-1397
1045.489	-1171
1045.549	-1765
1045.609	-2019
1045.669	-2704
1045.729	-1370
1045.789	-1476
1045.848	-1902
1045.908	-1315
1045.968	-1504
1046.028	-1416
1046.088	-1246
1046.147	-1586
1046.207	-1600
1046.267	-986
1046.326	-1595
1046.386	-1150
1046.446	-846
1046.505	-982
1046.565	-406
1046.624	-1410
1046.684	-400
1046.743	-1366
1046.803	-243
1046.862	-565
1046.922	0
