'Start Wavelength	183.907
'End Wavelength	1046.922
'Gate Delay	5.000
'Gate Width (ms)	1.050
'Laser Output Level	0.000
'X Position	0.000
'Y Position	0.000
'Z Position	0.000
'Grid Point Number	1.000
'Shot Number	100.000
183.907	-127.000
183.977	8.000
184.047	378
184.116	199
184.186	383
184.256	842
184.325	-690
184.395	-819
184.465	153
184.534	555
184.604	-1035
184.674	-38
184.743	-849
184.813	-109
184.883	-276
184.952	75
185.022	-317
185.092	-444
185.161	-346
185.231	142
185.301	-427
185.370	190
185.440	72
185.509	-534
185.579	-839
185.649	582
185.718	239
185.788	796
185.857	-223
185.927	-436
185.996	-437
186.066	275
186.136	-258
186.205	-575
186.275	-310
186.344	302
186.414	92
186.483	-660
186.553	282
186.622	248
186.692	-645
186.761	-1321
186.831	463
186.900	-522
186.970	6
187.039	119
187.109	287
187.178	248
187.248	-35
187.317	1251
187.387	-485
187.456	151
187.526	217
187.595	228
187.664	-1174
187.734	508
187.803	-715
187.873	82
187.942	701
188.012	498
188.081	-434
188.150	216
188.220	-665
188.289	43
188.358	-427
188.428	403
188.497	-129
188.567	-64
188.636	59
188.705	-206
188.775	-90
188.844	-22
188.913	277
188.983	184
189.052	238
189.121	-305
189.191	-537
189.260	227
189.329	-29
189.399	-136
189.468	21
189.537	-47
189.606	388
189.676	503
189.745	-243
189.814	805
189.883	27
189.953	420
190.022	284
190.091	617
190.161	638
190.230	277
190.299	516
190.368	-355
190.437	-469
190.507	190
190.576	-526
190.645	170
190.714	183
190.783	33
190.853	654
190.922	-153
190.991	-700
191.060	228
191.129	-684
191.198	654
191.268	-626
191.337	269
191.406	806
191.475	121
191.544	345
191.613	-100
191.682	-588
191.752	-115
191.821	-135
191.890	421
191.959	612
192.028	422
192.097	-705
192.166	457
192.235	-477
192.304	569
192.373	-304
192.442	654
192.511	219
192.580	358
192.650	-213
192.719	-392
192.788	170
192.857	419
192.926	-388
192.995	97
193.064	-54
193.133	-160
193.202	575
193.271	780
193.340	545
193.409	509
193.478	687
193.547	383
193.615	274
193.684	1077
193.753	991
193.822	712
193.891	-601
193.960	427
194.029	146
194.098	810
194.167	71
194.236	231
194.305	732
194.374	-58
194.443	-348
194.512	-337
194.580	-207
194.649	1170
194.718	188
194.787	806
194.856	193
194.925	382
194.994	-77
195.062	448
195.131	-561
195.200	540
195.269	562
195.338	572
195.407	56
195.475	-6
195.544	810
195.613	383
195.682	604
195.751	437
195.819	-174
195.888	295
195.957	865
196.026	893
196.094	1077
196.163	814
196.232	201
196.301	943
196.369	455
196.438	960
196.507	833
196.576	685
196.644	119
196.713	869
196.782	46
196.850	991
196.919	220
196.988	462
197.056	36
197.125	327
197.194	-82
197.262	811
197.331	-491
197.400	441
197.468	314
197.537	641
197.606	248
197.674	543
197.743	-30
197.812	-42
197.880	697
197.949	-211
198.017	972
198.086	290
198.155	243
198.223	174
198.292	97
198.360	836
198.429	-25
198.497	258
198.566	591
198.635	891
198.703	566
198.772	687
198.840	772
198.909	677
198.977	-279
199.046	292
199.114	237
199.183	1201
199.251	-121
199.320	350
199.388	-130
199.457	837
199.525	354
199.594	35
199.662	38
199.731	288
199.799	143
199.867	533
199.936	397
200.004	1641
200.073	899
200.141	476
200.210	20
200.278	268
200.346	655
200.415	1075
200.483	242
200.552	1544
200.620	128
200.688	948
200.757	663
200.825	735
200.893	399
200.962	736
201.030	-228
201.098	139
201.167	433
201.235	1134
201.303	722
201.372	555
201.440	71
201.508	1728
201.577	614
201.645	911
201.713	207
201.781	939
201.850	1771
201.918	705
201.986	624
202.055	411
202.123	55
202.191	882
202.259	281
202.327	1045
202.396	847
202.464	-313
202.532	425
202.600	2344
202.669	1413
202.737	532
202.805	333
202.873	606
202.941	543
203.009	430
203.078	663
203.146	620
203.214	151
203.282	165
203.350	324
203.418	352
203.487	-459
203.555	792
203.623	1090
203.691	622
203.759	344
203.827	460
203.895	-63
203.963	634
204.031	662
204.099	557
204.168	-102
204.236	987
204.304	11
204.372	781
204.440	35
204.508	-65
204.576	7
204.644	637
204.712	393
204.780	796
204.848	410
204.916	939
204.984	198
205.052	768
205.120	682
205.188	597
205.256	30
205.324	366
205.392	-113
205.460	306
205.528	-14
205.596	1042
205.664	712
205.732	435
205.799	1300
205.867	1991
205.935	410
206.003	1022
206.071	146
206.139	860
206.207	402
206.275	1009
206.343	209
206.411	1040
206.478	1656
206.546	1136
206.614	-227
206.682	885
206.750	1154
206.818	1054
206.885	1212
206.953	-496
207.021	1448
207.089	989
207.157	224
207.225	935
207.292	-204
207.360	583
207.428	215
207.496	524
207.563	401
207.631	1158
207.699	832
207.767	1069
207.834	867
207.902	636
207.970	355
208.038	969
208.105	585
208.173	673
208.241	1040
208.309	947
208.376	1017
208.444	1980
208.512	264
208.579	7
208.647	956
208.715	963
208.782	447
208.850	1195
208.918	852
208.985	1176
209.053	1364
209.120	257
209.188	-880
209.256	802
209.323	129
209.391	1210
209.459	1260
209.526	1334
209.594	711
209.661	1192
209.729	577
209.796	56
209.864	988
209.932	450
209.999	1537
210.067	1586
210.134	752
210.202	1449
210.269	1382
210.337	1593
210.404	261
210.472	1171
210.539	1261
210.607	943
210.674	1282
210.742	1312
210.809	758
210.877	2480
210.944	1118
211.012	1437
211.079	2425
211.146	1822
211.214	931
211.281	1891
211.349	1186
211.416	2131
211.484	1829
211.551	1122
211.618	564
211.686	1238
211.753	630
211.821	2569
211.888	1264
211.955	1293
212.023	728
212.090	530
212.157	517
212.225	1703
212.292	1589
212.359	2358
212.427	5882
212.494	3317
212.561	1945
212.629	1862
212.696	1758
212.763	996
212.831	552
212.898	1736
212.965	1550
213.032	1416
213.100	2305
213.167	1281
213.234	1482
213.301	2029
213.369	1266
213.436	1845
213.503	155
213.570	1314
213.638	1408
213.705	1217
213.772	875
213.839	1605
213.906	2005
213.973	2058
214.041	1125
214.108	2054
214.175	1359
214.242	1337
214.309	1384
214.376	1620
214.444	1208
214.511	1188
214.578	1867
214.645	1873
214.712	1492
214.779	1990
214.846	1189
214.913	2173
214.980	1836
215.048	2548
215.115	2721
215.182	3122
215.249	2445
215.316	1601
215.383	1500
215.450	1363
215.517	2108
215.584	2451
215.651	1373
215.718	1446
215.785	1808
215.852	1827
215.919	2417
215.986	2508
216.053	1527
216.120	381
216.187	1866
216.254	2063
216.321	1662
216.388	1509
216.455	1920
216.522	2011
216.589	2516
216.656	3918
216.722	3789
216.789	3616
216.856	2502
216.923	3290
216.990	3015
217.057	2029
217.124	3208
217.191	2428
217.258	3651
217.324	5174
217.391	4225
217.458	3542
217.525	2202
217.592	2756
217.659	1902
217.725	2832
217.792	1601
217.859	3031
217.926	1915
217.993	2153
218.059	1499
218.126	1472
218.193	1354
218.260	2192
218.327	1382
218.393	1385
218.460	1061
218.527	1431
218.594	1918
218.660	2881
218.727	2248
218.794	1296
218.860	1361
218.927	1583
218.994	1244
219.061	1085
219.127	1724
219.194	2438
219.261	1477
219.327	367
219.394	873
219.461	834
219.527	140
219.594	2433
219.661	1077
219.727	535
219.794	1518
219.860	1175
219.927	1437
219.994	2605
220.060	2319
220.127	2332
220.193	2151
220.260	1820
220.326	3696
220.393	4857
220.460	7202
220.526	4800
220.593	2761
220.659	4278
220.726	2870
220.792	4891
220.859	5399
220.925	8027
220.992	10187
221.058	8786
221.125	7049
221.191	4757
221.258	2301
221.324	2636
221.391	1978
221.457	1665
221.524	1768
221.590	2203
221.657	4856
221.723	3403
221.789	2862
221.856	3552
221.922	1342
221.989	2086
222.055	1514
222.121	544
222.188	3092
222.254	2006
222.321	1263
222.387	1625
222.453	1196
222.520	1371
222.586	894
222.652	2160
222.719	623
222.785	2209
222.851	1153
222.918	1262
222.984	1614
223.050	2361
223.116	-93
223.183	2317
223.249	547
223.315	952
223.382	1055
223.448	1568
223.514	840
223.580	1322
223.647	438
223.713	736
223.779	1095
223.845	1991
223.911	1206
223.978	428
224.044	1041
224.110	766
224.176	1072
224.242	1007
224.309	-299
224.375	1439
224.441	997
224.507	718
224.573	585
224.639	1339
224.705	438
224.772	1741
224.838	1572
224.904	1577
224.970	306
225.036	873
225.102	226
225.168	1524
225.234	1805
225.300	987
225.366	1090
225.432	1679
225.499	650
225.565	1176
225.631	1786
225.697	2002
225.763	2639
225.829	2391
225.895	1920
225.961	2763
226.027	3054
226.093	2746
226.159	3342
226.225	5042
226.291	9057
226.357	13889
226.423	8887
226.489	5633
226.554	2715
226.620	3926
226.686	4286
226.752	6309
226.818	8988
226.884	15326
226.950	14107
227.016	6542
227.082	4305
227.148	2950
227.214	3585
227.279	3445
227.345	2456
227.411	2760
227.477	2323
227.543	4272
227.609	3523
227.674	2972
227.740	2309
227.806	1901
227.872	1357
227.938	2720
228.003	2542
228.069	1885
228.135	821
228.201	1246
228.267	1312
228.332	1852
228.398	514
228.464	1816
228.530	1025
228.595	1803
228.661	-127
228.727	2112
228.792	3174
228.858	1509
228.924	392
228.990	3282
229.055	951
229.121	3245
229.187	741
229.252	1408
229.318	1321
229.384	1899
229.449	1901
229.515	396
229.581	57
229.646	2292
229.712	1695
229.777	2665
229.843	4256
229.909	3232
229.974	3189
230.040	3367
230.105	2701
230.171	2519
230.236	2933
230.302	4118
230.368	2926
230.433	1362
230.499	2560
230.564	3099
230.630	2027
230.695	2539
230.761	2444
230.826	1154
230.892	3171
230.957	1801
231.023	708
231.088	2227
231.154	1599
231.219	2576
231.284	2026
231.350	3307
231.415	1750
231.481	2171
231.546	1757
231.612	2442
231.677	888
231.742	1143
231.808	2507
231.873	787
231.939	-292
232.004	4051
232.069	3523
232.135	2331
232.200	925
232.265	2457
232.331	1218
232.396	935
232.461	464
232.527	1428
232.592	1134
232.657	1620
232.723	1295
232.788	1812
232.853	1792
232.918	1695
232.984	788
233.049	1572
233.114	1255
233.179	2630
233.245	2637
233.310	2711
233.375	523
233.440	2292
233.506	460
233.571	1201
233.636	1558
233.701	1530
233.766	2619
233.832	2742
233.897	1453
233.962	1554
234.027	3287
234.092	2358
234.157	2421
234.222	1500
234.288	2816
234.353	5720
234.418	4686
234.483	5026
234.548	4554
234.613	3262
234.678	3147
234.743	3020
234.808	6639
234.873	3915
234.938	3705
235.004	3064
235.069	2466
235.134	1928
235.199	2112
235.264	1792
235.329	1231
235.394	1983
235.459	2611
235.524	2215
235.589	2401
235.654	1787
235.719	984
235.784	2831
235.849	1768
235.913	3388
235.978	4230
236.043	4156
236.108	2369
236.173	2366
236.238	3387
236.303	2292
236.368	1435
236.433	3735
236.498	4187
236.563	4055
236.627	7454
236.692	20060
236.757	18181
236.822	8263
236.887	5547
236.952	5446
237.017	3230
237.081	5440
237.146	6215
237.211	12250
237.276	20415
237.341	27680
237.405	15249
237.470	7894
237.535	5819
237.600	3430
237.664	3171
237.729	3061
237.794	3979
237.859	9028
237.923	5291
237.988	3372
238.053	3805
238.118	3503
238.182	6910
238.247	6193
238.312	3773
238.376	3869
238.441	1037
238.506	3943
238.570	1399
238.635	2798
238.700	2589
238.764	2059
238.829	4397
238.893	4195
238.958	3447
239.023	3433
239.087	2197
239.152	2830
239.216	1505
239.281	2655
239.346	3034
239.410	2343
239.475	1657
239.539	7496
239.604	4714
239.668	3870
239.733	1104
239.797	3177
239.862	7254
239.926	6880
239.991	3890
240.055	2543
240.120	1506
240.184	2470
240.249	1285
240.313	1948
240.378	1782
240.442	4104
240.507	6210
240.571	2999
240.635	2754
240.700	5116
240.764	3062
240.829	2264
240.893	716
240.957	1410
241.022	4475
241.086	7239
241.151	3558
241.215	1447
241.279	3142
241.344	3430
241.408	3611
241.472	3397
241.537	3906
241.601	3594
241.665	2906
241.730	2632
241.794	4180
241.858	2225
241.922	2748
241.987	3263
242.051	2368
242.115	1952
242.179	2471
242.244	2480
242.308	3718
242.372	2886
242.436	2747
242.501	4183
242.565	2010
242.629	2390
242.693	3169
242.757	1768
242.822	2414
242.886	3137
242.950	3438
243.014	2605
243.078	3559
243.142	3634
243.206	2650
243.271	3187
243.335	2538
243.399	4687
243.463	7437
243.527	20948
243.591	8278
243.655	5448
243.719	2882
243.783	4449
243.847	5879
243.911	6721
243.975	8338
244.040	6833
244.104	4812
244.168	3096
244.232	5172
244.296	6122
244.360	5568
244.424	3095
244.488	3056
244.552	4226
244.615	823
244.679	2756
244.743	2340
244.807	3035
244.871	2696
244.935	2916
244.999	1293
245.063	2175
245.127	3928
245.191	5335
245.255	4177
245.319	4297
245.383	2627
245.446	4296
245.510	1953
245.574	3466
245.638	3683
245.702	2374
245.766	5876
245.829	5049
245.893	2612
245.957	2636
246.021	3112
246.085	3228
246.149	3932
246.212	10148
246.276	12754
246.340	7732
246.404	5668
246.467	5083
246.531	4722
246.595	5982
246.659	4944
246.722	4251
246.786	7134
246.850	5741
246.913	6406
246.977	3347
247.041	3601
247.104	4289
247.168	3890
247.232	8812
247.295	16490
247.359	9756
247.423	4279
247.486	8018
247.550	6992
247.614	4250
247.677	6226
247.741	4572
247.804	3204
247.868	4745
247.932	8160
247.995	17320
248.059	7543
248.122	3843
248.186	6120
248.249	11233
248.313	23587
248.376	26971
248.440	19168
248.503	8545
248.567	7491
248.630	8843
248.694	12901
248.757	17874
248.821	26587
248.884	21174
248.948	17846
249.011	25131
249.075	30260
249.138	28346
249.202	13976
249.265	8713
249.328	8042
249.392	7904
249.455	7338
249.519	5407
249.582	7940
249.645	10046
249.709	7978
249.772	5497
249.835	4691
249.899	5626
249.962	5426
250.025	5091
250.089	12300
250.152	17645
250.215	9934
250.279	7555
250.342	6926
250.405	6274
250.468	4602
250.532	7324
250.595	9217
250.658	22363
250.721	35256
250.785	17528
250.848	10499
250.911	6457
250.974	5268
251.038	9042
251.101	16803
251.164	9559
251.227	10885
251.290	9004
251.354	10545
251.417	31034
251.480	30050
251.543	22245
251.606	49495
251.669	41451
251.732	19487
251.795	21572
251.859	21619
251.922	34716
251.985	23315
252.048	11207
252.111	8272
252.174	9523
252.237	18072
252.300	31705
252.363	31208
252.426	46757
252.489	23256
252.552	13223
252.615	9035
252.678	11415
252.741	23546
252.804	26921
252.867	46716
252.930	36428
252.993	20205
253.056	14453
253.119	9862
253.182	7643
253.245	11282
253.308	9925
253.371	10549
253.434	10800
253.497	9652
253.559	17148
253.622	12513
253.685	18593
253.748	20807
253.811	9145
253.874	9915
253.937	9287
254.000	7614
254.062	13977
254.125	18761
254.188	16882
254.251	13403
254.314	7764
254.376	12800
254.439	16257
254.502	16160
254.565	13864
254.628	23551
254.690	17067
254.753	9760
254.816	8468
254.878	7191
254.941	13021
255.004	12577
255.067	7051
255.129	8283
255.192	4114
255.255	3474
255.317	5684
255.380	3321
255.443	2544
255.505	1904
255.568	2370
255.631	3398
255.693	4407
255.756	2508
255.819	3576
255.881	2730
255.944	3466
256.006	2362
256.069	3381
256.132	2822
256.194	4199
256.257	7054
256.319	5361
256.382	4665
256.444	4770
256.507	3448
256.569	2955
256.632	3673
256.694	4889
256.757	15057
256.819	36352
256.882	16024
256.944	7733
257.007	7416
257.069	7335
257.132	4664
257.194	4934
257.257	4339
257.319	4206
257.381	3774
257.444	10601
257.506	40916
257.569	49783
257.631	23283
257.693	14543
257.756	6500
257.818	4372
257.880	4401
257.943	5122
258.005	4165
258.067	4093
258.130	3846
258.192	5445
258.254	10151
258.317	5376
258.379	3840
258.441	8983
258.503	8559
258.566	8268
258.628	10038
258.690	3878
258.753	4724
258.815	11980
258.877	5870
258.939	4645
259.001	4212
259.064	4019
259.126	3665
259.188	4917
259.250	4252
259.312	5004
259.375	9811
259.437	7702
259.499	3814
259.561	3554
259.623	4384
259.685	3564
259.747	3893
259.809	8676
259.872	12557
259.934	20676
259.996	19747
260.058	7417
260.120	3250
260.182	2810
260.244	2830
260.306	2187
260.368	3560
260.430	3209
260.492	6276
260.554	10787
260.616	7077
260.678	12675
260.740	14468
260.802	5814
260.864	5928
260.926	4163
260.988	4950
261.050	3574
261.112	7719
261.174	17060
261.236	11331
261.298	5465
261.359	5851
261.421	9554
261.483	3664
261.545	5143
261.607	1913
261.669	2557
261.731	4214
261.793	12463
261.854	6781
261.916	5291
261.978	2992
262.040	3121
262.102	3085
262.164	4189
262.225	4113
262.287	2533
262.349	9130
262.411	8166
262.472	3446
262.534	4178
262.596	8325
262.658	4192
262.719	2509
262.781	3729
262.843	7497
262.904	3886
262.966	3955
263.028	3439
263.090	14391
263.151	34952
263.213	15332
263.275	11607
263.336	4857
263.398	3424
263.459	1182
263.521	2631
263.583	8402
263.644	6302
263.706	2845
263.767	1365
263.829	2515
263.891	1862
263.952	1117
264.014	1226
264.075	3075
264.137	7996
264.198	6385
264.260	2193
264.321	1764
264.383	6124
264.444	14385
264.506	4215
264.567	3327
264.629	5054
264.690	9857
264.752	5346
264.813	3629
264.875	1886
264.936	3224
264.998	2764
265.059	1610
265.120	2929
265.182	3939
265.243	22537
265.305	21900
265.366	5797
265.427	2577
265.489	2911
265.550	1923
265.611	3832
265.673	3076
265.734	2145
265.795	2210
265.857	2043
265.918	1503
265.979	6083
266.040	34016
266.102	27551
266.163	9255
266.224	7931
266.286	4040
266.347	3635
266.408	3522
266.469	3083
266.530	2027
266.592	2125
266.653	7263
266.714	11474
266.775	4686
266.836	3251
266.898	2526
266.959	4551
267.020	3345
267.081	3404
267.142	2772
267.203	1639
267.264	1736
267.326	4397
267.387	2911
267.448	2332
267.509	3346
267.570	3397
267.631	2003
267.692	1390
267.753	2993
267.814	1623
267.875	4930
267.936	11703
267.997	5856
268.058	7099
268.119	3489
268.180	3992
268.241	2338
268.302	3269
268.363	1470
268.424	2914
268.485	2959
268.546	2076
268.607	1370
268.668	1835
268.729	2212
268.790	2580
268.851	2701
268.912	7368
268.972	10643
269.033	7366
269.094	2622
269.155	2214
269.216	2264
269.277	2376
269.338	1365
269.398	2779
269.459	3154
269.520	6202
269.581	7385
269.642	9988
269.702	6436
269.763	4174
269.824	2940
269.885	4454
269.945	7782
270.006	3186
270.067	1484
270.128	1698
270.188	1202
270.249	2140
270.310	1501
270.370	2011
270.431	1328
270.492	1609
270.553	2106
270.613	7666
270.674	12643
270.734	5987
270.795	2634
270.856	5939
270.916	3436
270.977	2366
271.038	4004
271.098	4507
271.159	6708
271.219	6992
271.280	2534
271.340	3402
271.401	2438
271.462	5332
271.522	4630
271.583	3954
271.643	3775
271.704	3103
271.764	3944
271.825	9820
271.885	31109
271.946	39728
272.006	15398
272.066	19959
272.127	31220
272.187	10834
272.248	5705
272.308	5880
272.369	19083
272.429	12011
272.489	10154
272.550	10730
272.610	11785
272.671	8810
272.731	5830
272.791	7850
272.852	7374
272.912	7220
272.972	4049
273.033	3423
273.093	5430
273.153	6659
273.214	3936
273.274	4458
273.334	14476
273.394	29756
273.455	16326
273.515	13432
273.575	25972
273.635	12820
273.696	15555
273.756	28358
273.816	14186
273.876	7655
273.936	9722
273.997	14972
274.057	4858
274.117	5197
274.177	7804
274.237	33706
274.297	26933
274.358	17963
274.418	21866
274.478	19358
274.538	7133
274.598	4686
274.658	12103
274.718	17058
274.778	8028
274.838	4270
274.898	6568
274.958	20014
275.018	24877
275.078	18768
275.138	8614
275.198	4378
275.258	3232
275.318	4452
275.378	10465
275.438	13847
275.498	6530
275.558	10236
275.618	22310
275.678	18415
275.738	14006
275.798	9689
275.858	4550
275.918	2344
275.978	5043
276.038	4271
276.098	2056
276.157	7097
276.217	22758
276.277	10672
276.337	9777
276.397	4970
276.457	6502
276.517	3847
276.576	2924
276.636	3294
276.696	6493
276.756	14241
276.815	8780
276.875	4737
276.935	5699
276.995	5895
277.055	2174
277.114	2553
277.174	4895
277.234	17654
277.293	8370
277.353	5003
277.413	2584
277.472	4546
277.532	4997
277.592	3946
277.651	14648
277.711	25808
277.771	8272
277.830	31360
277.890	25258
277.950	17252
278.009	43796
278.069	17313
278.128	20322
278.188	30186
278.248	13100
278.307	30563
278.367	17213
278.426	6352
278.486	4212
278.545	3318
278.605	2535
278.664	3672
278.724	3262
278.783	10234
278.843	26412
278.902	8168
278.962	5546
279.021	6865
279.081	5948
279.140	6228
279.199	6156
279.259	6702
279.318	6320
279.378	8253
279.437	12002
279.496	38996
279.556	94643
279.615	75719
279.675	23951
279.734	14658
279.793	20639
279.853	29073
279.912	11667
279.971	6830
280.031	6174
280.090	11517
280.149	20258
280.208	14766
280.268	63022
280.327	65011
280.386	17904
280.445	15682
280.505	15067
280.564	6500
280.623	5070
280.682	9259
280.742	14522
280.801	4968
280.860	3936
280.919	3445
280.978	2579
281.037	3569
281.097	2318
281.156	3018
281.215	2595
281.274	4125
281.333	16349
281.392	11784
281.451	2804
281.510	3446
281.569	3083
281.628	3029
281.688	1330
281.747	3680
281.806	3526
281.865	2198
281.924	2008
281.983	2760
282.042	2028
282.101	2802
282.160	3059
282.219	1939
282.278	2427
282.337	12195
282.396	7311
282.454	3271
282.513	4130
282.572	19149
282.631	10807
282.690	3959
282.749	2707
282.808	5925
282.867	4205
282.926	5621
282.985	2620
283.043	2711
283.102	2601
283.161	3608
283.220	6926
283.279	17510
283.338	5836
283.396	4594
283.455	3663
283.514	4959
283.573	8769
283.631	5892
283.690	4380
283.749	4086
283.808	9497
283.866	11840
283.925	4638
283.984	4155
284.043	7598
284.101	7654
284.160	4304
284.219	5350
284.277	6263
284.336	9394
284.395	28520
284.453	21780
284.512	11023
284.570	17847
284.629	14512
284.688	14796
284.746	16601
284.805	19801
284.863	27067
284.922	34647
284.981	41181
285.039	55151
285.098	87819
285.156	125768
285.215	86222
285.273	93718
285.332	126274
285.390	97488
285.449	66491
285.507	46536
285.566	32837
285.624	24970
285.683	20340
285.741	16629
285.799	14975
285.858	12979
285.916	12582
285.975	9439
286.033	7346
286.091	6887
286.150	5487
286.208	5684
286.267	6168
286.325	6996
286.383	11572
286.442	9409
286.500	5327
286.558	3699
286.616	3498
286.675	6300
286.733	6313
286.791	5166
286.850	4779
286.908	6789
286.966	11558
287.024	4832
287.083	2269
287.141	2345
287.199	3979
287.257	7716
287.315	4789
287.374	4231
287.432	12286
287.490	8058
287.548	4629
287.606	3601
287.664	2870
287.723	5767
287.781	7085
287.839	2911
287.897	3941
287.955	4817
288.013	5348
288.071	10420
288.129	44753
288.187	119054
288.245	53834
288.303	19001
288.361	11074
288.419	6643
288.477	4723
288.535	3743
288.593	3154
288.651	3186
288.709	2874
288.767	3057
288.825	3106
288.883	1681
288.941	1314
288.999	2214
289.057	2346
289.115	1555
289.173	1784
289.231	2494
289.289	1893
289.346	2107
289.404	2956
289.462	7016
289.520	8014
289.578	3412
289.636	2346
289.694	1403
289.751	1018
289.809	1871
289.867	2581
289.925	3545
289.983	4013
290.040	2539
290.098	1392
290.156	4601
290.214	4347
290.271	1956
290.329	823
290.387	687
290.444	1262
290.502	50
290.560	862
290.617	1185
290.675	1676
290.733	1871
290.790	2369
290.848	1466
290.906	2538
290.963	3229
291.021	1678
291.078	1691
291.136	1546
291.194	8065
291.251	17316
291.309	5694
291.366	2249
291.424	2186
291.481	2362
291.539	2654
291.596	2638
291.654	1578
291.711	1160
291.769	2639
291.826	7327
291.884	5383
291.941	2226
291.999	2501
292.056	3206
292.114	3830
292.171	1659
292.228	2008
292.286	3842
292.343	8565
292.401	10003
292.458	4697
292.515	3211
292.573	4844
292.630	4416
292.687	3798
292.745	2018
292.802	2993
292.859	9460
292.917	21278
292.974	13000
293.031	4933
293.089	2423
293.146	2177
293.203	1355
293.260	1548
293.318	2165
293.375	3018
293.432	2402
293.489	1794
293.546	1476
293.604	3422
293.661	12177
293.718	31655
293.775	16376
293.832	9953
293.889	7457
293.947	5343
294.004	3356
294.061	4635
294.118	9570
294.175	19088
294.232	21305
294.289	9253
294.346	4755
294.403	6341
294.460	3998
294.517	3125
294.574	2894
294.631	2241
294.688	2156
294.745	8613
294.802	33586
294.859	34808
294.916	13237
294.973	7043
295.030	8162
295.087	6910
295.144	3894
295.201	2667
295.258	1733
295.315	3464
295.372	14085
295.429	25540
295.486	11636
295.542	5653
295.599	12091
295.656	21988
295.713	16295
295.770	23040
295.827	8645
295.883	4321
295.940	3635
295.997	9371
296.054	9033
296.111	4762
296.167	3066
296.224	1869
296.281	2010
296.338	1871
296.394	1455
296.451	3055
296.508	10495
296.564	19368
296.621	14014
296.678	32013
296.734	40810
296.791	15654
296.848	7703
296.904	8370
296.961	24120
297.018	29615
297.074	18199
297.131	7064
297.187	5011
297.244	7878
297.301	26082
297.357	41651
297.414	15231
297.470	7696
297.527	3924
297.583	4377
297.640	3884
297.696	3097
297.753	2212
297.809	2461
297.866	1299
297.922	2050
297.979	502
298.035	3010
298.092	5062
298.148	16574
298.204	16552
298.261	6384
298.317	13199
298.374	35938
298.430	19520
298.486	8281
298.543	5618
298.599	4910
298.656	5937
298.712	12504
298.768	26783
298.824	15490
298.881	6384
298.937	3193
298.993	3061
299.050	5547
299.106	4466
299.162	3962
299.218	4619
299.275	3491
299.331	3332
299.387	8092
299.443	32032
299.500	31788
299.556	13073
299.612	7364
299.668	6116
299.724	7140
299.780	5864
299.837	3444
299.893	6414
299.949	25920
300.005	28565
300.061	28307
300.117	41598
300.173	20120
300.229	10939
300.285	16237
300.341	16931
300.397	9245
300.453	4800
300.510	3625
300.566	3774
300.622	4301
300.678	13281
300.734	28996
300.790	26313
300.845	29318
300.901	19566
300.957	29007
301.013	20504
301.069	8328
301.125	6056
301.181	7524
301.237	6343
301.293	2973
301.349	2618
301.405	2605
301.461	3072
301.516	3383
301.572	4391
301.628	11578
301.684	8343
301.740	11682
301.796	17113
301.851	12935
301.907	23004
301.963	20548
302.019	32474
302.074	77411
302.130	77596
302.186	36464
302.242	16344
302.297	10652
302.353	9205
302.409	18596
302.464	13301
302.520	12555
302.576	33584
302.631	37514
302.687	23433
302.743	10121
302.798	6112
302.854	4912
302.910	4216
302.965	6735
303.021	12767
303.076	11350
303.132	17454
303.187	20955
303.243	9663
303.299	5183
303.354	3912
303.410	3786
303.465	3315
303.521	3068
303.576	2815
303.632	4342
303.687	9165
303.743	28722
303.798	23838
303.853	10113
303.909	5678
303.964	5065
304.020	10074
304.075	16031
304.130	13529
304.186	27321
304.241	27247
304.297	20380
304.352	9897
304.358	9458
304.407	5904
304.449	6134
304.463	6213
304.518	6428
304.539	5815
304.573	4844
304.629	4260
304.630	4326
304.684	7459
304.720	18015
304.739	23325
304.794	31620
304.811	27199
304.850	16624
304.902	7550
304.905	6974
304.960	4965
304.992	4791
305.015	4641
305.071	6244
305.083	6031
305.126	5221
305.173	3296
305.181	2990
305.236	2460
305.264	3022
305.292	3582
305.347	4457
305.354	4578
305.402	5339
305.445	5971
305.457	6172
305.512	7925
305.535	7624
305.567	7122
305.622	6206
305.626	6394
305.678	10803
305.716	23731
305.733	28566
305.788	29810
305.807	25820
305.843	19140
305.897	28348
305.898	28452
305.953	26204
305.988	17450
306.008	12717
306.063	8127
306.078	7503
306.118	5988
306.168	3757
306.173	3580
306.228	3007
306.259	2754
306.283	2495
306.338	2091
306.349	2379
306.393	3621
306.440	3619
306.448	3627
306.503	3215
306.530	3484
306.558	4398
306.613	10074
306.620	11069
306.668	17748
306.711	25585
306.723	26858
306.778	21384
306.801	17021
306.833	11782
306.888	5794
306.892	5559
306.943	3684
306.982	3114
306.997	2876
307.052	3313
307.072	3229
307.107	3338
307.162	2990
307.163	3004
307.217	4785
307.253	5896
307.272	6258
307.327	5974
307.343	6007
307.381	6097
307.434	5566
307.436	5695
307.491	10406
307.524	16779
307.546	19209
307.600	21336
307.614	19196
307.655	11860
307.704	6446
307.710	6121
307.765	5820
307.795	7022
307.819	8400
307.874	11870
307.885	11904
307.929	10080
307.975	8197
307.984	8449
308.038	11936
308.065	15125
308.093	24358
308.148	54518
308.156	61604
308.202	98684
308.246	114992
308.257	112340
308.312	65963
308.336	49197
308.366	38514
308.421	25622
308.426	24365
308.475	14463
308.517	9945
308.530	9130
308.585	7985
308.607	7618
308.639	7402
308.694	7394
308.697	7473
308.748	10693
308.787	14288
308.803	14464
308.857	11816
308.877	10710
308.912	10602
308.967	11765
308.967	11805
309.021	16783
309.058	21449
309.076	26446
309.130	46539
309.148	54307
309.185	82739
309.238	133373
309.239	133746
309.293	146634
309.328	137941
309.348	121858
309.402	66181
309.418	52130
309.457	37215
309.508	24451
309.511	24077
309.566	22937
309.598	24588
309.620	29598
309.674	47635
309.688	52052
309.729	50271
309.778	38080
309.783	36980
309.837	24848
309.868	19641
309.892	21250
309.946	29382
309.959	32632
310.001	42845
310.049	49434
310.055	47804
310.109	28379
310.139	17737
310.163	13912
310.218	8242
310.229	7385
310.272	5966
310.319	4885
310.326	4741
310.381	3636
310.409	3511
310.435	3401
310.489	2777
310.499	2725
310.543	3250
310.589	3712
310.598	3679
310.652	3774
310.679	3609
310.706	3293
310.760	2844
310.769	2752
310.814	2291
310.859	2017
310.868	2253
310.923	3300
310.948	3953
310.977	3709
311.031	3147
311.038	3071
311.085	3484
311.128	3601
311.139	3535
311.193	3512
311.218	3397
311.247	3431
311.301	3534
311.308	3544
311.356	3550
311.398	3511
311.410	3429
311.464	3052
311.488	2866
311.518	2888
311.572	2958
311.578	2979
311.626	4825
311.668	6347
311.680	6215
311.734	5550
311.758	5216
311.788	5061
311.842	4848
311.847	4821
311.896	5819
311.937	6745
311.950	6775
312.004	6812
312.027	6812
312.058	5494
312.112	3146
312.117	2914
312.165	3642
312.207	4268
312.297	4852
312.386	4282
312.476	4054
312.566	10109
312.656	4843
312.745	3967
312.835	3612
312.925	4495
313.015	3369
313.104	4334
313.194	3535
313.284	4466
313.374	5455
313.463	5629
313.553	3381
313.643	2972
313.732	2789
313.822	3628
313.912	4107
314.001	4419
314.091	4150
314.180	6033
314.270	5884
314.360	5910
314.449	5152
314.539	3675
314.628	2933
314.718	3941
314.808	4287
314.897	3562
314.987	4174
315.076	4854
315.166	5482
315.255	5659
315.345	4611
315.434	4882
315.524	4799
315.613	5755
315.703	6266
315.792	7195
315.881	10279
315.971	6164
316.060	8388
316.150	8636
316.239	7619
316.328	3346
316.418	3593
316.507	3685
316.597	5239
316.686	4869
316.775	4902
316.865	8315
316.954	2913
317.043	3669
317.133	3674
317.222	3687
317.311	3011
317.400	2766
317.490	5598
317.579	5058
317.668	2926
317.757	6020
317.847	8570
317.936	18264
318.025	14083
318.114	7767
318.203	6091
318.293	10226
318.382	20403
318.471	16586
318.560	19713
318.649	30700
318.738	6983
318.828	5906
318.917	5620
319.006	6317
319.095	14143
319.184	42090
319.273	25966
319.362	15240
319.451	4289
319.540	5633
319.629	12286
319.718	19186
319.807	6724
319.896	16180
319.985	49105
320.074	19101
320.163	5111
320.252	6879
320.341	6472
320.430	7829
320.519	9851
320.608	5931
320.697	4323
320.786	5531
320.875	5296
320.964	9038
321.053	12885
321.142	19220
321.230	18323
321.319	14945
321.408	33609
321.497	13477
321.586	12356
321.675	10955
321.764	10957
321.852	9098
321.941	20139
322.030	10655
322.119	14363
322.207	33612
322.296	14335
322.385	8842
322.474	13302
322.562	40803
322.651	19010
322.740	14692
322.829	17349
322.917	13389
323.006	10344
323.095	9248
323.183	5303
323.272	10470
323.361	15865
323.449	32434
323.538	11341
323.626	26238
323.715	12942
323.804	6098
323.892	22362
323.981	15040
324.069	3831
324.158	10797
324.246	9228
324.335	8377
324.424	13176
324.512	6030
324.601	8570
324.689	20168
324.778	34040
324.866	10863
324.954	3984
325.043	4397
325.131	6314
325.220	9520
325.308	9475
325.397	9701
325.485	6531
325.574	3963
325.662	3662
325.750	4361
325.839	4012
325.927	3592
326.015	4137
326.104	4745
326.192	4566
326.280	4452
326.369	2967
326.457	7748
326.545	11577
326.634	5804
326.722	2090
326.810	3673
326.898	2910
326.987	4633
327.075	9341
327.163	8516
327.251	4882
327.340	17841
327.428	24137
327.516	4482
327.604	2995
327.692	3630
327.781	2541
327.869	4512
327.957	3672
328.045	5343
328.133	2570
328.221	4077
328.309	3558
328.397	3712
328.485	3569
328.574	6257
328.662	21934
328.750	9446
328.838	2824
328.926	4269
329.014	3070
329.102	5662
329.190	12207
329.278	8474
329.366	2385
329.454	2562
329.542	1634
329.630	3109
329.718	3441
329.806	5161
329.893	3946
329.981	4624
330.069	5924
330.157	29605
330.245	91139
330.333	48228
330.421	7950
330.509	8631
330.597	27726
330.684	16751
330.772	5523
330.860	6601
330.948	8380
331.036	5380
331.123	1402
331.211	2412
331.299	3349
331.387	8687
331.475	13320
331.562	4892
331.650	1851
331.738	2877
331.825	3707
331.913	3089
332.001	2291
332.089	3207
332.176	5531
332.264	10310
332.352	8453
332.439	5370
332.527	3676
332.614	2871
332.702	3144
332.790	3155
332.877	5829
332.965	11123
333.052	4417
333.140	6710
333.228	13283
333.315	4299
333.403	2982
333.490	7325
333.578	7520
333.665	20813
333.753	7691
333.840	3698
333.928	3174
334.015	7094
334.103	13562
334.190	44291
334.278	11908
334.365	6085
334.452	5038
334.540	4162
334.627	3218
334.715	5343
334.802	7234
334.889	33243
334.977	35578
335.064	8857
335.151	3658
335.239	4772
335.326	4778
335.413	23932
335.501	33841
335.588	5645
335.675	3686
335.762	5160
335.850	8457
335.937	6081
336.024	11826
336.111	46591
336.199	23678
336.286	7205
336.373	3957
336.460	2396
336.547	2115
336.635	5001
336.722	3652
336.809	3209
336.896	4861
336.983	16273
337.070	38907
337.157	48236
337.245	23885
337.332	16152
337.419	2675
337.506	2675
337.593	2946
337.680	12237
337.767	38274
337.854	11821
337.941	11432
338.028	11958
338.115	4325
338.202	5777
338.289	8264
338.376	24534
338.463	8744
338.550	21488
338.637	22386
338.724	6042
338.811	7822
338.898	3137
338.984	2102
339.071	4421
339.158	5052
339.245	14557
339.332	9177
339.419	6700
339.506	5636
339.593	2304
339.679	4025
339.766	2961
339.853	4505
339.940	10984
340.027	3866
340.113	4581
340.200	5778
340.287	4083
340.374	5199
340.460	10148
340.547	3542
340.634	7620
340.720	25298
340.807	14025
340.894	3152
340.980	3299
341.067	3379
341.154	4165
341.240	7152
341.327	14482
341.414	5995
341.500	9367
341.587	3811
341.674	3409
341.760	9923
341.847	11807
341.933	3895
342.020	1796
342.106	1802
342.193	4381
342.279	7184
342.366	7084
342.452	9931
342.539	5639
342.625	12898
342.712	28663
342.798	11252
342.885	5229
342.971	1682
343.058	2613
343.144	2035
343.230	2697
343.317	3518
343.403	3599
343.490	2189
343.576	2374
343.662	2160
343.749	4228
343.835	4192
343.921	7619
344.008	42237
344.094	94408
344.180	21212
344.267	9810
344.353	26326
344.439	26855
344.525	13156
344.612	7326
344.698	5847
344.784	4039
344.870	2285
344.957	4145
345.043	5488
345.129	3953
345.215	9853
345.301	6940
345.387	4680
345.474	2538
345.560	2245
345.646	2683
345.732	2722
345.818	5835
345.904	3339
345.990	3988
346.076	3501
346.162	6925
346.249	3714
346.335	3213
346.421	2990
346.507	10954
346.593	38060
346.679	10523
346.765	3087
346.851	3890
346.937	2945
347.023	3212
347.108	3720
347.194	3380
347.280	2719
347.366	4879
347.452	11383
347.538	44467
347.624	35340
347.710	27978
347.796	4256
347.882	3312
347.967	2658
348.053	4592
348.139	2838
348.225	2924
348.311	3005
348.397	2592
348.482	4155
348.568	5489
348.654	1461
348.740	4216
348.825	3206
348.911	6675
348.997	21462
349.083	40835
349.168	5847
349.254	5197
349.340	5007
349.425	3458
349.511	4915
349.597	5189
349.682	9417
349.768	31110
349.854	14256
349.939	4146
350.025	2640
350.110	3294
350.196	3447
350.282	2804
350.367	1989
350.453	4104
350.538	2529
350.624	5321
350.709	4467
350.795	1760
350.880	2802
350.966	4919
351.051	4522
351.137	3969
351.222	3486
351.308	11289
351.393	29478
351.479	10502
351.564	4037
351.649	3547
351.735	2101
351.820	2457
351.906	3640
351.991	4326
352.076	17775
352.162	28546
352.247	6305
352.332	5189
352.418	10745
352.503	13922
352.588	44115
352.673	36251
352.759	7223
352.844	4496
352.929	5328
353.014	6853
353.100	4493
353.185	7563
353.270	9845
353.355	11432
353.441	3766
353.526	3947
353.611	8727
353.696	11996
353.781	7913
353.866	4261
353.952	4508
354.037	9548
354.122	21819
354.207	19514
354.292	7643
354.377	4385
354.462	3216
354.547	5110
354.632	4947
354.717	6817
354.802	7225
354.887	3914
354.972	2453
355.057	3867
355.142	2476
355.227	4803
355.312	6747
355.397	14772
355.482	33361
355.567	16282
355.652	11026
355.737	12506
355.822	33288
355.907	26949
355.991	5912
356.076	3274
356.161	3471
356.246	4004
356.331	4304
356.416	7427
356.501	46454
356.585	52417
356.670	9321
356.755	7801
356.840	9006
356.924	36774
357.009	115172
357.094	48966
357.179	12244
357.263	8342
357.348	7770
357.433	8507
357.517	7062
357.602	6907
357.687	4624
357.771	6877
357.856	11196
357.941	10964
358.025	27382
358.110	112214
358.195	58998
358.279	11372
358.364	7858
358.448	25397
358.533	67166
358.617	50793
358.702	46907
358.787	19301
358.871	11741
358.956	11808
359.040	2934
359.125	3396
359.209	3236
359.294	6493
359.378	9710
359.462	8465
359.547	4775
359.631	3425
359.716	2575
359.800	4452
359.885	5981
359.969	3776
360.053	3744
360.138	3444
360.222	5138
360.306	11575
360.391	7522
360.475	10759
360.559	23252
360.644	24367
360.728	18750
360.812	27257
360.896	70175
360.981	33917
361.065	19936
361.149	6531
361.233	6126
361.318	4651
361.402	4504
361.486	5069
361.570	3610
361.654	5775
361.739	11792
361.823	47145
361.907	73954
361.991	17351
362.075	9384
362.159	19797
362.243	14826
362.327	13533
362.411	17441
362.495	9439
362.580	4805
362.664	4015
362.748	3462
362.832	5729
362.916	6707
363.000	25912
363.084	68551
363.168	88371
363.252	23483
363.336	9255
363.420	10961
363.503	33941
363.587	42449
363.671	9743
363.755	7377
363.839	11089
363.923	5077
364.007	11275
364.091	12363
364.175	12793
364.258	55038
364.342	44175
364.426	55104
364.510	32434
364.594	14947
364.677	16476
364.761	59252
364.845	48192
364.929	20274
365.013	16920
365.096	12879
365.180	14672
365.264	14332
365.347	54046
365.431	25638
365.515	8480
365.598	4730
365.682	6114
365.766	7634
365.849	9740
365.933	5972
366.017	7996
366.100	5049
366.184	2942
366.267	3419
366.351	3838
366.435	3538
366.518	3346
366.602	2748
366.685	4019
366.769	4938
366.852	7918
366.936	13511
367.019	8682
367.103	5050
367.186	10911
367.270	3976
367.353	3172
367.436	4132
367.520	3790
367.603	4862
367.687	6838
367.770	12358
367.853	7860
367.937	20819
368.020	36770
368.104	9305
368.187	9999
368.270	15966
368.353	15041
368.437	11046
368.520	16107
368.603	15450
368.687	25702
368.770	47658
368.853	13048
368.936	12224
369.020	12056
369.103	5162
369.186	3812
369.269	4185
369.352	8590
369.436	11962
369.519	7986
369.602	4016
369.685	5318
369.768	4483
369.851	4648
369.934	2565
370.018	5276
370.101	10438
370.184	10854
370.267	6345
370.350	11431
370.433	16383
370.516	35574
370.599	42179
370.682	14810
370.765	33336
370.848	37672
370.931	54042
371.014	23610
371.097	5617
371.180	6444
371.263	5026
371.346	3537
371.429	5194
371.511	5164
371.594	8549
371.677	12856
371.760	14785
371.843	14461
371.926	49556
372.009	107885
372.091	45659
372.174	27013
372.257	51831
372.340	25353
372.423	18852
372.505	21621
372.588	10526
372.671	19935
372.754	54012
372.836	31206
372.919	19449
373.002	38622
373.085	15326
373.167	14120
373.250	27340
373.332	52690
373.415	66710
373.498	129618
373.580	56741
373.663	59792
373.746	85974
373.828	25312
373.911	11038
373.993	10751
374.076	31886
374.159	31894
374.241	16751
374.324	48008
374.406	34051
374.489	40007
374.571	106393
374.654	51016
374.736	24092
374.819	65244
374.901	92814
374.983	95235
375.066	21256
375.148	9464
375.231	24650
375.313	51964
375.395	22147
375.478	6154
375.560	5090
375.643	7329
375.725	19932
375.807	73767
375.890	58112
375.972	19234
376.054	13220
376.136	13480
376.219	8179
376.301	23232
376.383	66831
376.465	30835
376.548	16683
376.630	23351
376.712	56292
376.794	30739
376.877	6110
376.959	3944
377.041	4661
377.123	7888
377.205	8787
377.287	2990
377.369	3528
377.452	4044
377.534	3594
377.616	3609
377.698	2995
377.780	2648
377.862	4345
377.944	4102
378.026	2031
378.108	3546
378.190	2871
378.272	3520
378.354	2547
378.436	2462
378.518	4875
378.600	17640
378.682	17709
378.764	33664
378.846	29130
378.928	8992
379.010	14217
379.091	8857
379.173	3718
379.255	3867
379.337	4520
379.419	17453
379.501	46739
379.583	21312
379.664	5630
379.746	13157
379.828	36429
379.910	49653
379.991	42001
380.073	8497
380.155	6023
380.237	4825
380.318	3533
380.400	3913
380.482	7873
380.564	13085
380.645	11604
380.727	13033
380.809	7955
380.890	5835
380.972	3586
381.053	4980
381.135	5795
381.217	14163
381.298	38196
381.380	20624
381.461	14999
381.543	54388
381.624	70697
381.706	17469
381.787	8778
381.869	10464
381.951	29186
382.032	94768
382.113	69972
382.195	17608
382.276	12242
382.358	22040
382.439	56039
382.521	64190
382.602	92840
382.684	48681
382.765	75097
382.846	97075
382.928	144426
383.009	87421
383.090	55078
383.172	170229
383.253	262106
383.334	101594
383.416	84353
383.497	49716
383.578	24564
383.659	47255
383.741	145529
383.822	337962
383.903	196626
383.984	70890
384.066	104886
384.147	70944
384.228	17989
384.309	13666
384.390	10542
384.471	8496
384.553	8607
384.634	11657
384.715	11371
384.796	7274
384.877	9093
384.958	31709
385.039	42311
385.120	19572
385.201	8650
385.282	8964
385.363	8870
385.444	8378
385.525	14043
385.606	43426
385.687	40697
385.768	12159
385.849	13440
385.930	51804
386.011	88155
386.092	29522
386.173	7178
386.254	5937
386.335	5847
386.416	7199
386.496	23021
386.577	38229
386.658	14384
386.739	8512
386.820	7237
386.901	5803
386.981	5965
387.062	4107
387.143	8956
387.224	33648
387.304	35851
387.385	12100
387.466	6699
387.547	10002
387.627	6692
387.708	14725
387.789	55962
387.869	70562
387.950	20936
388.031	4714
388.111	2539
388.192	9101
388.273	13062
388.353	8710
388.434	5959
388.514	13251
388.595	50216
388.676	72277
388.756	40199
388.837	34824
388.917	23385
388.998	4511
389.078	4892
389.159	4256
389.239	2689
389.320	8087
389.400	5542
389.480	13494
389.561	34960
389.641	20176
389.722	6171
389.802	13538
389.883	16267
389.963	38779
390.043	25904
390.124	8069
390.204	12918
390.284	40091
390.365	26340
390.445	21644
390.525	40810
390.605	40418
390.686	22040
390.766	8632
390.846	4644
390.927	2601
391.007	2536
391.087	4621
391.167	4082
391.247	3203
391.328	5153
391.408	8772
391.488	7603
391.568	2048
391.648	5613
391.728	9902
391.808	7926
391.888	8734
391.969	19029
392.049	34811
392.129	15637
392.209	16280
392.289	39183
392.369	24192
392.449	15062
392.529	11784
392.609	8044
392.689	11967
392.769	35538
392.849	33067
392.929	22197
393.009	49635
393.089	38356
393.169	24604
393.248	66884
393.328	238019
393.408	272681
393.488	79635
393.568	22836
393.648	11807
393.728	8443
393.807	5425
393.887	5331
393.967	6477
394.047	7672
394.127	10739
394.206	14782
394.286	48643
394.366	182856
394.446	208813
394.525	56884
394.605	14899
394.685	11548
394.764	22421
394.844	36929
394.924	29023
395.003	9257
395.083	7279
395.163	5349
395.242	5805
395.322	6561
395.402	3972
395.481	7604
395.561	14941
395.640	42226
395.720	38430
395.799	43649
395.879	37448
395.958	22787
396.038	72877
396.117	234927
396.197	276487
396.276	95571
396.356	30923
396.435	20435
396.515	15779
396.594	15254
396.673	24505
396.753	73494
396.832	226060
396.912	199568
396.991	57844
397.070	15004
397.150	7153
397.229	7089
397.308	9518
397.388	17212
397.467	9960
397.546	4210
397.625	2582
397.705	5509
397.784	7546
397.863	3505
397.942	2132
398.022	2802
398.101	10930
398.180	34894
398.259	21028
398.338	6433
398.417	4402
398.497	2991
398.576	3896
398.655	2243
398.734	3026
398.813	2522
398.892	12413
398.971	37761
399.050	22776
399.129	2623
399.208	2865
399.287	2322
399.366	2374
399.445	1591
399.524	2694
399.603	2177
399.682	5019
399.761	13964
399.840	40069
399.919	34538
399.998	6008
400.077	575
400.156	1576
400.235	4383
400.313	2643
400.392	2683
400.471	19523
400.550	32216
400.629	9472
400.708	3203
400.786	3568
400.865	7804
400.944	10810
401.023	6602
401.102	1851
401.180	1852
401.259	1574
401.338	2693
401.416	4206
401.495	2516
401.574	3240
401.652	1333
401.731	3708
401.810	2104
401.888	2810
401.967	729
402.046	1908
402.124	3147
402.203	3854
402.281	3109
402.360	4209
402.438	11454
402.517	9074
402.596	2632
402.674	2191
402.753	1776
402.831	2403
402.910	3388
402.988	12390
403.066	41406
403.145	27922
403.223	14508
403.302	38255
403.380	29929
403.459	29540
403.537	11584
403.615	4461
403.694	-91
403.772	1778
403.850	745
403.929	1293
404.007	751
404.085	5448
404.164	5404
404.242	2335
404.320	2751
404.398	7273
404.477	16528
404.555	69757
404.633	66687
404.711	11704
404.789	3351
404.868	2738
404.946	1812
405.024	683
405.102	427
405.180	798
405.258	419
405.336	2554
405.415	951
405.493	4730
405.571	4024
405.649	1314
405.727	217
405.805	3137
405.883	2741
405.961	3648
406.039	3321
406.117	1665
406.195	4325
406.273	18510
406.351	62692
406.429	41424
406.507	6230
406.585	2573
406.663	2882
406.740	4094
406.818	3119
406.896	2422
406.974	3062
407.052	6133
407.130	37403
407.208	56427
407.285	12374
407.363	1911
407.441	1349
407.519	2033
407.596	1935
407.674	5997
407.752	12580
407.830	15580
407.907	7289
407.985	2629
408.063	1907
408.141	1435
408.218	3764
408.296	4019
408.373	2538
408.451	3376
408.529	2604
408.606	644
408.684	1274
408.762	1496
408.839	893
408.917	1183
408.994	1119
409.072	1074
409.149	1214
409.227	3631
409.304	3184
409.382	3356
409.459	2289
409.537	5457
409.614	4560
409.692	2929
409.769	1283
409.846	4794
409.924	7135
410.001	4778
410.079	2947
410.156	3428
410.233	1469
410.311	2048
410.388	1332
410.465	2746
410.543	1637
410.620	2829
410.697	2879
410.775	3367
410.852	811
410.929	3446
411.006	4024
411.083	2062
411.161	5204
411.238	7009
411.315	3218
411.392	1914
411.469	3444
411.547	4378
411.624	88
411.701	1505
411.778	2397
411.855	5281
411.932	2511
412.009	1145
412.086	1906
412.163	3061
412.240	1817
412.317	3347
412.394	2161
412.471	1692
412.548	626
412.625	1681
412.702	2147
412.779	4635
412.856	3116
412.933	867
413.010	1230
413.087	4132
413.164	18531
413.241	29594
413.318	6698
413.395	4329
413.471	6303
413.548	3411
413.625	1994
413.702	2020
413.779	1747
413.855	932
413.932	-174
414.009	221
414.086	978
414.162	2009
414.239	2893
414.316	17946
414.393	40651
414.469	16695
414.546	1991
414.623	1560
414.699	2097
414.776	3042
414.853	1914
414.929	2120
415.006	664
415.082	1876
415.159	1013
415.236	2327
415.312	1573
415.389	5319
415.465	5424
415.542	3572
415.618	1730
415.695	5098
415.771	2260
415.848	1721
415.924	2044
416.000	1486
416.077	894
416.153	-110
416.230	-715
416.306	825
416.383	316
416.459	1041
416.535	50
416.612	981
416.688	412
416.764	810
416.841	-469
416.917	1305
416.993	555
417.069	1994
417.146	2849
417.222	6183
417.298	3127
417.374	982
417.451	2426
417.527	2469
417.603	2472
417.679	2940
417.755	2255
417.831	540
417.908	897
417.984	1261
418.060	270
418.136	5424
418.212	6527
418.288	3109
418.364	985
418.440	1320
418.516	3378
418.592	3831
418.668	8359
418.744	13665
418.820	10252
418.896	2646
418.972	-157
419.048	2535
419.124	5781
419.200	4352
419.276	1362
419.352	156
419.428	1392
419.504	1582
419.579	1885
419.655	1474
419.731	2020
419.807	8455
419.883	15318
419.959	10929
420.034	2945
420.110	6361
420.186	25123
420.262	22918
420.337	3927
420.413	3237
420.489	1175
420.565	1731
420.640	678
420.716	2611
420.792	211
420.867	2587
420.943	1099
421.019	4733
421.094	3006
421.170	2022
421.245	451
421.321	2216
421.397	1566
421.472	5016
421.548	6968
421.623	8901
421.699	3608
421.774	3809
421.850	2694
421.925	6769
422.001	4740
422.076	4888
422.152	5325
422.227	9716
422.302	11557
422.378	16232
422.453	28956
422.529	67801
422.604	171966
422.679	263494
422.755	201029
422.830	85387
422.905	32818
422.981	17942
423.056	11430
423.131	8987
423.207	5992
423.282	6945
423.357	10572
423.432	7243
423.508	6925
423.583	15083
423.658	11151
423.733	3760
423.808	2954
423.883	4914
423.959	4865
424.034	3651
424.109	2570
424.184	1696
424.259	312
424.334	1642
424.409	1324
424.484	2245
424.559	1726
424.634	1961
424.709	1877
424.784	3565
424.859	1490
424.934	4773
425.009	18693
425.084	33315
425.159	12596
425.234	2569
425.309	108
425.384	2589
425.459	3497
425.534	2163
425.609	959
425.683	1715
425.758	754
425.833	2079
425.908	2873
425.983	11572
426.058	31836
426.132	14925
426.207	2748
426.282	3801
426.357	2200
426.431	1189
426.506	911
426.581	1020
426.655	1684
426.730	1481
426.805	903
426.879	2026
426.954	1581
427.029	5451
427.103	26266
427.178	62455
427.253	29494
427.327	4522
427.402	2563
427.476	6670
427.551	2892
427.625	1958
427.700	935
427.774	472
427.849	1490
427.923	91
427.998	235
428.072	1783
428.147	4818
428.221	18758
428.296	52773
428.370	32000
428.444	4135
428.519	4876
428.593	7830
428.667	8322
428.742	7378
428.816	10252
428.890	31369
428.965	53436
429.039	17220
429.113	10502
429.188	4098
429.262	2023
429.336	4615
429.410	16494
429.485	10326
429.559	7448
429.633	5227
429.707	2095
429.781	5527
429.855	35837
429.930	60566
430.004	30168
430.078	37519
430.152	38311
430.226	60890
430.300	70051
430.374	11868
430.448	3962
430.522	11311
430.596	35828
430.670	26802
430.744	57765
430.818	91570
430.892	21643
430.966	2753
431.040	3062
431.114	571
431.188	1175
431.262	523
431.336	779
431.410	4381
431.484	12082
431.557	9497
431.631	2215
431.705	806
431.779	9133
431.853	42916
431.927	35320
432.000	3945
432.074	1744
432.148	502
432.222	1942
432.295	1232
432.369	938
432.443	2640
432.516	23067
432.590	57816
432.664	25224
432.737	3228
432.811	408
432.885	769
432.958	1204
433.032	520
433.106	905
433.179	142
433.253	482
433.326	-294
433.400	744
433.473	53
433.547	550
433.620	512
433.694	4564
433.767	3514
433.841	1169
433.914	534
433.988	-92
434.061	572
434.134	1045
434.208	518
434.281	-86
434.355	-467
434.428	926
434.501	-267
434.575	90
434.648	250
434.721	628
434.795	346
434.868	212
434.941	-231
435.014	726
435.088	345
435.161	1506
435.234	3124
435.307	4481
435.381	1826
435.454	1779
435.527	2040
435.600	2636
435.673	1511
435.746	1719
435.819	1158
435.892	1114
435.966	524
436.039	534
436.112	867
436.185	813
436.258	126
436.331	121
436.404	-144
436.477	48
436.550	-439
436.623	1138
436.696	425
436.769	1779
436.842	1066
436.915	1090
436.987	1214
437.060	583
437.133	143
437.206	312
437.279	346
437.352	531
437.425	964
437.498	1663
437.570	5033
437.643	6664
437.716	333
437.789	701
437.861	1908
437.934	9484
438.007	3819
438.080	862
438.152	494
438.225	4696
438.298	28529
438.370	81336
438.443	38276
438.516	8885
438.588	1135
438.661	943
438.734	363
438.806	1408
438.879	1475
438.951	3134
439.024	4788
439.096	2519
439.169	348
439.241	630
439.314	38
439.386	1812
439.459	2030
439.531	4197
439.604	2114
439.676	1118
439.749	-174
439.821	1047
439.893	201
439.966	864
440.038	874
440.110	1930
440.183	1253
440.255	1319
440.327	2286
440.400	12483
440.472	54190
440.544	39857
440.617	4784
440.689	4498
440.761	4254
440.833	8048
440.905	5691
440.978	844
441.050	-56
441.122	1433
441.194	386
441.266	654
441.338	-457
441.411	4139
441.483	19747
441.555	32098
441.627	6485
441.699	2617
441.771	2169
441.843	791
441.915	344
441.987	432
442.059	-19
442.131	1057
442.203	2555
442.275	3382
442.347	2839
442.419	4352
442.491	19901
442.563	56716
442.635	27422
442.706	14638
442.778	13640
442.850	2884
442.922	992
442.994	1849
443.066	2987
443.137	2875
443.209	1520
443.281	3194
443.353	6537
443.425	27060
443.496	99769
443.568	104623
443.640	37966
443.711	7849
443.783	2075
443.855	1889
443.926	862
443.998	711
444.070	1943
444.141	2175
444.213	3576
444.285	4761
444.356	2800
444.428	1880
444.499	838
444.571	843
444.642	495
444.714	1875
444.785	3091
444.857	3763
444.928	6530
445.000	4500
445.071	4399
445.143	6420
445.214	4180
445.285	6294
445.357	18752
445.428	62487
445.500	152491
445.571	101470
445.642	53238
445.714	19239
445.785	14761
445.856	4842
445.928	5381
445.999	4754
446.070	3261
446.141	4311
446.213	6009
446.284	2933
446.355	1524
446.426	2246
446.497	373
446.569	2215
446.640	3760
446.711	5180
446.782	834
446.853	669
446.924	1602
446.995	1475
447.066	1457
447.138	2250
447.209	1467
447.280	630
447.351	-11
447.422	506
447.493	402
447.564	2107
447.635	2707
447.706	1830
447.777	-21
447.847	-112
447.918	-283
447.989	1587
448.060	2148
448.131	4771
448.202	6198
448.273	5935
448.344	1655
448.414	1543
448.485	30
448.556	1725
448.627	202
448.698	1444
448.768	242
448.839	935
448.910	2171
448.981	3821
449.051	1232
449.122	1610
449.193	79
449.263	448
449.334	188
449.405	2259
449.475	5149
449.546	4524
449.616	3068
449.687	3790
449.758	1607
449.828	1039
449.899	652
449.969	765
450.040	519
450.110	1120
450.181	1087
450.251	988
450.322	1461
450.392	1077
450.463	1135
450.533	65
450.604	-151
450.674	535
450.744	500
450.815	676
450.885	1420
450.955	678
451.026	309
451.096	-8
451.166	1227
451.237	3621
451.307	9019
451.377	4265
451.447	-226
451.518	-128
451.588	368
451.658	1158
451.728	1710
451.799	9021
451.869	11205
451.939	2418
452.009	205
452.079	954
452.149	352
452.219	2950
452.289	9611
452.360	8843
452.430	1677
452.500	1580
452.570	2233
452.640	3656
452.710	8071
452.780	14206
452.850	11199
452.920	12236
452.990	4173
453.060	2023
453.129	2791
453.199	3296
453.269	10056
453.339	25455
453.409	40901
453.479	37280
453.549	56802
453.619	62383
453.688	25974
453.758	4585
453.828	1183
453.898	531
453.968	1249
454.037	1399
454.087	573
454.107	222
454.168	1028
454.177	1135
454.247	1067
454.249	1083
454.316	1080
454.330	1015
454.386	631
454.411	2333
454.456	5004
454.492	6612
454.525	8084
454.574	4833
454.595	3418
454.655	1016
454.665	630
454.734	1866
454.736	1935
454.804	2742
454.817	4125
454.873	9433
454.898	10299
454.943	11797
454.979	7687
455.013	4051
455.060	2383
455.082	1718
455.141	2328
455.152	2373
455.221	6588
455.222	6728
455.291	12954
455.303	11781
455.360	6895
455.384	7218
455.430	7481
455.465	6818
455.499	6075
455.546	8860
455.569	9931
455.627	6579
455.638	6041
455.707	1735
455.708	1743
455.777	535
455.789	810
455.846	2045
455.869	1685
455.916	1044
455.950	1408
455.985	1618
456.031	1035
456.054	784
456.112	1644
456.124	1798
456.193	772
456.193	756
456.262	2418
456.274	2395
456.332	2002
456.355	1965
456.401	1782
456.436	1677
456.470	1577
456.516	1508
456.540	1437
456.597	985
456.609	912
456.678	1275
456.678	1264
456.747	492
456.759	548
456.817	1062
456.840	1006
456.886	652
456.920	1069
456.955	1624
457.001	1553
457.024	1484
457.082	2151
457.093	2235
457.162	2233
457.163	2249
457.232	2363
457.243	2139
457.301	1209
457.324	1279
457.370	1359
457.405	1348
457.439	1498
457.485	2026
457.508	2198
457.566	2132
457.577	2186
457.646	2930
457.647	2954
457.715	5070
457.727	5461
457.784	7277
457.808	8519
457.853	9760
457.889	11936
457.922	13003
457.969	9045
457.991	8560
458.050	10530
458.060	10847
458.129	16762
458.130	16966
458.198	16573
458.211	14667
458.267	8749
458.292	6542
458.336	4748
458.372	4585
458.405	5813
458.453	8859
458.474	10599
458.533	16927
458.543	17301
458.611	27382
458.614	27482
458.680	17825
458.694	14226
458.749	7363
458.775	5999
458.818	3942
458.855	3088
458.887	2654
458.936	1827
458.955	1544
459.016	2756
459.024	2908
459.093	2477
459.097	2499
459.162	3065
459.177	3087
459.230	3409
459.257	4247
459.299	4772
459.338	4029
459.368	3677
459.418	4533
459.437	4634
459.499	3347
459.505	3279
459.574	3181
459.579	3173
459.643	2438
459.659	2409
459.711	2904
459.740	2995
459.780	2915
459.820	3218
459.849	3505
459.900	3018
459.917	2850
459.981	3271
459.986	3293
460.054	3628
460.061	3664
460.123	4352
460.141	4421
460.191	5531
460.222	6773
460.260	7301
460.302	8152
460.328	7894
460.382	5958
460.397	5762
460.462	4299
460.465	4364
460.534	7337
460.543	7658
460.602	15686
460.623	19014
460.671	27487
460.703	35968
460.739	31738
460.783	23436
460.808	20942
460.864	6526
460.876	4925
460.944	3238
460.945	3229
461.013	4014
461.024	4122
461.081	4204
461.104	4395
461.150	3910
461.184	3318
461.218	3310
461.264	3300
461.286	3276
461.345	3481
461.355	3467
461.423	3195
461.425	3185
461.491	3501
461.505	3719
461.559	6739
461.585	7918
461.628	10896
461.665	13924
461.696	13937
461.745	15940
461.764	14758
461.825	6436
461.832	6251
461.901	3967
461.905	3953
461.969	3260
461.985	3230
462.037	4126
462.065	4083
462.105	3680
462.145	4134
462.173	5485
462.225	7404
462.241	8040
462.305	11852
462.310	11567
462.378	6835
462.385	6061
462.446	4799
462.465	4600
462.514	4169
462.545	4263
462.582	4165
462.625	3740
462.650	3602
462.705	3676
462.718	3809
462.785	3706
462.786	3713
462.854	5030
462.865	5197
462.922	6233
462.945	6830
462.990	5895
463.025	4451
463.058	4071
463.104	4007
463.126	3830
463.184	3053
463.194	3169
463.262	4251
463.264	4302
463.330	4383
463.344	4301
463.398	4944
463.424	5059
463.466	4176
463.504	3940
463.533	4527
463.583	4894
463.601	4884
463.663	5153
463.669	5368
463.737	7875
463.743	8113
463.805	10367
463.823	10927
463.873	14896
463.903	17584
463.940	17283
463.982	17181
464.008	14314
464.062	6984
464.076	6721
464.142	4660
464.144	4615
464.211	3961
464.221	3879
464.279	4641
464.301	4958
464.347	5585
464.381	5978
464.414	6190
464.461	6565
464.482	6733
464.540	7220
464.550	7043
464.617	5545
464.620	5481
464.685	7832
464.699	8446
464.753	9735
464.779	10271
464.820	11353
464.859	12442
464.888	11835
464.938	10451
464.956	10365
465.018	10081
465.023	9975
465.091	8296
465.098	8129
465.158	8318
465.177	8363
465.226	8689
465.257	8928
465.293	9442
465.336	9934
465.361	10683
465.416	12367
465.428	12960
465.495	16181
465.496	16232
465.563	20133
465.575	20839
465.631	23011
465.654	24186
465.698	16455
465.734	9162
465.765	8835
465.813	8471
465.833	8299
465.893	8026
465.900	8004
465.968	7894
465.972	7865
466.035	8400
466.052	8563
466.102	8650
466.131	8621
466.170	8637
466.210	8752
466.237	9069
466.290	9493
466.304	9496
466.369	9547
466.372	9597
466.439	10548
466.449	10676
466.506	11807
466.528	12203
466.573	16312
466.607	19381
466.641	24734
466.687	32101
466.708	33886
466.766	38898
466.775	36379
466.842	16804
466.845	15847
466.909	14112
466.925	13724
466.977	12650
467.004	12123
467.044	13190
467.083	14205
467.111	15391
467.163	17580
467.178	18046
467.242	19814
467.245	19687
467.312	16367
467.321	15898
467.379	15539
467.400	15371
467.446	15926
467.480	16277
467.559	14419
467.638	12890
467.717	13781
467.796	15636
467.875	17543
467.955	15047
468.034	21548
468.113	36018
468.192	45764
468.271	14832
468.350	13386
468.429	14698
468.508	15853
468.588	12765
468.667	12579
468.746	12559
468.825	12236
468.904	10760
468.983	13048
469.062	17348
469.141	18236
469.220	10607
469.299	11876
469.378	12731
469.456	17292
469.535	15451
469.614	13797
469.693	14242
469.772	16960
469.851	19249
469.930	14293
470.009	13624
470.088	15464
470.166	18388
470.245	27255
470.324	27555
470.403	19245
470.482	14880
470.560	13173
470.639	12563
470.718	16787
470.797	11684
470.875	14922
470.954	17427
471.033	17256
471.111	10385
471.190	10109
471.269	9613
471.347	9942
471.426	10948
471.505	13003
471.583	13932
471.662	13587
471.740	11634
471.819	11881
471.898	11079
471.976	11771
472.055	11705
472.133	12149
472.212	15233
472.290	13980
472.369	10010
472.447	10899
472.526	9977
472.604	11777
472.683	12004
472.761	12820
472.839	11671
472.918	11458
472.996	10737
473.075	11749
473.153	11071
473.231	10926
473.310	11466
473.388	12267
473.466	12395
473.545	15577
473.623	18576
473.701	16003
473.780	10378
473.858	11282
473.936	12290
474.014	11101
474.093	13259
474.171	15682
474.249	18139
474.327	12771
474.405	9223
474.484	11101
474.562	10450
474.640	10954
474.718	10647
474.796	11430
474.874	10377
474.952	9865
475.030	9563
475.108	11900
475.187	11675
475.265	12169
475.343	16733
475.421	17628
475.499	10055
475.577	10094
475.655	13375
475.733	21687
475.811	30539
475.889	27450
475.966	17256
476.044	10810
476.122	12799
476.200	16818
476.278	11751
476.356	8993
476.434	9572
476.512	12894
476.590	14411
476.667	13166
476.745	8751
476.823	10945
476.901	8558
476.979	9636
477.056	9991
477.134	10173
477.212	10492
477.290	10527
477.367	8039
477.445	9040
477.523	8533
477.601	8745
477.678	8417
477.756	9747
477.834	10441
477.911	8208
477.989	8697
478.066	9146
478.144	10938
478.222	12583
478.299	17664
478.377	15570
478.454	9047
478.532	8052
478.609	8578
478.687	10369
478.764	7934
478.842	9125
478.919	8970
478.997	9440
479.074	7790
479.152	9700
479.229	10232
479.307	7708
479.384	6945
479.461	6440
479.539	7078
479.616	9207
479.694	7590
479.771	8819
479.848	8302
479.926	10872
480.003	10264
480.080	8092
480.157	7604
480.235	7252
480.312	7064
480.389	9248
480.467	11692
480.544	12961
480.621	8243
480.698	8520
480.775	9601
480.853	9762
480.930	8262
481.007	8818
481.084	8875
481.161	10764
481.238	8734
481.315	7710
481.392	7690
481.470	8137
481.547	7619
481.624	8352
481.701	6591
481.778	8594
481.855	8980
481.932	12558
482.009	17586
482.086	11596
482.163	8716
482.240	13601
482.317	21989
482.393	15374
482.470	8156
482.547	7727
482.624	7564
482.701	7953
482.778	7225
482.855	6880
482.932	6742
483.009	7317
483.085	8452
483.162	9729
483.239	9529
483.316	7624
483.393	8154
483.469	8321
483.546	8230
483.623	8189
483.699	6350
483.776	7788
483.853	9116
483.930	14659
484.006	28609
484.083	46034
484.160	36751
484.236	60200
484.313	44640
484.389	33027
484.466	29096
484.543	27538
484.619	28093
484.696	28578
484.772	28228
484.849	29193
484.925	25990
485.002	26660
485.078	26999
485.155	26652
485.231	24944
485.308	24511
485.384	24631
485.461	29324
485.537	36311
485.614	38307
485.690	24095
485.766	24044
485.843	26166
485.919	36385
485.995	35646
486.072	21338
486.148	20942
486.224	22268
486.301	22664
486.377	25048
486.453	24700
486.530	26058
486.606	34996
486.682	38552
486.758	37760
486.835	38490
486.911	34540
486.987	49962
487.063	63541
487.139	82650
487.215	55780
487.292	28130
487.368	25565
487.444	27349
487.520	30837
487.596	30756
487.672	45376
487.748	90318
487.824	110149
487.900	41340
487.976	25346
488.052	25088
488.128	29882
488.204	24342
488.280	21314
488.356	27078
488.432	40782
488.508	52390
488.584	25150
488.660	21158
488.736	22031
488.812	24470
488.888	31254
488.964	45345
489.039	86949
489.115	118341
489.191	60613
489.267	22363
489.343	19751
489.418	19869
489.494	18339
489.570	17460
489.646	19756
489.722	18997
489.797	19212
489.873	25974
489.949	40752
490.024	31982
490.100	17532
490.176	18672
490.251	22374
490.327	29384
490.403	17017
490.478	17028
490.554	15224
490.629	16252
490.705	15509
490.781	17327
490.856	17194
490.932	19270
491.007	18226
491.083	18608
491.158	17158
491.234	20281
491.309	32795
491.385	28718
491.460	15648
491.536	17276
491.611	16259
491.686	18712
491.762	27334
491.837	56328
491.913	86150
491.988	114852
492.063	132237
492.139	28894
492.214	18942
492.289	14981
492.365	13495
492.440	16923
492.515	14948
492.590	15187
492.666	11861
492.741	17950
492.816	19410
492.891	14055
492.967	13767
493.042	12132
493.117	12399
493.192	13857
493.267	17311
493.342	26838
493.418	25508
493.493	14381
493.568	11316
493.643	13688
493.718	15703
493.793	21078
493.868	25322
493.943	18572
494.018	13893
494.093	11839
494.168	11745
494.243	11652
494.318	11148
494.393	12012
494.468	10951
494.543	12308
494.618	13637
494.693	12250
494.768	11512
494.842	12376
494.917	10927
494.992	12949
495.067	10517
495.142	11544
495.217	12016
495.292	11984
495.366	12936
495.441	16530
495.516	22342
495.591	39517
495.665	122575
495.740	243639
495.815	75795
495.890	15895
495.964	12933
496.039	16045
496.114	14179
496.188	15674
496.263	14761
496.338	13405
496.412	14428
496.487	17375
496.561	18615
496.636	19443
496.710	14387
496.785	16845
496.860	16497
496.934	14753
497.009	15330
497.083	15636
497.158	15844
497.232	18945
497.307	20779
497.381	19487
497.455	20632
497.530	23034
497.604	18960
497.679	19272
497.753	28126
497.827	35539
497.902	33470
497.976	42536
498.050	91464
498.125	248470
498.199	207842
498.273	54637
498.348	46430
498.422	36698
498.496	34470
498.570	30544
498.645	21415
498.719	19075
498.793	21559
498.867	30249
498.941	43421
499.016	115831
499.090	240811
499.164	65815
499.238	14931
499.312	17256
499.386	22202
499.460	18929
499.534	16038
499.609	20492
499.683	24185
499.757	22986
499.831	57566
499.905	172069
499.979	125480
500.053	25386
500.127	28201
500.201	24946
500.275	15173
500.349	16341
500.422	19119
500.496	31668
500.570	66714
500.644	118568
500.718	160254
500.792	31186
500.866	13780
500.940	16905
501.013	14619
501.087	16812
501.161	33424
501.235	38988
501.309	65058
501.382	153056
501.456	110526
501.530	33132
501.603	46320
501.677	18456
501.751	9978
501.825	15618
501.898	26757
501.972	58864
502.046	30453
502.119	15485
502.193	33973
502.266	64889
502.340	28234
502.413	33232
502.487	50986
502.561	28291
502.634	12519
502.708	12824
502.781	11189
502.855	10939
502.928	8212
503.002	8492
503.075	7858
503.149	8658
503.222	8378
503.295	9716
503.369	12134
503.442	18000
503.516	50891
503.589	103218
503.662	56979
503.736	25128
503.809	51263
503.882	42596
503.956	65239
504.029	57363
504.102	55865
504.175	62667
504.249	19253
504.322	14596
504.395	12188
504.468	9044
504.542	9132
504.615	7999
504.688	8311
504.761	7896
504.834	12354
504.907	16148
504.980	25798
505.053	13700
505.127	17517
505.200	18014
505.273	11827
505.346	8583
505.419	6567
505.492	8363
505.565	6361
505.638	7118
505.711	6205
505.784	6778
505.857	6460
505.930	8765
506.003	5535
506.076	9119
506.149	9478
506.221	10025
506.294	13041
506.367	31220
506.440	80937
506.513	37413
506.586	11922
506.659	8504
506.731	8735
506.804	11538
506.877	15053
506.950	9818
507.022	7975
507.095	9700
507.168	10688
507.241	9365
507.313	7500
507.386	8723
507.459	12858
507.531	8232
507.604	6197
507.677	8395
507.749	6337
507.822	13896
507.894	25518
507.967	30056
508.040	15942
508.112	14846
508.185	12346
508.257	14039
508.330	20636
508.402	12440
508.475	10879
508.547	11837
508.620	12227
508.692	15725
508.765	12146
508.837	10610
508.909	10294
508.982	11027
509.054	12691
509.127	10346
509.199	9136
509.271	9593
509.344	8825
509.416	10003
509.488	9501
509.560	10899
509.633	10724
509.705	12424
509.777	11934
509.849	17715
509.922	10550
509.994	9446
510.066	10534
510.138	12629
510.210	26095
510.283	22552
510.355	17043
510.427	16429
510.499	15851
510.571	15327
510.643	15447
510.715	26218
510.787	20773
510.859	15466
510.931	17789
511.003	26011
511.076	22142
511.148	12344
511.219	11815
511.291	17491
511.363	16653
511.435	11835
511.507	9798
511.579	11750
511.651	12387
511.723	12063
511.795	10461
511.867	11092
511.939	13808
512.010	19348
512.082	15575
512.154	11224
512.226	13536
512.298	22937
512.369	31132
512.441	22627
512.513	21889
512.585	16472
512.656	17344
512.728	18551
512.800	14418
512.871	14839
512.943	14063
513.015	12562
513.086	14793
513.158	16295
513.230	15638
513.301	22821
513.373	23671
513.444	14343
513.516	12703
513.588	14543
513.659	15263
513.731	19002
513.802	17766
513.874	37292
513.945	53020
514.016	18167
514.088	12630
514.159	16088
514.231	22341
514.302	27646
514.374	20294
514.445	18423
514.516	26420
514.588	19230
514.659	17166
514.730	23234
514.802	21072
514.873	18090
514.944	19130
515.016	17489
515.087	20392
515.158	23416
515.229	24180
515.301	19937
515.372	22977
515.443	16085
515.514	14456
515.585	12293
515.656	14088
515.728	13204
515.799	12736
515.870	15144
515.941	15296
516.012	15148
516.083	20332
516.154	23710
516.225	27277
516.296	24226
516.367	20966
516.438	26112
516.509	34206
516.580	62857
516.651	194476
516.722	511834
516.793	179109
516.864	39547
516.935	35893
517.006	43991
517.077	73085
517.148	190420
517.219	576721
517.289	657776
517.360	142067
517.431	42094
517.502	21660
517.573	21050
517.643	19942
517.714	22504
517.785	23817
517.856	23150
517.926	26824
517.997	30941
518.068	37734
518.138	59129
518.209	115776
518.280	410652
518.350	1025256
518.421	321561
518.492	45143
518.562	28296
518.633	25044
518.703	24451
518.774	39468
518.845	75969
518.915	62139
518.986	27809
519.056	28770
519.127	50451
519.197	69266
519.268	109130
519.338	52343
519.408	23696
519.479	34634
519.549	23386
519.620	15320
519.690	13405
519.760	14111
519.831	14780
519.901	14607
519.971	13043
520.042	12919
520.112	14148
520.182	18415
520.253	19438
520.323	13062
520.393	14733
520.463	19442
520.534	13143
520.604	20413
520.674	14134
520.744	14021
520.814	25234
520.885	26280
520.955	41510
521.025	103744
521.095	34903
521.165	12888
521.235	12025
521.305	11299
521.375	11998
521.445	14278
521.515	18260
521.585	23377
521.655	19301
521.725	16762
521.795	15421
521.865	9888
521.935	16828
522.005	12598
522.075	10661
522.145	12814
522.215	12802
522.285	15820
522.355	20027
522.424	31128
522.494	25511
522.564	23282
522.634	56069
522.704	133594
522.774	42459
522.843	12726
522.913	13904
522.983	16399
523.053	12795
523.122	14751
523.192	24949
523.262	74928
523.331	55148
523.401	12543
523.471	10330
523.540	11127
523.610	8439
523.680	9810
523.749	10306
523.819	11447
523.888	10281
523.958	9444
524.027	10313
524.097	9985
524.166	10995
524.236	10759
524.305	13121
524.375	9999
524.444	8032
524.514	10342
524.583	10215
524.653	10947
524.722	13698
524.791	8271
524.861	11205
524.930	8994
524.999	12040
525.069	14531
525.138	11702
525.207	11406
525.277	11291
525.346	9964
525.415	10015
525.484	10776
525.554	11478
525.623	11546
525.692	10879
525.761	9814
525.830	11812
525.900	12240
525.969	19429
526.038	29575
526.107	58260
526.176	136113
526.245	95812
526.314	43210
526.383	82054
526.452	97278
526.522	173757
526.591	144198
526.660	62056
526.729	30752
526.797	41178
526.867	109190
526.935	369907
527.004	442213
527.073	176586
527.142	18885
527.211	11981
527.280	15668
527.349	14978
527.418	8489
527.487	9633
527.555	7997
527.624	8032
527.693	6246
527.762	9405
527.831	7568
527.899	8735
527.968	8466
528.037	8883
528.106	12140
528.174	20710
528.243	14313
528.312	22920
528.380	26284
528.449	9413
528.518	8925
528.586	7308
528.655	7278
528.723	7284
528.792	7068
528.861	7839
528.929	6022
528.998	7993
529.066	6973
529.135	7889
529.203	5723
529.272	6906
529.340	7462
529.409	8587
529.477	6583
529.545	8831
529.614	10087
529.682	9320
529.751	10312
529.819	12502
529.887	8308
529.956	7806
530.024	8313
530.092	7682
530.161	10597
530.229	16223
530.297	8524
530.365	8955
530.434	7800
530.502	6889
530.570	8000
530.638	6643
530.707	9204
530.775	10365
530.843	7983
530.911	7862
530.979	7567
531.047	7257
531.115	8102
531.183	8723
531.252	8065
531.320	8161
531.388	7668
531.456	8562
531.524	7393
531.592	9236
531.660	10463
531.728	8088
531.796	7346
531.864	7656
531.932	8339
532.000	7905
532.067	8923
532.135	9681
532.203	12075
532.271	13471
532.339	23444
532.407	54270
532.475	27176
532.542	14780
532.610	19016
532.678	32540
532.746	124420
532.814	241173
532.881	51799
532.949	11229
533.017	9622
533.084	9136
533.152	8777
533.220	9729
533.287	10472
533.355	9651
533.423	8397
533.490	9629
533.558	8941
533.625	9886
533.693	9748
533.761	10294
533.828	10279
533.896	10205
533.963	21087
534.031	25312
534.098	36026
534.166	15160
534.233	8198
534.300	10663
534.368	10207
534.435	8841
534.503	9207
534.570	9537
534.637	9042
534.705	11991
534.772	13454
534.840	21566
534.907	72894
534.974	69187
535.041	12636
535.109	10319
535.176	8007
535.243	8731
535.310	10065
535.378	9413
535.445	8285
535.512	9443
535.579	9013
535.646	8597
535.714	10232
535.781	13033
535.848	11253
535.915	12435
535.982	9758
536.049	10910
536.116	11799
536.183	10890
536.250	10591
536.317	10590
536.384	13795
536.451	19135
536.518	17422
536.585	13479
536.652	17216
536.719	23643
536.786	16890
536.853	14922
536.920	23260
536.987	35328
537.053	42818
537.120	149146
537.187	101065
537.254	12674
537.321	10202
537.388	12281
537.454	9437
537.521	9749
537.588	9392
537.654	12570
537.721	13843
537.788	13763
537.855	10559
537.921	12004
537.988	11270
538.055	12552
538.121	10711
538.188	13441
538.254	19953
538.321	34912
538.388	18953
538.454	12864
538.521	11742
538.587	10988
538.654	11381
538.720	10770
538.787	11262
538.853	11766
538.920	12989
538.986	13745
539.053	11983
539.119	13177
539.185	12070
539.252	17121
539.318	21789
539.385	19157
539.451	16331
539.517	18389
539.583	22373
539.650	52273
539.716	107681
539.782	28305
539.849	13012
539.915	14101
539.981	12606
540.047	16055
540.114	13941
540.180	16238
540.246	15102
540.312	20785
540.378	36159
540.444	37223
540.510	52121
540.576	121148
540.643	32983
540.709	11568
540.775	12102
540.841	12337
540.907	16898
540.973	21726
541.039	21828
541.105	22338
541.171	14502
541.237	13472
541.303	13787
541.369	17060
541.435	21021
541.500	30865
541.566	17528
541.632	11438
541.698	11837
541.764	12120
541.830	11901
541.896	11119
541.961	13344
542.027	12799
542.093	12628
542.159	14483
542.224	14292
542.290	22064
542.356	32306
542.421	32184
542.487	15551
542.553	14818
542.618	14874
542.684	14064
542.750	14643
542.815	19612
542.881	35901
542.947	114162
543.012	69076
543.078	13557
543.143	12986
543.209	15708
543.274	15477
543.340	21602
543.405	48770
543.471	64820
543.536	16991
543.602	13857
543.667	11341
543.732	12214
543.798	12041
543.863	13508
543.928	12129
543.994	11984
544.059	12664
544.124	12709
544.190	13055
544.255	13514
544.320	14527
544.386	15155
544.451	19684
544.516	23508
544.581	27426
544.646	77942
544.712	99480
544.777	21444
544.842	14838
544.907	16565
544.972	14567
545.037	15365
545.102	15747
545.168	16411
545.233	16566
545.298	18955
545.363	20941
545.428	24935
545.493	45420
545.558	89144
545.623	32503
545.688	16114
545.753	16038
545.818	16206
545.883	17896
545.947	16489
546.012	17433
546.077	17266
546.142	17864
546.207	18366
546.272	21260
546.337	22889
546.401	18619
546.466	19145
546.531	16984
546.596	18518
546.661	19703
546.725	20038
546.790	17822
546.855	19643
546.919	18811
546.984	20069
547.049	21256
547.113	23892
547.178	22948
547.243	28005
547.307	29720
547.372	33017
547.436	32677
547.501	31804
547.565	33941
547.630	35727
547.695	32820
547.759	33317
547.823	31089
547.888	31315
547.952	31557
548.017	33835
548.081	35750
548.146	37602
548.210	35240
548.274	34934
548.339	33855
548.403	32191
548.468	29343
548.532	30045
548.596	31393
548.660	31481
548.725	35002
548.789	38345
548.853	36196
548.917	34222
548.982	36154
549.046	34304
549.110	27546
549.174	30566
549.238	31986
549.303	33667
549.367	36768
549.431	33634
549.495	32125
549.559	33421
549.623	37349
549.687	44080
549.751	51873
549.815	47255
549.879	45097
549.943	42752
550.007	44436
550.071	46470
550.135	49633
550.199	41456
550.263	39105
550.327	39684
550.391	41033
550.455	40818
550.519	42776
550.582	48618
550.646	60128
550.710	60047
550.774	47800
550.838	49832
550.901	49366
550.965	53111
551.029	53727
551.093	58973
551.156	65370
551.220	82344
551.284	84513
551.347	62315
551.411	73197
551.475	69213
551.538	52883
551.602	50240
551.666	46513
551.729	44077
551.793	42743
551.856	42927
551.920	41618
551.983	42947
552.047	42170
552.110	42393
552.174	42404
552.237	43538
552.301	41097
552.364	40149
552.428	38907
552.491	41395
552.554	43115
552.618	41889
552.681	43982
552.745	46607
552.808	63507
552.871	73984
552.934	50234
552.998	42615
553.061	40912
553.124	39656
553.187	40293
553.251	40252
553.314	40983
553.377	40032
553.440	44795
553.503	55039
553.567	57115
553.630	43202
553.693	41744
553.756	42485
553.819	40139
553.882	39562
553.945	38992
554.008	39650
554.071	40247
554.134	40800
554.197	38750
554.260	38072
554.323	40119
554.386	40062
554.449	40856
554.512	41250
554.575	38612
554.638	39738
554.701	38587
554.764	38055
554.827	37535
554.889	34294
554.952	33599
555.015	33461
555.078	33513
555.141	35586
555.203	32977
555.266	34084
555.329	34629
555.391	32681
555.454	32417
555.517	32876
555.580	30780
555.642	28657
555.705	28839
555.768	31060
555.830	28862
555.893	27629
555.955	27938
556.018	27816
556.080	27373
556.143	27615
556.206	28463
556.268	28719
556.330	28674
556.393	28158
556.455	27047
556.518	30825
556.580	28718
556.643	25045
556.705	25031
556.767	24814
556.830	25073
556.892	27513
556.955	34941
557.017	27646
557.079	24003
557.142	24752
557.204	27775
557.266	44022
557.328	32312
557.391	22054
557.453	19494
557.515	21549
557.577	24741
557.639	24412
557.701	20141
557.764	19889
557.826	20348
557.888	21909
557.950	22662
558.012	25234
558.074	30350
558.136	56852
558.198	102092
558.260	38418
558.322	22169
558.384	25077
558.446	25268
558.508	29817
558.570	36735
558.632	60863
558.694	82102
558.756	91081
558.818	238682
558.880	446763
558.942	123821
559.003	108510
559.065	48634
559.127	27638
559.189	30318
559.251	36764
559.312	53347
559.374	117296
559.436	305459
559.498	118692
559.559	28740
559.621	29874
559.683	38053
559.744	62031
559.806	164908
559.868	190330
559.929	40044
559.991	32775
560.052	48013
560.114	107134
560.176	64391
560.237	69727
560.299	92302
560.360	26042
560.422	17843
560.483	17411
560.545	17530
560.606	16852
560.667	17581
560.729	16274
560.790	15381
560.852	17589
560.913	16120
560.974	16385
561.036	15767
561.097	16393
561.158	16868
561.220	18277
561.281	17359
561.342	19403
561.403	22441
561.465	27910
561.526	52848
561.587	57878
561.648	20054
561.709	17821
561.771	17244
561.832	17083
561.893	17352
561.954	17431
562.015	16614
562.076	17472
562.137	17347
562.198	17808
562.259	17888
562.320	18928
562.381	19834
562.442	24481
562.503	19845
562.564	17266
562.625	16550
562.686	17795
562.747	19184
562.808	18325
562.869	18369
562.930	20055
562.991	18784
563.051	17917
563.112	17862
563.173	17339
563.234	16317
563.294	17575
563.355	15965
563.416	18394
563.477	16988
563.537	17380
563.598	18386
563.659	18073
563.720	16908
563.780	17761
563.841	18731
563.901	17910
563.962	17183
564.023	16886
564.083	17768
564.144	17661
564.204	17564
564.265	18585
564.325	19427
564.386	25656
564.446	21891
564.507	17475
564.567	16888
564.628	17669
564.688	17154
564.749	17435
564.809	19235
564.869	20069
564.930	17918
564.990	18893
565.050	17742
565.111	18357
565.171	17602
565.231	17034
565.292	18812
565.352	19047
565.412	17728
565.472	19268
565.532	18790
565.593	18205
565.653	16872
565.713	18520
565.773	19720
565.833	22244
565.893	24070
565.953	19364
566.013	17667
566.074	19429
566.134	22174
566.194	26245
566.254	25893
566.314	22182
566.374	18605
566.434	19965
566.494	19737
566.554	19872
566.614	20601
566.673	19965
566.733	20288
566.793	21118
566.853	21291
566.913	21553
566.973	22646
567.033	22258
567.092	22051
567.152	21074
567.212	22128
567.272	22232
567.331	22635
567.391	22959
567.451	24006
567.511	26376
567.570	25548
567.630	22158
567.690	21778
567.749	22382
567.809	22645
567.868	26271
567.928	26446
567.988	29590
568.047	33430
568.107	41449
568.166	56318
568.226	87395
568.285	112424
568.345	82867
568.404	62276
568.464	53472
568.523	50354
568.582	53731
568.642	61923
568.701	81759
568.761	123728
568.820	193067
568.879	166429
568.939	108612
568.998	75544
569.057	57332
569.116	45713
569.176	38029
569.235	32562
569.294	29339
569.353	26099
569.413	25485
569.472	23088
569.531	22393
569.590	20889
569.649	21623
569.708	19199
569.767	20686
569.827	21319
569.886	19603
569.945	18083
570.004	19415
570.063	18631
570.122	20216
570.181	20230
570.240	19536
570.299	20009
570.358	20029
570.417	16867
570.475	16839
570.534	18274
570.593	18798
570.652	18078
570.711	18747
570.770	16179
570.829	19258
570.887	17960
570.946	20393
571.005	16662
571.064	17187
571.122	17648
571.181	17870
571.240	17023
571.299	15552
571.357	16374
571.416	16577
571.475	16991
571.533	18165
571.592	16643
571.650	15443
571.709	14615
571.768	15910
571.826	15357
571.885	15641
571.943	14889
572.002	14905
572.060	15393
572.119	15072
572.177	14875
572.236	14428
572.294	14176
572.352	15833
572.411	14575
572.469	14960
572.528	15056
572.586	14634
572.644	14994
572.703	18414
572.761	16301
572.819	14895
572.877	14328
572.936	14026
572.994	13484
573.052	13795
573.110	14606
573.169	14678
573.227	13975
573.285	14996
573.343	13942
573.401	13205
573.459	12962
573.517	13777
573.576	12870
573.634	14302
573.692	14111
573.750	14742
573.808	12647
573.866	14235
573.924	15244
573.982	15622
574.040	13141
574.098	13535
574.155	12168
574.213	13631
574.271	13433
574.329	14179
574.387	12540
574.445	13100
574.503	12348
574.560	12694
574.618	12710
574.676	11570
574.734	12974
574.792	13469
574.849	12275
574.907	11744
574.965	12192
575.022	12822
575.080	12431
575.138	13214
575.195	12552
575.253	14049
575.311	13180
575.368	12487
575.426	12148
575.483	12262
575.541	13254
575.598	11513
575.656	12623
575.713	12327
575.771	13195
575.828	12150
575.886	13398
575.943	12730
576.001	13214
576.058	13025
576.115	13341
576.173	14898
576.230	16167
576.287	16457
576.345	14371
576.402	13154
576.459	13392
576.517	13322
576.574	13784
576.631	13593
576.688	13023
576.746	13792
576.803	13231
576.860	12303
576.917	12847
576.974	13875
577.031	13862
577.089	13907
577.146	12895
577.203	14071
577.260	14332
577.317	12467
577.374	13681
577.431	14072
577.488	13260
577.545	12828
577.602	12847
577.659	14045
577.716	12995
577.773	13159
577.830	11828
577.886	13407
577.943	11973
578.000	12792
578.057	12616
578.114	13868
578.171	13385
578.227	12494
578.284	12125
578.341	13974
578.398	13388
578.454	13497
578.511	13313
578.568	14458
578.625	13020
578.681	12998
578.738	12195
578.794	13309
578.851	14235
578.908	14533
578.964	16365
579.021	15702
579.077	14345
579.134	14928
579.190	13450
579.247	13888
579.303	14009
579.360	13745
579.416	13129
579.473	13516
579.529	12741
579.586	13307
579.642	13190
579.698	13756
579.755	13381
579.811	13918
579.867	13597
579.924	13053
579.980	13185
580.036	14351
580.093	13431
580.149	13350
580.205	13598
580.261	13183
580.317	14022
580.374	14913
580.430	15274
580.486	15055
580.542	13937
580.598	13565
580.619	13979
580.654	14709
580.692	15167
580.710	15414
580.765	14654
580.767	14641
580.823	15721
580.838	15480
580.879	14883
580.911	14406
580.935	14073
580.984	13740
580.991	13703
581.047	14780
581.057	14573
581.103	13688
581.130	14148
581.159	14630
581.203	14785
581.215	14841
581.270	14434
581.276	14479
581.326	14986
581.349	15160
581.382	15402
581.422	14936
581.438	14767
581.494	14993
581.494	14983
581.550	14423
581.567	14618
581.606	15007
581.640	14918
581.661	14889
581.713	16272
581.717	16389
581.773	14908
581.786	15168
581.829	16054
581.859	16084
581.885	16107
581.932	16627
581.940	16713
581.996	16285
582.004	16299
582.052	16415
582.077	16126
582.107	15771
582.150	15888
582.163	15929
582.219	16057
582.223	16001
582.274	15544
582.296	15206
582.330	14565
582.368	16404
582.386	17203
582.441	16402
582.441	16402
582.497	15509
582.514	15758
582.552	16465
582.587	16825
582.608	16945
582.659	17094
582.663	17116
582.719	16619
582.732	16607
582.774	16559
582.805	16783
582.830	16980
582.877	16604
582.885	16539
582.941	17170
582.950	17183
582.996	17213
583.023	17614
583.052	18139
583.095	17037
583.107	16691
583.162	18328
583.168	18277
583.218	17911
583.240	17961
583.273	18051
583.313	18650
583.328	18884
583.384	19399
583.385	19345
583.439	17623
583.458	17623
583.494	17714
583.531	17758
583.549	17801
583.603	18764
583.605	18792
583.660	18701
583.676	18634
583.715	18415
583.748	18725
583.770	19026
583.820	19506
583.825	19525
583.881	18754
583.893	18772
583.936	19094
583.965	19041
583.991	18883
584.038	19526
584.046	19657
584.101	19007
584.110	19032
584.156	19007
584.183	19505
584.211	20279
584.255	20042
584.266	19916
584.321	19377
584.328	19518
584.376	21105
584.400	21170
584.431	20920
584.472	20589
584.486	20537
584.541	20849
584.545	20902
584.596	21838
584.617	21655
584.651	21648
584.689	22474
584.706	22735
584.761	23154
584.762	23148
584.816	23275
584.834	23351
584.871	23515
584.906	23501
584.926	23499
584.978	24264
584.980	24323
585.035	25782
585.051	26052
585.090	26500
585.123	27421
585.145	28082
585.195	27752
585.200	27740
585.254	28144
585.267	28557
585.309	30305
585.340	31076
585.364	31611
585.412	33313
585.419	33575
585.473	36688
585.484	37412
585.528	41302
585.556	45322
585.583	52644
585.628	69107
585.637	75274
585.692	133847
585.700	142123
585.747	171697
585.772	147403
585.801	95108
585.845	47737
585.856	42943
585.910	37054
585.917	36118
585.965	33954
585.989	33980
586.019	34298
586.061	34817
586.074	34996
586.128	35296
586.133	35270
586.183	35552
586.205	35830
586.237	36628
586.277	37269
586.292	37320
586.346	37316
586.349	37320
586.401	38748
586.421	39101
586.455	39505
586.493	40843
586.509	42150
586.564	45696
586.565	45813
586.618	54401
586.637	55011
586.672	51294
586.709	47599
586.727	46918
586.781	47807
586.781	47856
586.835	46838
586.853	46924
586.889	47461
586.925	47471
586.944	47840
586.996	49555
586.998	49664
587.052	51599
587.068	52109
587.106	53597
587.140	54453
587.161	54861
587.212	56629
587.215	56832
587.269	59608
587.284	60109
587.323	61433
587.356	62888
587.377	63951
587.427	66783
587.431	67136
587.485	70081
587.499	70941
587.539	73579
587.571	75423
587.593	77038
587.643	81083
587.648	81596
587.702	85858
587.715	86884
587.755	90990
587.786	94130
587.810	97082
587.858	102804
587.864	103847
587.917	113634
587.930	115823
587.971	123598
588.001	129110
588.025	134354
588.073	144640
588.079	146471
588.133	162320
588.145	165639
588.187	180501
588.217	191744
588.241	202691
588.288	224501
588.295	228408
588.348	260322
588.360	267280
588.402	300530
588.431	324807
588.456	350595
588.503	402978
588.510	412712
588.564	494015
588.575	511842
588.617	608304
588.646	679241
588.671	765230
588.718	937180
588.725	975392
588.778	1280336
588.789	1343633
588.832	1630608
588.861	1812945
588.886	1859489
588.932	1829762
588.939	1804691
588.993	1586186
589.004	1574139
589.047	1828073
589.075	1922014
589.100	1780808
589.147	1456103
589.154	1417432
589.207	1122647
589.218	1066251
589.261	981520
589.290	933550
589.314	956439
589.361	1013794
589.368	1041938
589.421	1284663
589.433	1338510
589.475	1608550
589.504	1770333
589.528	1767102
589.576	1675096
589.582	1672156
589.635	1719788
589.647	1705778
589.689	1411932
589.718	1185910
589.742	1022081
589.790	713087
589.795	694884
589.849	527764
589.861	490228
589.902	420780
589.932	369686
589.955	342748
590.004	286870
590.009	283845
590.062	247684
590.075	238572
590.115	218638
590.146	202879
590.168	195667
590.218	178809
590.222	178047
590.275	164120
590.289	160351
590.328	152631
590.360	145591
590.381	141583
590.431	131384
590.435	131222
590.488	123679
590.503	121652
590.541	117994
590.574	114213
590.594	112640
590.645	107797
590.647	107787
590.700	101315
590.716	99227
590.753	97458
590.787	95519
590.806	94413
590.859	90600
590.859	90761
590.912	88731
590.930	87921
590.965	86740
591.001	85171
591.018	85227
591.071	84899
591.072	84701
591.124	82196
591.143	81125
591.177	80347
591.214	79117
591.230	79137
591.283	78774
591.285	78567
591.336	76924
591.356	76093
591.389	74790
591.427	72692
591.442	72275
591.495	70376
591.498	70067
591.547	69319
591.569	68734
591.600	68340
591.640	67487
591.653	67430
591.706	66514
591.711	66258
591.759	66823
591.782	66901
591.811	67424
591.853	67805
591.864	67543
591.917	65333
591.924	64844
591.969	64579
591.995	64280
592.022	64232
592.066	63652
592.075	64018
592.127	65358
592.137	65452
592.180	66315
592.208	66553
592.233	65215
592.279	62178
592.285	62255
592.338	61661
592.350	61353
592.390	60622
592.421	59849
592.443	59838
592.491	59312
592.495	59516
592.548	60301
592.562	60372
592.600	59782
592.633	58980
592.653	59102
592.704	58711
592.705	59023
592.775	57694
592.846	58146
592.916	57699
592.987	56955
593.058	55860
593.128	55223
593.199	55669
593.270	54774
593.341	54354
593.411	53300
593.482	54447
593.553	54668
593.623	53407
593.694	54031
593.764	54096
593.835	53394
593.906	53015
593.976	52259
594.047	52633
594.117	55876
594.188	54526
594.258	52172
594.329	52024
594.399	51812
594.470	52483
594.540	51609
594.611	51169
594.681	51034
594.751	52519
594.822	52442
594.892	51934
594.963	53801
595.033	53306
595.103	54796
595.174	54750
595.244	59986
595.314	63667
595.384	55063
595.455	53247
595.525	55523
595.595	55806
595.665	55895
595.736	53520
595.806	55835
595.876	54433
595.946	54646
596.016	55596
596.087	57095
596.157	56978
596.227	56355
596.297	58443
596.367	60867
596.437	62799
596.507	66154
596.577	68335
596.647	63336
596.717	62094
596.787	65288
596.857	62770
596.927	63573
596.997	61748
597.067	63602
597.137	63876
597.207	64726
597.277	64352
597.347	63093
597.417	62417
597.487	64364
597.557	63816
597.626	64408
597.696	65691
597.766	66869
597.836	69285
597.906	61435
597.975	59219
598.045	57969
598.115	61159
598.185	62111
598.254	66607
598.324	69817
598.394	71039
598.464	69727
598.533	67229
598.603	65570
598.672	64680
598.742	64642
598.812	63897
598.881	65325
598.951	64878
599.020	66002
599.090	68124
599.159	67153
599.229	66022
599.299	63037
599.368	64594
599.437	65016
599.507	61689
599.576	61158
599.646	59789
599.715	59812
599.785	59807
599.854	59618
599.924	59769
599.993	58774
600.062	58387
600.132	59917
600.201	62144
600.270	68517
600.340	69508
600.409	70161
600.478	68925
600.547	69221
600.617	66314
600.686	58651
600.755	54565
600.824	53311
600.894	52796
600.963	52410
601.032	52367
601.101	51760
601.170	50622
601.239	50549
601.308	49876
601.378	50667
601.447	49988
601.516	50881
601.585	52424
601.654	52568
601.723	51809
601.792	52326
601.861	53224
601.930	54455
601.999	56253
602.068	54659
602.137	55538
602.206	55614
602.275	56515
602.343	57703
602.412	58216
602.481	56119
602.550	55583
602.619	56748
602.688	57233
602.756	57514
602.825	56543
602.894	56885
602.963	58342
603.032	59075
603.100	57908
603.169	58452
603.238	59531
603.307	59732
603.375	58395
603.444	60674
603.513	58946
603.581	59309
603.650	61386
603.719	58269
603.787	59777
603.856	60035
603.924	61109
603.993	63604
604.061	63811
604.130	65364
604.198	67225
604.267	66545
604.335	68122
604.404	68358
604.472	69579
604.541	70572
604.609	71840
604.678	71238
604.746	71545
604.815	72360
604.883	73272
604.951	72977
605.020	72695
605.088	73982
605.156	73473
605.225	74431
605.293	74901
605.361	74653
605.429	76137
605.498	76029
605.566	77967
605.634	80253
605.702	81568
605.771	84226
605.839	84521
605.907	83533
605.975	81871
606.043	79650
606.111	78967
606.180	79815
606.248	76650
606.316	77724
606.384	78659
606.452	79138
606.520	81206
606.588	80048
606.656	76565
606.724	76674
606.792	71732
606.860	68262
606.928	62323
606.996	61028
607.064	59475
607.132	61198
607.200	63954
607.267	64529
607.335	66331
607.403	68599
607.471	66896
607.539	64075
607.607	64579
607.674	58860
607.742	59827
607.810	59003
607.878	58619
607.946	60198
608.013	61687
608.081	63661
608.149	64098
608.216	63180
608.284	66731
608.352	66321
608.419	65776
608.487	69422
608.555	64478
608.622	66101
608.690	67633
608.757	73376
608.825	74688
608.893	73389
608.960	72936
609.028	72492
609.095	72879
609.163	68608
609.230	63335
609.298	58632
609.365	61478
609.432	66345
609.500	70837
609.567	77490
609.635	85759
609.702	89433
609.769	88731
609.837	71461
609.904	63765
609.971	65003
610.039	73292
610.106	90163
610.173	154384
610.241	336396
610.308	282786
610.375	157342
610.442	79219
610.509	66236
610.577	64205
610.644	65658
610.711	66102
610.778	69277
610.845	69717
610.912	74558
610.980	75876
611.047	75904
611.114	74653
611.181	72260
611.248	71256
611.315	75076
611.382	76031
611.449	78452
611.516	79940
611.583	80480
611.650	79370
611.717	82326
611.784	82102
611.851	85486
611.918	91180
611.984	102726
612.051	137132
612.118	258003
612.185	595949
612.252	394736
612.319	117638
612.386	99996
612.452	92490
612.519	88639
612.586	92160
612.653	90134
612.719	90749
612.786	87153
612.853	81508
612.919	79384
612.986	82337
613.053	76803
613.120	73193
613.186	71450
613.253	73739
613.319	71650
613.386	72407
613.453	73304
613.519	77275
613.586	78219
613.652	85102
613.719	79436
613.785	78870
613.852	75695
613.918	73693
613.985	74785
614.051	76175
614.118	79192
614.184	77025
614.250	72853
614.317	75149
614.383	74277
614.449	74971
614.516	75985
614.582	74618
614.648	74905
614.715	74231
614.781	72683
614.847	73468
614.914	72641
614.980	71522
615.046	71692
615.112	73609
615.179	74075
615.245	78908
615.311	84421
615.377	104864
615.443	108315
615.509	83009
615.575	79217
615.642	78457
615.708	80392
615.774	84460
615.840	91964
615.906	103579
615.972	134970
616.038	220280
616.104	363072
616.170	721375
616.236	632091
616.302	163198
616.368	119702
616.434	95586
616.500	90176
616.565	94911
616.631	110413
616.697	95243
616.763	97332
616.829	128964
616.895	207903
616.961	200879
617.026	102305
617.092	79557
617.158	77175
617.224	76834
617.289	72539
617.355	69700
617.421	70398
617.487	70981
617.552	67571
617.618	64656
617.684	66165
617.749	68643
617.815	64813
617.880	63826
617.946	64730
618.012	66944
618.077	67663
618.143	65632
618.208	64651
618.274	69880
618.339	71712
618.405	60842
618.470	62197
618.536	61723
618.601	63354
618.667	59354
618.732	58292
618.798	56986
618.863	57286
618.928	56087
618.994	57707
619.059	58911
619.124	64914
619.190	60453
619.255	55357
619.320	56036
619.386	55759
619.451	54978
619.516	54269
619.581	55229
619.647	57033
619.712	57536
619.777	56334
619.842	55626
619.907	56699
619.972	55996
620.038	56308
620.103	54732
620.168	53601
620.233	55177
620.298	55802
620.363	55684
620.428	56013
620.493	58072
620.558	56537
620.623	57623
620.688	58162
620.753	56437
620.818	58410
620.883	58846
620.948	58953
621.013	57951
621.078	58021
621.143	57854
621.207	60873
621.272	59280
621.337	59345
621.402	59449
621.467	63066
621.532	62912
621.596	61549
621.661	58814
621.726	57366
621.791	58632
621.855	60300
621.920	59765
621.985	59961
622.049	61969
622.114	61494
622.179	61615
622.243	62643
622.308	63137
622.373	65562
622.437	63434
622.502	62425
622.566	62280
622.631	61838
622.695	62746
622.760	62791
622.824	61407
622.889	61748
622.953	64466
623.018	73012
623.082	71387
623.147	63362
623.211	61994
623.276	62658
623.340	59692
623.404	59681
623.469	58644
623.533	60207
623.597	56425
623.662	59774
623.726	56522
623.790	53383
623.854	52966
623.919	54150
623.983	54635
624.047	55196
624.111	54566
624.176	55799
624.240	56968
624.304	60516
624.368	56178
624.432	55391
624.496	56334
624.560	59186
624.625	59369
624.689	56955
624.753	59143
624.817	56453
624.881	55929
624.945	53523
625.009	51695
625.073	53200
625.137	53862
625.201	59224
625.265	58501
625.329	53324
625.393	53773
625.456	54342
625.520	54351
625.584	57274
625.648	59339
625.712	68090
625.776	90856
625.839	96801
625.903	62351
625.967	48756
626.031	58477
626.095	73335
626.158	52476
626.222	44260
626.286	42801
626.349	41500
626.413	39575
626.477	43063
626.540	40104
626.604	39603
626.668	38824
626.731	39076
626.795	40082
626.858	39817
626.922	38296
626.986	39179
627.049	37180
627.113	38057
627.176	37919
627.240	37230
627.303	36954
627.366	36916
627.430	37785
627.493	37708
627.557	36221
627.620	38371
627.684	36521
627.747	38268
627.810	35532
627.874	34870
627.937	32259
628.000	35334
628.064	34152
628.127	31436
628.190	31276
628.253	32183
628.317	31103
628.380	28799
628.443	29214
628.506	29983
628.569	29615
628.632	28666
628.696	28240
628.759	28269
628.822	27440
628.885	27096
628.948	26422
629.011	27440
629.074	26686
629.137	26735
629.200	25274
629.263	27619
629.326	25408
629.389	25634
629.452	25889
629.515	25781
629.578	25633
629.641	26599
629.704	25464
629.767	26091
629.830	25624
629.892	25014
629.955	24457
630.018	25940
630.081	25456
630.144	27680
630.207	24943
630.269	26266
630.332	25186
630.395	24704
630.458	24291
630.520	23367
630.583	23695
630.646	23993
630.708	22514
630.771	22624
630.834	23809
630.896	22763
630.959	23060
631.021	22292
631.084	22344
631.146	23756
631.209	24206
631.272	23272
631.334	23147
631.397	23468
631.459	22199
631.522	22885
631.584	23050
631.646	24184
631.709	23843
631.771	25003
631.834	24496
631.896	22591
631.958	21786
632.021	22994
632.083	21840
632.145	22521
632.208	21903
632.270	23029
632.332	20151
632.395	20089
632.457	22744
632.519	21154
632.581	22463
632.643	21088
632.706	21626
632.768	20460
632.830	20920
632.892	19700
632.954	21187
633.016	21817
633.078	20065
633.141	20485
633.203	20113
633.265	21156
633.327	19448
633.389	19922
633.451	21830
633.513	23123
633.575	23346
633.637	22487
633.698	21753
633.760	21624
633.822	21034
633.884	20401
633.946	20563
634.008	21296
634.070	21153
634.132	21269
634.193	21917
634.255	22926
634.317	22184
634.379	24535
634.441	22696
634.502	20506
634.564	20425
634.626	18937
634.687	20294
634.749	20321
634.811	19951
634.873	18027
634.934	19031
634.996	19669
635.057	19273
635.119	18292
635.181	19034
635.242	19674
635.304	18110
635.365	21236
635.427	18901
635.488	19918
635.550	18212
635.611	18727
635.673	16972
635.734	20910
635.796	19839
635.857	21162
635.918	19963
635.980	21491
636.041	21567
636.102	22064
636.164	21155
636.225	21313
636.286	20173
636.348	19906
636.409	18261
636.470	18275
636.531	18876
636.593	19151
636.654	18919
636.715	17740
636.776	16740
636.838	18032
636.899	17929
636.960	17062
637.021	17275
637.082	17190
637.143	17943
637.204	16852
637.265	15978
637.326	17322
637.387	16406
637.448	15793
637.509	17303
637.570	16950
637.631	17140
637.692	15391
637.753	15179
637.814	16016
637.875	15629
637.936	17214
637.997	15331
638.058	16096
638.119	16744
638.179	15857
638.240	14440
638.301	16016
638.362	14366
638.423	15733
638.483	17064
638.544	13911
638.605	15933
638.666	15371
638.726	16181
638.787	16165
638.848	14792
638.908	15418
638.969	15086
639.030	15156
639.090	13474
639.151	14954
639.211	15639
639.272	17751
639.332	21264
639.393	16487
639.453	14413
639.514	15012
639.574	14315
639.635	14210
639.695	14414
639.756	14241
639.816	15277
639.877	15803
639.937	18933
639.997	21391
640.058	13933
640.118	14158
640.178	15242
640.239	13513
640.299	13406
640.359	12986
640.420	14859
640.480	14542
640.540	14172
640.600	14311
640.661	14207
640.721	13270
640.781	16261
640.841	12902
640.901	15021
640.961	14747
641.021	14417
641.082	13692
641.142	16562
641.202	15463
641.262	12881
641.322	13600
641.382	11691
641.442	13709
641.502	12836
641.562	14682
641.622	12085
641.682	13976
641.742	14017
641.802	14302
641.861	13491
641.921	12826
641.981	14212
642.041	14666
642.101	15523
642.161	13163
642.221	12748
642.280	12924
642.340	11878
642.400	11501
642.460	12416
642.519	12858
642.579	12864
642.639	14178
642.698	10323
642.758	15004
642.818	12299
642.877	12385
642.937	13583
642.997	15038
643.056	17586
643.116	12633
643.175	15008
643.235	12097
643.294	12837
643.354	13939
643.414	14524
643.473	16329
643.532	16879
643.592	19701
643.651	29328
643.711	45591
643.770	84007
643.830	190406
643.889	418910
643.948	108592
644.008	23134
644.067	17116
644.126	14850
644.186	14884
644.245	13466
644.304	11997
644.363	13774
644.423	12914
644.482	11869
644.541	13259
644.600	10717
644.659	14741
644.719	15276
644.778	19212
644.837	27533
644.896	49829
644.955	108506
645.014	41758
645.073	16073
645.132	13710
645.191	13250
645.250	12129
645.309	14141
645.368	13554
645.427	15153
645.486	18344
645.545	28551
645.604	13847
645.663	12457
645.722	12756
645.781	12481
645.840	14189
645.898	15142
645.957	20094
646.016	25024
646.075	43195
646.134	77537
646.192	195129
646.251	303557
646.310	50567
646.369	17837
646.427	16378
646.486	12609
646.545	13122
646.603	12288
646.662	11318
646.721	10913
646.779	11269
646.838	10966
646.896	13366
646.955	14076
647.014	18341
647.072	28043
647.131	68966
647.189	38051
647.248	11131
647.306	10628
647.365	11185
647.423	8474
647.481	12029
647.540	9005
647.598	10552
647.657	9813
647.715	10105
647.773	8079
647.832	10151
647.890	8511
647.948	9331
648.007	10136
648.065	8447
648.123	8507
648.181	10099
648.240	9632
648.298	8555
648.356	8644
648.414	9392
648.472	9841
648.531	9502
648.589	9491
648.647	9146
648.705	8740
648.763	9775
648.821	9457
648.879	9556
648.937	9801
648.995	10574
649.053	11550
649.111	15206
649.169	21791
649.227	34290
649.285	64158
649.343	180084
649.401	95113
649.459	26557
649.516	17784
649.574	10388
649.632	12160
649.690	12876
649.748	12901
649.806	14518
649.863	21608
649.921	49011
649.979	35505
650.037	10890
650.094	8048
650.152	9196
650.210	7801
650.268	8915
650.325	8011
650.383	8667
650.440	6834
650.498	9082
650.556	7777
650.613	7343
650.671	8622
650.728	8487
650.786	8643
650.843	9577
650.901	6848
650.958	7190
651.016	7870
651.073	7606
651.131	7727
651.188	6656
651.246	7322
651.303	6738
651.360	6972
651.418	7485
651.475	7138
651.532	7013
651.590	6870
651.647	7178
651.704	7334
651.762	7379
651.819	7137
651.876	6609
651.933	6637
651.990	7158
652.048	5443
652.105	6917
652.162	7596
652.219	6681
652.276	6752
652.333	7336
652.390	5368
652.448	7456
652.505	6995
652.562	7115
652.619	6211
652.676	7569
652.733	7403
652.790	6811
652.847	6458
652.904	7074
652.961	5562
653.017	6779
653.074	6246
653.131	7041
653.188	5379
653.245	6981
653.302	6177
653.359	6134
653.415	6821
653.472	5860
653.529	6814
653.586	6484
653.642	5858
653.699	6418
653.756	6166
653.813	5849
653.869	5960
653.926	5838
653.983	5669
654.039	6716
654.096	6610
654.152	7389
654.209	5804
654.266	6855
654.322	4983
654.379	6827
654.435	7985
654.492	6645
654.548	8589
654.605	9297
654.661	8431
654.717	6747
654.774	6961
654.830	6395
654.887	5859
654.943	6786
655.000	6933
655.056	6851
655.112	6887
655.168	6092
655.225	6563
655.281	7026
655.337	7249
655.394	8560
655.450	7423
655.506	8489
655.562	8961
655.618	9899
655.675	5729
655.731	6160
655.787	5259
655.843	6546
655.899	6179
655.955	5630
656.011	5515
656.067	5450
656.123	5799
656.179	6159
656.235	7061
656.291	4994
656.347	7028
656.403	6533
656.459	6593
656.515	6691
656.571	6356
656.627	5969
656.683	6674
656.739	7220
656.795	6282
656.850	6388
656.906	6867
656.962	7803
657.018	6001
657.074	6499
657.129	6648
657.185	8679
657.241	10814
657.297	8915
657.352	6430
657.408	6222
657.464	7394
657.519	6587
657.575	5302
657.630	6768
657.686	6002
657.742	4833
657.797	6286
657.853	5904
657.908	7670
657.964	5408
658.019	5988
658.075	6806
658.130	6240
658.186	5099
658.241	6146
658.297	5138
658.352	5904
658.407	6086
658.463	5530
658.518	5763
658.573	5922
658.629	4876
658.684	5534
658.739	6601
658.795	5715
658.850	5318
658.905	5122
658.960	6275
659.016	5119
659.071	6126
659.126	5336
659.181	6428
659.236	8771
659.291	8606
659.346	5839
659.401	6367
659.457	6817
659.512	6026
659.567	6442
659.622	6198
659.677	4941
659.732	4873
659.787	5413
659.842	5470
659.897	6862
659.952	6823
660.007	5628
660.061	6188
660.116	5542
660.171	5798
660.226	5486
660.281	7278
660.336	5198
660.391	6599
660.445	4698
660.500	6294
660.555	6554
660.610	5466
660.664	6170
660.719	5255
660.774	5916
660.828	4979
660.883	6582
660.938	5869
660.992	5346
661.047	6163
661.101	5432
661.156	5672
661.211	5701
661.265	5488
661.320	4996
661.374	5674
661.429	5335
661.483	6570
661.538	4673
661.592	5731
661.647	5903
661.701	6718
661.755	5542
661.810	5456
661.864	5441
661.919	6349
661.973	5845
662.027	5691
662.081	4476
662.136	5397
662.190	5382
662.244	6433
662.299	5210
662.353	6260
662.407	4585
662.461	5840
662.515	5875
662.569	5701
662.624	6342
662.678	6140
662.732	5854
662.786	5454
662.840	5508
662.894	5769
662.948	5244
663.002	4651
663.056	5130
663.110	5739
663.164	4998
663.218	5234
663.272	4940
663.326	5786
663.380	5340
663.434	6331
663.488	5562
663.542	5190
663.595	4495
663.649	5388
663.703	5998
663.757	5874
663.811	5141
663.864	5463
663.918	6376
663.972	5156
664.026	4757
664.079	5413
664.133	5595
664.187	4203
664.240	5006
664.294	5141
664.348	5664
664.401	5628
664.455	6290
664.508	4612
664.562	5297
664.615	5937
664.669	4289
664.722	5806
664.776	4943
664.829	5502
664.883	5175
664.936	5727
664.990	5552
665.043	5663
665.097	5683
665.150	6989
665.203	4761
665.257	5721
665.310	5184
665.363	5360
665.417	5436
665.470	5368
665.523	6034
665.576	6246
665.630	5194
665.683	6044
665.736	5854
665.789	5529
665.842	5126
665.895	5397
665.949	5431
666.002	5643
666.055	5256
666.108	5962
666.161	5517
666.214	5884
666.267	6223
666.320	6567
666.373	5903
666.426	6054
666.479	4632
666.532	5445
666.585	5538
666.638	6984
666.691	5623
666.744	6736
666.796	5967
666.849	6010
666.902	6645
666.955	5505
667.008	4713
667.060	4657
667.113	4551
667.166	5871
667.219	4736
667.271	4635
667.324	4691
667.377	5500
667.430	5166
667.482	5788
667.535	5198
667.587	5537
667.640	5814
667.693	5702
667.745	7519
667.798	8348
667.850	5959
667.903	5390
667.955	5540
668.008	5313
668.060	6738
668.113	6308
668.165	5758
668.218	5480
668.270	5559
668.322	5320
668.375	5776
668.427	5920
668.479	5157
668.532	5572
668.584	6290
668.636	5787
668.689	5761
668.741	5511
668.793	5305
668.845	5398
668.898	6079
668.950	5610
669.002	5376
669.054	6115
669.106	5325
669.158	6552
669.211	5737
669.263	5430
669.315	6082
669.367	5468
669.419	4676
669.471	6746
669.523	6175
669.575	7241
669.627	6258
669.679	6060
669.731	5235
669.783	5788
669.835	5888
669.886	6391
669.938	6851
669.990	5813
670.042	6129
670.094	7429
670.146	8627
670.197	8768
670.249	10420
670.301	11436
670.353	16265
670.404	21323
670.456	31185
670.508	45113
670.560	71103
670.611	115944
670.663	196246
670.715	420021
670.766	651983
670.818	270603
670.869	58227
670.921	28308
670.972	18751
671.024	14816
671.075	12620
671.127	10481
671.178	9399
671.230	8790
671.281	8451
671.333	8043
671.384	7680
671.436	8385
671.487	8632
671.538	8631
671.590	10056
671.641	13074
671.692	18973
671.744	32787
671.795	23804
671.846	10584
671.897	7994
671.949	7239
672.000	6159
672.051	5425
672.102	6895
672.153	5869
672.204	5503
672.256	6034
672.307	5306
672.358	6246
672.409	5137
672.460	5358
672.511	4643
672.562	5266
672.613	4434
672.664	5455
672.715	5136
672.766	5548
672.817	4729
672.868	5433
672.919	4825
672.970	4087
673.021	4420
673.071	4963
673.122	5128
673.173	4725
673.224	3833
673.275	4628
673.326	4513
673.376	5155
673.427	4422
673.478	4475
673.528	4680
673.579	5008
673.630	4144
673.680	5847
673.731	5123
673.782	3860
673.832	5711
673.883	5028
673.934	4285
673.984	4731
674.035	4568
674.085	4570
674.136	4658
674.186	4954
674.237	5180
674.287	6109
674.338	5645
674.388	4378
674.438	4529
674.489	3880
674.539	4393
674.589	5154
674.640	4704
674.690	4718
674.740	5010
674.791	4871
674.841	4822
674.891	5096
674.942	4243
674.992	4061
675.042	3186
675.092	3104
675.142	3397
675.193	3941
675.243	3258
675.293	4304
675.343	4769
675.393	5123
675.443	4398
675.493	3982
675.543	3931
675.593	4177
675.643	3790
675.693	3925
675.743	4021
675.793	4109
675.843	3829
675.893	4199
675.943	4557
675.993	4048
676.043	3481
676.093	4451
676.142	3079
676.192	3927
676.242	3799
676.292	3133
676.341	3987
676.391	4689
676.441	3905
676.491	3959
676.540	3543
676.590	3959
676.640	4097
676.689	3741
676.739	2553
676.789	3438
676.838	3351
676.888	3839
676.937	3139
676.987	3520
677.037	3053
677.086	3337
677.136	3595
677.185	2910
677.235	2768
677.284	3954
677.333	2657
677.383	3492
677.432	2697
677.482	3194
677.531	3309
677.580	3636
677.630	2901
677.679	2746
677.728	3487
677.778	4004
677.827	3777
677.876	4303
677.925	3191
677.975	4282
678.024	3572
678.073	3721
678.122	4223
678.171	3466
678.220	3256
678.269	3527
678.319	3572
678.368	4633
678.417	2846
678.466	4432
678.515	4018
678.564	3681
678.613	3706
678.662	3285
678.711	3638
678.760	3597
678.809	3718
678.857	4031
678.906	3194
678.955	3316
679.004	3572
679.053	3633
679.102	3850
679.151	3798
679.199	2554
679.248	4104
679.297	2856
679.346	3688
679.394	2753
679.443	3757
679.492	3006
679.540	3218
679.589	2914
679.638	3871
679.686	3387
679.735	3111
679.784	3612
679.832	3813
679.881	3534
679.929	3447
679.978	2866
680.026	3142
680.075	2480
680.123	2777
680.172	3171
680.220	2958
680.268	3376
680.317	3176
680.365	3007
680.414	3678
680.462	2898
680.510	3163
680.559	2891
680.607	2683
680.655	2688
680.703	2647
680.752	2250
680.800	2699
680.848	2030
680.896	2748
680.945	2546
680.993	3165
681.041	3276
681.089	3354
681.137	2500
681.185	2057
681.233	3192
681.258	3234
681.281	3244
681.329	2234
681.377	2572
681.380	2617
681.425	2800
681.473	3109
681.502	2947
681.521	2775
681.569	3850
681.617	3661
681.624	3699
681.665	3702
681.713	3515
681.745	3439
681.761	3355
681.809	3445
681.857	4081
681.867	4055
681.904	3831
681.952	3571
681.989	3523
682.000	3469
682.048	3754
682.096	3349
682.111	3439
682.143	3538
682.191	4022
682.233	4196
682.239	4192
682.286	3950
682.334	4033
682.354	3723
682.382	3211
682.430	4385
682.476	3826
682.477	3786
682.525	4372
682.572	3585
682.598	4025
682.620	4380
682.667	4377
682.715	4797
682.720	4821
682.763	4722
682.810	4331
682.841	4527
682.857	4578
682.905	4317
682.952	4939
682.963	5001
683.000	5137
683.047	4906
683.085	5616
683.095	5777
683.142	5023
683.190	5312
683.206	5153
683.237	4767
683.284	5000
683.328	5025
683.332	4999
683.379	5462
683.426	4764
683.449	5130
683.473	5501
683.521	4738
683.568	5621
683.571	5630
683.615	5397
683.662	6195
683.693	5617
683.709	5260
683.757	5948
683.804	5605
683.814	5666
683.851	5820
683.898	6198
683.936	6511
683.945	6570
683.992	6101
684.039	6016
684.057	6259
684.086	6538
684.133	6767
684.179	6710
684.180	6692
684.227	6843
684.274	7116
684.300	7209
684.321	7191
684.368	6590
684.415	7224
684.422	7188
684.462	6873
684.509	6437
684.543	7160
684.556	7413
684.603	7059
684.649	6592
684.665	6882
684.696	7425
684.743	6730
684.786	7289
684.790	7323
684.837	7394
684.883	7938
684.908	8249
684.930	8486
684.977	8107
685.023	7591
685.029	7621
685.070	7654
685.117	7727
685.150	7455
685.164	7398
685.210	8613
685.257	8695
685.272	8772
685.303	8633
685.350	8495
685.393	8171
685.396	8155
685.443	8313
685.490	8759
685.514	8746
685.536	8661
685.583	8912
685.629	9747
685.636	9550
685.675	8227
685.722	8861
685.757	9035
685.768	9073
685.815	9065
685.861	9170
685.878	9038
685.908	8964
685.954	9283
686.000	9616
686.000	9609
686.047	10130
686.093	10092
686.121	9950
686.139	9817
686.185	9564
686.232	9436
686.242	9502
686.278	9712
686.324	9571
686.363	9015
686.370	8907
686.416	9303
686.463	9376
686.484	9245
686.509	9156
686.555	9804
686.601	8941
686.606	9020
686.647	9608
686.693	9039
686.727	9663
686.739	9940
686.785	9639
686.831	9859
686.848	10041
686.877	10243
686.923	10177
686.969	9687
686.969	9684
687.015	9996
687.061	9559
687.090	9793
687.107	9863
687.153	10735
687.199	9972
687.211	10074
687.245	10301
687.291	9777
687.332	10242
687.336	10319
687.382	11021
687.428	10350
687.453	10698
687.474	10781
687.520	10123
687.565	10214
687.574	10122
687.611	10038
687.657	10315
687.695	10916
687.702	11022
687.748	11381
687.794	11711
687.816	11450
687.839	11078
687.885	11468
687.931	10415
687.937	10429
687.976	10598
688.022	10755
688.058	10948
688.067	11037
688.113	11082
688.158	11012
688.179	11241
688.204	11493
688.249	12099
688.295	11630
688.300	11650
688.340	11917
688.386	12033
688.421	11872
688.431	11750
688.477	11577
688.522	11560
688.542	11516
688.567	11699
688.613	11739
688.658	12250
688.663	12234
688.703	11849
688.749	11557
688.784	11530
688.794	11634
688.839	12353
688.884	12376
688.905	12460
688.930	12388
688.975	12282
689.020	12362
689.026	12265
689.065	11724
689.110	11740
689.146	11579
689.155	11579
689.201	11925
689.246	12231
689.267	12079
689.291	11956
689.336	12537
689.381	12105
689.388	12177
689.426	12455
689.471	12184
689.509	12165
689.516	12217
689.561	12368
689.606	12494
689.630	12481
689.651	12421
689.696	12283
689.741	12891
689.750	12929
689.785	13124
689.830	12720
689.871	12744
689.875	12747
689.920	12451
689.965	12377
689.992	12385
690.010	12492
690.054	11984
690.099	12711
690.112	12562
690.144	12356
690.189	12719
690.233	12477
690.233	12491
690.278	12680
690.323	12372
690.354	12803
690.367	13047
690.412	13080
690.457	13108
690.474	13068
690.501	12880
690.546	12852
690.590	12749
690.595	12668
690.635	12313
690.680	12509
690.716	12328
690.724	12376
690.769	13240
690.813	13480
690.836	13519
690.857	13473
690.902	13618
690.946	13863
690.957	13861
690.991	14308
691.035	14703
691.077	15568
691.080	15602
691.124	14988
691.168	15550
691.198	15072
691.213	14858
691.257	15005
691.301	14900
691.318	14706
691.346	14441
691.390	14240
691.434	14161
691.439	14082
691.478	13828
691.522	14024
691.559	13858
691.567	13887
691.611	14495
691.655	14331
691.680	14540
691.699	14667
691.743	14611
691.787	14905
691.800	14705
691.831	14483
691.875	15295
691.919	15099
691.921	15083
691.964	15247
692.008	15429
692.041	15333
692.052	15352
692.096	15367
692.139	15725
692.162	15566
692.183	15207
692.227	15167
692.271	14642
692.282	14502
692.315	14693
692.359	15011
692.402	15369
692.403	15397
692.447	15365
692.490	15362
692.523	15366
692.534	15468
692.578	15717
692.622	15694
692.643	15723
692.666	15531
692.709	15100
692.753	14402
692.763	14388
692.797	15019
692.840	15467
692.884	15749
692.884	15779
692.928	15658
692.971	15719
693.004	15922
693.015	16008
693.059	15716
693.102	15647
693.124	15584
693.146	15534
693.189	15424
693.233	15355
693.245	15328
693.276	15594
693.320	15769
693.363	15618
693.365	15595
693.407	15905
693.450	16104
693.485	16343
693.493	16386
693.537	16131
693.580	15910
693.605	15949
693.624	16202
693.667	16470
693.710	16787
693.725	16887
693.753	17600
693.797	18612
693.840	19676
693.845	19754
693.883	19227
693.926	18345
693.966	17808
693.970	17786
694.013	16978
694.056	16391
694.086	15757
694.099	15819
694.142	16202
694.185	16322
694.206	16515
694.229	16796
694.272	16902
694.315	17076
694.326	17109
694.358	17293
694.401	17296
694.444	17592
694.446	17565
694.487	17588
694.530	17266
694.566	17262
694.573	17268
694.616	16741
694.659	16388
694.686	16136
694.702	16154
694.745	16384
694.787	16097
694.806	16208
694.830	16550
694.873	16465
694.916	16639
694.926	16575
694.959	16387
695.002	16553
695.044	16404
695.046	16370
695.087	17038
695.130	17628
695.166	17912
695.172	17888
695.215	17552
695.258	17302
695.286	16986
695.301	16932
695.343	16907
695.386	16623
695.406	16553
695.428	16715
695.471	16649
695.514	16998
695.526	16917
695.556	16945
695.599	17464
695.641	17529
695.646	17523
695.684	17581
695.726	17500
695.766	17303
695.769	17339
695.811	17473
695.854	17482
695.886	17447
695.896	17542
695.938	17727
695.981	17908
696.005	18007
696.023	18096
696.065	18112
696.108	18110
696.125	18106
696.150	18045
696.192	17854
696.235	17713
696.245	17586
696.277	17458
696.319	17429
696.361	17444
696.365	17391
696.404	17775
696.446	18104
696.485	18485
696.488	18543
696.530	18703
696.572	18662
696.604	18789
696.614	18835
696.656	18699
696.698	18557
696.724	18443
696.740	18412
696.783	18208
696.825	18056
696.844	17896
696.867	17944
696.909	17931
696.951	17924
696.964	17926
696.992	18076
697.034	18077
697.076	18089
697.083	18056
697.118	18546
697.160	19021
697.202	19452
697.203	19417
697.244	19129
697.286	18643
697.323	18185
697.327	18232
697.369	18328
697.411	18228
697.442	18197
697.453	18275
697.494	18358
697.536	18488
697.562	18539
697.578	18509
697.620	18211
697.661	18033
697.682	17831
697.703	18168
697.744	18758
697.786	19514
697.801	19675
697.828	19778
697.869	19960
697.911	20037
697.921	20015
697.952	19857
697.994	19605
698.035	19422
698.040	19335
698.077	18947
698.118	18528
698.160	18009
698.160	17957
698.201	18436
698.243	18843
698.279	19144
698.284	19222
698.325	19486
698.367	19733
698.399	19885
698.408	19882
698.449	19615
698.491	19381
698.518	19160
698.532	19244
698.573	19358
698.614	19446
698.638	19450
698.656	19562
698.697	19708
698.738	19841
698.757	19861
698.779	20026
698.820	20234
698.862	20422
698.877	20451
698.903	20354
698.944	20091
698.985	19833
698.996	19712
699.026	19684
699.067	19570
699.116	19384
699.235	19869
699.354	19457
699.474	18452
699.593	20683
699.713	20915
699.832	19864
699.951	20892
700.070	19843
700.190	18633
700.309	19608
700.428	19683
700.547	19202
700.667	18513
700.786	19367
700.905	18768
701.024	18607
701.143	17637
701.262	18149
701.381	18153
701.500	18097
701.619	19803
701.738	18204
701.857	18477
701.976	18040
702.095	17026
702.214	18450
702.333	18668
702.452	18564
702.571	17245
702.690	17572
702.809	17487
702.928	17522
703.047	17726
703.165	18191
703.284	16443
703.403	16410
703.522	16448
703.640	17228
703.759	18396
703.878	20527
703.997	16616
704.115	16998
704.234	16168
704.353	16417
704.471	17030
704.590	16361
704.708	17076
704.827	16291
704.946	17118
705.064	15894
705.183	16575
705.301	18280
705.420	22619
705.538	21207
705.656	18608
705.775	18954
705.893	20101
706.012	21106
706.130	19877
706.249	19313
706.367	19032
706.485	18989
706.604	19504
706.722	18984
706.840	20041
706.958	21181
707.077	19654
707.195	18965
707.313	17997
707.431	17421
707.549	17209
707.668	18032
707.786	18100
707.904	18160
708.022	18513
708.140	18266
708.258	17524
708.376	18849
708.494	17634
708.612	18130
708.730	22589
708.848	22778
708.966	22000
709.084	20896
709.202	20757
709.320	20048
709.438	20034
709.556	20215
709.674	20038
709.791	20360
709.909	19354
710.027	19397
710.145	19874
710.263	19493
710.380	18625
710.498	18689
710.616	19173
710.733	19016
710.851	18502
710.969	19156
711.086	18314
711.204	19150
711.322	19386
711.439	18024
711.557	18008
711.674	18499
711.792	17847
711.909	16972
712.027	17754
712.144	17278
712.262	18084
712.379	19184
712.497	24931
712.614	25129
712.732	21252
712.849	21149
712.966	19478
713.084	21887
713.201	21498
713.318	21129
713.436	21539
713.553	20829
713.670	20398
713.787	21336
713.905	21202
714.022	21262
714.139	19732
714.256	21523
714.373	22915
714.490	28726
714.608	48993
714.725	174829
714.842	210554
714.959	27742
715.076	21549
715.193	19027
715.310	18778
715.427	18918
715.544	18207
715.661	18403
715.778	18027
715.895	20067
716.011	19558
716.128	18263
716.245	18499
716.362	19059
716.479	19523
716.596	17862
716.713	18890
716.829	17481
716.946	17357
717.063	17656
717.180	17702
717.296	16328
717.413	17494
717.530	16681
717.646	16140
717.763	16733
717.880	15742
717.996	15485
718.113	16142
718.229	15707
718.346	15161
718.462	15958
718.579	17479
718.695	20538
718.812	19414
718.928	17131
719.045	16592
719.161	15049
719.277	14375
719.394	15400
719.510	15981
719.626	15510
719.743	18011
719.859	18007
719.975	22880
720.092	52615
720.208	121950
720.324	27249
720.440	16203
720.557	15667
720.673	18639
720.789	21897
720.905	32280
721.021	19454
721.137	14690
721.253	14715
721.369	14714
721.486	15734
721.602	16668
721.718	13863
721.834	13246
721.950	14288
722.066	14096
722.181	13885
722.297	14781
722.413	14326
722.529	13520
722.645	13862
722.761	13289
722.877	13173
722.993	12890
723.108	13557
723.224	13148
723.340	13074
723.456	13181
723.571	13149
723.687	13069
723.803	12491
723.918	12866
724.034	13206
724.150	13299
724.265	12559
724.381	15844
724.497	20204
724.612	11919
724.728	11703
724.843	11615
724.959	12474
725.074	16363
725.190	18969
725.305	12367
725.421	11935
725.536	12088
725.651	11760
725.767	11535
725.882	11702
725.997	11954
726.113	11769
726.228	11509
726.343	11170
726.459	11553
726.574	11487
726.689	11940
726.804	11907
726.920	10976
727.035	10873
727.150	11054
727.265	9917
727.380	11017
727.495	11263
727.610	10164
727.725	11366
727.841	10535
727.956	11122
728.071	11361
728.186	10579
728.301	10616
728.416	11326
728.531	10692
728.645	10448
728.760	10631
728.875	11150
728.990	10092
729.105	10274
729.220	10334
729.335	10614
729.449	9647
729.564	10367
729.679	9735
729.794	9717
729.908	10348
730.023	9873
730.138	9351
730.253	9913
730.367	9256
730.482	9562
730.596	10157
730.711	9812
730.826	9924
730.940	9481
731.055	10257
731.169	9814
731.284	9837
731.398	8872
731.513	9480
731.627	9691
731.742	10698
731.856	10292
731.970	9797
732.085	10101
732.199	11517
732.313	14294
732.428	22843
732.542	59368
732.656	41230
732.771	12735
732.885	10863
732.999	10397
733.113	11776
733.227	10376
733.342	10208
733.456	9620
733.570	11007
733.684	10048
733.798	9464
733.912	9101
734.026	9350
734.140	9934
734.254	10110
734.368	11728
734.482	13030
734.596	9637
734.710	9013
734.824	9653
734.938	10140
735.052	9831
735.166	9824
735.280	9968
735.393	8907
735.507	9509
735.621	10059
735.735	12261
735.849	9999
735.962	8388
736.076	10027
736.190	9060
736.303	9652
736.417	11112
736.531	9156
736.644	8928
736.758	8691
736.872	9030
736.985	8560
737.099	8959
737.212	8385
737.326	8989
737.439	8713
737.553	8484
737.666	8503
737.780	8088
737.893	7902
738.007	8529
738.120	8201
738.233	8112
738.347	9170
738.460	7331
738.573	9160
738.687	8621
738.800	8820
738.913	9605
739.026	8488
739.140	8542
739.253	8323
739.366	8258
739.479	7218
739.592	8110
739.705	8069
739.818	8857
739.932	7692
740.045	7929
740.158	7878
740.271	8181
740.384	7614
740.497	7594
740.610	7611
740.723	7746
740.836	8043
740.949	8012
741.062	9040
741.174	8647
741.287	7833
741.400	7277
741.513	7951
741.626	7486
741.739	8036
741.851	7760
741.964	7984
742.077	7469
742.189	7073
742.302	7881
742.415	7242
742.527	7360
742.640	7699
742.753	7053
742.865	6933
742.978	7464
743.090	6956
743.203	7504
743.316	7479
743.428	7381
743.541	6790
743.653	7164
743.766	6857
743.878	7235
743.990	7592
744.103	8011
744.215	7011
744.327	7015
744.440	8542
744.552	9361
744.664	7079
744.777	7033
744.889	6291
745.001	7457
745.113	6950
745.226	6805
745.338	7713
745.450	7487
745.562	6447
745.674	6789
745.786	7181
745.898	6221
746.010	6518
746.122	5665
746.234	6360
746.347	6385
746.459	7290
746.570	6820
746.682	6840
746.794	7221
746.906	6419
747.018	6128
747.130	6730
747.242	6933
747.354	6962
747.466	5624
747.577	6611
747.689	6304
747.801	6592
747.913	5967
748.024	6898
748.136	5494
748.248	6816
748.359	6456
748.471	6461
748.583	6906
748.694	6023
748.806	6615
748.918	7239
749.029	5948
749.141	6515
749.252	7275
749.364	6933
749.475	7954
749.587	6611
749.698	5838
749.809	6244
749.921	6084
750.032	6250
750.144	4660
750.255	5168
750.366	6414
750.478	6204
750.589	5942
750.700	5623
750.811	6068
750.923	6837
751.034	8792
751.145	9487
751.256	6188
751.367	6487
751.479	5353
751.590	5530
751.701	5788
751.812	5667
751.923	5643
752.034	6630
752.145	6289
752.256	5148
752.367	4873
752.478	6034
752.589	6412
752.700	5652
752.811	5128
752.922	5724
753.032	5038
753.143	6379
753.254	5554
753.365	5753
753.476	5959
753.586	5153
753.697	5331
753.808	5167
753.919	5254
754.029	5496
754.140	6247
754.251	6462
754.361	5429
754.472	5372
754.582	4886
754.693	4995
754.804	5637
754.914	4933
755.025	4916
755.135	4791
755.246	6310
755.356	4872
755.466	5468
755.577	5033
755.687	5832
755.798	5405
755.908	5458
756.018	4587
756.129	5456
756.239	4632
756.349	5105
756.460	5313
756.570	5834
756.680	4836
756.790	5073
756.900	5635
757.011	5634
757.121	4662
757.231	5117
757.341	4531
757.451	3995
757.561	4922
757.671	4687
757.781	4210
757.891	5865
758.001	5159
758.111	5662
758.221	5733
758.331	5131
758.441	5201
758.551	5985
758.661	5770
758.771	6474
758.880	5771
758.990	5342
759.100	4627
759.210	5276
759.320	4847
759.429	4552
759.539	5197
759.649	5842
759.758	5743
759.868	5661
759.978	5063
760.087	5066
760.197	4573
760.307	4895
760.416	5836
760.526	4668
760.635	5266
760.745	5394
760.854	4833
760.964	6516
761.073	5903
761.182	5023
761.292	5168
761.401	5498
761.511	4843
761.620	4595
761.729	4589
761.839	6011
761.948	6115
762.057	5269
762.166	5595
762.276	4434
762.385	5469
762.494	4517
762.603	5016
762.712	5024
762.822	5520
762.931	5851
763.040	4629
763.149	4812
763.258	5067
763.367	5000
763.476	4487
763.585	5696
763.694	5588
763.803	4577
763.912	5618
764.021	5875
764.130	4941
764.238	5104
764.347	4360
764.456	5688
764.565	5362
764.674	5057
764.783	5050
764.891	4558
765.000	6540
765.109	5013
765.217	5813
765.326	6855
765.435	7089
765.543	7304
765.652	7772
765.761	8653
765.869	11149
765.978	17197
766.086	28522
766.195	55580
766.303	150458
766.412	473677
766.520	406640
766.629	87156
766.737	30443
766.846	18413
766.954	13282
767.062	11765
767.171	9606
767.279	8918
767.387	7641
767.496	6627
767.604	6647
767.712	7029
767.820	5730
767.928	6599
768.037	5863
768.145	5536
768.253	6151
768.361	5313
768.469	6219
768.577	5837
768.685	5947
768.793	6183
768.901	5714
769.009	6092
769.117	7038
769.225	7083
769.333	9426
769.441	13928
769.549	24433
769.657	54018
769.765	184304
769.873	416577
769.981	129871
770.088	24762
770.196	14103
770.304	11268
770.412	9984
770.519	7470
770.627	7044
770.735	6170
770.842	6237
770.950	5886
771.058	6508
771.165	5664
771.273	5303
771.380	6087
771.488	5661
771.595	5669
771.703	5820
771.810	6142
771.918	5444
772.025	5548
772.133	6112
772.240	5838
772.348	5769
772.455	5654
772.562	5612
772.670	5491
772.777	5818
772.884	6495
772.991	5822
773.099	4914
773.206	5609
773.313	5654
773.420	5054
773.528	4645
773.635	4933
773.742	5311
773.849	5009
773.956	4962
774.063	5297
774.170	4313
774.277	5547
774.384	4654
774.491	5352
774.598	6430
774.705	5271
774.812	5550
774.919	5872
775.026	5090
775.133	5136
775.239	5093
775.346	5251
775.453	4762
775.560	5276
775.667	5422
775.773	4476
775.880	6206
775.987	4547
776.093	5395
776.200	5136
776.307	4749
776.413	4896
776.520	4250
776.627	5219
776.733	5143
776.840	3731
776.946	6725
777.053	5139
777.159	4840
777.266	2254
777.372	5519
777.478	5072
777.585	5135
777.691	4613
777.798	4658
777.904	4829
778.010	4795
778.117	5970
778.223	4406
778.329	5185
778.435	4115
778.542	4318
778.648	4788
778.754	3879
778.860	4652
778.966	3966
779.072	4301
779.178	4305
779.284	4452
779.391	4366
779.497	3323
779.603	5673
779.708	4222
779.815	6048
779.920	7343
780.026	12034
780.132	5282
780.238	5026
780.344	4614
780.450	4922
780.556	4157
780.661	4528
780.767	4241
780.873	4126
780.979	4065
781.085	2916
781.190	3598
781.296	3946
781.402	4138
781.507	3025
781.613	4682
781.719	4027
781.824	3530
781.930	4895
782.035	3994
782.141	4437
782.246	4032
782.352	3906
782.457	3772
782.563	4919
782.668	3864
782.773	5126
782.879	3501
782.984	4452
783.090	4675
783.195	5365
783.300	4735
783.405	3981
783.511	4060
783.616	4087
783.721	4830
783.826	3531
783.932	4292
784.037	3565
784.142	4451
784.247	4243
784.352	3613
784.457	4261
784.562	4345
784.667	4284
784.772	3185
784.877	3185
784.982	4158
785.087	3920
785.192	4410
785.297	3786
785.402	4695
785.507	4462
785.611	3743
785.716	3108
785.821	2687
785.926	4224
786.031	3363
786.135	3611
786.240	3181
786.345	2701
786.450	3708
786.554	3251
786.659	2966
786.763	2748
786.868	4402
786.973	4213
787.077	3076
787.182	3436
787.286	2336
787.391	3379
787.495	2481
787.600	3344
787.704	3183
787.809	3548
787.913	3557
788.017	3399
788.122	3343
788.226	4051
788.330	2379
788.435	3068
788.539	4157
788.643	2636
788.747	2567
788.852	2544
788.956	3059
789.060	3526
789.164	3177
789.268	3083
789.372	3514
789.476	2808
789.580	2733
789.684	3211
789.788	3327
789.892	2532
789.996	2800
790.100	3591
790.204	3405
790.308	3226
790.412	2327
790.516	2692
790.620	3558
790.724	3211
790.828	3080
790.931	2197
791.035	4247
791.139	2927
791.242	2065
791.346	4263
791.450	2701
791.554	2244
791.657	1902
791.761	4011
791.864	3288
791.968	3093
792.072	2745
792.175	3009
792.279	2275
792.382	2892
792.486	3037
792.589	2850
792.693	3304
792.796	1865
792.899	3354
793.003	3044
793.106	1276
793.209	1933
793.313	3762
793.416	1697
793.519	3764
793.623	3508
793.726	3912
793.829	3381
793.932	3205
794.035	2486
794.138	3494
794.242	3555
794.345	2006
794.448	2417
794.551	2606
794.654	6021
794.757	6218
794.860	3573
794.963	2450
795.066	2028
795.169	3450
795.272	1996
795.375	2745
795.477	2579
795.580	2732
795.683	2351
795.786	2517
795.889	1908
795.991	3647
796.094	3611
796.197	1863
796.300	2918
796.402	2731
796.505	1934
796.608	2336
796.710	1653
796.813	2533
796.915	2447
797.018	2631
797.120	2697
797.223	969
797.326	3514
797.428	1103
797.530	1854
797.633	2583
797.735	2641
797.838	3266
797.940	3028
798.042	2180
798.145	2632
798.247	3276
798.349	1508
798.452	3635
798.554	2327
798.656	1196
798.758	2923
798.860	2074
798.962	2384
799.065	2277
799.167	1659
799.269	3092
799.371	3066
799.473	2592
799.575	1729
799.677	2484
799.779	3769
799.881	2161
799.983	3182
800.085	2890
800.187	3029
800.289	2587
800.390	2426
800.492	2084
800.594	2750
800.696	2245
800.798	2361
800.899	1854
801.001	1678
801.103	1665
801.205	2678
801.306	1254
801.408	1319
801.509	1774
801.611	1907
801.713	1849
801.814	2133
801.916	1524
802.017	1801
802.119	1542
802.220	2516
802.322	-35
802.423	2862
802.525	871
802.626	1432
802.727	2441
802.829	2149
802.930	55
803.031	3513
803.133	484
803.234	1261
803.335	1936
803.436	264
803.538	1974
803.639	638
803.740	3038
803.841	453
803.942	2210
804.043	2273
804.144	661
804.245	2160
804.346	1567
804.447	2156
804.548	1538
804.649	3738
804.750	2407
804.851	1573
804.952	1931
805.053	1432
805.154	1129
805.255	2466
805.355	1487
805.456	1524
805.557	1271
805.658	1070
805.758	2123
805.859	1978
805.960	904
806.061	1569
806.161	1296
806.262	1441
806.362	1254
806.463	1458
806.564	1456
806.664	957
806.765	1756
806.865	2197
806.966	1731
807.066	1651
807.166	2273
807.267	1783
807.367	1428
807.468	2543
807.568	571
807.668	2217
807.769	1895
807.869	1629
807.969	1511
808.069	1233
808.170	2110
808.270	1628
808.370	2088
808.470	2001
808.570	447
808.670	1596
808.770	1821
808.870	1523
808.970	1570
809.070	1463
809.170	1530
809.271	1767
809.370	1006
809.470	1730
809.570	1455
809.670	1308
809.770	1294
809.870	2635
809.970	1194
810.070	1602
810.169	2414
810.269	486
810.369	2567
810.469	1623
810.568	897
810.668	1517
810.768	1247
810.867	2582
810.967	1022
811.066	1398
811.166	1282
811.265	2206
811.365	527
811.464	975
811.564	1431
811.663	1848
811.763	492
811.862	2168
811.962	2412
812.061	1558
812.160	618
812.260	2012
812.359	1441
812.458	3134
812.557	5889
812.657	9469
812.756	3619
812.855	1550
812.954	1166
813.053	1799
813.153	1555
813.252	809
813.351	2116
813.450	1384
813.549	1307
813.648	1465
813.747	1303
813.846	1647
813.945	1153
814.044	1201
814.143	1160
814.242	1976
814.341	734
814.439	1770
814.538	2359
814.637	1662
814.736	1823
814.835	2074
814.933	1655
815.032	1783
815.131	2063
815.229	2012
815.328	3199
815.427	2011
815.525	2671
815.624	2197
815.722	1468
815.821	2315
815.919	2369
816.018	2358
816.116	3194
816.215	1486
816.313	2555
816.412	2559
816.510	3379
816.609	4390
816.707	4003
816.805	3332
816.904	2265
817.002	3093
817.100	4345
817.198	4974
817.296	4573
817.395	5723
817.493	6176
817.591	6314
817.689	10061
817.787	12448
817.885	20037
817.983	33454
818.081	70468
818.179	158308
818.277	359003
818.375	323007
818.473	104665
818.571	40677
818.669	25659
818.767	21327
818.865	22498
818.963	26689
819.061	37329
819.158	63266
819.256	127205
819.354	272399
819.452	497332
819.549	365032
819.647	135040
819.745	56399
819.842	33774
819.940	22830
820.038	16167
820.135	13249
820.233	11156
820.330	8511
820.428	5941
820.525	7581
820.623	5783
820.720	4578
820.818	5078
820.915	5232
821.012	3273
821.110	2562
821.207	4452
821.304	3304
821.402	3018
821.499	3680
821.596	3684
821.693	3343
821.791	2643
821.888	3421
821.985	5034
822.082	3638
822.179	2590
822.276	2125
822.373	2840
822.470	2616
822.567	2948
822.664	1363
822.761	2334
822.858	1661
822.955	2351
823.052	1915
823.149	1369
823.246	1826
823.343	1772
823.440	2673
823.536	1714
823.633	1364
823.730	2340
823.827	1921
823.923	1639
824.020	2201
824.117	1061
824.213	659
824.310	2181
824.407	1425
824.503	1320
824.600	1568
824.696	1601
824.793	2483
824.889	794
824.986	1761
825.082	1316
825.179	1977
825.275	1478
825.371	749
825.468	1805
825.564	906
825.660	2124
825.757	1140
825.853	2051
825.949	215
826.045	1821
826.142	1003
826.238	1724
826.334	1298
826.430	204
826.526	1790
826.622	-167
826.718	867
826.814	644
826.910	1365
827.006	306
827.102	750
827.198	1857
827.294	1647
827.390	873
827.486	1689
827.582	480
827.678	652
827.774	1831
827.869	-103
827.965	1925
828.061	581
828.157	1391
828.252	1646
828.348	469
828.444	1027
828.539	425
828.635	934
828.731	1635
828.826	447
828.922	768
829.017	1196
829.113	703
829.208	-116
829.304	206
829.399	2389
829.495	899
829.590	1592
829.685	393
829.781	1173
829.876	1096
829.971	655
830.066	501
830.162	908
830.257	280
830.352	1127
830.447	1464
830.543	964
830.638	-797
830.733	817
830.828	744
830.923	800
831.018	590
831.113	1071
831.208	814
831.303	704
831.398	1134
831.493	864
831.588	801
831.683	934
831.778	330
831.873	872
831.967	902
832.062	98
832.157	320
832.252	1148
832.346	517
832.441	1886
832.536	1444
832.631	3764
832.725	2974
832.820	759
832.914	632
833.009	1147
833.104	1107
833.198	2013
833.293	300
833.387	564
833.482	1353
833.576	256
833.670	1445
833.765	1040
833.859	368
833.954	1293
834.048	914
834.142	1806
834.237	156
834.331	986
834.425	631
834.519	-372
834.613	1738
834.708	-23
834.802	422
834.896	949
834.990	662
835.084	635
835.178	450
835.272	1001
835.366	835
835.460	1293
835.554	1270
835.648	224
835.742	479
835.836	347
835.930	-528
836.024	764
836.117	1616
836.211	656
836.305	989
836.399	1978
836.493	-133
836.586	974
836.680	374
836.774	68
836.867	1400
836.961	587
837.055	291
837.148	499
837.242	353
837.335	747
837.429	246
837.522	1067
837.616	729
837.709	917
837.803	652
837.896	851
837.989	494
838.083	1501
838.176	1517
838.269	298
838.363	149
838.456	-334
838.549	1245
838.642	1765
838.735	3862
838.829	2141
838.922	-46
839.015	1181
839.108	-21
839.201	683
839.294	34
839.387	1172
839.480	-141
839.573	804
839.666	712
839.759	469
839.852	-65
839.945	876
840.038	1207
840.131	965
840.223	616
840.316	1412
840.409	734
840.502	299
840.594	1291
840.687	-826
840.780	512
840.873	72
840.965	563
841.058	463
841.150	1340
841.243	-361
841.336	1001
841.428	-143
841.521	240
841.613	-158
841.706	450
841.798	494
841.890	319
841.983	-30
842.075	920
842.167	1140
842.260	112
842.352	507
842.444	983
842.537	2093
842.629	2433
842.721	578
842.813	377
842.905	-507
842.997	477
843.090	-307
843.182	552
843.274	1520
843.366	4218
843.458	6811
843.550	5375
843.642	415
843.734	1079
843.826	1052
843.918	541
844.009	174
844.101	116
844.193	637
844.285	692
844.377	827
844.469	913
844.560	-401
844.652	508
844.744	1361
844.835	-502
844.927	760
845.019	753
845.110	256
845.202	95
845.293	419
845.385	105
845.476	379
845.568	439
845.659	247
845.751	904
845.842	549
845.934	418
846.025	197
846.116	1058
846.208	688
846.299	46
846.390	211
846.482	450
846.573	855
846.664	891
846.755	172
846.846	1291
846.937	-176
847.029	-12
847.120	-62
847.211	205
847.302	822
847.393	-389
847.484	342
847.575	386
847.666	814
847.757	251
847.847	-68
847.938	1033
848.029	-267
848.120	-365
848.211	694
848.302	525
848.392	39
848.483	508
848.574	-431
848.664	-854
848.755	352
848.846	274
848.936	19
849.027	-484
849.118	289
849.208	-545
849.299	32
849.389	885
849.480	1299
849.570	2632
849.661	3691
849.751	7233
849.841	2794
849.932	489
850.022	534
850.112	801
850.203	1043
850.293	-114
850.383	-54
850.474	-184
850.564	170
850.654	-253
850.744	-106
850.834	235
850.924	385
851.014	-58
851.104	553
851.194	710
851.284	746
851.374	504
851.464	400
851.554	350
851.644	-508
851.734	512
851.824	42
851.914	204
852.004	567
852.094	107
852.183	-486
852.273	540
852.363	-115
852.452	57
852.542	496
852.632	-233
852.721	614
852.811	133
852.901	420
852.990	338
853.080	138
853.169	205
853.259	522
853.348	-487
853.438	444
853.527	560
853.617	306
853.706	1500
853.795	3184
853.885	8020
853.974	15283
854.063	27181
854.152	47448
854.242	18683
854.331	2760
854.420	923
854.509	332
854.598	102
854.687	475
854.777	643
854.866	427
854.955	914
855.044	-365
855.133	-271
855.222	192
855.311	-101
855.400	-107
855.488	-678
855.577	-287
855.666	-26
855.755	412
855.844	332
855.933	165
856.021	251
856.110	872
856.199	-266
856.288	-513
856.376	-289
856.465	191
856.554	-352
856.642	-622
856.731	617
856.819	293
856.908	-247
856.996	-398
857.085	36
857.173	566
857.262	246
857.350	-368
857.438	-60
857.527	886
857.615	-161
857.703	-56
857.792	-183
857.880	-511
857.968	961
858.056	-336
858.145	455
858.233	-540
858.321	-563
858.409	-81
858.497	-213
858.585	-595
858.673	-70
858.761	855
858.849	-249
858.937	269
859.025	-11
859.113	405
859.201	258
859.289	530
859.377	-454
859.465	888
859.552	79
859.640	-58
859.728	-185
859.816	-422
859.903	-59
859.991	419
860.079	-270
860.166	241
860.254	-525
860.342	384
860.429	-355
860.517	-390
860.604	-23
860.692	-202
860.779	78
860.867	13
860.954	140
861.042	-228
861.129	-95
861.216	-55
861.304	-29
861.391	-386
861.478	187
861.565	-272
861.653	385
861.740	-1057
861.827	129
861.914	170
862.001	-276
862.089	-4
862.176	-468
862.263	-512
862.350	-142
862.437	-509
862.524	-679
862.611	-339
862.698	-298
862.785	-478
862.871	-1186
862.958	-424
863.045	-944
863.132	451
863.219	-667
863.306	-505
863.392	834
863.479	303
863.566	39
863.652	-470
863.739	-881
863.826	75
863.912	-213
863.999	-177
864.086	-376
864.172	-648
864.259	-684
864.345	-213
864.432	-461
864.518	305
864.604	425
864.691	-767
864.777	79
864.863	38
864.950	288
865.036	201
865.122	85
865.209	905
865.295	331
865.381	520
865.467	870
865.553	1670
865.639	418
865.726	2016
865.812	3947
865.898	8256
865.984	11831
866.070	21217
866.156	25889
866.242	6615
866.328	2071
866.414	907
866.499	1242
866.585	340
866.671	444
866.757	897
866.843	971
866.928	82
867.014	251
867.100	899
867.186	314
867.271	521
867.357	605
867.442	1241
867.528	634
867.614	162
867.699	541
867.785	836
867.870	-341
867.956	240
868.041	343
868.127	758
868.212	694
868.297	340
868.383	1047
868.468	911
868.553	2001
868.639	2049
868.724	3731
868.809	4116
868.894	1014
868.979	382
869.065	874
869.150	-120
869.235	-42
869.320	189
869.405	-25
869.490	305
869.575	540
869.660	14
869.745	-415
869.830	195
869.915	299
870.000	685
870.085	-106
870.169	-91
870.254	379
870.339	-23
870.424	-387
870.509	260
870.593	-214
870.678	577
870.763	33
870.847	-77
870.932	-536
871.016	128
871.101	-268
871.186	89
871.270	205
871.355	-183
871.439	559
871.523	85
871.608	20
871.692	539
871.777	-73
871.861	-126
871.945	-485
872.030	-84
872.114	-298
872.198	7
872.282	-166
872.367	133
872.451	-399
872.535	-126
872.619	565
872.703	-221
872.787	-65
872.871	-441
872.955	-693
873.039	-1031
873.123	-345
873.207	621
873.291	222
873.375	368
873.459	267
873.543	-58
873.627	-344
873.711	216
873.794	466
873.878	-1085
873.962	-756
874.045	-834
874.129	208
874.137	146
874.213	-475
874.245	-369
874.296	-195
874.352	-251
874.380	-279
874.460	-604
874.464	-618
874.547	-565
874.568	-456
874.631	-166
874.676	-484
874.714	-729
874.784	289
874.798	491
874.881	680
874.892	517
874.965	-593
874.999	-500
875.048	-414
875.107	149
875.131	387
875.215	-66
875.215	-66
875.298	-75
875.323	11
875.381	288
875.430	165
875.465	61
875.538	315
875.548	353
875.631	64
875.646	-20
875.714	-485
875.753	-90
875.798	390
875.861	478
875.881	503
875.964	673
875.968	623
876.047	-264
876.076	-257
876.130	-283
876.183	-73
876.213	95
876.291	181
876.296	178
876.379	309
876.398	265
876.462	225
876.506	476
876.545	627
876.613	37
876.628	-71
876.711	208
876.721	167
876.794	-222
876.828	-164
876.877	10
876.935	199
876.960	222
877.043	-492
877.043	-491
877.125	273
877.150	372
877.208	386
877.258	392
877.291	490
877.365	519
877.374	493
877.456	-22
877.472	17
877.539	368
877.579	57
877.622	-355
877.687	-253
877.704	-184
877.787	-256
877.794	-240
877.869	-120
877.901	-15
877.952	111
878.008	339
878.034	452
878.115	351
878.117	352
878.199	435
878.222	443
878.282	484
878.329	591
878.364	597
878.437	409
878.447	374
878.529	-414
878.544	-295
878.611	498
878.651	271
878.694	-77
878.758	380
878.776	525
878.858	301
878.865	283
878.941	-71
878.972	-232
879.023	-215
879.078	37
879.105	65
879.185	97
879.187	103
879.269	188
879.292	373
879.351	665
879.399	455
879.433	500
879.506	355
879.516	291
879.598	134
879.613	62
879.680	-226
879.720	88
879.762	428
879.827	-2
879.844	-77
879.926	-173
879.933	-120
880.007	480
880.040	440
880.089	297
880.147	499
880.171	648
880.253	1568
880.254	1569
880.335	2409
880.360	2530
880.417	3437
880.467	5269
880.499	6961
880.574	9709
880.580	9447
880.662	3754
880.680	2661
880.744	1166
880.787	653
880.825	438
880.893	388
880.907	471
880.989	416
881.000	466
881.070	644
881.106	695
881.152	807
881.213	847
881.233	776
881.315	673
881.319	653
881.396	493
881.426	490
881.478	507
881.532	483
881.559	596
881.639	931
881.641	926
881.722	427
881.745	276
881.803	463
881.852	726
881.885	499
881.958	151
881.966	226
882.047	1032
882.064	1038
882.129	603
882.171	795
882.210	1493
882.277	2531
882.291	2513
882.372	1808
882.383	1665
882.454	708
882.489	541
882.535	501
882.596	504
882.616	546
882.697	278
882.702	277
882.778	475
882.808	475
882.859	571
882.914	706
882.940	696
883.020	777
883.021	782
883.102	700
883.127	578
883.183	473
883.233	470
883.264	364
883.339	623
883.345	661
883.426	331
883.445	353
883.507	523
883.551	558
883.587	601
883.657	746
883.668	806
883.749	1110
883.763	1139
883.830	821
883.869	953
883.910	1166
883.975	584
883.991	455
884.072	317
884.081	336
884.152	902
884.187	980
884.233	608
884.292	346
884.314	568
884.394	1238
884.398	1273
884.475	863
884.504	562
884.555	725
884.610	1294
884.636	1278
884.716	652
884.716	656
884.797	970
884.821	948
884.877	874
884.927	661
884.958	592
885.033	701
885.038	705
885.118	677
885.139	744
885.199	1116
885.244	1216
885.279	1100
885.350	728
885.359	794
885.439	1637
885.456	1690
885.520	820
885.561	517
885.600	750
885.667	1087
885.680	1091
885.760	1061
885.773	984
885.840	458
885.878	418
885.920	539
885.984	523
886.000	520
886.080	493
886.089	495
886.160	494
886.195	416
886.240	638
886.300	1131
886.320	1216
886.400	1179
886.406	1192
886.480	1177
886.511	1090
886.560	1207
886.616	1386
886.640	1339
886.720	936
886.722	924
886.800	390
886.827	219
886.879	845
886.932	1352
886.959	1389
887.038	1818
887.039	1819
887.119	1096
887.143	929
887.198	1005
887.248	1100
887.278	1172
887.354	1158
887.358	1162
887.437	1231
887.459	1233
887.517	1766
887.564	2243
887.596	1936
887.669	1106
887.676	1091
887.755	860
887.774	808
887.835	768
887.880	759
887.914	1051
887.985	1488
887.994	1429
888.073	869
888.090	756
888.153	805
888.195	857
888.232	1053
888.300	1416
888.311	1351
888.391	701
888.405	593
888.470	901
888.510	1066
888.549	995
888.615	952
888.628	940
888.708	739
888.720	723
888.787	1465
888.825	1813
888.866	1400
888.930	771
888.945	797
889.024	908
889.035	921
889.103	1293
889.140	1485
889.182	1441
889.245	1363
889.261	1427
889.340	1714
889.349	1740
889.419	1660
889.454	1618
889.498	1351
889.559	980
889.577	1143
889.656	1845
889.664	1911
889.735	1102
889.768	713
889.814	1205
889.873	1849
889.978	971
890.083	1013
890.187	924
890.292	1015
890.397	764
890.501	1727
890.606	878
890.710	2341
890.815	1233
890.919	1283
891.024	1412
891.128	1390
891.233	1898
891.337	1238
891.442	1347
891.546	1914
891.650	1108
891.755	1900
891.859	2305
891.963	1543
892.068	1018
892.172	2561
892.276	987
892.380	2120
892.484	993
892.589	1395
892.693	1107
892.797	2470
892.901	979
893.005	932
893.109	876
893.213	1758
893.317	701
893.421	2036
893.525	1763
893.629	489
893.733	717
893.837	1173
893.941	900
894.045	1994
894.148	1361
894.252	1020
894.356	988
894.460	1767
894.564	978
894.667	849
894.771	660
894.875	1031
894.978	883
895.082	1570
895.186	826
895.289	1384
895.393	1454
895.496	1912
895.600	857
895.703	2267
895.807	1003
895.910	1481
896.014	413
896.117	1115
896.221	1197
896.324	1532
896.427	924
896.531	1245
896.634	1092
896.737	1865
896.840	958
896.944	1036
897.047	679
897.150	1936
897.253	1026
897.356	1209
897.460	1199
897.563	2410
897.666	1564
897.769	1453
897.872	641
897.975	1044
898.078	1033
898.181	1193
898.284	914
898.387	1223
898.490	866
898.593	1370
898.695	2005
898.798	1261
898.901	1252
899.004	1970
899.107	1365
899.209	953
899.312	1518
899.415	1871
899.518	794
899.620	1467
899.723	829
899.826	2101
899.928	3037
900.031	1377
900.133	857
900.236	1223
900.338	858
900.441	799
900.543	702
900.646	841
900.748	795
900.851	859
900.953	1022
901.055	1682
901.158	1454
901.260	1962
901.362	1070
901.465	704
901.567	572
901.669	1385
901.771	1179
901.873	1124
901.976	1278
902.078	994
902.180	1026
902.282	459
902.384	470
902.486	1775
902.588	1341
902.690	1493
902.792	867
902.894	980
902.996	1392
903.098	1144
903.200	1155
903.302	1662
903.404	573
903.505	1221
903.607	708
903.709	709
903.811	670
903.913	1312
904.014	771
904.116	1231
904.218	633
904.319	1118
904.421	1652
904.523	1666
904.624	1180
904.726	1408
904.827	542
904.929	1880
905.030	570
905.132	780
905.233	907
905.335	1160
905.436	733
905.537	1339
905.639	1327
905.740	1447
905.841	810
905.943	983
906.044	933
906.145	1325
906.247	696
906.348	1244
906.449	1607
906.550	1102
906.651	1445
906.752	1542
906.854	614
906.955	893
907.056	508
907.157	1491
907.258	1046
907.359	1007
907.460	1423
907.561	1257
907.662	999
907.762	1079
907.863	611
907.964	1067
908.065	1031
908.166	205
908.267	186
908.367	436
908.468	1547
908.569	1158
908.670	1156
908.770	1507
908.871	1807
908.971	1290
909.072	526
909.173	1743
909.273	1028
909.374	982
909.474	1097
909.575	1040
909.675	1112
909.776	1578
909.876	930
909.977	1297
910.077	1762
910.177	1561
910.278	1006
910.378	1633
910.478	887
910.579	1596
910.679	672
910.779	1549
910.879	1382
910.980	1173
911.080	1617
911.180	181
911.280	1629
911.380	1229
911.480	760
911.580	1149
911.680	222
911.780	1127
911.880	844
911.980	1314
912.080	916
912.180	116
912.280	916
912.380	1766
912.480	767
912.580	1370
912.679	550
912.779	2327
912.879	461
912.979	1139
913.078	638
913.178	1418
913.278	308
913.377	938
913.477	1390
913.577	1207
913.676	1121
913.776	973
913.875	1115
913.975	1346
914.074	1323
914.174	655
914.273	69
914.373	1859
914.472	874
914.572	719
914.671	1277
914.770	1311
914.870	216
914.969	845
915.068	-143
915.167	1050
915.267	823
915.366	656
915.465	1505
915.564	1067
915.663	1194
915.763	1230
915.862	591
915.961	1358
916.060	1122
916.159	942
916.258	590
916.357	239
916.456	1659
916.555	1235
916.654	1239
916.752	1547
916.851	506
916.950	750
917.049	41
917.148	1599
917.247	716
917.345	411
917.444	240
917.543	578
917.642	241
917.740	1431
917.839	1110
917.937	1346
918.036	1046
918.135	297
918.233	372
918.332	960
918.430	486
918.529	504
918.627	549
918.726	1216
918.824	824
918.923	707
919.021	1103
919.119	1230
919.218	502
919.316	1112
919.414	986
919.512	935
919.611	967
919.709	1435
919.807	66
919.905	798
920.003	1024
920.102	1324
920.200	1267
920.298	1430
920.396	566
920.494	1311
920.592	873
920.690	1609
920.788	1239
920.886	1425
920.984	1370
921.082	575
921.180	1193
921.277	2005
921.375	799
921.473	602
921.571	234
921.669	1372
921.766	641
921.864	2018
921.962	645
922.060	1620
922.157	1257
922.255	1151
922.352	1543
922.450	1985
922.548	620
922.645	2417
922.743	707
922.840	2786
922.938	2328
923.035	2359
923.133	2271
923.230	2679
923.327	2866
923.425	2728
923.522	1254
923.619	2244
923.717	1389
923.814	1430
923.911	1421
924.008	2995
924.106	1969
924.203	1898
924.300	1519
924.397	1377
924.494	1687
924.591	2193
924.688	1323
924.786	1375
924.883	1762
924.979	1923
925.077	1461
925.173	2169
925.270	963
925.367	1854
925.464	2311
925.561	2112
925.658	1723
925.755	1941
925.852	1837
925.948	2413
926.045	2493
926.142	1439
926.239	1937
926.335	1872
926.432	2030
926.529	1413
926.625	1497
926.722	1639
926.818	1734
926.915	1859
927.011	1193
927.108	1357
927.204	1116
927.301	1338
927.397	1702
927.494	1632
927.590	2416
927.687	1662
927.783	1089
927.879	1349
927.976	1121
928.072	897
928.168	1116
928.264	1793
928.361	754
928.457	1642
928.553	2107
928.649	2169
928.745	1761
928.841	1858
928.937	1275
929.033	1899
929.129	1258
929.225	1618
929.321	1707
929.417	1482
929.513	907
929.609	1121
929.705	878
929.801	1457
929.897	743
929.993	626
930.089	529
930.184	1871
930.280	1577
930.376	1435
930.471	1181
930.567	467
930.663	1288
930.758	1872
930.854	801
930.950	734
931.045	970
931.141	1217
931.236	1614
931.332	1380
931.427	1496
931.523	1283
931.618	1357
931.714	1391
931.809	1012
931.905	1423
932.000	798
932.095	1635
932.191	788
932.286	593
932.381	311
932.476	777
932.572	836
932.667	959
932.762	1011
932.857	1924
932.952	1262
933.047	839
933.142	752
933.237	2197
933.332	942
933.427	1683
933.522	735
933.617	904
933.712	919
933.807	978
933.902	1309
933.997	1289
934.092	683
934.187	816
934.282	957
934.376	778
934.471	718
934.566	744
934.661	715
934.755	1489
934.850	750
934.945	1537
935.039	569
935.134	1305
935.228	850
935.323	1528
935.417	1045
935.512	990
935.606	450
935.701	539
935.795	344
935.890	894
935.984	1047
936.079	1321
936.173	971
936.267	1216
936.362	486
936.456	1384
936.550	116
936.644	866
936.738	-29
936.833	654
936.927	686
937.021	841
937.115	1250
937.209	976
937.303	1725
937.397	664
937.491	714
937.585	1927
937.679	274
937.773	603
937.867	26
937.961	933
938.055	572
938.149	538
938.243	-197
938.337	710
938.430	663
938.524	1198
938.618	628
938.712	1317
938.805	261
938.899	651
938.993	88
939.086	1389
939.180	126
939.274	481
939.367	818
939.461	1155
939.554	-76
939.648	677
939.741	812
939.835	854
939.928	889
940.022	1156
940.115	679
940.208	1317
940.302	768
940.395	1677
940.488	-515
940.582	212
940.675	-88
940.768	815
940.861	291
940.954	1116
941.048	63
941.141	1069
941.234	279
941.327	664
941.420	827
941.513	974
941.606	355
941.699	298
941.792	381
941.885	1515
941.978	1082
942.071	537
942.164	161
942.257	1131
942.349	1570
942.442	1531
942.535	666
942.628	1259
942.721	173
942.813	-603
942.906	1163
942.999	275
943.091	-376
943.184	215
943.277	-83
943.369	572
943.462	-634
943.554	1460
943.647	-535
943.739	1260
943.832	325
943.924	729
944.017	870
944.109	339
944.201	750
944.294	1392
944.386	1399
944.478	1341
944.571	143
944.663	1010
944.755	-122
944.847	1332
944.940	632
945.032	35
945.124	593
945.216	1101
945.308	-98
945.400	925
945.492	-61
945.584	350
945.676	155
945.768	209
945.860	653
945.952	265
946.044	128
946.136	439
946.228	-321
946.320	365
946.412	48
946.503	214
946.595	1163
946.687	190
946.779	-41
946.870	688
946.962	-346
947.054	892
947.145	209
947.237	504
947.329	343
947.420	517
947.512	466
947.603	697
947.695	62
947.786	17
947.878	-499
947.969	379
948.061	-815
948.152	553
948.243	992
948.335	378
948.426	-941
948.517	448
948.609	452
948.700	115
948.791	-81
948.882	816
948.973	-58
949.065	400
949.156	15
949.247	85
949.338	-239
949.429	-415
949.520	-282
949.611	-165
949.702	471
949.793	366
949.884	-118
949.975	406
950.066	-612
950.157	193
950.247	613
950.338	664
950.429	-420
950.520	177
950.611	302
950.701	-67
950.792	557
950.883	549
950.973	-5
951.064	-136
951.155	83
951.245	766
951.336	745
951.427	-303
951.517	383
951.608	395
951.698	-550
951.788	251
951.879	-289
951.969	-416
952.060	360
952.150	-64
952.240	607
952.331	-1003
952.421	629
952.511	363
952.602	-330
952.692	342
952.782	-654
952.872	590
952.962	-202
953.052	60
953.143	-672
953.233	44
953.323	-209
953.413	-623
953.503	-257
953.593	221
953.683	399
953.773	-85
953.863	-578
953.953	-49
954.042	-347
954.132	-130
954.222	-383
954.312	-214
954.402	-139
954.492	293
954.581	301
954.671	-60
954.761	-1503
954.850	907
954.940	-288
955.030	53
955.119	-622
955.209	505
955.298	-673
955.388	150
955.477	243
955.567	-481
955.656	-124
955.746	931
955.835	-139
955.925	-465
956.014	36
956.103	-1287
956.193	532
956.282	436
956.371	-217
956.461	825
956.550	-1165
956.639	-444
956.728	-508
956.817	-1
956.906	-564
956.995	575
957.085	-213
957.174	-650
957.263	-164
957.352	139
957.441	-710
957.530	-47
957.619	306
957.708	155
957.796	-498
957.885	-112
957.974	123
958.063	639
958.152	-1005
958.241	-381
958.329	-418
958.418	-210
958.507	-555
958.596	154
958.684	-519
958.773	73
958.861	-890
958.950	240
959.039	-254
959.127	373
959.216	-249
959.304	97
959.393	-878
959.481	-372
959.570	383
959.658	-584
959.746	-17
959.835	575
959.923	238
960.011	422
960.100	163
960.188	-137
960.276	-67
960.365	170
960.453	-350
960.541	-71
960.629	-447
960.717	589
960.805	-844
960.893	656
960.981	-1313
961.069	1116
961.158	-581
961.245	50
961.333	-497
961.421	-520
961.509	10
961.597	179
961.685	-341
961.773	211
961.861	286
961.949	366
962.036	-1110
962.124	834
962.212	-1077
962.299	184
962.387	-831
962.475	-443
962.562	-1193
962.650	882
962.738	-209
962.825	-694
962.913	-128
963.000	-1019
963.088	293
963.175	-32
963.263	-695
963.350	120
963.438	-496
963.525	57
963.612	-91
963.700	766
963.787	3391
963.874	1450
963.962	-9
964.049	9
964.136	-1059
964.223	-879
964.310	-877
964.398	987
964.485	-41
964.572	-22
964.659	258
964.746	906
964.833	-1250
964.920	-193
965.007	-237
965.094	-217
965.181	-652
965.268	34
965.355	-558
965.441	-121
965.528	-601
965.615	657
965.702	-206
965.789	-14
965.875	-923
965.962	185
966.049	-111
966.136	-193
966.222	-1028
966.309	-319
966.395	186
966.482	714
966.569	-1083
966.655	228
966.742	-390
966.828	12
966.915	-515
967.001	244
967.087	-551
967.174	-128
967.260	695
967.347	-232
967.433	87
967.519	2464
967.605	-83
967.692	-272
967.778	82
967.864	-682
967.950	-557
968.036	-641
968.123	-683
968.209	-3
968.295	-409
968.381	1107
968.467	-422
968.553	-971
968.639	518
968.725	-1084
968.811	55
968.897	751
968.983	-531
969.069	-1436
969.154	57
969.240	600
969.326	-397
969.412	-882
969.497	-687
969.583	-720
969.669	58
969.755	-512
969.840	-557
969.926	22
970.012	-809
970.097	305
970.183	-212
970.268	-115
970.354	45
970.439	-309
970.525	1463
970.610	-69
970.696	134
970.781	-384
970.866	-1677
970.952	646
971.037	-1314
971.122	-410
971.208	-271
971.293	-328
971.378	-1133
971.463	-400
971.549	-760
971.634	-734
971.719	-845
971.804	-431
971.889	83
971.974	-385
972.059	-492
972.144	-5
972.229	-560
972.314	-444
972.399	-672
972.484	-411
972.569	-693
972.654	-738
972.739	606
972.824	417
972.908	-1152
972.993	-502
973.078	-1085
973.163	-555
973.247	-521
973.332	-990
973.417	496
973.501	-844
973.586	-1325
973.671	-658
973.755	-1149
973.840	-5
973.924	-925
974.009	267
974.093	-615
974.178	1783
974.262	-547
974.346	-228
974.431	-85
974.515	-903
974.600	-397
974.684	-1033
974.768	-1532
974.852	333
974.937	-930
975.021	-330
975.105	-213
975.189	116
975.273	-449
975.358	-2012
975.442	-1261
975.526	3
975.610	-1383
975.694	-1267
975.778	21
975.862	257
975.946	-2432
976.030	717
976.114	-1164
976.198	14
976.281	-1616
976.365	-115
976.449	-967
976.533	-711
976.617	-1151
976.700	131
976.784	-1097
976.868	-639
976.951	-646
977.035	277
977.119	-303
977.202	-934
977.286	-237
977.369	-833
977.453	-797
977.536	-991
977.620	-1320
977.703	-291
977.787	-1321
977.870	-453
977.953	-217
978.037	-421
978.120	669
978.203	22
978.287	-263
978.370	210
978.453	-1198
978.536	-931
978.620	108
978.703	-681
978.786	-1215
978.869	-925
978.952	-1492
979.035	653
979.118	-846
979.201	-1365
979.284	-919
979.367	-1253
979.450	-1153
979.533	-1095
979.616	-846
979.699	-422
979.782	-170
979.865	-753
979.948	-1090
980.030	-1576
980.113	-706
980.196	-1424
980.279	-318
980.361	-783
980.444	-1744
980.526	434
980.609	-146
980.692	-592
980.774	-885
980.857	-2337
980.939	-715
981.022	-472
981.104	-892
981.187	-694
981.269	-706
981.352	-1111
981.434	-1713
981.516	-1450
981.599	-721
981.681	-606
981.763	-1742
981.846	-671
981.928	-901
982.010	-1437
982.092	-1160
982.174	270
982.256	-1434
982.339	-671
982.421	-1185
982.503	-241
982.585	-1909
982.667	-558
982.749	-1395
982.831	90
982.913	-2209
982.995	-340
983.077	-1080
983.158	558
983.240	-1301
983.322	-799
983.404	-668
983.486	-832
983.568	-278
983.649	-617
983.731	55
983.813	-154
983.894	-205
983.976	-730
984.058	-1241
984.139	474
984.221	-1825
984.302	68
984.384	-968
984.465	-900
984.547	-780
984.628	-1234
984.710	-673
984.791	-276
984.872	-1398
984.954	-796
985.035	-1915
985.116	-1580
985.198	-1440
985.279	320
985.360	-743
985.441	-244
985.522	-539
985.604	-403
985.685	-2216
985.766	220
985.847	257
985.928	-1836
986.009	-521
986.090	-230
986.171	-322
986.252	-998
986.333	-1308
986.414	-1167
986.495	-1391
986.576	-927
986.656	-1256
986.737	-2
986.818	-1109
986.899	-881
986.980	-1224
987.060	-36
987.141	-613
987.222	-387
987.302	-515
987.383	-835
987.464	-1268
987.544	-182
987.625	-884
987.705	-785
987.786	-745
987.866	-1018
987.947	-1388
988.027	-1278
988.108	-1184
988.188	-296
988.268	-539
988.349	-656
988.429	-1129
988.509	-770
988.589	-1248
988.670	-1762
988.750	-4
988.830	-760
988.910	-626
988.990	-484
989.070	-1173
989.151	-523
989.231	-929
989.311	-696
989.391	-735
989.471	-784
989.551	-1457
989.631	-797
989.711	-1461
989.791	-1604
989.870	-1654
989.950	-527
990.030	-1301
990.110	-1405
990.190	-1409
990.269	-1354
990.349	-364
990.429	-134
990.509	-442
990.588	-751
990.668	-752
990.747	-867
990.827	-1447
990.907	-754
990.986	-1907
991.066	-494
991.145	-1306
991.225	-442
991.304	-1245
991.383	-463
991.463	-1545
991.542	72
991.622	-1447
991.701	-785
991.780	-1689
991.859	-818
991.939	-564
992.018	-320
992.097	-1179
992.176	-166
992.256	-1168
992.335	-1330
992.414	-762
992.493	-1260
992.572	-1312
992.651	-61
992.730	-1678
992.809	-184
992.888	-1732
992.967	-220
993.046	-1053
993.125	-986
993.203	-473
993.282	-766
993.361	-936
993.440	-573
993.519	-2129
993.597	-1102
993.676	-1559
993.755	30
993.834	-1413
993.912	-1331
993.991	-532
994.069	-1772
994.148	-1692
994.226	-1217
994.305	-1050
994.384	-1168
994.462	-672
994.540	-1279
994.619	-2157
994.697	-1233
994.776	-1805
994.854	-243
994.932	-1911
995.011	-588
995.089	-994
995.167	-837
995.245	-611
995.324	-1179
995.402	-862
995.480	-1386
995.558	-1263
995.636	-1105
995.714	-1626
995.792	-792
995.870	-2007
995.948	-1240
996.026	-1424
996.104	-1579
996.182	-1231
996.260	-1184
996.338	-1047
996.416	-2322
996.494	-1690
996.572	-33
996.649	-1096
996.727	-2216
996.805	-1215
996.883	-1987
996.960	-1649
997.038	-498
997.116	-1215
997.193	-2220
997.271	-970
997.348	-1314
997.426	-888
997.504	-1478
997.581	-836
997.658	-563
997.736	-2292
997.813	-1649
997.891	-1487
997.968	-1765
998.046	-1326
998.123	-1758
998.200	-1340
998.277	-1059
998.355	-940
998.432	-2429
998.509	-1192
998.586	-1236
998.663	-645
998.741	-676
998.818	-1900
998.895	-684
998.972	-1448
999.049	-1158
999.126	-1952
999.203	-1067
999.280	-1938
999.357	-2144
999.434	-1882
999.511	-828
999.587	-1352
999.664	-1010
999.741	-1355
999.818	-964
999.895	-1701
999.971	-2208
1000.048	-1066
1000.125	-620
1000.202	-2043
1000.278	-723
1000.355	-1452
1000.431	-1305
1000.508	-1914
1000.584	-1436
1000.661	-1458
1000.738	-2113
1000.814	-1412
1000.890	-246
1000.967	-2556
1001.043	-761
1001.120	-2027
1001.196	-893
1001.272	-1676
1001.349	-975
1001.425	-1253
1001.501	-625
1001.577	-1747
1001.654	-1424
1001.730	-1856
1001.806	-1070
1001.882	-2397
1001.958	-1330
1002.034	-1880
1002.110	-1257
1002.186	-1993
1002.262	-1343
1002.338	-2321
1002.414	-724
1002.490	-1444
1002.566	-1173
1002.642	-1895
1002.718	-1592
1002.794	-1797
1002.870	-1678
1002.945	-2221
1003.021	-1211
1003.097	-1792
1003.173	-924
1003.248	-1604
1003.324	-1580
1003.400	-1427
1003.475	-1524
1003.551	-1671
1003.626	-469
1003.702	-2150
1003.777	-1689
1003.853	-1783
1003.928	-1944
1004.004	-1250
1004.079	-762
1004.155	-1201
1004.230	-2487
1004.305	-1135
1004.381	-2915
1004.456	-1140
1004.531	-1274
1004.607	-1867
1004.682	-1821
1004.757	-1130
1004.832	-1324
1004.907	-1463
1004.982	-1113
1005.057	-1073
1005.133	-1543
1005.208	-1369
1005.283	-1841
1005.358	-1796
1005.433	-2327
1005.508	-1126
1005.583	-1977
1005.657	-3323
1005.732	-1202
1005.807	-1815
1005.882	-1748
1005.957	-1669
1006.032	-753
1006.106	-2055
1006.181	-1206
1006.256	-1776
1006.331	-1960
1006.405	-1888
1006.480	-1620
1006.554	-2134
1006.629	-816
1006.704	-2201
1006.778	-1933
1006.853	-1602
1006.927	-1921
1007.002	-2531
1007.076	-1437
1007.150	-2563
1007.225	-1842
1007.299	-1540
1007.373	-2061
1007.448	-1872
1007.522	-634
1007.596	-1107
1007.671	-1241
1007.745	-2025
1007.819	-2078
1007.893	-1559
1007.967	-1228
1008.041	-1846
1008.115	-1127
1008.190	-2208
1008.264	-903
1008.338	-3139
1008.412	-1618
1008.486	-1690
1008.560	-2117
1008.633	-2060
1008.707	-1128
1008.781	-1298
1008.855	-2126
1008.929	-2061
1009.003	-1867
1009.076	-2076
1009.150	-2093
1009.224	-2354
1009.298	-1514
1009.371	-2655
1009.445	-1424
1009.519	-2332
1009.592	-2120
1009.666	-1204
1009.739	-1401
1009.813	-2960
1009.886	-624
1009.960	-2384
1010.033	-1335
1010.107	-2075
1010.180	-2325
1010.253	-2290
1010.327	-1997
1010.400	-2281
1010.473	-1837
1010.547	-901
1010.620	-2108
1010.693	-2134
1010.766	-2039
1010.840	-1645
1010.913	-1727
1010.986	-2522
1011.059	-1131
1011.132	-2498
1011.205	-816
1011.278	-2070
1011.351	-2112
1011.424	-2270
1011.497	-1111
1011.570	-2189
1011.643	-2230
1011.716	-2727
1011.789	-1732
1011.862	-1367
1011.934	-1291
1012.007	-3212
1012.080	-1836
1012.153	-1950
1012.225	-1340
1012.298	-2947
1012.371	-1369
1012.443	-1349
1012.516	-2320
1012.588	-1665
1012.661	-911
1012.733	-1765
1012.806	-1395
1012.879	-1897
1012.951	-1741
1013.023	-1714
1013.096	-1496
1013.168	-2399
1013.241	-1101
1013.313	-2286
1013.385	-2064
1013.458	-2211
1013.530	-967
1013.602	-2758
1013.674	-984
1013.746	-2433
1013.819	-2169
1013.891	-1841
1013.963	-2288
1014.035	-1141
1014.107	-1472
1014.179	-1772
1014.251	-2453
1014.323	-1445
1014.395	-1539
1014.467	-2272
1014.539	-1855
1014.611	-2257
1014.683	-1554
1014.754	-2036
1014.826	-1780
1014.898	-1418
1014.970	-2952
1015.042	-1556
1015.113	-840
1015.185	-2042
1015.257	-2942
1015.328	-1252
1015.400	-1912
1015.471	-1983
1015.543	-2356
1015.615	-2296
1015.686	-1700
1015.757	-2082
1015.829	-2071
1015.901	-1835
1015.972	-1848
1016.043	-2457
1016.115	-1569
1016.186	-1054
1016.257	-2281
1016.328	-2205
1016.400	-1622
1016.471	-2104
1016.542	-1463
1016.613	-1786
1016.685	-831
1016.756	-1716
1016.827	-855
1016.898	-2656
1016.969	-1497
1017.040	-1225
1017.111	-1653
1017.182	-2594
1017.253	-1800
1017.324	-2628
1017.395	-1860
1017.466	-2001
1017.537	-827
1017.608	-1896
1017.678	-1029
1017.749	-2312
1017.820	-1229
1017.891	-2308
1017.961	-1671
1018.032	-1955
1018.103	-1189
1018.173	-2260
1018.244	-2002
1018.315	-2483
1018.385	-698
1018.456	-2863
1018.526	-2096
1018.597	-1752
1018.667	-1974
1018.738	-2611
1018.808	-2062
1018.878	-1805
1018.949	-2173
1019.019	-2271
1019.089	-1244
1019.160	-2028
1019.230	-2155
1019.300	-1215
1019.371	-2746
1019.441	-2041
1019.511	-1616
1019.581	-1606
1019.651	-1052
1019.721	-2247
1019.791	-2410
1019.861	-2480
1019.931	-1183
1020.001	-1501
1020.071	-2102
1020.141	-2154
1020.211	-2352
1020.281	-1725
1020.351	-1529
1020.421	-1385
1020.491	-1477
1020.560	-2213
1020.630	-1760
1020.700	-2011
1020.770	-2647
1020.839	-2257
1020.909	-1627
1020.979	-2078
1021.048	-1502
1021.118	-1716
1021.187	-2380
1021.257	-2179
1021.326	-539
1021.396	-1802
1021.465	-1171
1021.535	-2315
1021.604	-2717
1021.674	-1459
1021.743	-1508
1021.812	-2221
1021.882	-1670
1021.951	-1655
1022.020	-2395
1022.089	-1990
1022.159	-1578
1022.228	-1820
1022.297	-2175
1022.366	-2199
1022.435	-1693
1022.504	-1701
1022.573	-1510
1022.642	-1417
1022.711	-2033
1022.781	-1967
1022.849	-1554
1022.918	-2572
1022.987	-1171
1023.056	-1480
1023.125	-1654
1023.194	-2468
1023.263	-1196
1023.331	-1552
1023.400	-2262
1023.469	-2541
1023.538	-1109
1023.606	-2622
1023.675	-1612
1023.744	-2603
1023.812	-2092
1023.881	-2053
1023.949	-2120
1024.018	-1964
1024.086	-1478
1024.155	-2268
1024.223	-1487
1024.292	-2713
1024.360	-1710
1024.429	-2001
1024.497	-1899
1024.565	-1884
1024.634	-1361
1024.702	-2167
1024.770	-2119
1024.838	-1734
1024.907	-583
1024.975	-2053
1025.043	-1854
1025.111	-1708
1025.179	-850
1025.247	-1772
1025.315	-1829
1025.383	-2201
1025.451	-2120
1025.519	-2090
1025.587	-2320
1025.655	-2126
1025.723	-2124
1025.791	-2061
1025.859	-819
1025.927	-1902
1025.995	-1827
1026.062	-1894
1026.130	-1031
1026.198	-1918
1026.266	-2138
1026.333	-1885
1026.401	-1529
1026.469	-1950
1026.536	-1579
1026.604	-1655
1026.671	-1726
1026.739	-1250
1026.806	-1780
1026.874	-2571
1026.941	-1627
1027.009	-1975
1027.076	-2178
1027.144	-1782
1027.211	-1917
1027.278	-2423
1027.345	-1462
1027.413	-1982
1027.480	-2251
1027.547	-985
1027.614	-1458
1027.682	-2059
1027.749	-1783
1027.816	-2232
1027.883	-952
1027.950	-1952
1028.017	-1615
1028.084	-2180
1028.151	-2587
1028.218	-1919
1028.285	-1284
1028.352	-2677
1028.419	-2036
1028.486	-2001
1028.553	-2152
1028.619	-2489
1028.686	-1333
1028.753	-1753
1028.820	-1449
1028.886	-1687
1028.953	-1791
1029.020	-1849
1029.086	-1979
1029.153	-1834
1029.220	-1833
1029.286	-1958
1029.353	-1664
1029.419	-2121
1029.486	-1506
1029.552	-2088
1029.619	-968
1029.685	-1774
1029.751	-2271
1029.818	-1292
1029.884	-1828
1029.951	-945
1030.017	-1644
1030.083	-1773
1030.149	-1049
1030.216	-2827
1030.282	-1271
1030.348	-2250
1030.414	-1835
1030.480	-2308
1030.546	-1761
1030.612	-1565
1030.678	-1865
1030.744	-1519
1030.810	-1691
1030.876	-1388
1030.942	-1915
1031.008	-2676
1031.074	-1702
1031.140	-2038
1031.206	-1386
1031.272	-2066
1031.337	-1763
1031.403	-466
1031.469	-1477
1031.534	-2163
1031.600	-1723
1031.666	-1593
1031.731	-2629
1031.797	-2011
1031.863	-1773
1031.928	-2345
1031.994	-1980
1032.059	-1424
1032.125	-1614
1032.190	-2208
1032.256	-1825
1032.321	-1591
1032.386	-1655
1032.452	-1239
1032.517	-1451
1032.582	-2103
1032.647	-1755
1032.713	-1828
1032.778	-1020
1032.843	-2074
1032.908	-1732
1032.974	-1510
1033.039	-1566
1033.104	-2350
1033.169	-1965
1033.234	-1992
1033.299	-1527
1033.364	-1556
1033.429	-1268
1033.494	-1753
1033.559	-2020
1033.624	-2310
1033.688	-866
1033.753	-2461
1033.818	-1596
1033.883	-1814
1033.948	-1955
1034.013	-3006
1034.077	-1173
1034.142	-1657
1034.207	-1290
1034.271	-1529
1034.336	-169
1034.400	-1272
1034.465	-827
1034.530	-2226
1034.594	-1988
1034.658	-2636
1034.723	-2546
1034.787	-2175
1034.852	-1701
1034.916	-2416
1034.981	-1807
1035.045	-2222
1035.109	-1642
1035.173	-1727
1035.238	-1055
1035.302	-1856
1035.366	-1565
1035.430	-2252
1035.495	-1950
1035.559	-1740
1035.623	-2013
1035.687	-3104
1035.751	-1559
1035.815	-2134
1035.879	-2399
1035.943	-2535
1036.007	-1967
1036.071	-1443
1036.135	-1427
1036.198	-2073
1036.262	-1528
1036.326	-1492
1036.390	-1367
1036.454	-2307
1036.517	-1759
1036.581	-1890
1036.645	-1076
1036.709	-1274
1036.772	-1093
1036.836	-2171
1036.900	-1643
1036.963	-2545
1037.026	-2244
1037.090	-1748
1037.154	-1288
1037.217	-2187
1037.280	-2556
1037.344	-2306
1037.407	-1610
1037.471	-1918
1037.534	-1925
1037.597	-2234
1037.661	-2182
1037.724	-2059
1037.787	-2217
1037.850	-2259
1037.913	-2076
1037.977	-2205
1038.040	-2232
1038.103	-1929
1038.166	-2448
1038.229	-1939
1038.292	-1870
1038.355	-2124
1038.418	-1450
1038.481	-1881
1038.544	-2010
1038.607	-1669
1038.670	-1695
1038.732	-3038
1038.795	-2412
1038.858	-1536
1038.921	-1004
1038.984	-2120
1039.046	-2357
1039.109	-1884
1039.172	-2126
1039.234	-2481
1039.297	-2722
1039.360	-1780
1039.422	-2126
1039.485	-2469
1039.547	-2346
1039.610	-1523
1039.672	-1728
1039.734	-2912
1039.797	-2024
1039.859	-2157
1039.922	-1645
1039.984	-2525
1040.046	-1685
1040.109	-1424
1040.171	-2620
1040.233	-1939
1040.295	-1875
1040.358	-2418
1040.420	-2116
1040.482	-2168
1040.544	-1637
1040.606	-2090
1040.668	-1463
1040.730	-2280
1040.792	-2100
1040.854	-2621
1040.916	-1375
1040.978	-3227
1041.040	-2092
1041.102	-3186
1041.164	-2406
1041.225	-3007
1041.287	-2832
1041.349	-2485
1041.411	-2749
1041.472	-2897
1041.534	-1918
1041.596	-2794
1041.657	-1574
1041.719	-2056
1041.781	-1824
1041.842	-2847
1041.904	-2106
1041.965	-2160
1042.027	-1560
1042.088	-2195
1042.150	-1729
1042.211	-2136
1042.272	-1834
1042.334	-2785
1042.395	-1982
1042.456	-2291
1042.518	-1602
1042.579	-2609
1042.640	-2151
1042.701	-2673
1042.763	-1999
1042.824	-2315
1042.885	-2118
1042.946	-2647
1043.007	-1798
1043.068	-3128
1043.129	-2657
1043.190	-1741
1043.251	-1749
1043.312	-1656
1043.373	-1756
1043.434	-2577
1043.495	-1472
1043.556	-1972
1043.616	-1640
1043.677	-2348
1043.738	-2269
1043.799	-2591
1043.859	-1306
1043.920	-2193
1043.981	-1551
1044.041	-3103
1044.102	-1903
1044.162	-2308
1044.223	-2152
1044.284	-2362
1044.344	-2262
1044.405	-2686
1044.465	-1939
1044.525	-1913
1044.586	-2016
1044.646	-2243
1044.707	-1002
1044.767	-2362
1044.827	-2065
1044.887	-2326
1044.948	-1722
1045.008	-1908
1045.068	-1852
1045.128	-1717
1045.188	-1941
1045.249	-2104
1045.309	-2035
1045.369	-1949
1045.429	-1139
1045.489	-2105
1045.549	-1184
1045.609	-2381
1045.669	-2361
1045.729	-1852
1045.789	-2340
1045.848	-2075
1045.908	-1353
1045.968	-2204
1046.028	-972
1046.088	-1744
1046.147	-1167
1046.207	-2042
1046.267	-1339
1046.326	-1183
1046.386	-1131
1046.446	-2121
1046.505	-1138
1046.565	-870
1046.624	-407
1046.684	-1486
1046.743	-1168
1046.803	-1032
1046.862	-416
1046.922	0
