'Start Wavelength	183.907
'End Wavelength	1046.922
'Gate Delay	5.000
'Gate Width (ms)	1.050
'Laser Output Level	0.000
'X Position	0.000
'Y Position	0.000
'Z Position	0.000
'Grid Point Number	1.000
'Shot Number	100.000
183.907	1026.000
183.977	-252.000
184.047	273
184.116	569
184.186	585
184.256	-432
184.325	161
184.395	-886
184.465	1318
184.534	-93
184.604	-534
184.674	470
184.743	-568
184.813	139
184.883	403
184.952	551
185.022	502
185.092	252
185.161	83
185.231	255
185.301	96
185.370	653
185.440	-131
185.509	-178
185.579	25
185.649	102
185.718	-50
185.788	464
185.857	567
185.927	-288
185.996	-253
186.066	-57
186.136	-63
186.205	-349
186.275	-42
186.344	172
186.414	506
186.483	-602
186.553	632
186.622	1488
186.692	777
186.761	-336
186.831	463
186.900	-3
186.970	969
187.039	277
187.109	685
187.178	-104
187.248	827
187.317	750
187.387	-318
187.456	461
187.526	546
187.595	357
187.664	86
187.734	177
187.803	1124
187.873	290
187.942	1288
188.012	917
188.081	-339
188.150	951
188.220	820
188.289	1055
188.358	808
188.428	245
188.497	-190
188.567	303
188.636	527
188.705	858
188.775	265
188.844	226
188.913	301
188.983	-31
189.052	703
189.121	-646
189.191	808
189.260	756
189.329	194
189.399	-345
189.468	1082
189.537	186
189.606	1332
189.676	1422
189.745	642
189.814	343
189.883	-16
189.953	594
190.022	536
190.091	1394
190.161	2693
190.230	661
190.299	729
190.368	186
190.437	-250
190.507	239
190.576	676
190.645	680
190.714	170
190.783	36
190.853	1535
190.922	876
190.991	505
191.060	-141
191.129	-286
191.198	271
191.268	381
191.337	1158
191.406	831
191.475	723
191.544	80
191.613	309
191.682	148
191.752	320
191.821	-344
191.890	-72
191.959	886
192.028	971
192.097	713
192.166	403
192.235	-402
192.304	479
192.373	376
192.442	-303
192.511	608
192.580	-131
192.650	995
192.719	911
192.788	969
192.857	485
192.926	1551
192.995	713
193.064	1707
193.133	1015
193.202	1360
193.271	1481
193.340	1436
193.409	789
193.478	2109
193.547	2094
193.615	3108
193.684	2438
193.753	1074
193.822	1029
193.891	1076
193.960	1050
194.029	530
194.098	476
194.167	211
194.236	346
194.305	379
194.374	-237
194.443	569
194.512	603
194.580	759
194.649	1309
194.718	1400
194.787	1183
194.856	1404
194.925	820
194.994	799
195.062	967
195.131	862
195.200	550
195.269	1519
195.338	1810
195.407	1237
195.475	823
195.544	226
195.613	933
195.682	1296
195.751	1257
195.819	1050
195.888	1335
195.957	1578
196.026	1763
196.094	2023
196.163	837
196.232	1190
196.301	675
196.369	790
196.438	-41
196.507	221
196.576	898
196.644	971
196.713	28
196.782	1113
196.850	365
196.919	1000
196.988	299
197.056	749
197.125	-105
197.194	1328
197.262	902
197.331	1342
197.400	1234
197.468	646
197.537	346
197.606	1061
197.674	1118
197.743	2190
197.812	1023
197.880	2452
197.949	1410
198.017	2719
198.086	1825
198.155	1643
198.223	1146
198.292	2866
198.360	693
198.429	1267
198.497	447
198.566	1877
198.635	3498
198.703	1746
198.772	594
198.840	3066
198.909	2841
198.977	1333
199.046	1349
199.114	1134
199.183	489
199.251	607
199.320	595
199.388	941
199.457	499
199.525	1163
199.594	1184
199.662	934
199.731	768
199.799	1346
199.867	1033
199.936	590
200.004	1304
200.073	1061
200.141	1694
200.210	1372
200.278	1350
200.346	1285
200.415	726
200.483	1446
200.552	1610
200.620	680
200.688	1063
200.757	1349
200.825	1348
200.893	547
200.962	217
201.030	1261
201.098	364
201.167	1486
201.235	622
201.303	1735
201.372	1410
201.440	1483
201.508	1487
201.577	1229
201.645	903
201.713	1917
201.781	904
201.850	1658
201.918	1177
201.986	1269
202.055	1464
202.123	857
202.191	366
202.259	630
202.327	599
202.396	1223
202.464	1703
202.532	1526
202.600	5108
202.669	3078
202.737	1548
202.805	1300
202.873	281
202.941	974
203.009	919
203.078	922
203.146	779
203.214	711
203.282	1406
203.350	1250
203.418	1711
203.487	1648
203.555	891
203.623	1035
203.691	512
203.759	1041
203.827	747
203.895	1060
203.963	1082
204.031	1188
204.099	900
204.168	1126
204.236	1411
204.304	2033
204.372	1494
204.440	1321
204.508	572
204.576	1222
204.644	1296
204.712	169
204.780	1177
204.848	1414
204.916	1055
204.984	1965
205.052	1430
205.120	791
205.188	1273
205.256	897
205.324	791
205.392	1119
205.460	1234
205.528	1314
205.596	851
205.664	1363
205.732	814
205.799	3690
205.867	5133
205.935	1977
206.003	1516
206.071	1393
206.139	790
206.207	1652
206.275	1352
206.343	1061
206.411	985
206.478	1271
206.546	925
206.614	1801
206.682	1359
206.750	1370
206.818	1983
206.885	1945
206.953	874
207.021	1882
207.089	919
207.157	1090
207.225	1083
207.292	1260
207.360	261
207.428	1334
207.496	1047
207.563	1423
207.631	1420
207.699	955
207.767	1458
207.834	738
207.902	672
207.970	1340
208.038	923
208.105	607
208.173	1935
208.241	2372
208.309	2499
208.376	2111
208.444	3847
208.512	1982
208.579	-141
208.647	2871
208.715	1658
208.782	1310
208.850	1592
208.918	1264
208.985	1960
209.053	1495
209.120	1975
209.188	1933
209.256	1794
209.323	709
209.391	1338
209.459	3059
209.526	1618
209.594	1594
209.661	1174
209.729	1576
209.796	2065
209.864	2091
209.932	922
209.999	2194
210.067	2219
210.134	2429
210.202	1167
210.269	3272
210.337	3808
210.404	2575
210.472	1149
210.539	2578
210.607	1572
210.674	2216
210.742	2332
210.809	1925
210.877	1446
210.944	3096
211.012	728
211.079	3305
211.146	1982
211.214	2267
211.281	2358
211.349	2996
211.416	2313
211.484	2378
211.551	2293
211.618	2768
211.686	1942
211.753	1980
211.821	2294
211.888	2047
211.955	1538
212.023	2535
212.090	1830
212.157	2030
212.225	2855
212.292	4210
212.359	6013
212.427	14833
212.494	7336
212.561	3780
212.629	2287
212.696	2768
212.763	2914
212.831	1101
212.898	2747
212.965	1623
213.032	2134
213.100	2840
213.167	2501
213.234	2910
213.301	2383
213.369	1722
213.436	1815
213.503	1498
213.570	2172
213.638	3229
213.705	1361
213.772	1567
213.839	2124
213.906	3077
213.973	1909
214.041	2058
214.108	1981
214.175	2897
214.242	2483
214.309	2803
214.376	2764
214.444	2318
214.511	1878
214.578	2474
214.645	2433
214.712	3059
214.779	2458
214.846	2756
214.913	3368
214.980	3678
215.048	3233
215.115	4151
215.182	3868
215.249	2248
215.316	2480
215.383	2801
215.450	1989
215.517	1819
215.584	2301
215.651	2159
215.718	1960
215.785	2715
215.852	1808
215.919	3624
215.986	3308
216.053	2589
216.120	1910
216.187	3290
216.254	3387
216.321	1908
216.388	2428
216.455	2815
216.522	2666
216.589	3594
216.656	5493
216.722	5548
216.789	3838
216.856	4482
216.923	3584
216.990	3444
217.057	3273
217.124	5541
217.191	3336
217.258	4577
217.324	5676
217.391	5961
217.458	4392
217.525	3566
217.592	3827
217.659	2953
217.725	3399
217.792	4569
217.859	3555
217.926	1965
217.993	1635
218.059	2591
218.126	2299
218.193	1219
218.260	1361
218.327	1990
218.393	1389
218.460	2139
218.527	970
218.594	2504
218.660	4585
218.727	3991
218.794	1312
218.860	2718
218.927	1158
218.994	2657
219.061	2203
219.127	2788
219.194	4550
219.261	2205
219.327	1979
219.394	1293
219.461	845
219.527	2033
219.594	3615
219.661	2695
219.727	865
219.794	2916
219.860	1493
219.927	2279
219.994	3157
220.060	5890
220.127	4509
220.193	3012
220.260	2429
220.326	5204
220.393	6546
220.460	8726
220.526	5680
220.593	3585
220.659	4296
220.726	4339
220.792	9486
220.859	8900
220.925	11033
220.992	13673
221.058	12191
221.125	11627
221.191	8601
221.258	4494
221.324	3891
221.391	2667
221.457	2072
221.524	2682
221.590	3525
221.657	9276
221.723	5486
221.789	6360
221.856	5689
221.922	3610
221.989	3097
222.055	2058
222.121	827
222.188	4234
222.254	2438
222.321	1665
222.387	1617
222.453	1684
222.520	1574
222.586	2149
222.652	1179
222.719	1126
222.785	2079
222.851	1223
222.918	1385
222.984	1282
223.050	1425
223.116	689
223.183	2527
223.249	1312
223.315	946
223.382	2249
223.448	1762
223.514	918
223.580	674
223.647	1328
223.713	1239
223.779	1613
223.845	1402
223.911	1385
223.978	-48
224.044	1813
224.110	972
224.176	1631
224.242	1509
224.309	155
224.375	1558
224.441	1136
224.507	765
224.573	1793
224.639	1848
224.705	716
224.772	1152
224.838	761
224.904	2227
224.970	1783
225.036	1248
225.102	1779
225.168	2164
225.234	1904
225.300	1081
225.366	1945
225.432	994
225.499	1780
225.565	1732
225.631	2070
225.697	2135
225.763	2786
225.829	2934
225.895	3944
225.961	4787
226.027	5078
226.093	3591
226.159	5274
226.225	6656
226.291	14322
226.357	20700
226.423	12226
226.489	7352
226.554	4907
226.620	4704
226.686	6461
226.752	9045
226.818	14320
226.884	25981
226.950	22038
227.016	10958
227.082	6831
227.148	4542
227.214	6109
227.279	4447
227.345	2722
227.411	3538
227.477	3699
227.543	6550
227.609	7708
227.674	4733
227.740	3646
227.806	3441
227.872	2403
227.938	3241
228.003	5122
228.069	2487
228.135	1450
228.201	1491
228.267	2775
228.332	2547
228.398	2612
228.464	2233
228.530	1577
228.595	2027
228.661	1636
228.727	3429
228.792	3333
228.858	1768
228.924	1445
228.990	3213
229.055	2543
229.121	3309
229.187	2275
229.252	2796
229.318	1717
229.384	1938
229.449	1954
229.515	47
229.581	1504
229.646	2022
229.712	2235
229.777	4844
229.843	5868
229.909	4313
229.974	5117
230.040	4228
230.105	2776
230.171	2635
230.236	4097
230.302	5761
230.368	4337
230.433	3223
230.499	3282
230.564	3963
230.630	2573
230.695	1400
230.761	2155
230.826	1068
230.892	4979
230.957	1911
231.023	1609
231.088	2045
231.154	1677
231.219	2571
231.284	3045
231.350	3715
231.415	2796
231.481	2395
231.546	1348
231.612	1163
231.677	736
231.742	1488
231.808	2853
231.873	1123
231.939	606
232.004	4611
232.069	3911
232.135	2283
232.200	1433
232.265	2002
232.331	1458
232.396	1893
232.461	1328
232.527	1285
232.592	1573
232.657	1947
232.723	4493
232.788	3321
232.853	2484
232.918	1187
232.984	1554
233.049	1852
233.114	3758
233.179	3907
233.245	5945
233.310	5926
233.375	1631
233.440	2189
233.506	1851
233.571	858
233.636	1877
233.701	1236
233.766	4182
233.832	5489
233.897	2473
233.962	1288
234.027	3999
234.092	3450
234.157	2613
234.222	2331
234.288	3806
234.353	12163
234.418	11084
234.483	7233
234.548	5100
234.613	3984
234.678	2970
234.743	4035
234.808	13253
234.873	8261
234.938	4314
235.004	2818
235.069	3813
235.134	1980
235.199	2937
235.264	2505
235.329	1876
235.394	2525
235.459	4667
235.524	3326
235.589	2746
235.654	1749
235.719	1505
235.784	2665
235.849	2720
235.913	7142
235.978	9104
236.043	9763
236.108	3792
236.173	3314
236.238	3484
236.303	2744
236.368	2488
236.433	5278
236.498	8847
236.563	6339
236.627	11586
236.692	33793
236.757	29107
236.822	13399
236.887	10207
236.952	7541
237.017	5182
237.081	7735
237.146	8678
237.211	17428
237.276	33290
237.341	49226
237.405	28322
237.470	12510
237.535	9215
237.600	5185
237.664	4904
237.729	2413
237.794	5243
237.859	11577
237.923	9318
237.988	4610
238.053	6993
238.118	7019
238.182	16059
238.247	14856
238.312	8037
238.376	6321
238.441	4284
238.506	5249
238.570	2660
238.635	3245
238.700	2312
238.764	2495
238.829	7823
238.893	8293
238.958	5186
239.023	4748
239.087	2621
239.152	3133
239.216	2569
239.281	2680
239.346	2496
239.410	1520
239.475	3385
239.539	16730
239.604	11616
239.668	3910
239.733	2633
239.797	4865
239.862	12269
239.926	14961
239.991	5958
240.055	3628
240.120	3212
240.184	3570
240.249	1715
240.313	1970
240.378	2194
240.442	9200
240.507	14351
240.571	4610
240.635	7372
240.700	9024
240.764	4262
240.829	2682
240.893	980
240.957	2401
241.022	8461
241.086	15916
241.151	7286
241.215	1890
241.279	6090
241.344	8191
241.408	5134
241.472	2656
241.537	4842
241.601	3569
241.665	2188
241.730	2079
241.794	4561
241.858	2974
241.922	2768
241.987	3555
242.051	2161
242.115	1658
242.179	2941
242.244	2261
242.308	3545
242.372	2740
242.436	3332
242.501	2981
242.565	2804
242.629	2296
242.693	2905
242.757	1478
242.822	2709
242.886	3121
242.950	4212
243.014	2610
243.078	4659
243.142	4210
243.206	3495
243.271	4257
243.335	2426
243.399	6037
243.463	18862
243.527	44939
243.591	16517
243.655	7477
243.719	3772
243.783	5028
243.847	6932
243.911	9635
243.975	13643
244.040	9611
244.104	6105
244.168	3379
244.232	7676
244.296	9187
244.360	9193
244.424	5682
244.488	4853
244.552	5223
244.615	2052
244.679	2953
244.743	4853
244.807	4885
244.871	3650
244.935	2832
244.999	2111
245.063	3296
245.127	4324
245.191	6164
245.255	5858
245.319	5550
245.383	4328
245.446	5060
245.510	2529
245.574	3887
245.638	4612
245.702	2643
245.766	9905
245.829	6919
245.893	4783
245.957	3059
246.021	4397
246.085	4547
246.149	5501
246.212	13668
246.276	18852
246.340	10008
246.404	6293
246.467	6893
246.531	8765
246.595	6720
246.659	5893
246.722	4817
246.786	7333
246.850	7399
246.913	8554
246.977	4412
247.041	4555
247.104	5143
247.168	5933
247.232	13120
247.295	24689
247.359	13103
247.423	6745
247.486	10891
247.550	7677
247.614	5678
247.677	8362
247.741	5850
247.804	4244
247.868	5106
247.932	10238
247.995	24796
248.059	10227
248.122	4529
248.186	7010
248.249	12077
248.313	38580
248.376	40388
248.440	26727
248.503	10354
248.567	9212
248.630	11574
248.694	16693
248.757	21179
248.821	41950
248.884	26219
248.948	22725
249.011	31990
249.075	47486
249.138	41756
249.202	18439
249.265	10861
249.328	14567
249.392	9411
249.455	7956
249.519	5398
249.582	8983
249.645	13127
249.709	9962
249.772	6913
249.835	7555
249.899	7531
249.962	6051
250.025	6520
250.089	15678
250.152	22542
250.215	12415
250.279	8095
250.342	8385
250.405	8203
250.468	6130
250.532	8894
250.595	13164
250.658	41766
250.721	67604
250.785	27979
250.848	16318
250.911	8372
250.974	8345
251.038	12702
251.101	25215
251.164	13731
251.227	14311
251.290	12440
251.354	16849
251.417	58404
251.480	59044
251.543	43330
251.606	97836
251.669	79608
251.732	34778
251.795	34859
251.859	33690
251.922	66292
251.985	42764
252.048	17697
252.111	13919
252.174	12580
252.237	23719
252.300	49643
252.363	51529
252.426	84555
252.489	42074
252.552	24311
252.615	16148
252.678	16076
252.741	36189
252.804	44358
252.867	86257
252.930	59884
252.993	33049
253.056	20873
253.119	15873
253.182	11866
253.245	19263
253.308	16783
253.371	17012
253.434	15676
253.497	14472
253.559	23621
253.622	17821
253.685	25153
253.748	25864
253.811	12343
253.874	16162
253.937	14703
254.000	11132
254.062	17437
254.125	25635
254.188	24855
254.251	20710
254.314	10596
254.376	20418
254.439	21471
254.502	19132
254.565	17888
254.628	31667
254.690	20735
254.753	11535
254.816	9528
254.878	10962
254.941	17836
255.004	18496
255.067	9870
255.129	9902
255.192	6427
255.255	5740
255.317	7296
255.380	5468
255.443	3378
255.505	4393
255.568	3652
255.631	4568
255.693	5024
255.756	3732
255.819	4720
255.881	3451
255.944	3663
256.006	3441
256.069	3778
256.132	4212
256.194	5144
256.257	16538
256.319	11618
256.382	11193
256.444	6399
256.507	4841
256.569	3952
256.632	4841
256.694	8407
256.757	18856
256.819	52781
256.882	24834
256.944	9955
257.007	9171
257.069	9268
257.132	5989
257.194	5091
257.257	4282
257.319	5010
257.381	5834
257.444	14788
257.506	59690
257.569	70360
257.631	36411
257.693	19041
257.756	10516
257.818	8844
257.880	6218
257.943	4922
258.005	4459
258.067	3863
258.130	5055
258.192	6471
258.254	14552
258.317	8032
258.379	5215
258.441	12365
258.503	12499
258.566	16565
258.628	21277
258.690	5732
258.753	5938
258.815	12145
258.877	7139
258.939	3945
259.001	4256
259.064	3820
259.126	6175
259.188	8644
259.250	4680
259.312	6989
259.375	16066
259.437	10984
259.499	4978
259.561	4409
259.623	5480
259.685	4490
259.747	4757
259.809	15212
259.872	27844
259.934	41775
259.996	38487
260.058	12112
260.120	5500
260.182	4857
260.244	3140
260.306	3450
260.368	4528
260.430	3306
260.492	8827
260.554	15995
260.616	12227
260.678	23185
260.740	31505
260.802	8277
260.864	6798
260.926	5176
260.988	6323
261.050	4901
261.112	11975
261.174	31507
261.236	24095
261.298	7673
261.359	14108
261.421	21293
261.483	5532
261.545	5839
261.607	3403
261.669	4015
261.731	9270
261.793	23153
261.854	10282
261.916	7236
261.978	5518
262.040	5671
262.102	5729
262.164	9931
262.225	7734
262.287	4436
262.349	12679
262.411	9716
262.472	4486
262.534	8517
262.596	19759
262.658	7429
262.719	4358
262.781	6115
262.843	19884
262.904	9522
262.966	6683
263.028	6742
263.090	31780
263.151	79295
263.213	28598
263.275	16237
263.336	7676
263.398	5200
263.459	3228
263.521	4004
263.583	11522
263.644	8766
263.706	4025
263.767	2211
263.829	2873
263.891	2099
263.952	2598
264.014	1944
264.075	5244
264.137	14355
264.198	7906
264.260	2227
264.321	2137
264.383	9313
264.444	21941
264.506	7245
264.567	4797
264.629	8076
264.690	14374
264.752	7677
264.813	4896
264.875	3833
264.936	4445
264.998	2943
265.059	2466
265.120	3470
265.182	4960
265.243	29027
265.305	30230
265.366	7394
265.427	4634
265.489	4408
265.550	2181
265.611	3660
265.673	3899
265.734	3086
265.795	2691
265.857	2473
265.918	3365
265.979	7564
266.040	44856
266.102	38669
266.163	12825
266.224	9786
266.286	5689
266.347	2520
266.408	3254
266.469	5148
266.530	3548
266.592	3138
266.653	7913
266.714	13895
266.775	5634
266.836	3703
266.898	2080
266.959	5933
267.020	3710
267.081	3594
267.142	1898
267.203	3587
267.264	2512
267.326	4432
267.387	2660
267.448	1959
267.509	2866
267.570	2995
267.631	2165
267.692	1902
267.753	2827
267.814	2054
267.875	6877
267.936	15551
267.997	7844
268.058	6632
268.119	4055
268.180	3277
268.241	2636
268.302	3142
268.363	2284
268.424	3459
268.485	3576
268.546	2200
268.607	2039
268.668	1799
268.729	1922
268.790	2500
268.851	3483
268.912	10194
268.972	12631
269.033	6761
269.094	2543
269.155	2190
269.216	2446
269.277	4017
269.338	3203
269.398	3356
269.459	3791
269.520	5278
269.581	8109
269.642	9152
269.702	6820
269.763	4500
269.824	3659
269.885	5021
269.945	8491
270.006	4006
270.067	2339
270.128	2478
270.188	2693
270.249	2439
270.310	2558
270.370	2561
270.431	3082
270.492	1870
270.553	2706
270.613	7099
270.674	17464
270.734	6169
270.795	3409
270.856	6236
270.916	4930
270.977	3344
271.038	4171
271.098	4608
271.159	8828
271.219	8100
271.280	3718
271.340	2748
271.401	3771
271.462	13654
271.522	6918
271.583	4265
271.643	4617
271.704	3699
271.764	4826
271.825	12063
271.885	38896
271.946	51418
272.006	17373
272.066	22002
272.127	38273
272.187	12743
272.248	7216
272.308	6444
272.369	25380
272.429	14269
272.489	12913
272.550	12882
272.610	14399
272.671	10265
272.731	10172
272.791	17353
272.852	9111
272.912	9163
272.972	4492
273.033	5014
273.093	9108
273.153	8483
273.214	6292
273.274	5595
273.334	19713
273.394	38937
273.455	18534
273.515	15735
273.575	35687
273.635	15110
273.696	21110
273.756	37666
273.816	16262
273.876	9049
273.936	20313
273.997	34999
274.057	10285
274.117	7453
274.177	9899
274.237	45502
274.297	40998
274.358	31292
274.418	30014
274.478	25080
274.538	9437
274.598	6926
274.658	29581
274.718	39578
274.778	15620
274.838	7359
274.898	16961
274.958	53343
275.018	41764
275.078	26372
275.138	11685
275.198	6346
275.258	5320
275.318	6432
275.378	14007
275.438	15033
275.498	8891
275.558	21912
275.618	45692
275.678	28096
275.738	18271
275.798	12981
275.858	7330
275.918	3851
275.978	5048
276.038	5812
276.098	4191
276.157	9987
276.217	30820
276.277	13786
276.337	10906
276.397	5678
276.457	7139
276.517	4981
276.576	3949
276.636	3814
276.696	7648
276.756	18854
276.815	14204
276.875	6416
276.935	8032
276.995	7490
277.055	4524
277.114	4008
277.174	6635
277.234	23065
277.293	10820
277.353	7441
277.413	4413
277.472	5334
277.532	5915
277.592	6084
277.651	21184
277.711	39109
277.771	13128
277.830	47606
277.890	37286
277.950	26154
278.009	69648
278.069	26384
278.128	28717
278.188	41001
278.248	18561
278.307	45461
278.367	27643
278.426	9631
278.486	6160
278.545	4982
278.605	4973
278.664	4959
278.724	5735
278.783	14281
278.843	37753
278.902	11980
278.962	8531
279.021	9855
279.081	15237
279.140	15273
279.199	11764
279.259	10327
279.318	10911
279.378	13679
279.437	23628
279.496	71974
279.556	190210
279.615	164107
279.675	55995
279.734	29579
279.793	43296
279.853	57026
279.912	21967
279.971	13110
280.031	11996
280.090	18867
280.149	34273
280.208	33026
280.268	134427
280.327	140913
280.386	43428
280.445	29073
280.505	25304
280.564	11959
280.623	9911
280.682	14398
280.742	21044
280.801	8574
280.860	6062
280.919	5428
280.978	5816
281.037	5740
281.097	4892
281.156	5734
281.215	4461
281.274	5509
281.333	25325
281.392	19595
281.451	5914
281.510	4193
281.569	4155
281.628	3463
281.688	3385
281.747	5367
281.806	4970
281.865	4034
281.924	3605
281.983	2875
282.042	2562
282.101	3434
282.160	3271
282.219	2243
282.278	3937
282.337	16071
282.396	11197
282.454	4357
282.513	5702
282.572	24446
282.631	14582
282.690	5341
282.749	4164
282.808	6027
282.867	5793
282.926	5702
282.985	4043
283.043	3191
283.102	4200
283.161	4524
283.220	11779
283.279	27010
283.338	8947
283.396	5238
283.455	5441
283.514	6080
283.573	9880
283.631	7329
283.690	5693
283.749	5715
283.808	11562
283.866	14422
283.925	5562
283.984	5626
284.043	8321
284.101	9978
284.160	6339
284.219	8385
284.277	6731
284.336	10899
284.395	35343
284.453	27936
284.512	12231
284.570	16403
284.629	15350
284.688	13728
284.746	15518
284.805	18630
284.863	24809
284.922	29925
284.981	34444
285.039	50454
285.098	82546
285.156	160262
285.215	189414
285.273	195167
285.332	171108
285.390	103445
285.449	66154
285.507	44975
285.566	32798
285.624	25729
285.683	19019
285.741	15980
285.799	14707
285.858	13835
285.916	11779
285.975	9546
286.033	8130
286.091	8259
286.150	6378
286.208	6608
286.267	7927
286.325	8110
286.383	12174
286.442	10591
286.500	6179
286.558	5104
286.616	5215
286.675	7302
286.733	5916
286.791	6310
286.850	7210
286.908	9084
286.966	15681
287.024	6367
287.083	5181
287.141	4301
287.199	5306
287.257	7714
287.315	6150
287.374	6383
287.432	15533
287.490	10471
287.548	6987
287.606	4555
287.664	4687
287.723	7989
287.781	9970
287.839	5661
287.897	6695
287.955	7684
288.013	10079
288.071	21650
288.129	94501
288.187	237807
288.245	119640
288.303	41794
288.361	22070
288.419	15905
288.477	11044
288.535	7032
288.593	6856
288.651	5440
288.709	4244
288.767	3986
288.825	4839
288.883	3919
288.941	3321
288.999	3781
289.057	4358
289.115	3671
289.173	3695
289.231	4705
289.289	4897
289.346	4198
289.404	5444
289.462	9391
289.520	10143
289.578	5584
289.636	2908
289.694	2762
289.751	1919
289.809	2003
289.867	3538
289.925	4143
289.983	6579
290.040	3211
290.098	2976
290.156	4176
290.214	6044
290.271	3289
290.329	3148
290.387	2541
290.444	2515
290.502	2150
290.560	2645
290.617	2808
290.675	3876
290.733	2067
290.790	4954
290.848	2831
290.906	4900
290.963	4400
291.021	4234
291.078	3122
291.136	3355
291.194	12671
291.251	29225
291.309	8032
291.366	3646
291.424	2540
291.481	3148
291.539	4096
291.596	4357
291.654	2718
291.711	2173
291.769	3919
291.826	10231
291.884	6930
291.941	2831
291.999	3429
292.056	4299
292.114	4850
292.171	3510
292.228	3633
292.286	5636
292.343	11485
292.401	16032
292.458	9976
292.515	6298
292.573	6642
292.630	6680
292.687	6926
292.745	4575
292.802	5697
292.859	17908
292.917	32583
292.974	18554
293.031	6431
293.089	4254
293.146	3258
293.203	3317
293.260	2901
293.318	5228
293.375	7212
293.432	4444
293.489	3053
293.546	2993
293.604	6142
293.661	19918
293.718	49799
293.775	25922
293.832	13521
293.889	11033
293.947	9773
294.004	6970
294.061	5942
294.118	14183
294.175	29967
294.232	35768
294.289	15068
294.346	8816
294.403	7211
294.460	7437
294.517	4798
294.574	6149
294.631	3450
294.688	4858
294.745	13300
294.802	52586
294.859	56213
294.916	22908
294.973	14175
295.030	11443
295.087	9088
295.144	6265
295.201	5004
295.258	4146
295.315	5068
295.372	20323
295.429	38500
295.486	17045
295.542	8616
295.599	22552
295.656	36384
295.713	26838
295.770	36347
295.827	14519
295.883	7470
295.940	6245
295.997	13616
296.054	13267
296.111	6652
296.167	4615
296.224	3772
296.281	4171
296.338	3121
296.394	3801
296.451	3924
296.508	16441
296.564	31330
296.621	20702
296.678	43629
296.734	61114
296.791	24448
296.848	12047
296.904	12766
296.961	29107
297.018	43912
297.074	30952
297.131	12437
297.187	8151
297.244	10846
297.301	39774
297.357	67904
297.414	26412
297.470	10906
297.527	7098
297.583	6627
297.640	7332
297.696	4290
297.753	4805
297.809	3656
297.866	2921
297.922	3087
297.979	2771
298.035	4321
298.092	8855
298.148	25167
298.204	23844
298.261	10784
298.317	19535
298.374	51881
298.430	31452
298.486	16911
298.543	12174
298.599	8610
298.656	8699
298.712	17871
298.768	43401
298.824	30092
298.881	12473
298.937	6835
298.993	6923
299.050	8133
299.106	8116
299.162	6437
299.218	7284
299.275	5115
299.331	5695
299.387	11715
299.443	46676
299.500	51292
299.556	21639
299.612	11048
299.668	9721
299.724	13903
299.780	14750
299.837	8209
299.893	11361
299.949	41382
300.005	48086
300.061	42122
300.117	65709
300.173	33089
300.229	15828
300.285	19585
300.341	23212
300.397	12141
300.453	7262
300.510	5800
300.566	6197
300.622	7544
300.678	26946
300.734	48454
300.790	42603
300.845	44885
300.901	33086
300.957	47051
301.013	34465
301.069	14049
301.125	10393
301.181	11603
301.237	8636
301.293	5730
301.349	4948
301.405	4744
301.461	4965
301.516	4945
301.572	6496
301.628	14606
301.684	12408
301.740	18383
301.796	27017
301.851	19195
301.907	32445
301.963	29446
302.019	47054
302.074	124436
302.130	124423
302.186	58613
302.242	25921
302.297	15226
302.353	14417
302.409	27969
302.464	22986
302.520	19124
302.576	51254
302.631	55945
302.687	34842
302.743	15392
302.798	8681
302.854	6630
302.910	6932
302.965	9490
303.021	18610
303.076	17070
303.132	23419
303.187	27284
303.243	15302
303.299	8368
303.354	6752
303.410	5340
303.465	5168
303.521	4860
303.576	4805
303.632	6063
303.687	13393
303.743	40414
303.798	35026
303.853	15730
303.909	9531
303.964	7811
304.020	12681
304.075	18613
304.130	18665
304.186	33544
304.241	35201
304.297	27975
304.352	15600
304.358	14869
304.407	8946
304.449	9096
304.463	9158
304.518	8430
304.539	7842
304.573	6909
304.629	6543
304.630	6628
304.684	10696
304.720	25139
304.739	32436
304.794	45819
304.811	39630
304.850	24982
304.902	12831
304.905	12047
304.960	8066
304.992	8090
305.015	8114
305.071	8341
305.083	8024
305.126	6797
305.173	4889
305.181	4593
305.236	4171
305.264	4526
305.292	4866
305.347	7796
305.354	7798
305.402	7897
305.445	8199
305.457	8260
305.512	10687
305.535	10807
305.567	11020
305.622	9841
305.626	10177
305.678	16909
305.716	36824
305.733	44549
305.788	47188
305.807	41188
305.843	30495
305.897	38979
305.898	39072
305.953	38356
305.988	27667
306.008	21777
306.063	13740
306.078	12747
306.118	10156
306.168	6714
306.173	6406
306.228	5028
306.259	4304
306.283	3815
306.338	4908
306.349	4921
306.393	4869
306.440	5717
306.448	5912
306.503	5845
306.530	6396
306.558	7766
306.613	20335
306.620	21886
306.668	31520
306.711	41166
306.723	42791
306.778	33953
306.801	26881
306.833	18408
306.888	9682
306.892	9385
306.943	6403
306.982	5504
306.997	5225
307.052	4606
307.072	4774
307.107	5335
307.162	6821
307.163	6872
307.217	11401
307.253	13795
307.272	14502
307.327	15760
307.343	14283
307.381	11410
307.434	10247
307.436	10348
307.491	18861
307.524	30135
307.546	35202
307.600	34720
307.614	30908
307.655	18964
307.704	10945
307.710	10440
307.765	10118
307.795	13455
307.819	16175
307.874	25371
307.885	24913
307.929	20012
307.975	14419
307.984	14084
308.038	16293
308.065	20303
308.093	31698
308.148	71180
308.156	81675
308.202	134696
308.246	157317
308.257	155927
308.312	93343
308.336	71630
308.366	55426
308.421	35203
308.426	33623
308.475	21221
308.517	15429
308.530	14016
308.585	11631
308.607	10966
308.639	10579
308.694	11218
308.697	11505
308.748	18784
308.787	27855
308.803	29342
308.857	23855
308.877	20750
308.912	17107
308.967	15845
308.967	15890
309.021	20552
309.058	26134
309.076	31225
309.130	53288
309.148	63221
309.185	101534
309.238	173121
309.239	173510
309.293	194971
309.328	180820
309.348	161681
309.402	88530
309.418	70922
309.457	49410
309.508	31916
309.511	31191
309.566	28757
309.598	30139
309.620	33684
309.674	49146
309.688	53057
309.729	52625
309.778	43479
309.783	42433
309.837	29769
309.868	23885
309.892	25015
309.946	33581
309.959	37566
310.001	47862
310.049	54083
310.055	52703
310.109	32620
310.139	21639
310.163	16824
310.218	10556
310.229	9684
310.272	7839
310.319	6534
310.326	6236
310.381	5040
310.409	4591
310.435	4615
310.489	4561
310.499	4639
310.543	4848
310.589	5263
310.598	5181
310.652	4624
310.679	4320
310.706	3967
310.760	3092
310.769	2989
310.814	2771
310.859	2686
310.868	2585
310.923	2263
310.948	2062
310.977	3011
311.031	5201
311.038	5504
311.085	4744
311.128	3726
311.139	3655
311.193	3619
311.218	3536
311.247	3305
311.301	2959
311.308	2922
311.356	3043
311.398	3290
311.410	3136
311.464	2325
311.488	2007
311.518	2084
311.572	2246
311.578	2298
311.626	3424
311.668	4368
311.680	4391
311.734	4475
311.758	4540
311.788	4193
311.842	3565
311.847	3529
311.896	5058
311.937	6497
311.950	6280
312.004	5374
312.027	4987
312.058	4260
312.112	3050
312.117	2953
312.165	2724
312.207	2581
312.297	4026
312.386	3150
312.476	3687
312.566	7471
312.656	3557
312.745	1990
312.835	3177
312.925	2615
313.015	3473
313.104	2969
313.194	2881
313.284	2595
313.374	4278
313.463	3649
313.553	3115
313.643	2370
313.732	2641
313.822	1644
313.912	2532
314.001	3085
314.091	4428
314.180	4424
314.270	5237
314.360	4912
314.449	3822
314.539	2343
314.628	2271
314.718	3017
314.808	4070
314.897	2814
314.987	2695
315.076	3786
315.166	5050
315.255	4242
315.345	4369
315.434	3696
315.524	4150
315.613	4854
315.703	6850
315.792	9791
315.881	25792
315.971	9234
316.060	9198
316.150	11664
316.239	10156
316.328	3708
316.418	2996
316.507	3162
316.597	4403
316.686	3779
316.775	5863
316.865	9943
316.954	3560
317.043	2020
317.133	2598
317.222	2135
317.311	2471
317.400	1690
317.490	5020
317.579	4947
317.668	3764
317.757	6491
317.847	18536
317.936	45824
318.025	17935
318.114	10372
318.203	6878
318.293	10162
318.382	18622
318.471	13874
318.560	19387
318.649	26379
318.738	5623
318.828	4208
318.917	4549
319.006	6741
319.095	16593
319.184	35177
319.273	20427
319.362	10366
319.451	3439
319.540	3928
319.629	11310
319.718	14535
319.807	5573
319.896	15734
319.985	43120
320.074	13636
320.163	4682
320.252	7297
320.341	6542
320.430	6252
320.519	8471
320.608	4343
320.697	3835
320.786	3661
320.875	5590
320.964	6824
321.053	11275
321.142	15788
321.230	15642
321.319	13271
321.408	28206
321.497	10775
321.586	11994
321.675	12092
321.764	10891
321.852	7128
321.941	16355
322.030	9277
322.119	12208
322.207	29335
322.296	17244
322.385	7394
322.474	12286
322.562	35459
322.651	16105
322.740	12926
322.829	17199
322.917	15097
323.006	10290
323.095	8052
323.183	5526
323.272	8464
323.361	19924
323.449	44851
323.538	14743
323.626	33396
323.715	16488
323.804	8660
323.892	31489
323.981	15042
324.069	5076
324.158	16754
324.246	13195
324.335	6080
324.424	10727
324.512	4009
324.601	4687
324.689	6878
324.778	12270
324.866	10906
324.954	3494
325.043	3075
325.131	7923
325.220	13304
325.308	13606
325.397	10037
325.485	5859
325.574	2176
325.662	2391
325.750	3087
325.839	2823
325.927	2252
326.015	3966
326.104	6065
326.192	7017
326.280	1974
326.369	1635
326.457	4116
326.545	7991
326.634	3115
326.722	1367
326.810	2807
326.898	2712
326.987	2841
327.075	7945
327.163	7768
327.251	3639
327.340	3284
327.428	4567
327.516	1902
327.604	2968
327.692	2278
327.781	3937
327.869	5283
327.957	4115
328.045	4132
328.133	1873
328.221	3964
328.309	3136
328.397	2409
328.485	2851
328.574	5840
328.662	19567
328.750	8628
328.838	4267
328.926	2108
329.014	2338
329.102	3502
329.190	9456
329.278	6215
329.366	2149
329.454	1867
329.542	1598
329.630	1451
329.718	2565
329.806	2663
329.893	3211
329.981	1651
330.069	3858
330.157	14453
330.245	43630
330.333	20326
330.421	3977
330.509	5862
330.597	22902
330.684	12783
330.772	4199
330.860	5563
330.948	7792
331.036	2427
331.123	1352
331.211	1503
331.299	2673
331.387	6959
331.475	10619
331.562	3936
331.650	1986
331.738	2195
331.825	3550
331.913	1436
332.001	2031
332.089	2734
332.176	6039
332.264	15370
332.352	10892
332.439	3770
332.527	2550
332.614	1860
332.702	3379
332.790	2457
332.877	8165
332.965	14342
333.052	4253
333.140	5809
333.228	13198
333.315	3479
333.403	3704
333.490	9533
333.578	8307
333.665	16514
333.753	7582
333.840	2042
333.928	4258
334.015	9964
334.103	15775
334.190	43975
334.278	9320
334.365	5521
334.452	4876
334.540	1746
334.627	2785
334.715	4595
334.802	11649
334.889	58855
334.977	50810
335.064	7540
335.151	3582
335.239	3606
335.326	4757
335.413	23503
335.501	28060
335.588	4062
335.675	3481
335.762	3389
335.850	7080
335.937	5306
336.024	16259
336.111	59211
336.199	25120
336.286	5500
336.373	3791
336.460	1562
336.547	2780
336.635	3247
336.722	3273
336.809	2546
336.896	4033
336.983	14441
337.070	33655
337.157	44010
337.245	35767
337.332	21663
337.419	3154
337.506	2025
337.593	2986
337.680	11339
337.767	30122
337.854	8787
337.941	9906
338.028	12533
338.115	4002
338.202	5313
338.289	10402
338.376	34712
338.463	10416
338.550	17820
338.637	16767
338.724	7326
338.811	10146
338.898	2142
338.984	2129
339.071	2687
339.158	4464
339.245	10038
339.332	6074
339.419	8044
339.506	6431
339.593	1249
339.679	3231
339.766	1741
339.853	3743
339.940	6923
340.027	3099
340.113	2585
340.200	4099
340.287	2418
340.374	3849
340.460	6946
340.547	2443
340.634	6112
340.720	21326
340.807	11391
340.894	2753
340.980	2225
341.067	2276
341.154	2651
341.240	5093
341.327	10538
341.414	4227
341.500	3603
341.587	2337
341.674	1260
341.760	7186
341.847	8602
341.933	3316
342.020	352
342.106	1714
342.193	2623
342.279	5968
342.366	3955
342.452	7153
342.539	4085
342.625	10008
342.712	23384
342.798	9665
342.885	3255
342.971	1065
343.058	1560
343.144	1966
343.230	2012
343.317	2880
343.403	1326
343.490	1409
343.576	1079
343.662	1975
343.749	2751
343.835	2822
343.921	5708
344.008	42038
344.094	87021
344.180	17724
344.267	7611
344.353	26504
344.439	24367
344.525	10273
344.612	4863
344.698	3874
344.784	1627
344.870	2077
344.957	2025
345.043	4363
345.129	2251
345.215	6548
345.301	4308
345.387	3095
345.474	671
345.560	2185
345.646	1980
345.732	2235
345.818	2829
345.904	3235
345.990	2587
346.076	3296
346.162	5107
346.249	2521
346.335	1401
346.421	2658
346.507	11211
346.593	36441
346.679	7394
346.765	2754
346.851	2411
346.937	2252
347.023	1528
347.108	2701
347.194	2043
347.280	2020
347.366	3107
347.452	11133
347.538	42725
347.624	31904
347.710	24232
347.796	4703
347.882	1684
347.967	2585
348.053	2690
348.139	2026
348.225	1703
348.311	1283
348.397	1858
348.482	3288
348.568	3440
348.654	1375
348.740	2702
348.825	2300
348.911	5064
348.997	21084
349.083	38551
349.168	5736
349.254	2026
349.340	1864
349.425	1839
349.511	3303
349.597	3637
349.682	7850
349.768	26010
349.854	11649
349.939	2215
350.025	1720
350.110	1978
350.196	2555
350.282	1116
350.367	2051
350.453	2921
350.538	4387
350.624	2868
350.709	3258
350.795	937
350.880	1992
350.966	3991
351.051	4046
351.137	2272
351.222	2193
351.308	8419
351.393	22691
351.479	5803
351.564	1323
351.649	1429
351.735	1642
351.820	699
351.906	2076
351.991	3363
352.076	14752
352.162	21098
352.247	4861
352.332	2610
352.418	6341
352.503	8669
352.588	34929
352.673	26478
352.759	5964
352.844	2349
352.929	3683
353.014	4324
353.100	3718
353.185	5053
353.270	8529
353.355	8870
353.441	2920
353.526	2936
353.611	8063
353.696	7962
353.781	5053
353.866	2329
353.952	3505
354.037	7398
354.122	18234
354.207	14910
354.292	6109
354.377	2066
354.462	2415
354.547	3153
354.632	3273
354.717	4062
354.802	4729
354.887	1734
354.972	2297
355.057	1612
355.142	1601
355.227	2732
355.312	5085
355.397	11439
355.482	26953
355.567	12072
355.652	9729
355.737	9804
355.822	30293
355.907	23979
355.991	4763
356.076	2707
356.161	2687
356.246	2066
356.331	3425
356.416	6616
356.501	47537
356.585	46445
356.670	6450
356.755	5023
356.840	7169
356.924	32903
357.009	110041
357.094	41419
357.179	9217
357.263	6340
357.348	6867
357.433	5575
357.517	6498
357.602	4125
357.687	2565
357.771	4836
357.856	8695
357.941	7424
358.025	26548
358.110	103257
358.195	48624
358.279	7549
358.364	6597
358.448	21596
358.533	57874
358.617	40698
358.702	40318
358.787	14093
358.871	8440
358.956	6658
359.040	2270
359.125	1993
359.209	3018
359.294	4322
359.378	6916
359.462	6050
359.547	4176
359.631	2104
359.716	1770
359.800	1829
359.885	4268
359.969	1992
360.053	2658
360.138	1691
360.222	4622
360.306	7910
360.391	5749
360.475	8583
360.559	18696
360.644	20473
360.728	15214
360.812	26766
360.896	68747
360.981	28457
361.065	14302
361.149	4228
361.233	4587
361.318	3032
361.402	3316
361.486	3850
361.570	3062
361.654	3993
361.739	11716
361.823	45658
361.907	69029
361.991	12439
362.075	7346
362.159	15842
362.243	11888
362.327	10027
362.411	14886
362.495	7688
362.580	3891
362.664	2540
362.748	2866
362.832	3827
362.916	6826
363.000	22885
363.084	63000
363.168	82014
363.252	19874
363.336	7487
363.420	10496
363.503	31089
363.587	33952
363.671	6970
363.755	4992
363.839	8009
363.923	3506
364.007	8523
364.091	10307
364.175	12991
364.258	50102
364.342	38958
364.426	49262
364.510	25688
364.594	12044
364.677	16054
364.761	57826
364.845	42675
364.929	14161
365.013	11760
365.096	10145
365.180	10947
365.264	14864
365.347	48065
365.431	20313
365.515	5506
365.598	3073
365.682	4707
365.766	5132
365.849	5869
365.933	4246
366.017	5067
366.100	3223
366.184	1565
366.267	3261
366.351	1746
366.435	1290
366.518	764
366.602	1674
366.685	2075
366.769	2857
366.852	5848
366.936	9376
367.019	5690
367.103	3758
367.186	7160
367.270	3204
367.353	1002
367.436	2496
367.520	1868
367.603	3928
367.687	5290
367.770	9447
367.853	6831
367.937	19312
368.020	30997
368.104	7314
368.187	7399
368.270	10645
368.353	8431
368.437	12556
368.520	23293
368.603	15607
368.687	21820
368.770	40721
368.853	10179
368.936	9768
369.020	8544
369.103	3498
369.186	2202
369.269	2436
369.352	6444
369.436	8752
369.519	5424
369.602	1915
369.685	3877
369.768	4012
369.851	3624
369.934	1619
370.018	3197
370.101	7988
370.184	7989
370.267	4643
370.350	8986
370.433	13768
370.516	32638
370.599	42388
370.682	13080
370.765	23224
370.848	28131
370.931	47507
371.014	19294
371.097	3244
371.180	2924
371.263	2650
371.346	778
371.429	3329
371.511	2075
371.594	5310
371.677	8709
371.760	8758
371.843	8545
371.926	39120
372.009	85504
372.091	29614
372.174	20418
372.257	44613
372.340	18089
372.423	12780
372.505	13864
372.588	5852
372.671	15971
372.754	48059
372.836	24370
372.919	15973
373.002	27995
373.085	9732
373.167	9072
373.250	21723
373.332	44833
373.415	59708
373.498	113960
373.580	45909
373.663	59359
373.746	76937
373.828	17652
373.911	7863
373.993	8746
374.076	28235
374.159	25057
374.241	14150
374.324	40359
374.406	28287
374.489	36053
374.571	94767
374.654	39214
374.736	20662
374.819	58802
374.901	84056
374.983	84291
375.066	15972
375.148	6823
375.231	23444
375.313	42307
375.395	16296
375.478	4017
375.560	3297
375.643	5501
375.725	19216
375.807	72313
375.890	57745
375.972	22400
376.054	14248
376.136	18492
376.219	9578
376.301	23107
376.383	63950
376.465	26313
376.548	15395
376.630	20697
376.712	54978
376.794	25421
376.877	3882
376.959	1503
377.041	3827
377.123	5183
377.205	6691
377.287	1533
377.369	2020
377.452	1645
377.534	2619
377.616	1954
377.698	2232
377.780	806
377.862	2187
377.944	3025
378.026	1560
378.108	2089
378.190	1776
378.272	1659
378.354	1444
378.436	1097
378.518	3469
378.600	12420
378.682	13201
378.764	28021
378.846	22998
378.928	6949
379.010	8226
379.091	4988
379.173	2587
379.255	1818
379.337	4408
379.419	13782
379.501	41137
379.583	16563
379.664	4143
379.746	10893
379.828	29216
379.910	39234
379.991	34035
380.073	5345
380.155	3751
380.237	1799
380.318	2954
380.400	2700
380.482	6442
380.564	10204
380.645	9428
380.727	8706
380.809	6155
380.890	3512
380.972	1664
381.053	2674
381.135	3704
381.217	10295
381.298	30147
381.380	15765
381.461	14077
381.543	54554
381.624	66087
381.706	12571
381.787	7004
381.869	8231
381.951	27173
382.032	86318
382.113	59721
382.195	12359
382.276	9931
382.358	18134
382.439	50346
382.521	57532
382.602	85887
382.684	42878
382.765	73304
382.846	87897
382.928	125014
383.009	73363
383.090	54071
383.172	170133
383.253	243690
383.334	89593
383.416	79512
383.497	44880
383.578	24516
383.659	48378
383.741	153580
383.822	332328
383.903	181150
383.984	67376
384.066	97915
384.147	60313
384.228	13995
384.309	10133
384.390	7957
384.471	5354
384.553	5924
384.634	8148
384.715	9604
384.796	4709
384.877	7444
384.958	25819
385.039	33855
385.120	12330
385.201	6105
385.282	6642
385.363	7049
385.444	6092
385.525	13678
385.606	39424
385.687	33776
385.768	8386
385.849	10529
385.930	41973
386.011	70693
386.092	20064
386.173	4938
386.254	3565
386.335	4285
386.416	4823
386.496	17806
386.577	29079
386.658	10952
386.739	5187
386.820	5558
386.901	3820
386.981	4276
387.062	2689
387.143	7733
387.224	28173
387.304	27154
387.385	9479
387.466	5074
387.547	7806
387.627	5655
387.708	13089
387.789	48901
387.869	58961
387.950	17853
388.031	2782
388.111	1703
388.192	7663
388.273	11793
388.353	6036
388.434	4459
388.514	10319
388.595	43579
388.676	59178
388.756	30737
388.837	25999
388.917	17399
388.998	1377
389.078	3675
389.159	2558
389.239	2325
389.320	6310
389.400	4324
389.480	11347
389.561	29453
389.641	15924
389.722	5312
389.802	7593
389.883	13692
389.963	35306
390.043	22119
390.124	6145
390.204	12560
390.284	31644
390.365	20545
390.445	20731
390.525	46134
390.605	41966
390.686	16585
390.766	5766
390.846	3112
390.927	1455
391.007	2432
391.087	3605
391.167	2786
391.247	2166
391.328	5061
391.408	6732
391.488	5293
391.568	1058
391.648	3826
391.728	6282
391.808	6494
391.888	6293
391.969	17442
392.049	26397
392.129	12212
392.209	13273
392.289	34098
392.369	19133
392.449	12804
392.529	8542
392.609	8576
392.689	11604
392.769	33534
392.849	29873
392.929	22067
393.009	47776
393.089	40144
393.169	39532
393.248	116433
393.328	333801
393.408	349260
393.488	107957
393.568	32052
393.648	16323
393.728	10438
393.807	6613
393.887	7497
393.967	5487
394.047	6313
394.127	7649
394.206	13959
394.286	47760
394.366	174677
394.446	191322
394.525	45154
394.605	11267
394.685	9509
394.764	19506
394.844	30491
394.924	21833
395.003	7621
395.083	5113
395.163	4452
395.242	4606
395.322	4465
395.402	2049
395.481	6983
395.561	13807
395.640	36464
395.720	32331
395.799	37098
395.879	29350
395.958	19826
396.038	68489
396.117	230494
396.197	255261
396.276	77878
396.356	23220
396.435	17567
396.515	13072
396.594	17448
396.673	36892
396.753	118945
396.832	301178
396.912	236207
396.991	61651
397.070	17948
397.150	7353
397.229	7355
397.308	9930
397.388	15407
397.467	8314
397.546	3635
397.625	712
397.705	5923
397.784	4697
397.863	3298
397.942	1501
398.022	3353
398.101	11052
398.180	30038
398.259	15206
398.338	4386
398.417	2983
398.497	1549
398.576	2288
398.655	2143
398.734	1628
398.813	1612
398.892	10388
398.971	32602
399.050	16800
399.129	1738
399.208	1247
399.287	1599
399.366	-311
399.445	1571
399.524	1368
399.603	846
399.682	3572
399.761	13144
399.840	35812
399.919	27189
399.998	2725
400.077	1336
400.156	163
400.235	3115
400.313	942
400.392	2560
400.471	14473
400.550	25026
400.629	6119
400.708	3572
400.786	2362
400.865	6704
400.944	6883
401.023	4899
401.102	953
401.180	780
401.259	255
401.338	1679
401.416	3279
401.495	1848
401.574	1580
401.652	593
401.731	2703
401.810	1742
401.888	610
401.967	602
402.046	1166
402.124	2291
402.203	2140
402.281	2832
402.360	2925
402.438	9013
402.517	4948
402.596	1633
402.674	1041
402.753	949
402.831	695
402.910	2197
402.988	8264
403.066	29608
403.145	18171
403.223	10353
403.302	24367
403.380	18568
403.459	16665
403.537	7268
403.615	2119
403.694	301
403.772	1084
403.850	627
403.929	10
404.007	694
404.085	2914
404.164	2885
404.242	700
404.320	2936
404.398	6944
404.477	17297
404.555	67600
404.633	60368
404.711	10293
404.789	3511
404.868	1264
404.946	-75
405.024	479
405.102	57
405.180	30
405.258	-649
405.336	787
405.415	494
405.493	3550
405.571	3066
405.649	447
405.727	-112
405.805	2301
405.883	1927
405.961	1586
406.039	2818
406.117	273
406.195	3755
406.273	17340
406.351	58474
406.429	35618
406.507	5027
406.585	1782
406.663	2608
406.740	2174
406.818	2341
406.896	809
406.974	2020
407.052	5156
407.130	35214
407.208	47843
407.285	10389
407.363	375
407.441	984
407.519	237
407.596	886
407.674	6592
407.752	19427
407.830	18478
407.907	5627
407.985	532
408.063	1491
408.141	-101
408.218	3085
408.296	824
408.373	1624
408.451	1897
408.529	2075
408.606	-271
408.684	294
408.762	-621
408.839	-723
408.917	-163
408.994	299
409.072	253
409.149	1089
409.227	2548
409.304	3409
409.382	1674
409.459	2034
409.537	4352
409.614	2629
409.692	1465
409.769	1533
409.846	3664
409.924	6525
410.001	2803
410.079	1691
410.156	2176
410.233	1569
410.311	55
410.388	673
410.465	1204
410.543	1956
410.620	1477
410.697	1820
410.775	1138
410.852	-240
410.929	2269
411.006	2648
411.083	2099
411.161	5692
411.238	5737
411.315	2673
411.392	429
411.469	1985
411.547	2815
411.624	852
411.701	986
411.778	1199
411.855	4633
411.932	2094
412.009	170
412.086	1051
412.163	593
412.240	1197
412.317	1940
412.394	1636
412.471	1332
412.548	379
412.625	415
412.702	1206
412.779	2677
412.856	2597
412.933	-121
413.010	302
413.087	2705
413.164	14238
413.241	20796
413.318	3931
413.395	3041
413.471	3658
413.548	831
413.625	810
413.702	993
413.779	702
413.855	-509
413.932	-527
414.009	-1047
414.086	489
414.162	733
414.239	2187
414.316	13985
414.393	31306
414.469	10016
414.546	504
414.623	-747
414.699	649
414.776	246
414.853	831
414.929	246
415.006	452
415.082	51
415.159	528
415.236	1120
415.312	1543
415.389	3001
415.465	4117
415.542	1239
415.618	728
415.695	2571
415.771	1092
415.848	1434
415.924	660
416.000	410
416.077	989
416.153	-887
416.230	-597
416.306	-817
416.383	75
416.459	396
416.535	-572
416.612	-433
416.688	406
416.764	50
416.841	-812
416.917	20
416.993	308
417.069	1587
417.146	1449
417.222	2276
417.298	1971
417.374	-264
417.451	1005
417.527	262
417.603	2085
417.679	550
417.755	837
417.831	-1107
417.908	331
417.984	-234
418.060	8
418.136	2945
418.212	4753
418.288	1460
418.364	258
418.440	-176
418.516	1089
418.592	2232
418.668	5878
418.744	9153
418.820	6605
418.896	1128
418.972	-408
419.048	401
419.124	4455
419.200	2197
419.276	153
419.352	-421
419.428	473
419.504	208
419.579	1865
419.655	345
419.731	1063
419.807	6564
419.883	11803
419.959	7552
420.034	2663
420.110	3975
420.186	18703
420.262	15738
420.337	2722
420.413	756
420.489	289
420.565	1170
420.640	89
420.716	750
420.792	-87
420.867	1103
420.943	214
421.019	1904
421.094	1056
421.170	829
421.245	76
421.321	810
421.397	969
421.472	4253
421.548	10554
421.623	7599
421.699	2873
421.774	2466
421.850	1403
421.925	4629
422.001	3773
422.076	2945
422.152	4337
422.227	7682
422.302	9675
422.378	13627
422.453	24775
422.529	61080
422.604	150844
422.679	223527
422.755	164843
422.830	63909
422.905	24990
422.981	13112
423.056	8338
423.131	5401
423.207	4056
423.282	4042
423.357	8264
423.432	4978
423.508	4938
423.583	10088
423.658	8763
423.733	2738
423.808	3702
423.883	2827
423.959	3114
424.034	1760
424.109	1573
424.184	-719
424.259	997
424.334	460
424.409	489
424.484	263
424.559	1129
424.634	451
424.709	2037
424.784	1695
424.859	1304
424.934	2788
425.009	14127
425.084	24218
425.159	9000
425.234	1050
425.309	77
425.384	518
425.459	2184
425.534	1066
425.609	-28
425.683	8
425.758	322
425.833	605
425.908	1799
425.983	8991
426.058	24548
426.132	10128
426.207	1211
426.282	2680
426.357	1010
426.431	522
426.506	607
426.581	695
426.655	326
426.730	-258
426.805	400
426.879	553
426.954	1823
427.029	2972
427.103	23378
427.178	54763
427.253	25082
427.327	2492
427.402	2470
427.476	4197
427.551	1913
427.625	811
427.700	1201
427.774	-309
427.849	1098
427.923	0
427.998	-118
428.072	529
428.147	3839
428.221	18499
428.296	49766
428.370	25875
428.444	2893
428.519	2247
428.593	6231
428.667	6384
428.742	7127
428.816	8920
428.890	31380
428.965	47582
429.039	15021
429.113	7777
429.188	3029
429.262	197
429.336	2892
429.410	10884
429.485	7961
429.559	4539
429.633	4185
429.707	1019
429.781	7609
429.855	35185
429.930	52925
430.004	27644
430.078	33166
430.152	34145
430.226	63418
430.300	65815
430.374	10892
430.448	3599
430.522	11782
430.596	32181
430.670	25651
430.744	57475
430.818	85055
430.892	17882
430.966	2163
431.040	547
431.114	-158
431.188	-743
431.262	489
431.336	-200
431.410	3750
431.484	9392
431.557	6794
431.631	383
431.705	1641
431.779	9866
431.853	42966
431.927	30621
432.000	3339
432.074	-443
432.148	275
432.222	369
432.295	404
432.369	-711
432.443	2462
432.516	22069
432.590	54820
432.664	22760
432.737	1992
432.811	-1160
432.885	-22
432.958	-360
433.032	-593
433.106	-761
433.179	-212
433.253	-813
433.326	-231
433.400	-174
433.473	247
433.547	-720
433.620	-71
433.694	1435
433.767	2394
433.841	70
433.914	-971
433.988	-680
434.061	-427
434.134	-171
434.208	-337
434.281	-928
434.355	85
434.428	-912
434.501	-836
434.575	-346
434.648	-473
434.721	-891
434.795	-494
434.868	-1054
434.941	-1132
435.014	-1134
435.088	-1062
435.161	535
435.234	1915
435.307	2640
435.381	1154
435.454	809
435.527	1592
435.600	780
435.673	1741
435.746	-176
435.819	205
435.892	-439
435.966	-680
436.039	-573
436.112	-772
436.185	-1529
436.258	-701
436.331	-1465
436.404	-478
436.477	-819
436.550	-455
436.623	-922
436.696	-1014
436.769	-495
436.842	381
436.915	-404
436.987	279
437.060	164
437.133	-950
437.206	-1702
437.279	-194
437.352	-658
437.425	-521
437.498	-258
437.570	2210
437.643	2740
437.716	387
437.789	-803
437.861	2590
437.934	9971
438.007	5053
438.080	-328
438.152	1190
438.225	3152
438.298	29397
438.370	80248
438.443	39889
438.516	9144
438.588	1950
438.661	-675
438.734	210
438.806	117
438.879	1266
438.951	1238
439.024	4557
439.096	1082
439.169	448
439.241	-905
439.314	-421
439.386	-53
439.459	2242
439.531	4424
439.604	1620
439.676	-974
439.749	-1095
439.821	-819
439.893	-757
439.966	-296
440.038	577
440.110	1213
440.183	-274
440.255	-480
440.327	1408
440.400	11897
440.472	50959
440.544	38570
440.617	5136
440.689	3160
440.761	4416
440.833	8164
440.905	6407
440.978	-581
441.050	-411
441.122	-393
441.194	-735
441.266	-24
441.338	-33
441.411	1795
441.483	16225
441.555	27287
441.627	6734
441.699	1188
441.771	1436
441.843	625
441.915	-195
441.987	-423
442.059	-359
442.131	1156
442.203	2283
442.275	1895
442.347	2418
442.419	4168
442.491	25167
442.563	59343
442.635	30309
442.706	12516
442.778	9602
442.850	1787
442.922	250
442.994	1636
443.066	2047
443.137	1540
443.209	1421
443.281	3091
443.353	8121
443.425	33261
443.496	107431
443.568	110495
443.640	44178
443.711	7295
443.783	2344
443.855	1138
443.926	280
443.998	-353
444.070	1546
444.141	1481
444.213	3199
444.285	3753
444.356	2581
444.428	1974
444.499	916
444.571	-532
444.642	-38
444.714	288
444.785	2641
444.857	2374
444.928	7223
445.000	5174
445.071	4802
445.143	5816
445.214	4395
445.285	7212
445.357	22487
445.428	73474
445.500	164463
445.571	116413
445.642	60864
445.714	21999
445.785	15110
445.856	5269
445.928	4764
445.999	4257
446.070	3371
446.141	2565
446.213	4504
446.284	1346
446.355	1307
446.426	-74
446.497	851
446.569	327
446.640	4288
446.711	3757
446.782	761
446.853	850
446.924	1453
446.995	1179
447.066	1611
447.138	1938
447.209	1624
447.280	-316
447.351	-717
447.422	-739
447.493	907
447.564	1443
447.635	3208
447.706	1169
447.777	-257
447.847	-693
447.918	-392
447.989	754
448.060	1675
448.131	4600
448.202	5314
448.273	3520
448.344	1376
448.414	44
448.485	-6
448.556	-50
448.627	-357
448.698	1259
448.768	-249
448.839	-655
448.910	1905
448.981	1823
449.051	1475
449.122	-232
449.193	-643
449.263	-704
449.334	-114
449.405	1421
449.475	4685
449.546	4413
449.616	3196
449.687	1950
449.758	340
449.828	-597
449.899	362
449.969	-650
450.040	440
450.110	274
450.181	1237
450.251	447
450.322	35
450.392	-182
450.463	-388
450.533	-350
450.604	-8
450.674	-807
450.744	-138
450.815	-475
450.885	384
450.955	-378
451.026	-73
451.096	-603
451.166	577
451.237	3125
451.307	7787
451.377	3553
451.447	348
451.518	-330
451.588	-257
451.658	190
451.728	1545
451.799	7897
451.869	11533
451.939	2299
452.009	21
452.079	-1119
452.149	322
452.219	1805
452.289	9352
452.360	8597
452.430	1797
452.500	442
452.570	1994
452.640	3223
452.710	9425
452.780	14610
452.850	11994
452.920	11976
452.990	5333
453.060	1535
453.129	2654
453.199	3134
453.269	12335
453.339	29470
453.409	46649
453.479	37892
453.549	59558
453.619	62514
453.688	30481
453.758	3610
453.828	1401
453.898	37
453.968	192
454.037	-768
454.087	-232
454.107	-53
454.168	60
454.177	34
454.247	484
454.249	525
454.316	341
454.330	672
454.386	1515
454.411	2987
454.456	4581
454.492	6309
454.525	7839
454.574	4812
454.595	3547
454.655	2186
454.665	2007
454.734	3340
454.736	3542
454.804	5461
454.817	7081
454.873	10858
454.898	11976
454.943	13549
454.979	8967
455.013	5468
455.060	4040
455.082	3728
455.141	5564
455.152	5661
455.221	11888
455.222	12234
455.291	17501
455.303	17030
455.360	15546
455.384	17166
455.430	17640
455.465	16085
455.499	14856
455.546	13851
455.569	12282
455.627	8807
455.638	8556
455.707	2576
455.708	2616
455.777	2243
455.789	2206
455.846	1831
455.869	1872
455.916	1977
455.950	2354
455.985	2457
456.031	2443
456.054	2415
456.112	2511
456.124	2554
456.193	2254
456.193	2209
456.262	2412
456.274	2763
456.332	4169
456.355	4370
456.401	3681
456.436	3333
456.470	3346
456.516	2432
456.540	1950
456.597	2229
456.609	2294
456.678	2346
456.678	2312
456.747	2889
456.759	2665
456.817	1835
456.840	2163
456.886	2554
456.920	2637
456.955	3074
457.001	3913
457.024	4328
457.082	4925
457.093	5020
457.162	7545
457.163	7610
457.232	6127
457.243	5856
457.301	4695
457.324	4076
457.370	3597
457.405	3820
457.439	4190
457.485	4078
457.508	4126
457.566	5547
457.577	5945
457.646	8316
457.647	8400
457.715	14961
457.727	16145
457.784	23443
457.808	28214
457.853	31143
457.889	33304
457.922	31652
457.969	25472
457.991	27847
458.050	35989
458.060	37591
458.129	55061
458.130	55676
458.198	39328
458.211	34565
458.267	22248
458.292	16582
458.336	15156
458.372	15443
458.405	21232
458.453	31951
458.474	39508
458.533	64336
458.543	65123
458.611	79359
458.614	79890
458.680	42549
458.694	32265
458.749	18719
458.775	13813
458.818	9617
458.855	8437
458.887	7721
458.936	7265
458.955	7146
459.016	6613
459.024	6611
459.093	8264
459.097	8268
459.162	7565
459.177	7870
459.230	10185
459.257	11115
459.299	11162
459.338	11126
459.368	11406
459.418	12317
459.437	11327
459.499	7907
459.505	7934
459.574	7079
459.579	7151
459.643	7250
459.659	7094
459.711	7331
459.740	7641
459.780	7907
459.820	8407
459.849	8884
459.900	9843
459.917	9735
459.981	9099
459.986	9084
460.054	8920
460.061	8914
460.123	10199
460.141	10767
460.191	13218
460.222	14680
460.260	15226
460.302	16282
460.328	14902
460.382	11542
460.397	11676
460.462	11756
460.465	12035
460.534	19477
460.543	20473
460.602	40203
460.623	47570
460.671	71380
460.703	90267
460.739	70269
460.783	43388
460.808	37280
460.864	13640
460.876	12143
460.944	9150
460.945	9109
461.013	9522
461.024	9550
461.081	10034
461.104	10554
461.150	9938
461.184	9033
461.218	8833
461.264	8644
461.286	8667
461.345	8789
461.355	8732
461.423	8787
461.425	8776
461.491	11551
461.505	12281
461.559	21677
461.585	25933
461.628	38057
461.665	49358
461.696	48382
461.745	48206
461.764	41146
461.825	14886
461.832	14763
461.901	11781
461.905	11768
461.969	10419
461.985	10149
462.037	10318
462.065	10265
462.105	12730
462.145	15139
462.173	19203
462.225	27366
462.241	29591
462.305	38717
462.310	37413
462.378	17541
462.385	15043
462.446	12267
462.465	11493
462.514	11050
462.545	11200
462.582	10735
462.625	10126
462.650	10110
462.705	9959
462.718	10432
462.785	13171
462.786	13259
462.854	17803
462.865	18660
462.922	20894
462.945	21560
462.990	15856
463.025	11374
463.058	10680
463.104	9315
463.126	9243
463.184	9619
463.194	9887
463.262	11631
463.264	11697
463.330	11874
463.344	11728
463.398	12655
463.424	13352
463.466	13557
463.504	13565
463.533	13630
463.583	13689
463.601	14203
463.663	16041
463.669	16581
463.737	22801
463.743	23329
463.805	32668
463.823	35492
463.873	51642
463.903	61358
463.940	58335
463.982	55475
464.008	43755
464.062	17166
464.076	16352
464.142	11821
464.144	11829
464.211	12805
464.221	12941
464.279	13433
464.301	13628
464.347	15110
464.381	16348
464.414	17725
464.461	19424
464.482	19522
464.540	19874
464.550	19527
464.617	16486
464.620	16367
464.685	18924
464.699	19413
464.753	21685
464.779	22868
464.820	23718
464.859	24416
464.888	24077
464.938	23458
464.956	23370
465.018	22691
465.023	22405
465.091	18241
465.098	17772
465.158	18273
465.177	18449
465.226	18904
465.257	19088
465.293	20526
465.336	22250
465.361	24609
465.416	29848
465.428	31505
465.495	40258
465.496	40458
465.563	61048
465.575	64591
465.631	67829
465.654	69192
465.698	43035
465.734	20768
465.765	19819
465.813	18165
465.833	18155
465.893	18705
465.900	18684
465.968	17975
465.972	17904
466.035	18795
466.052	18983
466.102	19485
466.131	19712
466.170	19501
466.210	19177
466.237	20334
466.290	22553
466.304	22667
466.369	22893
466.372	22996
466.439	24739
466.449	24942
466.506	28801
466.528	30196
466.573	42338
466.607	51314
466.641	69657
466.687	95014
466.708	98863
466.766	108944
466.775	100891
466.842	38704
466.845	35673
466.909	30099
466.925	28746
466.977	27785
467.004	27255
467.044	28251
467.083	29162
467.111	31953
467.163	37008
467.178	37117
467.242	37173
467.245	37122
467.312	34454
467.321	34030
467.379	34062
467.400	33965
467.446	35979
467.480	37303
467.559	30919
467.638	29040
467.717	31250
467.796	33325
467.875	37950
467.955	34729
468.034	56430
468.113	105006
468.192	130763
468.271	35480
468.350	33578
468.429	36562
468.508	36238
468.588	30865
468.667	28859
468.746	29863
468.825	27352
468.904	26050
468.983	33531
469.062	46732
469.141	49424
469.220	24177
469.299	25766
469.378	26722
469.456	32565
469.535	27245
469.614	27678
469.693	31274
469.772	37831
469.851	50303
469.930	31634
470.009	27375
470.088	30588
470.166	35516
470.245	52200
470.324	58280
470.403	43319
470.482	32210
470.560	30413
470.639	30340
470.718	35214
470.797	27231
470.875	34666
470.954	42933
471.033	41082
471.111	21043
471.190	20426
471.269	20484
471.347	21866
471.426	23398
471.505	26390
471.583	27222
471.662	25404
471.740	23131
471.819	23601
471.898	22427
471.976	22369
472.055	23053
472.133	27461
472.212	34683
472.290	34039
472.369	21974
472.447	21764
472.526	19905
472.604	23260
472.683	24114
472.761	25927
472.839	23912
472.918	23135
472.996	23995
473.075	27629
473.153	24239
473.231	23056
473.310	27127
473.388	25920
473.466	24878
473.545	29331
473.623	40072
473.701	34938
473.780	23901
473.858	23796
473.936	25505
474.014	24684
474.093	28856
474.171	38483
474.249	50211
474.327	28358
474.405	20769
474.484	21134
474.562	22267
474.640	22509
474.718	24085
474.796	23325
474.874	21935
474.952	20053
475.030	20349
475.108	23403
475.187	25333
475.265	28014
475.343	36379
475.421	36318
475.499	21587
475.577	24364
475.655	34116
475.733	63713
475.811	96811
475.889	86768
475.966	42184
476.044	24580
476.122	28787
476.200	35941
476.278	25464
476.356	21422
476.434	22264
476.512	29460
476.590	34533
476.667	29056
476.745	20011
476.823	22642
476.901	21673
476.979	22817
477.056	21319
477.134	22203
477.212	22276
477.290	21771
477.367	17843
477.445	20258
477.523	19572
477.601	21554
477.678	21238
477.756	25661
477.834	24580
477.911	19763
477.989	20027
478.066	20415
478.144	24108
478.222	27344
478.299	42744
478.377	31760
478.454	18722
478.532	19827
478.609	21756
478.687	21712
478.764	18136
478.842	21540
478.919	23212
478.997	21432
479.074	19277
479.152	24190
479.229	28860
479.307	17857
479.384	15627
479.461	17361
479.539	19073
479.616	23647
479.694	20819
479.771	22835
479.848	23312
479.926	31697
480.003	28240
480.080	18014
480.157	17053
480.235	18235
480.312	18719
480.389	23434
480.467	34774
480.544	39552
480.621	21169
480.698	22784
480.775	26050
480.853	23698
480.930	19747
481.007	21376
481.084	24426
481.161	26841
481.238	21927
481.315	18798
481.392	18271
481.470	19258
481.547	18498
481.624	18580
481.701	18480
481.778	20672
481.855	23415
481.932	35819
482.009	54914
482.086	30269
482.163	21550
482.240	34457
482.317	51510
482.393	32352
482.470	20017
482.547	21321
482.624	20570
482.701	22612
482.778	20303
482.855	17838
482.932	17386
483.009	19924
483.085	23731
483.162	29601
483.239	26361
483.316	20465
483.393	20089
483.469	20154
483.546	23534
483.623	22747
483.699	18115
483.776	20074
483.853	23290
483.930	40869
484.006	86830
484.083	123514
484.160	60061
484.236	86211
484.313	62387
484.389	50017
484.466	45951
484.543	47094
484.619	47317
484.696	49945
484.772	51616
484.849	51013
484.925	42244
485.002	42746
485.078	48773
485.155	49079
485.231	39248
485.308	39896
485.384	43022
485.461	56934
485.537	88092
485.614	86514
485.690	39153
485.766	39608
485.843	46179
485.919	67469
485.995	59238
486.072	37384
486.148	35867
486.224	37213
486.301	40243
486.377	49028
486.453	51677
486.530	44638
486.606	54216
486.682	60444
486.758	75737
486.835	80435
486.911	71997
486.987	118871
487.063	129636
487.139	157286
487.215	101735
487.292	47622
487.368	44618
487.444	55066
487.520	72306
487.596	69210
487.672	121801
487.748	281207
487.824	349195
487.900	107257
487.976	56944
488.052	57179
488.128	70045
488.204	49059
488.280	41053
488.356	55679
488.432	105328
488.508	131429
488.584	44832
488.660	38632
488.736	38356
488.812	42505
488.888	54829
488.964	84340
489.039	180979
489.115	235899
489.191	101123
489.267	39336
489.343	34612
489.418	31945
489.494	30224
489.570	30272
489.646	31254
489.722	32432
489.797	36153
489.873	60457
489.949	113725
490.024	69144
490.100	30114
490.176	33748
490.251	42750
490.327	53694
490.403	30080
490.478	29491
490.554	25524
490.629	27108
490.705	26461
490.781	30628
490.856	29394
490.932	35743
491.007	34134
491.083	33540
491.158	30787
491.234	47216
491.309	87214
491.385	68762
491.460	29158
491.536	32063
491.611	28054
491.686	35187
491.762	54656
491.837	117131
491.913	174969
491.988	249450
492.063	248153
492.139	63253
492.214	35843
492.289	25642
492.365	25585
492.440	32072
492.515	30339
492.590	28638
492.666	24815
492.741	38616
492.816	47779
492.891	25756
492.967	23053
493.042	22461
493.117	23411
493.192	26283
493.267	42655
493.342	89353
493.418	86528
493.493	25483
493.568	20443
493.643	24066
493.718	31391
493.793	48686
493.868	49938
493.943	31683
494.018	23495
494.093	22169
494.168	22316
494.243	21507
494.318	19796
494.393	20031
494.468	19652
494.543	22329
494.618	25772
494.693	21178
494.768	22862
494.842	23158
494.917	20279
494.992	22608
495.067	18902
495.142	20290
495.217	22725
495.292	22132
495.366	27491
495.441	33343
495.516	44149
495.591	84230
495.665	261178
495.740	491891
495.815	123030
495.890	32126
495.964	26166
496.039	29441
496.114	27596
496.188	32241
496.263	29288
496.338	26460
496.412	31520
496.487	34850
496.561	38426
496.636	37068
496.710	29777
496.785	33683
496.860	36580
496.934	30466
497.009	30404
497.083	31350
497.158	33180
497.232	40297
497.307	44222
497.381	38360
497.455	45113
497.530	53332
497.604	38210
497.679	45033
497.753	66399
497.827	78585
497.902	69574
497.976	94416
498.050	229996
498.125	658766
498.199	445557
498.273	105524
498.348	87222
498.422	73033
498.496	69723
498.570	58023
498.645	42530
498.719	43470
498.793	52393
498.867	78935
498.941	114631
499.016	315918
499.090	625447
499.164	126088
499.238	32737
499.312	33604
499.386	42100
499.460	35383
499.534	33134
499.609	43399
499.683	57474
499.757	59452
499.831	160560
499.905	477674
499.979	285885
500.053	65374
500.127	67774
500.201	51425
500.275	32606
500.349	32695
500.422	40085
500.496	69699
500.570	150992
500.644	306121
500.718	408387
500.792	58431
500.866	31410
500.940	39941
501.013	30511
501.087	39236
501.161	68795
501.235	86929
501.309	191862
501.382	447698
501.456	255362
501.530	87334
501.603	131238
501.677	37570
501.751	24647
501.825	36600
501.898	74953
501.972	176339
502.046	70965
502.119	39393
502.193	97166
502.266	184420
502.340	65905
502.413	98709
502.487	149592
502.561	76138
502.634	27671
502.708	28126
502.781	23951
502.855	20096
502.928	18109
503.002	18433
503.075	18394
503.149	20734
503.222	20751
503.295	22198
503.369	27858
503.442	51390
503.516	160586
503.589	315252
503.662	154280
503.736	70986
503.809	159180
503.882	110795
503.956	192215
504.029	146099
504.102	163487
504.175	174583
504.249	59765
504.322	39600
504.395	29280
504.468	23935
504.542	21446
504.615	18130
504.688	17143
504.761	18379
504.834	24365
504.907	33574
504.980	45749
505.053	23525
505.127	33741
505.200	31510
505.273	29567
505.346	18962
505.419	16127
505.492	15597
505.565	14038
505.638	15587
505.711	14437
505.784	14832
505.857	13291
505.930	16477
506.003	13284
506.076	19374
506.149	23165
506.221	27260
506.294	30833
506.367	89619
506.440	229814
506.513	73319
506.586	27327
506.659	17992
506.731	16698
506.804	25019
506.877	31981
506.950	19459
507.022	16420
507.095	23632
507.168	24225
507.241	17146
507.313	14893
507.386	20318
507.459	25735
507.531	17278
507.604	14515
507.677	15057
507.749	13793
507.822	24052
507.894	42934
507.967	39748
508.040	22101
508.112	23276
508.185	20451
508.257	23652
508.330	32032
508.402	19726
508.475	20064
508.547	20715
508.620	22416
508.692	31731
508.765	18779
508.837	16626
508.909	16228
508.982	18381
509.054	20282
509.127	16937
509.199	15380
509.271	15048
509.344	14234
509.416	16033
509.488	16740
509.560	17239
509.633	19036
509.705	21538
509.777	21752
509.849	30417
509.922	18087
509.994	15113
510.066	16373
510.138	20867
510.210	34485
510.283	28373
510.355	23393
510.427	22048
510.499	20860
510.571	20920
510.643	23209
510.715	40157
510.787	26848
510.859	23356
510.931	27696
511.003	40143
511.076	28873
511.148	19667
511.219	20764
511.291	35416
511.363	31020
511.435	18093
511.507	16960
511.579	17709
511.651	17805
511.723	17280
511.795	17485
511.867	18868
511.939	26167
512.010	47785
512.082	29092
512.154	19413
512.226	21850
512.298	33507
512.369	40445
512.441	32049
512.513	31932
512.585	25467
512.656	26150
512.728	29307
512.800	20830
512.871	21691
512.943	21690
513.015	19173
513.086	22929
513.158	25175
513.230	27861
513.301	39464
513.373	39193
513.444	23331
513.516	20516
513.588	21078
513.659	23399
513.731	30688
513.802	31166
513.874	68253
513.945	90361
514.016	26219
514.088	20944
514.159	25230
514.231	33194
514.302	38385
514.374	26906
514.445	29589
514.516	52842
514.588	32589
514.659	29561
514.730	48639
514.802	33813
514.873	29735
514.944	28515
515.016	28614
515.087	30761
515.158	41353
515.229	42915
515.301	31702
515.372	36311
515.443	25060
515.514	22046
515.585	21127
515.656	20362
515.728	20539
515.799	20200
515.870	23671
515.941	22711
516.012	24519
516.083	30210
516.154	34487
516.225	43467
516.296	38367
516.367	34553
516.438	41354
516.509	59251
516.580	112143
516.651	346753
516.722	868658
516.793	228432
516.864	66989
516.935	61123
517.006	79213
517.077	137433
517.148	351554
517.219	1046262
517.289	1050264
517.360	283992
517.431	72849
517.502	38021
517.573	36173
517.643	35498
517.714	37778
517.785	38667
517.856	39413
517.926	45817
517.997	53689
518.068	70645
518.138	110208
518.209	229768
518.280	785420
518.350	1624391
518.421	482799
518.492	82106
518.562	58419
518.633	58927
518.703	66037
518.774	119121
518.845	240048
518.915	170147
518.986	66244
519.056	59153
519.127	99979
519.197	145916
519.268	256365
519.338	100411
519.408	44219
519.479	58338
519.549	36530
519.620	26315
519.690	21699
519.760	21730
519.831	25392
519.901	22321
519.971	20590
520.042	22258
520.112	26485
520.182	31572
520.253	30905
520.323	21753
520.393	28547
520.463	33075
520.534	27943
520.604	42542
520.674	26396
520.744	30479
520.814	56778
520.885	53171
520.955	102907
521.025	259552
521.095	59057
521.165	22693
521.235	20925
521.305	18879
521.375	19945
521.445	24547
521.515	32300
521.585	37671
521.655	29414
521.725	27659
521.795	22749
521.865	17871
521.935	30425
522.005	20961
522.075	16970
522.145	20726
522.215	24799
522.285	32543
522.355	48438
522.424	78372
522.494	57760
522.564	41347
522.634	104236
522.704	214849
522.774	49675
522.843	20985
522.913	24098
522.983	28777
523.053	21759
523.122	25241
523.192	47025
523.262	142688
523.331	86690
523.401	21568
523.471	17412
523.540	18259
523.610	15687
523.680	15706
523.749	16600
523.819	22070
523.888	19048
523.958	15892
524.027	18569
524.097	18056
524.166	18382
524.236	20548
524.305	18568
524.375	15334
524.444	15055
524.514	17577
524.583	18836
524.653	22566
524.722	22982
524.791	15908
524.861	18835
524.930	15542
524.999	20732
525.069	25860
525.138	21799
525.207	23599
525.277	18261
525.346	18546
525.415	19048
525.484	20075
525.554	23789
525.623	21443
525.692	21950
525.761	22992
525.830	26560
525.900	32165
525.969	53081
526.038	90144
526.107	204090
526.176	446146
526.245	272027
526.314	123861
526.383	268503
526.452	299649
526.522	545034
526.591	364736
526.660	120145
526.729	64016
526.797	92437
526.867	231348
526.935	735765
527.004	1022571
527.073	357123
527.142	44116
527.211	28187
527.280	30976
527.349	27543
527.418	16834
527.487	18247
527.555	15357
527.624	16531
527.693	14088
527.762	16507
527.831	13982
527.899	16137
527.968	15243
528.037	15799
528.106	23664
528.174	39646
528.243	29523
528.312	49323
528.380	46640
528.449	16701
528.518	14951
528.586	11309
528.655	12818
528.723	13044
528.792	13134
528.861	14213
528.929	11750
528.998	13067
529.066	12317
529.135	12551
529.203	12032
529.272	12018
529.340	14142
529.409	15907
529.477	12779
529.545	18387
529.614	18930
529.682	21443
529.751	21415
529.819	25803
529.887	15867
529.956	14512
530.024	15225
530.092	13849
530.161	20168
530.229	29963
530.297	15430
530.365	14359
530.434	13159
530.502	13403
530.570	12521
530.638	12077
530.707	16456
530.775	16063
530.843	13254
530.911	13433
530.979	13304
531.047	14299
531.115	13404
531.183	13826
531.252	13931
531.320	14089
531.388	13335
531.456	14809
531.524	11459
531.592	15116
531.660	16021
531.728	13380
531.796	12960
531.864	13497
531.932	14389
532.000	14611
532.067	15483
532.135	17782
532.203	19988
532.271	23592
532.339	44412
532.407	96831
532.475	40358
532.542	26175
532.610	31910
532.678	58090
532.746	215383
532.814	330185
532.881	57324
532.949	19028
533.017	16509
533.084	16079
533.152	15331
533.220	17939
533.287	17767
533.355	14768
533.423	14468
533.490	14153
533.558	14793
533.625	16783
533.693	16160
533.761	17209
533.828	18605
533.896	18729
533.963	38617
534.031	42323
534.098	53798
534.166	21408
534.233	16067
534.300	19057
534.368	17971
534.435	17087
534.503	18237
534.570	19791
534.637	20218
534.705	23454
534.772	32827
534.840	67703
534.907	232634
534.974	179450
535.041	27554
535.109	23515
535.176	15970
535.243	16980
535.310	18123
535.378	15853
535.445	14823
535.512	15200
535.579	16076
535.646	14829
535.714	16261
535.781	18637
535.848	18016
535.915	18982
535.982	16987
536.049	17512
536.116	17620
536.183	17567
536.250	17511
536.317	18517
536.384	23925
536.451	33467
536.518	32160
536.585	23629
536.652	30981
536.719	41918
536.786	29143
536.853	27723
536.920	43670
536.987	61939
537.053	71132
537.120	226996
537.187	111314
537.254	19323
537.321	18082
537.388	19489
537.454	16147
537.521	16564
537.588	16913
537.654	20172
537.721	20686
537.788	21125
537.855	17471
537.921	19642
537.988	18636
538.055	18586
538.121	19289
538.188	24004
538.254	37385
538.321	60346
538.388	29741
538.454	20928
538.521	17562
538.587	16970
538.654	16472
538.720	17059
538.787	18351
538.853	19743
538.920	22547
538.986	22640
539.053	19983
539.119	20515
539.185	20113
539.252	27298
539.318	34686
539.385	26000
539.451	23824
539.517	25843
539.583	34366
539.650	83318
539.716	135958
539.782	29453
539.849	20324
539.915	20915
539.981	22275
540.047	25017
540.114	21485
540.180	25477
540.246	24840
540.312	37769
540.378	64623
540.444	57211
540.510	86399
540.576	157208
540.643	33550
540.709	19529
540.775	19710
540.841	20395
540.907	27327
540.973	35281
541.039	34983
541.105	33616
541.171	22780
541.237	21147
541.303	23281
541.369	28309
541.435	37089
541.500	52507
541.566	26927
541.632	19038
541.698	17238
541.764	18962
541.830	18023
541.896	17351
541.961	19355
542.027	20147
542.093	19380
542.159	22620
542.224	24907
542.290	36809
542.356	56251
542.421	50301
542.487	24757
542.553	21429
542.618	22704
542.684	21114
542.750	22422
542.815	31603
542.881	55411
542.947	160208
543.012	68197
543.078	19623
543.143	18218
543.209	22061
543.274	22738
543.340	30685
543.405	71744
543.471	73982
543.536	20690
543.602	19643
543.667	18145
543.732	19127
543.798	17640
543.863	19096
543.928	17009
543.994	16834
544.059	18186
544.124	18313
544.190	18362
544.255	20139
544.320	20496
544.386	23002
544.451	30169
544.516	35122
544.581	42631
544.646	114372
544.712	111036
544.777	26419
544.842	22844
544.907	24014
544.972	21876
545.037	23669
545.102	22624
545.168	24127
545.233	25294
545.298	28625
545.363	32425
545.428	38644
545.493	70565
545.558	113970
545.623	36717
545.688	23483
545.753	23860
545.818	24292
545.883	24561
545.947	24826
546.012	28174
546.077	25935
546.142	26677
546.207	28162
546.272	35625
546.337	34652
546.401	28750
546.466	28333
546.531	27739
546.596	31417
546.661	29788
546.725	30685
546.790	29105
546.855	32472
546.919	32975
546.984	36165
547.049	38676
547.113	44596
547.178	43037
547.243	50061
547.307	55803
547.372	64014
547.436	63027
547.501	58612
547.565	64034
547.630	67386
547.695	61669
547.759	65891
547.823	57527
547.888	57654
547.952	57852
548.017	62419
548.081	67576
548.146	72382
548.210	66533
548.274	65112
548.339	61553
548.403	58450
548.468	54723
548.532	55863
548.596	57557
548.660	58923
548.725	66216
548.789	73411
548.853	69433
548.917	65875
548.982	69875
549.046	61931
549.110	51218
549.174	52649
549.238	59724
549.303	63483
549.367	64654
549.431	61682
549.495	58801
549.559	61780
549.623	69991
549.687	79728
549.751	88638
549.815	87227
549.879	83646
549.943	80496
550.007	86854
550.071	85662
550.135	85154
550.199	76306
550.263	73197
550.327	72763
550.391	81639
550.455	79864
550.519	82424
550.582	90826
550.646	111238
550.710	104905
550.774	95742
550.838	95956
550.901	99785
550.965	108252
551.029	112422
551.093	122695
551.156	144083
551.220	192886
551.284	183845
551.347	134838
551.411	164874
551.475	141106
551.538	103349
551.602	94770
551.666	91320
551.729	84257
551.793	82954
551.856	83407
551.920	81504
551.983	81891
552.047	81403
552.110	81263
552.174	83063
552.237	83188
552.301	77105
552.364	76608
552.428	74917
552.491	77502
552.554	79314
552.618	81748
552.681	84655
552.745	88809
552.808	114615
552.871	125457
552.934	93956
552.998	82566
553.061	79505
553.124	75510
553.187	75447
553.251	79525
553.314	77538
553.377	81073
553.440	93881
553.503	128181
553.567	127043
553.630	84793
553.693	80343
553.756	81701
553.819	77958
553.882	76751
553.945	77719
554.008	78537
554.071	76840
554.134	78531
554.197	73176
554.260	75636
554.323	78070
554.386	77611
554.449	78761
554.512	78656
554.575	75430
554.638	76700
554.701	73853
554.764	73076
554.827	70085
554.889	68157
554.952	64535
555.015	65464
555.078	65253
555.141	65980
555.203	64898
555.266	66316
555.329	65157
555.391	63185
555.454	63958
555.517	61396
555.580	57686
555.642	55958
555.705	55666
555.768	55859
555.830	54320
555.893	51412
555.955	51444
556.018	49505
556.080	51214
556.143	51250
556.206	50584
556.268	51470
556.330	51866
556.393	50627
556.455	49297
556.518	59391
556.580	51633
556.643	44915
556.705	43814
556.767	43699
556.830	44791
556.892	49653
556.955	60156
557.017	45918
557.079	41495
557.142	43429
557.204	49075
557.266	73886
557.328	52296
557.391	37799
557.453	36485
557.515	37334
557.577	43514
557.639	41452
557.701	35807
557.764	35977
557.826	37138
557.888	40679
557.950	42505
558.012	50276
558.074	70640
558.136	151872
558.198	252637
558.260	69111
558.322	40906
558.384	42561
558.446	47195
558.508	55137
558.570	71464
558.632	115973
558.694	158462
558.756	216410
558.818	588296
558.880	937398
558.942	256928
559.003	271827
559.065	94510
559.127	55491
559.189	60757
559.251	80348
559.312	127959
559.374	303920
559.436	714412
559.498	218179
559.559	57870
559.621	61791
559.683	84911
559.744	149512
559.806	425425
559.868	410897
559.929	77068
559.991	71808
560.052	122416
560.114	274940
560.176	135126
560.237	181796
560.299	203539
560.360	42323
560.422	28371
560.483	27965
560.545	25853
560.606	25850
560.667	25069
560.729	24305
560.790	23495
560.852	23768
560.913	23003
560.974	23539
561.036	23483
561.097	23674
561.158	23961
561.220	24918
561.281	25003
561.342	26781
561.403	32458
561.465	41886
561.526	85583
561.587	78864
561.648	26502
561.709	23307
561.771	23156
561.832	23048
561.893	22647
561.954	23021
562.015	21967
562.076	23018
562.137	22276
562.198	23321
562.259	22507
562.320	24550
562.381	27478
562.442	37053
562.503	27077
562.564	22413
562.625	21326
562.686	23520
562.747	26021
562.808	23289
562.869	22363
562.930	25908
562.991	23775
563.051	24244
563.112	21593
563.173	22334
563.234	20913
563.294	22433
563.355	21584
563.416	22589
563.477	21864
563.537	23202
563.598	22220
563.659	23202
563.720	21864
563.780	23816
563.841	22596
563.901	21817
563.962	22238
564.023	21717
564.083	21535
564.144	22939
564.204	22142
564.265	24277
564.325	26961
564.386	43499
564.446	31272
564.507	20691
564.567	20530
564.628	21860
564.688	20571
564.749	21722
564.809	24752
564.869	25964
564.930	20378
564.990	21660
565.050	21391
565.111	21466
565.171	20905
565.231	20923
565.292	21779
565.352	20639
565.412	21189
565.472	22553
565.532	22798
565.593	21694
565.653	21637
565.713	23859
565.773	24666
565.833	29156
565.893	31232
565.953	22044
566.013	21449
566.074	24702
566.134	30039
566.194	42441
566.254	37501
566.314	26704
566.374	22082
566.434	24314
566.494	23074
566.554	24156
566.614	24392
566.673	25000
566.733	25947
566.793	27738
566.853	27434
566.913	26863
566.973	27429
567.033	29579
567.092	30291
567.152	27251
567.212	28124
567.272	27436
567.331	27832
567.391	30298
567.451	31422
567.511	38892
567.570	33758
567.630	27493
567.690	26122
567.749	26989
567.809	27845
567.868	32410
567.928	34587
567.988	38772
568.047	43510
568.107	55206
568.166	71797
568.226	109192
568.285	131012
568.345	103133
568.404	81629
568.464	71532
568.523	68452
568.582	72883
568.642	85944
568.701	108802
568.761	160281
568.820	228768
568.879	193585
568.939	141543
568.998	100969
569.057	78631
569.116	64659
569.176	53272
569.235	45105
569.294	40387
569.353	37251
569.413	35333
569.472	30942
569.531	30408
569.590	28147
569.649	28082
569.708	25096
569.767	29112
569.827	34108
569.886	26924
569.945	23597
570.004	24216
570.063	23711
570.122	26378
570.181	24686
570.240	28300
570.299	27600
570.358	29074
570.417	21515
570.475	22177
570.534	22891
570.593	24190
570.652	24824
570.711	25098
570.770	21604
570.829	23395
570.887	23067
570.946	25788
571.005	19739
571.064	21691
571.122	23533
571.181	23890
571.240	20508
571.299	20308
571.357	20168
571.416	21849
571.475	23621
571.533	22937
571.592	20697
571.650	21592
571.709	19108
571.768	21227
571.826	20492
571.885	19327
571.943	17490
572.002	19481
572.060	18615
572.119	17935
572.177	17216
572.236	17038
572.294	17735
572.352	18504
572.411	18562
572.469	18205
572.528	19254
572.586	20441
572.644	23603
572.703	28307
572.761	20372
572.819	17369
572.877	16343
572.936	16665
572.994	16506
573.052	17184
573.110	19069
573.169	17935
573.227	15588
573.285	16513
573.343	16303
573.401	16687
573.459	17182
573.517	18015
573.576	16979
573.634	17640
573.692	18873
573.750	17856
573.808	16799
573.866	18323
573.924	20955
573.982	20047
574.040	15606
574.098	17532
574.155	15517
574.213	17311
574.271	16706
574.329	17573
574.387	14683
574.445	15453
574.503	14627
574.560	14936
574.618	13591
574.676	15175
574.734	14756
574.792	16392
574.849	15141
574.907	13426
574.965	13775
575.022	13399
575.080	13716
575.138	15406
575.195	15632
575.253	16520
575.311	17374
575.368	15901
575.426	13593
575.483	15165
575.541	14057
575.598	14278
575.656	14945
575.713	15279
575.771	13655
575.828	15115
575.886	14331
575.943	15098
576.001	14613
576.058	15523
576.115	16737
576.173	20226
576.230	20102
576.287	22376
576.345	16747
576.402	16437
576.459	15032
576.517	16166
576.574	16969
576.631	18167
576.688	15846
576.746	15957
576.803	15093
576.860	14329
576.917	15019
576.974	15938
577.031	15676
577.089	15736
577.146	15605
577.203	16335
577.260	16515
577.317	16842
577.374	18102
577.431	18179
577.488	15740
577.545	15593
577.602	13844
577.659	15521
577.716	14667
577.773	15427
577.830	13947
577.886	14675
577.943	13135
578.000	14052
578.057	15079
578.114	15709
578.171	15307
578.227	15267
578.284	14008
578.341	15229
578.398	15072
578.454	15833
578.511	16952
578.568	18771
578.625	15022
578.681	15196
578.738	14323
578.794	14735
578.851	14588
578.908	15961
578.964	16435
579.021	17241
579.077	16459
579.134	15274
579.190	15229
579.247	15783
579.303	14165
579.360	13776
579.416	14682
579.473	14716
579.529	13336
579.586	14750
579.642	14928
579.698	16121
579.755	15330
579.811	15235
579.867	15454
579.924	14440
579.980	14757
580.036	15101
580.093	16211
580.149	16776
580.205	15933
580.261	17109
580.317	15863
580.374	17765
580.430	17879
580.486	17842
580.542	15398
580.598	17255
580.619	16883
580.654	16257
580.692	16110
580.710	16065
580.765	15929
580.767	15944
580.823	16423
580.838	16422
580.879	16465
580.911	15651
580.935	15106
580.984	15252
580.991	15289
581.047	16866
581.057	16612
581.103	15571
581.130	16231
581.159	16933
581.203	15580
581.215	15255
581.270	16806
581.276	16698
581.326	15747
581.349	15886
581.382	16184
581.422	15717
581.438	15515
581.494	16447
581.494	16432
581.550	16266
581.567	16394
581.606	16657
581.640	16481
581.661	16412
581.713	17510
581.717	17610
581.773	15639
581.786	15757
581.829	16222
581.859	16531
581.885	16793
581.932	15998
581.940	15876
581.996	17090
582.004	17072
582.052	16803
582.077	16144
582.107	15539
582.150	16624
582.163	16921
582.219	16372
582.223	16440
582.274	17506
582.296	17355
582.330	17112
582.368	17603
582.386	17829
582.441	16724
582.441	16728
582.497	16621
582.514	16488
582.552	16368
582.587	16994
582.608	17316
582.659	16142
582.663	16062
582.719	17088
582.732	16789
582.774	15832
582.805	16025
582.830	16221
582.877	16460
582.885	16484
582.941	16791
582.950	16741
582.996	16667
583.023	17401
583.052	18228
583.095	17305
583.107	16999
583.162	17954
583.168	17919
583.218	17700
583.240	17266
583.273	16715
583.313	16864
583.328	16908
583.384	17504
583.385	17463
583.439	16322
583.458	16611
583.494	16980
583.531	16867
583.549	16922
583.603	17649
583.605	17660
583.660	16398
583.676	16524
583.715	17279
583.748	17106
583.770	16734
583.820	17532
583.825	17621
583.881	17130
583.893	17060
583.936	17015
583.965	17221
583.991	17255
584.038	16979
584.046	16927
584.101	17092
584.110	17140
584.156	17639
584.183	17528
584.211	17145
584.255	16781
584.266	16756
584.321	16722
584.328	16860
584.376	17935
584.400	17784
584.431	17589
584.472	17765
584.486	17781
584.541	18472
584.545	18500
584.596	18788
584.617	18798
584.651	18968
584.689	19271
584.706	19377
584.761	19872
584.762	19883
584.816	20252
584.834	20214
584.871	20345
584.906	20602
584.926	20598
584.978	20452
584.980	20455
585.035	22284
585.051	22457
585.090	22756
585.123	23116
585.145	23241
585.195	23200
585.200	23220
585.254	25651
585.267	26129
585.309	27997
585.340	30385
585.364	31899
585.412	33726
585.419	34033
585.473	41211
585.484	43080
585.528	51269
585.556	60112
585.583	71250
585.628	99129
585.637	106962
585.692	211716
585.700	224153
585.747	277208
585.772	212882
585.801	119155
585.845	54223
585.856	43864
585.910	33029
585.917	31993
585.965	28214
585.989	27676
586.019	27636
586.061	27440
586.074	27257
586.128	27631
586.133	27667
586.183	28124
586.205	28398
586.237	28658
586.277	28502
586.292	28370
586.346	28053
586.349	28076
586.401	28593
586.421	29181
586.455	30392
586.493	31753
586.509	32523
586.564	36414
586.565	36663
586.618	47934
586.637	46647
586.672	40428
586.709	36246
586.727	34841
586.781	35139
586.781	35118
586.835	32991
586.853	32702
586.889	32434
586.925	32525
586.944	32677
586.996	34362
586.998	34394
587.052	34822
587.068	35221
587.106	35771
587.140	36194
587.161	36749
587.212	38147
587.215	38189
587.269	39834
587.284	40218
587.323	40660
587.356	41199
587.377	41906
587.427	43816
587.431	43898
587.485	45711
587.499	46108
587.539	47518
587.571	48631
587.593	49359
587.643	51900
587.648	52121
587.702	54749
587.715	55614
587.755	58767
587.786	60692
587.810	61960
587.858	65946
587.864	66420
587.917	70981
587.930	72390
587.971	78052
588.001	81813
588.025	84286
588.073	90622
588.079	91561
588.133	100832
588.145	103274
588.187	113138
588.217	120634
588.241	127532
588.288	143206
588.295	145416
588.348	166099
588.360	171251
588.402	191308
588.431	207614
588.456	224272
588.503	261554
588.510	267450
588.564	323845
588.575	337845
588.617	401341
588.646	452201
588.671	509345
588.718	632632
588.725	659084
588.778	890361
588.789	942232
588.832	1206699
588.861	1377349
588.886	1464659
588.932	1503320
588.939	1482457
588.993	1333310
589.004	1335443
589.047	1455024
589.075	1439961
589.100	1283034
589.147	955218
589.154	920896
589.207	702084
589.218	664979
589.261	612626
589.290	589931
589.314	604633
589.361	654731
589.368	674304
589.421	869112
589.433	916584
589.475	1175546
589.504	1329132
589.528	1362111
589.576	1348980
589.582	1334608
589.635	1294263
589.647	1256745
589.689	946483
589.718	730051
589.742	609530
589.790	403589
589.795	390876
589.849	291699
589.861	271151
589.902	231993
589.932	204186
589.955	187658
590.004	156531
590.009	154194
590.062	132796
590.075	128015
590.115	117669
590.146	109854
590.168	105857
590.218	98470
590.222	97764
590.275	89248
590.289	87190
590.328	82248
590.360	78505
590.381	76261
590.431	71010
590.435	70734
590.488	67263
590.503	66441
590.541	63890
590.574	61805
590.594	61046
590.645	58896
590.647	58758
590.700	55946
590.716	55311
590.753	54281
590.787	53285
590.806	52695
590.859	51182
590.859	51120
590.912	48593
590.930	47940
590.965	47382
591.001	46725
591.018	46374
591.071	45793
591.072	45808
591.124	45022
591.143	44843
591.177	44337
591.214	43863
591.230	43817
591.283	43788
591.285	43796
591.336	42793
591.356	42504
591.389	42431
591.427	42055
591.442	41364
591.495	39193
591.498	39038
591.547	37993
591.569	37656
591.600	37733
591.640	37736
591.653	37612
591.706	37266
591.711	37244
591.759	37282
591.782	37405
591.811	37740
591.853	38187
591.864	38036
591.917	37229
591.924	37136
591.969	36246
591.995	35797
592.022	35717
592.066	35657
592.075	35812
592.127	36866
592.137	37102
592.180	38003
592.208	38515
592.233	37446
592.279	35437
592.285	35332
592.338	34677
592.350	34539
592.390	34487
592.421	34502
592.443	34217
592.491	33612
592.495	33610
592.548	33798
592.562	33865
592.600	34005
592.633	34151
592.653	33642
592.704	32181
592.705	32377
592.775	33048
592.846	32647
592.916	33179
592.987	33528
593.058	34103
593.128	31324
593.199	32052
593.270	31860
593.341	31106
593.411	32194
593.482	31735
593.553	32414
593.623	32089
593.694	32010
593.764	32654
593.835	32030
593.906	32838
593.976	31878
594.047	33108
594.117	34608
594.188	33816
594.258	31900
594.329	31104
594.399	32968
594.470	32783
594.540	33390
594.611	33098
594.681	32999
594.751	33342
594.822	33945
594.892	34178
594.963	34844
595.033	35237
595.103	34934
595.174	36351
595.244	40093
595.314	44166
595.384	37231
595.455	36190
595.525	36886
595.595	38524
595.665	37808
595.736	37896
595.806	37754
595.876	37330
595.946	37486
596.016	39293
596.087	39362
596.157	39860
596.227	38622
596.297	41050
596.367	43487
596.437	44427
596.507	47434
596.577	49000
596.647	45152
596.717	45959
596.787	45692
596.857	45912
596.927	46014
596.997	47129
597.067	46872
597.137	49267
597.207	48202
597.277	48664
597.347	46446
597.417	45610
597.487	47442
597.557	47023
597.626	47766
597.696	48646
597.766	50621
597.836	51334
597.906	45353
597.975	43017
598.045	42870
598.115	44665
598.185	46291
598.254	51399
598.324	53578
598.394	54890
598.464	53713
598.533	52039
598.603	49858
598.672	49785
598.742	49433
598.812	48970
598.881	50681
598.951	50186
599.020	49678
599.090	50977
599.159	51720
599.229	51620
599.299	49134
599.368	50674
599.437	49735
599.507	46930
599.576	46832
599.646	46520
599.715	46166
599.785	45869
599.854	45129
599.924	45427
599.993	45026
600.062	44465
600.132	45466
600.201	47866
600.270	52714
600.340	55290
600.409	54688
600.478	53489
600.547	54262
600.617	51860
600.686	44326
600.755	41834
600.824	39887
600.894	39302
600.963	38649
601.032	38326
601.101	37374
601.170	37793
601.239	36200
601.308	36965
601.378	37327
601.447	36503
601.516	36297
601.585	37600
601.654	38055
601.723	37482
601.792	37927
601.861	38556
601.930	40912
601.999	42737
602.068	40084
602.137	41382
602.206	42149
602.275	40948
602.343	43275
602.412	45206
602.481	41027
602.550	41925
602.619	41956
602.688	44138
602.756	42216
602.825	43621
602.894	43246
602.963	44535
603.032	44124
603.100	44191
603.169	44602
603.238	44673
603.307	43813
603.375	44813
603.444	45000
603.513	45280
603.581	45164
603.650	47450
603.719	45086
603.787	45118
603.856	47659
603.924	47693
603.993	48149
604.061	50008
604.130	52134
604.198	53087
604.267	52819
604.335	54225
604.404	54926
604.472	56115
604.541	54505
604.609	56075
604.678	56219
604.746	56725
604.815	56770
604.883	57437
604.951	58893
605.020	58507
605.088	60129
605.156	59762
605.225	60734
605.293	60180
605.361	60821
605.429	61097
605.498	62073
605.566	63825
605.634	65255
605.702	67332
605.771	68975
605.839	69201
605.907	68069
605.975	66642
606.043	65292
606.111	65455
606.180	65790
606.248	65536
606.316	65321
606.384	64934
606.452	66274
606.520	69883
606.588	68400
606.656	67131
606.724	65641
606.792	61461
606.860	56291
606.928	52547
606.996	50733
607.064	49854
607.132	51394
607.200	52489
607.267	55556
607.335	54780
607.403	57845
607.471	54635
607.539	54473
607.607	55286
607.674	48006
607.742	50074
607.810	49106
607.878	49530
607.946	50412
608.013	52058
608.081	51644
608.149	53831
608.216	54384
608.284	56129
608.352	55250
608.419	55698
608.487	57730
608.555	54385
608.622	55291
608.690	58194
608.757	61432
608.825	64372
608.893	62292
608.960	64403
609.028	62495
609.095	61417
609.163	57743
609.230	53787
609.298	48988
609.365	50634
609.432	55324
609.500	59306
609.567	67224
609.635	73969
609.702	78552
609.769	75673
609.837	61953
609.904	53948
609.971	55127
610.039	62859
610.106	76195
610.173	129478
610.241	278209
610.308	228753
610.375	127382
610.442	64475
610.509	56027
610.577	56929
610.644	56744
610.711	56918
610.778	59165
610.845	60913
610.912	63355
610.980	65788
611.047	66830
611.114	66043
611.181	63326
611.248	62553
611.315	65216
611.382	66678
611.449	68250
611.516	70086
611.583	69013
611.650	68981
611.717	70586
611.784	71814
611.851	75112
611.918	81318
611.984	91210
612.051	121277
612.118	220947
612.185	505577
612.252	330678
612.319	103177
612.386	87961
612.452	82779
612.519	79019
612.586	81284
612.653	79518
612.719	82205
612.786	77229
612.853	73316
612.919	72403
612.986	73932
613.053	68769
613.120	65485
613.186	62334
613.253	64323
613.319	62699
613.386	64606
613.453	66528
613.519	68977
613.586	70075
613.652	78547
613.719	72709
613.785	71594
613.852	67274
613.918	65061
613.985	68050
614.051	72633
614.118	76917
614.184	75280
614.250	65795
614.317	67912
614.383	65300
614.449	68057
614.516	67551
614.582	67922
614.648	66996
614.715	65790
614.781	64854
614.847	65048
614.914	65019
614.980	64932
615.046	64643
615.112	65735
615.179	67150
615.245	69255
615.311	72207
615.377	84756
615.443	83398
615.509	72715
615.575	71908
615.642	70790
615.708	73102
615.774	77121
615.840	81724
615.906	89866
615.972	112083
616.038	172878
616.104	296329
616.170	617281
616.236	529540
616.302	142540
616.368	105827
616.434	84612
616.500	81593
616.565	86362
616.631	96306
616.697	87026
616.763	89114
616.829	114518
616.895	180279
616.961	173034
617.026	90718
617.092	72328
617.158	71113
617.224	69775
617.289	66404
617.355	64790
617.421	64468
617.487	64440
617.552	61111
617.618	61426
617.684	60216
617.749	63807
617.815	59054
617.880	58664
617.946	58591
618.012	60039
618.077	60420
618.143	60591
618.208	59480
618.274	63738
618.339	64635
618.405	55978
618.470	56596
618.536	55933
618.601	56533
618.667	54349
618.732	51824
618.798	52643
618.863	51805
618.928	51008
618.994	53753
619.059	54072
619.124	58716
619.190	54012
619.255	50426
619.320	51240
619.386	51782
619.451	50267
619.516	49562
619.581	51016
619.647	50951
619.712	51878
619.777	50192
619.842	52888
619.907	52648
619.972	51474
620.038	51961
620.103	50319
620.168	49051
620.233	51612
620.298	51144
620.363	50898
620.428	53028
620.493	53909
620.558	52992
620.623	53925
620.688	53606
620.753	53452
620.818	54164
620.883	53813
620.948	54090
621.013	53782
621.078	53418
621.143	53898
621.207	56758
621.272	54469
621.337	54610
621.402	55010
621.467	56931
621.532	56739
621.596	56189
621.661	53243
621.726	52445
621.791	53195
621.855	53532
621.920	54869
621.985	53552
622.049	56573
622.114	56265
622.179	55144
622.243	56403
622.308	57045
622.373	58186
622.437	59110
622.502	55303
622.566	55380
622.631	54378
622.695	57123
622.760	56256
622.824	56098
622.889	56052
622.953	59275
623.018	67467
623.082	66224
623.147	56922
623.211	57766
623.276	57311
623.340	54668
623.404	53897
623.469	53989
623.533	53952
623.597	53580
623.662	52324
623.726	51218
623.790	48104
623.854	47989
623.919	47884
623.983	48680
624.047	49422
624.111	48122
624.176	50524
624.240	51390
624.304	55557
624.368	50273
624.432	49207
624.496	50930
624.560	53181
624.625	54603
624.689	51455
624.753	53516
624.817	50951
624.881	49554
624.945	47106
625.009	44969
625.073	47415
625.137	47968
625.201	51686
625.265	53309
625.329	47292
625.393	49204
625.456	47743
625.520	48802
625.584	49458
625.648	51918
625.712	56737
625.776	74973
625.839	79201
625.903	51241
625.967	42258
626.031	50076
626.095	60183
626.158	45579
626.222	36842
626.286	37397
626.349	34608
626.413	32742
626.477	35093
626.540	32492
626.604	31957
626.668	32598
626.731	31652
626.795	32312
626.858	31902
626.922	31748
626.986	31298
627.049	29631
627.113	31117
627.176	30741
627.240	30595
627.303	29644
627.366	30085
627.430	31257
627.493	29660
627.557	29999
627.620	29492
627.684	29924
627.747	30145
627.810	26854
627.874	26374
627.937	25392
628.000	27327
628.064	26599
628.127	23156
628.190	25433
628.253	23494
628.317	22864
628.380	22050
628.443	21429
628.506	22933
628.569	21911
628.632	21024
628.696	21389
628.759	19742
628.822	19600
628.885	19118
628.948	20232
629.011	20025
629.074	19604
629.137	18916
629.200	17908
629.263	20082
629.326	17239
629.389	17743
629.452	18315
629.515	17868
629.578	17766
629.641	19373
629.704	17664
629.767	18555
629.830	17889
629.892	16997
629.955	15699
630.018	18931
630.081	18018
630.144	20855
630.207	17616
630.269	17955
630.332	17126
630.395	15907
630.458	15614
630.520	13808
630.583	16061
630.646	16188
630.708	15657
630.771	14455
630.834	16723
630.896	14901
630.959	16203
631.021	14756
631.084	15404
631.146	15115
631.209	17222
631.272	14795
631.334	15078
631.397	15130
631.459	14855
631.522	15190
631.584	15559
631.646	15979
631.709	16239
631.771	18275
631.834	17531
631.896	15560
631.958	14408
632.021	14290
632.083	13915
632.145	14420
632.208	14163
632.270	14738
632.332	14926
632.395	13725
632.457	14905
632.519	13446
632.581	15374
632.643	13461
632.706	15363
632.768	12680
632.830	14230
632.892	13712
632.954	13811
633.016	14948
633.078	13961
633.141	13418
633.203	13358
633.265	13527
633.327	14683
633.389	13853
633.451	15325
633.513	15658
633.575	15459
633.637	14847
633.698	15012
633.760	14598
633.822	14121
633.884	14698
633.946	14263
634.008	13736
634.070	14927
634.132	14694
634.193	14567
634.255	15905
634.317	15765
634.379	16768
634.441	15547
634.502	13467
634.564	14342
634.626	13218
634.687	13493
634.749	13469
634.811	13242
634.873	12469
634.934	12940
634.996	13086
635.057	12186
635.119	12263
635.181	13430
635.242	13052
635.304	11527
635.365	14859
635.427	12485
635.488	12595
635.550	12965
635.611	13302
635.673	11289
635.734	14255
635.796	13238
635.857	15290
635.918	13590
635.980	14489
636.041	14588
636.102	16177
636.164	16070
636.225	15750
636.286	13781
636.348	13140
636.409	13395
636.470	12619
636.531	12214
636.593	12338
636.654	13236
636.715	11953
636.776	12103
636.838	10858
636.899	12276
636.960	11449
637.021	11598
637.082	11534
637.143	11350
637.204	10361
637.265	10549
637.326	11335
637.387	10880
637.448	9835
637.509	11609
637.570	10938
637.631	11346
637.692	9922
637.753	9591
637.814	10844
637.875	10178
637.936	11625
637.997	10993
638.058	11235
638.119	11199
638.179	10506
638.240	9727
638.301	10906
638.362	9714
638.423	9742
638.483	11395
638.544	9121
638.605	10755
638.666	8809
638.726	11167
638.787	11548
638.848	10424
638.908	9706
638.969	9367
639.030	10053
639.090	9073
639.151	9748
639.211	10950
639.272	12076
639.332	17041
639.393	12583
639.453	9812
639.514	10525
639.574	10324
639.635	9011
639.695	10166
639.756	9437
639.816	10681
639.877	9571
639.937	15509
639.997	17670
640.058	9594
640.118	8331
640.178	9869
640.239	8233
640.299	8889
640.359	8973
640.420	9667
640.480	9837
640.540	10395
640.600	9409
640.661	10851
640.721	9395
640.781	12550
640.841	10032
640.901	9557
640.961	9931
641.021	9859
641.082	9733
641.142	12676
641.202	10957
641.262	7934
641.322	9189
641.382	7835
641.442	9222
641.502	9511
641.562	8935
641.622	8830
641.682	9088
641.742	9446
641.802	9900
641.861	9710
641.921	8080
641.981	10054
642.041	9902
642.101	10663
642.161	8337
642.221	8108
642.280	7791
642.340	8621
642.400	7042
642.460	9241
642.519	9008
642.579	8847
642.639	8385
642.698	6176
642.758	10534
642.818	9448
642.877	8014
642.937	9276
642.997	9557
643.056	12843
643.116	8768
643.175	9366
643.235	8786
643.294	8820
643.354	9976
643.414	10253
643.473	11425
643.532	12344
643.592	15764
643.651	24032
643.711	39520
643.770	73560
643.830	166237
643.889	369865
643.948	96656
644.008	18944
644.067	12163
644.126	11273
644.186	9138
644.245	9236
644.304	7261
644.363	10221
644.423	7334
644.482	8857
644.541	8183
644.600	6808
644.659	10140
644.719	10849
644.778	15075
644.837	21640
644.896	39135
644.955	89359
645.014	33830
645.073	11680
645.132	8615
645.191	9283
645.250	8574
645.309	9693
645.368	8130
645.427	11041
645.486	12528
645.545	21547
645.604	9172
645.663	8391
645.722	8512
645.781	9602
645.840	10150
645.898	11778
645.957	15575
646.016	20738
646.075	35797
646.134	65026
646.192	166528
646.251	262946
646.310	42500
646.369	13701
646.427	10768
646.486	9009
646.545	8326
646.603	8138
646.662	8465
646.721	7619
646.779	7097
646.838	7211
646.896	8653
646.955	10009
647.014	13799
647.072	22180
647.131	55969
647.189	31136
647.248	7405
647.306	7244
647.365	6951
647.423	5361
647.481	7530
647.540	5285
647.598	6604
647.657	5737
647.715	6776
647.773	5551
647.832	6261
647.890	5012
647.948	5458
648.007	5989
648.065	5119
648.123	5244
648.181	7210
648.240	6134
648.298	5430
648.356	5407
648.414	5638
648.472	5787
648.531	5303
648.589	5385
648.647	4715
648.705	5458
648.763	5350
648.821	5738
648.879	5399
648.937	6285
648.995	6591
649.053	8149
649.111	11714
649.169	17746
649.227	27817
649.285	52698
649.343	151131
649.401	80878
649.459	22267
649.516	14541
649.574	7356
649.632	11813
649.690	12032
649.748	9747
649.806	10456
649.863	18203
649.921	39142
649.979	29277
650.037	7027
650.094	3661
650.152	5101
650.210	4473
650.268	4853
650.325	4392
650.383	4693
650.440	3445
650.498	4494
650.556	4326
650.613	3995
650.671	4435
650.728	4755
650.786	4382
650.843	4172
650.901	3188
650.958	4355
651.016	4011
651.073	3393
651.131	3345
651.188	2759
651.246	4737
651.303	2656
651.360	3831
651.418	2812
651.475	4090
651.532	3044
651.590	4741
651.647	3498
651.704	3538
651.762	3484
651.819	4047
651.876	3384
651.933	3913
651.990	3699
652.048	2735
652.105	2997
652.162	4039
652.219	2253
652.276	3141
652.333	3777
652.390	3112
652.448	3136
652.505	3718
652.562	3779
652.619	3302
652.676	3813
652.733	5490
652.790	3129
652.847	2703
652.904	3458
652.961	2010
653.017	3087
653.074	3639
653.131	2922
653.188	2363
653.245	2958
653.302	2589
653.359	3210
653.415	3822
653.472	2106
653.529	3446
653.586	2412
653.642	3009
653.699	4299
653.756	2857
653.813	2657
653.869	3846
653.926	2429
653.983	2259
654.039	3183
654.096	2852
654.152	3844
654.209	2547
654.266	3938
654.322	2343
654.379	4110
654.435	3798
654.492	3455
654.548	5067
654.605	6123
654.661	5066
654.717	3655
654.774	3236
654.830	2932
654.887	2645
654.943	2651
655.000	3305
655.056	3160
655.112	2483
655.168	2960
655.225	3330
655.281	3833
655.337	3893
655.394	4637
655.450	3952
655.506	4650
655.562	5169
655.618	5089
655.675	1728
655.731	2538
655.787	2457
655.843	3293
655.899	2543
655.955	3272
656.011	3625
656.067	1154
656.123	3724
656.179	2999
656.235	4659
656.291	1823
656.347	3982
656.403	2495
656.459	3258
656.515	3370
656.571	3753
656.627	2775
656.683	3377
656.739	3239
656.795	3172
656.850	2835
656.906	4104
656.962	3757
657.018	2620
657.074	2691
657.129	3297
657.185	4581
657.241	7066
657.297	5421
657.352	3194
657.408	1922
657.464	3261
657.519	3015
657.575	2407
657.630	2750
657.686	2349
657.742	1496
657.797	3072
657.853	2405
657.908	3751
657.964	1830
658.019	2655
658.075	3350
658.130	2739
658.186	1449
658.241	3305
658.297	1401
658.352	2416
658.407	2687
658.463	1717
658.518	2690
658.573	3079
658.629	1846
658.684	2398
658.739	3455
658.795	2725
658.850	2591
658.905	2352
658.960	2531
659.016	1720
659.071	2120
659.126	2765
659.181	2048
659.236	5512
659.291	6537
659.346	2849
659.401	2088
659.457	2853
659.512	2420
659.567	3283
659.622	2278
659.677	1562
659.732	1370
659.787	3308
659.842	2293
659.897	2936
659.952	3334
660.007	2699
660.061	2729
660.116	2087
660.171	1754
660.226	2069
660.281	3206
660.336	1848
660.391	2804
660.445	2494
660.500	3154
660.555	2751
660.610	2254
660.664	3098
660.719	1975
660.774	2947
660.828	2585
660.883	2008
660.938	2499
660.992	1942
661.047	2703
661.101	2550
661.156	3144
661.211	1694
661.265	2529
661.320	2449
661.374	2049
661.429	2382
661.483	2573
661.538	1460
661.592	1997
661.647	1964
661.701	2740
661.755	2263
661.810	2256
661.864	1894
661.919	1630
661.973	3461
662.027	1301
662.081	1973
662.136	1772
662.190	3527
662.244	2569
662.299	2023
662.353	2610
662.407	2491
662.461	2403
662.515	3417
662.569	1847
662.624	3697
662.678	1880
662.732	2175
662.786	2433
662.840	2735
662.894	1704
662.948	1968
663.002	2386
663.056	2806
663.110	1223
663.164	2689
663.218	1899
663.272	2721
663.326	2169
663.380	2464
663.434	2774
663.488	2255
663.542	1499
663.595	2112
663.649	2756
663.703	2957
663.757	2002
663.811	1648
663.864	2315
663.918	2520
663.972	1964
664.026	2197
664.079	1997
664.133	2889
664.187	2217
664.240	2340
664.294	2197
664.348	2493
664.401	2385
664.455	2064
664.508	1614
664.562	2369
664.615	2739
664.669	2212
664.722	2059
664.776	2144
664.829	2265
664.883	2826
664.936	1820
664.990	2514
665.043	3144
665.097	3640
665.150	2950
665.203	1772
665.257	2405
665.310	2761
665.363	2958
665.417	2803
665.470	2626
665.523	3254
665.576	2305
665.630	2333
665.683	2037
665.736	2266
665.789	2993
665.842	1420
665.895	3084
665.949	2757
666.002	1995
666.055	2937
666.108	3010
666.161	3169
666.214	2974
666.267	2718
666.320	3154
666.373	3126
666.426	2841
666.479	2497
666.532	2926
666.585	3128
666.638	3265
666.691	2536
666.744	3246
666.796	2927
666.849	3217
666.902	3367
666.955	2408
667.008	2357
667.060	1966
667.113	1992
667.166	2401
667.219	3247
667.271	2661
667.324	2454
667.377	2675
667.430	2546
667.482	3297
667.535	3460
667.587	3103
667.640	3413
667.693	2900
667.745	4871
667.798	5816
667.850	3114
667.903	2710
667.955	3228
668.008	3169
668.060	2801
668.113	2583
668.165	3244
668.218	2865
668.270	2758
668.322	3010
668.375	2321
668.427	3095
668.479	2035
668.532	3508
668.584	2847
668.636	2937
668.689	3037
668.741	2129
668.793	3098
668.845	3138
668.898	3066
668.950	3117
669.002	2924
669.054	2689
669.106	2394
669.158	2739
669.211	3713
669.263	2333
669.315	3477
669.367	3390
669.419	3287
669.471	3966
669.523	3714
669.575	4565
669.627	3453
669.679	3079
669.731	3320
669.783	2792
669.835	3547
669.886	3558
669.938	3803
669.990	4117
670.042	3087
670.094	4689
670.146	4076
670.197	5059
670.249	6307
670.301	8349
670.353	10432
670.404	14469
670.456	21312
670.508	32257
670.560	52042
670.611	85233
670.663	150640
670.715	336948
670.766	540565
670.818	221373
670.869	44765
670.921	20569
670.972	13974
671.024	9542
671.075	8181
671.127	6780
671.178	5537
671.230	5426
671.281	4349
671.333	4482
671.384	5132
671.436	5047
671.487	5871
671.538	6048
671.590	7297
671.641	9453
671.692	15905
671.744	30853
671.795	23399
671.846	8510
671.897	5620
671.949	4351
672.000	3471
672.051	2874
672.102	4135
672.153	2967
672.204	3682
672.256	3576
672.307	3129
672.358	3229
672.409	2765
672.460	2233
672.511	2526
672.562	2634
672.613	2845
672.664	2116
672.715	3486
672.766	2014
672.817	3025
672.868	2622
672.919	2630
672.970	2627
673.021	1471
673.071	1778
673.122	2023
673.173	2418
673.224	2552
673.275	1630
673.326	2444
673.376	2037
673.427	2006
673.478	1559
673.528	2419
673.579	2374
673.630	1777
673.680	3009
673.731	1714
673.782	2048
673.832	2736
673.883	2695
673.934	1821
673.984	1826
674.035	2132
674.085	2054
674.136	3297
674.186	3036
674.237	2874
674.287	3269
674.338	2490
674.388	2007
674.438	2256
674.489	1965
674.539	2888
674.589	2225
674.640	2282
674.690	2578
674.740	2194
674.791	2626
674.841	1824
674.891	2661
674.942	2541
674.992	2203
675.042	2473
675.092	1124
675.142	1501
675.193	1239
675.243	2289
675.293	1620
675.343	2086
675.393	698
675.443	2936
675.493	2027
675.543	1999
675.593	2363
675.643	2177
675.693	1769
675.743	2291
675.793	2112
675.843	1751
675.893	1960
675.943	1792
675.993	1369
676.043	2287
676.093	1561
676.142	1602
676.192	1599
676.242	2526
676.292	1622
676.341	2525
676.391	2269
676.441	1383
676.491	2029
676.540	854
676.590	1273
676.640	1899
676.689	1123
676.739	600
676.789	1218
676.838	1898
676.888	1325
676.937	1618
676.987	1591
677.037	1906
677.086	602
677.136	1747
677.185	1331
677.235	1459
677.284	2132
677.333	1829
677.383	1126
677.432	1168
677.482	1245
677.531	2085
677.580	1020
677.630	1819
677.679	1830
677.728	1326
677.778	1623
677.827	1135
677.876	1417
677.925	1927
677.975	1775
678.024	1280
678.073	1907
678.122	1233
678.171	894
678.220	1684
678.269	2607
678.319	1397
678.368	1147
678.417	1812
678.466	1543
678.515	1730
678.564	2056
678.613	953
678.662	1544
678.711	1900
678.760	1423
678.809	2010
678.857	1312
678.906	1959
678.955	1999
679.004	1772
679.053	1972
679.102	2283
679.151	1532
679.199	1262
679.248	1330
679.297	2045
679.346	1806
679.394	1803
679.443	1157
679.492	1871
679.540	2102
679.589	1359
679.638	1474
679.686	1326
679.735	1516
679.784	1456
679.832	2152
679.881	1080
679.929	1172
679.978	1616
680.026	1091
680.075	1660
680.123	383
680.172	1826
680.220	556
680.268	1542
680.317	1311
680.365	861
680.414	508
680.462	1669
680.510	1566
680.559	589
680.607	1633
680.655	1686
680.703	1093
680.752	1460
680.800	1047
680.848	1256
680.896	926
680.945	1402
680.993	1600
681.041	784
681.089	487
681.137	994
681.185	635
681.233	845
681.258	600
681.281	342
681.329	1272
681.377	1244
681.380	1290
681.425	1646
681.473	1649
681.502	1812
681.521	1880
681.569	2070
681.617	1905
681.624	1943
681.665	1989
681.713	1409
681.745	1634
681.761	1708
681.809	1994
681.857	2051
681.867	1997
681.904	1706
681.952	1038
681.989	1483
682.000	1581
682.048	1868
682.096	2346
682.111	2055
682.143	1334
682.191	2575
682.233	2778
682.239	2785
682.286	1948
682.334	1340
682.354	1564
682.382	1817
682.430	3149
682.476	2383
682.477	2343
682.525	2175
682.572	2065
682.598	2339
682.620	2541
682.667	2952
682.715	2182
682.720	2282
682.763	2978
682.810	2115
682.841	3167
682.857	3676
682.905	2865
682.952	2981
682.963	3142
683.000	3587
683.047	2614
683.085	3345
683.095	3526
683.142	3530
683.190	3206
683.206	3134
683.237	2965
683.284	3226
683.328	3811
683.332	3831
683.379	3841
683.426	3147
683.449	3279
683.473	3395
683.521	2876
683.568	3410
683.571	3467
683.615	4056
683.662	3768
683.693	3615
683.709	3463
683.757	3568
683.804	3754
683.814	3743
683.851	3673
683.898	3737
683.936	3804
683.945	3800
683.992	3856
684.039	4137
684.057	4131
684.086	4089
684.133	3597
684.179	3884
684.180	3874
684.227	5066
684.274	4982
684.300	4797
684.321	4574
684.368	5448
684.415	4967
684.422	4853
684.462	4081
684.509	4194
684.543	4207
684.556	4232
684.603	5110
684.649	4424
684.665	4662
684.696	5024
684.743	4901
684.786	5301
684.790	5334
684.837	4530
684.883	5256
684.908	5431
684.930	5524
684.977	5076
685.023	5704
685.029	5692
685.070	5419
685.117	5577
685.150	5279
685.164	5193
685.210	5924
685.257	5994
685.272	6112
685.303	6268
685.350	5694
685.393	6130
685.396	6163
685.443	6656
685.490	6704
685.514	6846
685.536	6819
685.583	7044
685.629	6210
685.636	6348
685.675	7119
685.722	5894
685.757	6048
685.768	6122
685.815	6759
685.861	6613
685.878	6617
685.908	6566
685.954	7000
686.000	6905
686.000	6900
686.047	6703
686.093	7174
686.121	7411
686.139	7419
686.185	7841
686.232	6750
686.242	6678
686.278	6401
686.324	6753
686.363	6389
686.370	6350
686.416	6708
686.463	6948
686.484	6844
686.509	6680
686.555	6629
686.601	6570
686.606	6605
686.647	6907
686.693	7020
686.727	7062
686.739	7073
686.785	7624
686.831	6441
686.848	6592
686.877	6896
686.923	6832
686.969	6973
686.969	6972
687.015	7021
687.061	7299
687.090	7545
687.107	7608
687.153	7192
687.199	7493
687.211	7287
687.245	6884
687.291	7415
687.332	7181
687.336	7168
687.382	8255
687.428	8020
687.453	7946
687.474	7684
687.520	7904
687.565	7114
687.574	7069
687.611	7225
687.657	7709
687.695	7921
687.702	8009
687.748	8479
687.794	9000
687.816	9104
687.839	8840
687.885	8816
687.931	7972
687.937	7903
687.976	7672
688.022	7812
688.058	8005
688.067	8110
688.113	8240
688.158	8061
688.179	8098
688.204	8121
688.249	8071
688.295	8330
688.300	8393
688.340	8957
688.386	8935
688.421	8916
688.431	8821
688.477	8269
688.522	8256
688.542	8046
688.567	8086
688.613	8186
688.658	8455
688.663	8473
688.703	8502
688.749	8793
688.784	8951
688.794	9001
688.839	8628
688.884	9039
688.905	8856
688.930	8548
688.975	8891
689.020	8285
689.026	8269
689.065	8549
689.110	8521
689.146	8616
689.155	8624
689.201	8956
689.246	9407
689.267	9026
689.291	8593
689.336	9390
689.381	8999
689.388	8951
689.426	8841
689.471	9254
689.509	9352
689.516	9363
689.561	8981
689.606	8979
689.630	8786
689.651	8779
689.696	9435
689.741	9594
689.750	9660
689.785	9768
689.830	9787
689.871	9412
689.875	9350
689.920	8903
689.965	8829
689.992	8499
690.010	8623
690.054	9096
690.099	9033
690.112	9321
690.144	9609
690.189	8983
690.233	9347
690.233	9363
690.278	8626
690.323	8916
690.354	8847
690.367	8873
690.412	9114
690.457	8998
690.474	9217
690.501	9558
690.546	9511
690.590	9894
690.595	9880
690.635	9692
690.680	9182
690.716	9317
690.724	9425
690.769	9408
690.813	10337
690.836	10171
690.857	10194
690.902	10449
690.946	11260
690.957	11352
690.991	12495
691.035	14255
691.077	15535
691.080	15532
691.124	15575
691.168	14464
691.198	14253
691.213	14016
691.257	13073
691.301	11804
691.318	11614
691.346	11622
691.390	10816
691.434	10257
691.439	10183
691.478	10155
691.522	10060
691.559	10272
691.567	10402
691.611	10768
691.655	11076
691.680	11212
691.699	11173
691.743	11240
691.787	11029
691.800	11018
691.831	11105
691.875	11325
691.919	11413
691.921	11378
691.964	11111
692.008	11898
692.041	11551
692.052	11372
692.096	11603
692.139	11237
692.162	11143
692.183	11312
692.227	11465
692.271	11599
692.282	11654
692.315	11837
692.359	11723
692.402	12100
692.403	12123
692.447	11838
692.490	11373
692.523	11106
692.534	11239
692.578	11698
692.622	12076
692.643	12314
692.666	12253
692.709	11792
692.753	11397
692.763	11322
692.797	11439
692.840	11537
692.884	11189
692.884	11212
692.928	11796
692.971	12109
693.004	11801
693.015	11704
693.059	11870
693.102	12000
693.124	12035
693.146	11984
693.189	11614
693.233	11439
693.245	11362
693.276	11892
693.320	12532
693.363	13181
693.365	13175
693.407	13110
693.450	13113
693.485	13145
693.493	13267
693.537	13490
693.580	13868
693.605	14055
693.624	14325
693.667	14635
693.710	15338
693.725	15553
693.753	18042
693.797	21718
693.840	25742
693.845	26104
693.883	25088
693.926	23918
693.966	22909
693.970	22652
694.013	19852
694.056	16454
694.086	14444
694.099	14398
694.142	13971
694.185	13412
694.206	13132
694.229	13111
694.272	13200
694.315	13074
694.326	13058
694.358	13426
694.401	13819
694.444	14096
694.446	14082
694.487	14327
694.530	14379
694.566	14486
694.573	14407
694.616	13810
694.659	12942
694.686	12447
694.702	12393
694.745	12227
694.787	12103
694.806	12009
694.830	12234
694.873	12498
694.916	12612
694.926	12700
694.959	13020
695.002	13103
695.044	13312
695.046	13287
695.087	13465
695.130	13566
695.166	13577
695.172	13549
695.215	13310
695.258	12923
695.286	12703
695.301	12792
695.343	12980
695.386	13186
695.406	13174
695.428	13085
695.471	12701
695.514	12731
695.526	12627
695.556	12856
695.599	13297
695.641	13777
695.646	13775
695.684	13551
695.726	13311
695.766	13069
695.769	13122
695.811	13379
695.854	13679
695.886	13919
695.896	13842
695.938	13296
695.981	12735
696.005	12329
696.023	12557
696.065	13260
696.108	13794
696.125	14015
696.150	14189
696.192	14430
696.235	14690
696.245	14676
696.277	14396
696.319	14081
696.361	13785
696.365	13712
696.404	13703
696.446	13832
696.485	13892
696.488	13948
696.530	14104
696.572	14423
696.604	14618
696.614	14594
696.656	14143
696.698	13827
696.724	13619
696.740	13656
696.783	13524
696.825	13530
696.844	13419
696.867	13512
696.909	13758
696.951	13881
696.964	14003
696.992	14212
697.034	13946
697.076	13999
697.083	13952
697.118	14177
697.160	14354
697.202	14641
697.203	14609
697.244	14659
697.286	14652
697.323	14644
697.327	14651
697.369	14314
697.411	14022
697.442	13747
697.453	13876
697.494	14220
697.536	14591
697.562	14791
697.578	14951
697.620	15261
697.661	15565
697.682	15665
697.703	15838
697.744	16172
697.786	16437
697.801	16509
697.828	16667
697.869	16718
697.911	16902
697.921	16879
697.952	16317
697.994	15574
698.035	14852
698.040	14722
698.077	14701
698.118	14559
698.160	14518
698.160	14478
698.201	14778
698.243	15130
698.279	15345
698.284	15394
698.325	15514
698.367	15588
698.399	15584
698.408	15596
698.449	15455
698.491	15366
698.518	15261
698.532	15370
698.573	15521
698.614	15709
698.638	15776
698.656	15938
698.697	16201
698.738	16475
698.757	16558
698.779	16460
698.820	16177
698.862	15900
698.877	15756
698.903	15887
698.944	16018
698.985	16150
698.996	16144
699.026	16230
699.067	16292
699.116	16323
699.235	14961
699.354	14910
699.474	15993
699.593	16321
699.713	17206
699.832	15056
699.951	17821
700.070	16559
700.190	15522
700.309	15323
700.428	15962
700.547	15506
700.667	14867
700.786	16087
700.905	15152
701.024	13984
701.143	14647
701.262	14643
701.381	15011
701.500	15046
701.619	16930
701.738	14879
701.857	14985
701.976	13307
702.095	13942
702.214	15517
702.333	15494
702.452	15128
702.571	14486
702.690	14794
702.809	12780
702.928	13443
703.047	13497
703.165	13589
703.284	13150
703.403	13378
703.522	14866
703.640	13804
703.759	15518
703.878	19060
703.997	13857
704.115	13248
704.234	14025
704.353	13425
704.471	13037
704.590	12828
704.708	12913
704.827	12413
704.946	12875
705.064	12403
705.183	13585
705.301	13875
705.420	17284
705.538	15324
705.656	14735
705.775	14482
705.893	18779
706.012	22026
706.130	15565
706.249	15481
706.367	15302
706.485	15273
706.604	15333
706.722	15137
706.840	18005
706.958	18453
707.077	15647
707.195	13896
707.313	13484
707.431	12467
707.549	13083
707.668	13743
707.786	14048
707.904	13339
708.022	13711
708.140	13706
708.258	13478
708.376	13877
708.494	13249
708.612	14474
708.730	18613
708.848	17555
708.966	16890
709.084	16001
709.202	15288
709.320	15766
709.438	14830
709.556	15719
709.674	15112
709.791	14846
709.909	15219
710.027	14643
710.145	14753
710.263	15100
710.380	15029
710.498	13835
710.616	14204
710.733	14885
710.851	14473
710.969	15217
711.086	13875
711.204	14339
711.322	13700
711.439	14431
711.557	14800
711.674	14151
711.792	14523
711.909	13591
712.027	13689
712.144	13156
712.262	14226
712.379	14949
712.497	19394
712.614	19000
712.732	16601
712.849	15666
712.966	17492
713.084	20133
713.201	16468
713.318	16261
713.436	15790
713.553	16202
713.670	16412
713.787	17707
713.905	17441
714.022	16963
714.139	17025
714.256	18298
714.373	22100
714.490	32056
714.608	66358
714.725	269204
714.842	329165
714.959	30137
715.076	17752
715.193	16309
715.310	14566
715.427	14457
715.544	14080
715.661	14655
715.778	13898
715.895	15196
716.011	14285
716.128	14087
716.245	14057
716.362	17318
716.479	16943
716.596	14432
716.713	13582
716.829	14274
716.946	13781
717.063	13000
717.180	13564
717.296	12159
717.413	13099
717.530	13462
717.646	13544
717.763	12565
717.880	11811
717.996	12290
718.113	13797
718.229	12270
718.346	12263
718.462	12565
718.579	15868
718.695	23844
718.812	18987
718.928	15688
719.045	13318
719.161	11276
719.277	11130
719.394	11296
719.510	12027
719.626	11849
719.743	14594
719.859	16341
719.975	24797
720.092	76407
720.208	191119
720.324	30619
720.440	13279
720.557	14209
720.673	19684
720.789	22986
720.905	36469
721.021	17389
721.137	11526
721.253	12172
721.369	11764
721.486	12287
721.602	15506
721.718	10474
721.834	10056
721.950	10875
722.066	10845
722.181	10004
722.297	11204
722.413	11255
722.529	10524
722.645	9856
722.761	9886
722.877	9685
722.993	9830
723.108	10739
723.224	10643
723.340	10798
723.456	10296
723.571	9858
723.687	9480
723.803	10364
723.918	9551
724.034	9282
724.150	9318
724.265	10065
724.381	16087
724.497	19338
724.612	10417
724.728	8667
724.843	8275
724.959	10391
725.074	15950
725.190	18835
725.305	9947
725.421	9890
725.536	8296
725.651	9232
725.767	8754
725.882	9031
725.997	8757
726.113	9104
726.228	9110
726.343	8621
726.459	7847
726.574	8547
726.689	7432
726.804	8565
726.920	8959
727.035	8639
727.150	9486
727.265	9099
727.380	9081
727.495	9407
727.610	8113
727.725	8321
727.841	8894
727.956	10989
728.071	11229
728.186	8354
728.301	7784
728.416	8490
728.531	8091
728.645	8071
728.760	8497
728.875	8817
728.990	8223
729.105	9154
729.220	8657
729.335	8833
729.449	8512
729.564	7880
729.679	7595
729.794	7505
729.908	7622
730.023	8414
730.138	7696
730.253	7293
730.367	7193
730.482	6731
730.596	8178
730.711	8267
730.826	8483
730.940	8244
731.055	8121
731.169	7592
731.284	7183
731.398	8487
731.513	7768
731.627	8182
731.742	9454
731.856	10267
731.970	8160
732.085	9256
732.199	11376
732.313	14714
732.428	32014
732.542	91916
732.656	62751
732.771	14460
732.885	9455
732.999	9032
733.113	9123
733.227	8933
733.342	8466
733.456	7529
733.570	7414
733.684	7524
733.798	8073
733.912	8057
734.026	7766
734.140	7262
734.254	8365
734.368	10384
734.482	13690
734.596	7409
734.710	7485
734.824	7795
734.938	6836
735.052	8143
735.166	8733
735.280	7803
735.393	7699
735.507	8454
735.621	7905
735.735	11889
735.849	8560
735.962	6771
736.076	7515
736.190	7795
736.303	9140
736.417	11318
736.531	6360
736.644	7494
736.758	6354
736.872	6995
736.985	6868
737.099	6891
737.212	5155
737.326	6924
737.439	7281
737.553	7081
737.666	7404
737.780	6052
737.893	6810
738.007	6082
738.120	6910
738.233	6751
738.347	7184
738.460	6775
738.573	7444
738.687	6626
738.800	7743
738.913	8450
739.026	7127
739.140	5711
739.253	6856
739.366	5780
739.479	5744
739.592	5890
739.705	5342
739.818	6475
739.932	6374
740.045	6135
740.158	6612
740.271	5896
740.384	6099
740.497	5653
740.610	7390
740.723	6248
740.836	6784
740.949	7556
741.062	8067
741.174	7759
741.287	5798
741.400	6507
741.513	6557
741.626	6667
741.739	6894
741.851	6132
741.964	5945
742.077	6025
742.189	5442
742.302	6786
742.415	6424
742.527	5178
742.640	6333
742.753	5997
742.865	5478
742.978	5242
743.090	4880
743.203	5124
743.316	5759
743.428	5105
743.541	5447
743.653	5166
743.766	5258
743.878	5445
743.990	6006
744.103	6874
744.215	7305
744.327	5680
744.440	6822
744.552	9696
744.664	7052
744.777	5630
744.889	5169
745.001	5843
745.113	4839
745.226	4836
745.338	4852
745.450	5248
745.562	5529
745.674	5153
745.786	5619
745.898	4904
746.010	5365
746.122	5112
746.234	5477
746.347	4871
746.459	5470
746.570	4957
746.682	5484
746.794	7217
746.906	5904
747.018	4766
747.130	5324
747.242	4841
747.354	5387
747.466	5300
747.577	4265
747.689	5138
747.801	5409
747.913	3690
748.024	4383
748.136	4248
748.248	4597
748.359	4602
748.471	4270
748.583	5172
748.694	4607
748.806	5393
748.918	5428
749.029	5765
749.141	5301
749.252	5488
749.364	5097
749.475	10309
749.587	7449
749.698	3996
749.809	5069
749.921	4309
750.032	4594
750.144	3716
750.255	4667
750.366	3936
750.478	4987
750.589	4834
750.700	4883
750.811	4978
750.923	5914
751.034	11208
751.145	12039
751.256	5352
751.367	4966
751.479	3929
751.590	3078
751.701	4229
751.812	3900
751.923	4249
752.034	3799
752.145	4480
752.256	3432
752.367	4295
752.478	4522
752.589	4414
752.700	5008
752.811	2927
752.922	4141
753.032	4828
753.143	5529
753.254	4668
753.365	3968
753.476	4114
753.586	4069
753.697	4303
753.808	3980
753.919	3349
754.029	4350
754.140	3826
754.251	4251
754.361	3212
754.472	4400
754.582	4259
754.693	4443
754.804	4301
754.914	3356
755.025	3481
755.135	3473
755.246	3804
755.356	3813
755.466	4487
755.577	4224
755.687	4550
755.798	4254
755.908	3142
756.018	3755
756.129	4344
756.239	4138
756.349	3799
756.460	3559
756.570	4425
756.680	3858
756.790	4171
756.900	5272
757.011	4081
757.121	3667
757.231	3412
757.341	4497
757.451	3345
757.561	3710
757.671	3165
757.781	3920
757.891	3877
758.001	3756
758.111	3746
758.221	3889
758.331	5233
758.441	4691
758.551	6385
758.661	5718
758.771	4939
758.880	3409
758.990	4086
759.100	3711
759.210	3519
759.320	4247
759.429	4352
759.539	4638
759.649	3909
759.758	4874
759.868	5127
759.978	3766
760.087	4787
760.197	4337
760.307	5272
760.416	4081
760.526	4119
760.635	4368
760.745	4390
760.854	4315
760.964	4877
761.073	5425
761.182	4571
761.292	4388
761.401	4667
761.511	3734
761.620	4673
761.729	3975
761.839	4110
761.948	4879
762.057	4821
762.166	4696
762.276	3466
762.385	4595
762.494	4144
762.603	3956
762.712	3937
762.822	3962
762.931	5195
763.040	4760
763.149	4236
763.258	4894
763.367	5078
763.476	4913
763.585	4593
763.694	4653
763.803	4755
763.912	5565
764.021	4802
764.130	4218
764.238	6399
764.347	5308
764.456	5453
764.565	5434
764.674	6378
764.783	6080
764.891	6001
765.000	7576
765.109	7275
765.217	7256
765.326	9464
765.435	11581
765.543	12519
765.652	13927
765.761	18069
765.869	25241
765.978	39168
766.086	64557
766.195	128651
766.303	312256
766.412	754898
766.520	632537
766.629	228623
766.737	87878
766.846	49738
766.954	32699
767.062	25407
767.171	18851
767.279	15440
767.387	12882
767.496	11408
767.604	10615
767.712	9351
767.820	8258
767.928	7828
768.037	7799
768.145	8835
768.253	8202
768.361	7060
768.469	7894
768.577	7063
768.685	8168
768.793	8400
768.901	8592
769.009	9730
769.117	9816
769.225	11492
769.333	18160
769.441	28060
769.549	51365
769.657	114646
769.765	343171
769.873	636938
769.981	269183
770.088	70096
770.196	32626
770.304	22378
770.412	16362
770.519	13510
770.627	10360
770.735	9618
770.842	8265
770.950	8072
771.058	6680
771.165	7679
771.273	6291
771.380	6183
771.488	6674
771.595	5413
771.703	5442
771.810	6799
771.918	5919
772.025	5731
772.133	5517
772.240	5754
772.348	6259
772.455	6114
772.562	5586
772.670	5272
772.777	5954
772.884	6309
772.991	5022
773.099	4577
773.206	4801
773.313	5115
773.420	5344
773.528	4889
773.635	5039
773.742	5168
773.849	4855
773.956	4717
774.063	4591
774.170	4598
774.277	4820
774.384	4456
774.491	4762
774.598	5024
774.705	4710
774.812	5552
774.919	4870
775.026	4412
775.133	5400
775.239	4284
775.346	5100
775.453	4610
775.560	4176
775.667	5388
775.773	4405
775.880	4515
775.987	4470
776.093	4571
776.200	4192
776.307	3341
776.413	4363
776.520	3856
776.627	4625
776.733	4068
776.840	2502
776.946	4917
777.053	6360
777.159	7711
777.266	4852
777.372	8125
777.478	8100
777.585	5183
777.691	4542
777.798	4441
777.904	5060
778.010	5871
778.117	6025
778.223	4132
778.329	3490
778.435	3715
778.542	4213
778.648	3342
778.754	3230
778.860	3947
778.966	3310
779.072	3622
779.178	3418
779.284	3571
779.391	3280
779.497	2596
779.603	4871
779.708	3238
779.815	6153
779.920	13368
780.026	24293
780.132	6048
780.238	3359
780.344	3882
780.450	4758
780.556	3537
780.661	3219
780.767	4027
780.873	3293
780.979	2855
781.085	3747
781.190	3709
781.296	3296
781.402	2559
781.507	2991
781.613	3398
781.719	2074
781.824	3325
781.930	3796
782.035	4009
782.141	3717
782.246	2570
782.352	3483
782.457	2546
782.563	3171
782.668	2696
782.773	3650
782.879	2797
782.984	2589
783.090	4248
783.195	5676
783.300	4775
783.405	3544
783.511	3029
783.616	3465
783.721	3259
783.826	2864
783.932	3167
784.037	2709
784.142	3501
784.247	3360
784.352	3426
784.457	3840
784.562	2959
784.667	3890
784.772	2204
784.877	2241
784.982	3164
785.087	2088
785.192	3245
785.297	2127
785.402	2493
785.507	2727
785.611	3311
785.716	3074
785.821	2766
785.926	2676
786.031	3510
786.135	2369
786.240	2363
786.345	2276
786.450	3274
786.554	2777
786.659	3312
786.763	2511
786.868	3536
786.973	3590
787.077	2547
787.182	2488
787.286	3123
787.391	2706
787.495	3075
787.600	2091
787.704	2492
787.809	3030
787.913	2229
788.017	2483
788.122	2640
788.226	2297
788.330	1979
788.435	2365
788.539	2766
788.643	1956
788.747	2370
788.852	2220
788.956	2363
789.060	3477
789.164	2776
789.268	2290
789.372	2765
789.476	2168
789.580	1760
789.684	2051
789.788	2868
789.892	2292
789.996	2741
790.100	2181
790.204	2695
790.308	2087
790.412	2413
790.516	2628
790.620	2451
790.724	2033
790.828	1966
790.931	1279
791.035	2920
791.139	2300
791.242	2108
791.346	2475
791.450	2773
791.554	2685
791.657	647
791.761	3168
791.864	3617
791.968	2408
792.072	2807
792.175	2052
792.279	2167
792.382	2331
792.486	2652
792.589	2430
792.693	1723
792.796	1575
792.899	2413
793.003	2764
793.106	745
793.209	2262
793.313	3234
793.416	798
793.519	3246
793.623	3991
793.726	5352
793.829	3125
793.932	2693
794.035	1835
794.138	3583
794.242	2143
794.345	2544
794.448	3559
794.551	3792
794.654	8248
794.757	12757
794.860	3557
794.963	2225
795.066	1787
795.169	2712
795.272	1999
795.375	2809
795.477	2187
795.580	1757
795.683	1057
795.786	1617
795.889	1443
795.991	4157
796.094	2129
796.197	1567
796.300	2813
796.402	1741
796.505	1126
796.608	1136
796.710	2360
796.813	1712
796.915	1418
797.018	1777
797.120	2469
797.223	590
797.326	2392
797.428	1706
797.530	1188
797.633	1971
797.735	3163
797.838	2943
797.940	3342
798.042	2031
798.145	1998
798.247	2333
798.349	1354
798.452	2365
798.554	924
798.656	1089
798.758	3197
798.860	2344
798.962	1427
799.065	579
799.167	1382
799.269	2342
799.371	2101
799.473	2285
799.575	2261
799.677	2846
799.779	3448
799.881	3306
799.983	3149
800.085	2170
800.187	1921
800.289	669
800.390	1925
800.492	2264
800.594	3009
800.696	1284
800.798	1977
800.899	980
801.001	1014
801.103	943
801.205	2178
801.306	1391
801.408	164
801.509	1310
801.611	2272
801.713	704
801.814	471
801.916	1414
802.017	1183
802.119	1118
802.220	2319
802.322	257
802.423	2365
802.525	1139
802.626	763
802.727	1894
802.829	2544
802.930	-566
803.031	3691
803.133	1312
803.234	1076
803.335	1663
803.436	838
803.538	1638
803.639	883
803.740	2171
803.841	1053
803.942	1349
804.043	2075
804.144	1183
804.245	1973
804.346	252
804.447	1237
804.548	2579
804.649	3615
804.750	549
804.851	1810
804.952	740
805.053	1085
805.154	700
805.255	2027
805.355	2437
805.456	1628
805.557	627
805.658	740
805.758	1605
805.859	1234
805.960	898
806.061	1239
806.161	357
806.262	1996
806.362	207
806.463	1688
806.564	748
806.664	1260
806.765	1419
806.865	2277
806.966	1455
807.066	681
807.166	1542
807.267	1670
807.367	629
807.468	1689
807.568	31
807.668	2470
807.769	2283
807.869	791
807.969	1320
808.069	1247
808.170	1789
808.270	1752
808.370	1472
808.470	1962
808.570	1397
808.670	275
808.770	1035
808.870	603
808.970	1106
809.070	1549
809.170	648
809.271	1340
809.370	934
809.470	1857
809.570	847
809.670	1005
809.770	1406
809.870	1945
809.970	1313
810.070	1584
810.169	1877
810.269	660
810.369	1917
810.469	806
810.568	586
810.668	917
810.768	610
810.867	1697
810.967	1416
811.066	1224
811.166	400
811.265	948
811.365	1954
811.464	1048
811.564	1970
811.663	1707
811.763	-168
811.862	625
811.962	2116
812.061	1508
812.160	587
812.260	2102
812.359	1493
812.458	2265
812.557	7282
812.657	10031
812.756	4519
812.855	1678
812.954	1231
813.053	1377
813.153	1294
813.252	1092
813.351	1304
813.450	2174
813.549	253
813.648	922
813.747	905
813.846	1797
813.945	985
814.044	1667
814.143	1126
814.242	1486
814.341	847
814.439	1326
814.538	1638
814.637	260
814.736	1171
814.835	2858
814.933	463
815.032	2364
815.131	1529
815.229	2060
815.328	2681
815.427	1925
815.525	2546
815.624	2118
815.722	1898
815.821	2714
815.919	2086
816.018	2686
816.116	2932
816.215	2366
816.313	2476
816.412	2835
816.510	3233
816.609	4632
816.707	3047
816.805	3351
816.904	2448
817.002	4340
817.100	4140
817.198	4433
817.296	4916
817.395	4143
817.493	6522
817.591	6946
817.689	8447
817.787	11363
817.885	18710
817.983	32026
818.081	67973
818.179	153748
818.277	359931
818.375	340194
818.473	106131
818.571	40695
818.669	26044
818.767	22614
818.865	21917
818.963	25882
819.061	35929
819.158	62545
819.256	124314
819.354	270705
819.452	528993
819.549	394387
819.647	136404
819.745	55156
819.842	33311
819.940	22139
820.038	16677
820.135	12687
820.233	10707
820.330	8158
820.428	7094
820.525	7269
820.623	6154
820.720	5562
820.818	5093
820.915	4541
821.012	4523
821.110	2846
821.207	3776
821.304	2616
821.402	3427
821.499	4768
821.596	4941
821.693	4049
821.791	3174
821.888	3847
821.985	7345
822.082	5521
822.179	4052
822.276	2078
822.373	3297
822.470	2549
822.567	2486
822.664	1368
822.761	1919
822.858	1382
822.955	1841
823.052	2739
823.149	1956
823.246	2283
823.343	1420
823.440	1799
823.536	1254
823.633	974
823.730	1288
823.827	1882
823.923	1877
824.020	2106
824.117	1831
824.213	1643
824.310	2198
824.407	1189
824.503	2581
824.600	2217
824.696	1535
824.793	2333
824.889	695
824.986	1454
825.082	1064
825.179	1146
825.275	1279
825.371	1030
825.468	1734
825.564	297
825.660	1624
825.757	1532
825.853	2042
825.949	678
826.045	1128
826.142	278
826.238	1232
826.334	1634
826.430	741
826.526	1590
826.622	71
826.718	1693
826.814	483
826.910	2632
827.006	1055
827.102	1255
827.198	1590
827.294	1241
827.390	974
827.486	1696
827.582	-113
827.678	30
827.774	2045
827.869	-246
827.965	1954
828.061	416
828.157	1525
828.252	2214
828.348	405
828.444	1414
828.539	266
828.635	814
828.731	2140
828.826	418
828.922	1462
829.017	987
829.113	939
829.208	342
829.304	387
829.399	2206
829.495	580
829.590	2202
829.685	299
829.781	1156
829.876	734
829.971	1127
830.066	855
830.162	1161
830.257	-12
830.352	714
830.447	1912
830.543	729
830.638	37
830.733	2715
830.828	577
830.923	1472
831.018	955
831.113	1529
831.208	-54
831.303	370
831.398	285
831.493	1261
831.588	1601
831.683	-193
831.778	1016
831.873	1124
831.967	1261
832.062	500
832.157	326
832.252	865
832.346	634
832.441	1517
832.536	2238
832.631	5537
832.725	3966
832.820	1669
832.914	727
833.009	911
833.104	1163
833.198	2266
833.293	1015
833.387	1143
833.482	627
833.576	705
833.670	1606
833.765	216
833.859	1112
833.954	1151
834.048	1359
834.142	880
834.237	-447
834.331	526
834.425	297
834.519	297
834.613	1562
834.708	641
834.802	786
834.896	-93
834.990	857
835.084	203
835.178	541
835.272	499
835.366	129
835.460	1324
835.554	854
835.648	750
835.742	750
835.836	425
835.930	132
836.024	1373
836.117	1750
836.211	1028
836.305	893
836.399	1647
836.493	-598
836.586	420
836.680	161
836.774	164
836.867	1084
836.961	-635
837.055	531
837.148	663
837.242	969
837.335	-504
837.429	1369
837.522	261
837.616	1196
837.709	1693
837.803	1601
837.896	637
837.989	805
838.083	1923
838.176	2126
838.269	1324
838.363	1563
838.456	937
838.549	1757
838.642	1625
838.735	6665
838.829	2900
838.922	603
839.015	678
839.108	-210
839.201	1079
839.294	587
839.387	711
839.480	685
839.573	1308
839.666	837
839.759	1406
839.852	153
839.945	749
840.038	125
840.131	412
840.223	-510
840.316	1163
840.409	491
840.502	723
840.594	1516
840.687	-388
840.780	851
840.873	127
840.965	1117
841.058	1983
841.150	1947
841.243	938
841.336	1634
841.428	631
841.521	1237
841.613	291
841.706	65
841.798	589
841.890	704
841.983	-388
842.075	1270
842.167	-15
842.260	972
842.352	1180
842.444	936
842.537	2537
842.629	3856
842.721	1145
842.813	363
842.905	19
842.997	232
843.090	754
843.182	1755
843.274	2471
843.366	5002
843.458	10826
843.550	8252
843.642	1359
843.734	1219
843.826	690
843.918	1522
844.009	861
844.101	270
844.193	745
844.285	-237
844.377	776
844.469	472
844.560	817
844.652	541
844.744	1183
844.835	717
844.927	593
845.019	772
845.110	563
845.202	309
845.293	825
845.385	167
845.476	375
845.568	1574
845.659	-325
845.751	622
845.842	658
845.934	-464
846.025	118
846.116	51
846.208	263
846.299	97
846.390	234
846.482	274
846.573	1024
846.664	1476
846.755	1721
846.846	1615
846.937	-864
847.029	228
847.120	-220
847.211	39
847.302	1553
847.393	-417
847.484	1202
847.575	-338
847.666	112
847.757	242
847.847	122
847.938	1012
848.029	46
848.120	-42
848.211	361
848.302	-420
848.392	-133
848.483	898
848.574	187
848.664	-379
848.755	923
848.846	156
848.936	-466
849.027	1364
849.118	849
849.208	830
849.299	653
849.389	1584
849.480	3797
849.570	7264
849.661	13941
849.751	24989
849.841	10414
849.932	1395
850.022	700
850.112	203
850.203	245
850.293	737
850.383	-215
850.474	-312
850.564	351
850.654	235
850.744	437
850.834	370
850.924	839
851.014	294
851.104	1099
851.194	661
851.284	383
851.374	918
851.464	263
851.554	-268
851.644	647
851.734	1383
851.824	982
851.914	-549
852.004	729
852.094	424
852.183	170
852.273	528
852.363	700
852.452	912
852.542	322
852.632	569
852.721	837
852.811	-128
852.901	1018
852.990	-34
853.080	839
853.169	1275
853.259	537
853.348	628
853.438	612
853.527	2652
853.617	2517
853.706	5267
853.795	10930
853.885	24021
853.974	45436
854.063	78269
854.152	133011
854.242	55990
854.331	9068
854.420	3789
854.509	2022
854.598	2286
854.687	1297
854.777	2221
854.866	677
854.955	560
855.044	425
855.133	364
855.222	939
855.311	710
855.400	169
855.488	-108
855.577	-89
855.666	76
855.755	1240
855.844	713
855.933	847
856.021	684
856.110	1270
856.199	-463
856.288	557
856.376	475
856.465	-488
856.554	983
856.642	-120
856.731	270
856.819	377
856.908	362
856.996	-298
857.085	-236
857.173	203
857.262	-384
857.350	515
857.438	472
857.527	33
857.615	228
857.703	576
857.792	-395
857.880	-59
857.968	-193
858.056	13
858.145	-121
858.233	155
858.321	128
858.409	425
858.497	345
858.585	135
858.673	841
858.761	66
858.849	-33
858.937	-244
859.025	-182
859.113	49
859.201	519
859.289	1773
859.377	524
859.465	341
859.552	438
859.640	66
859.728	49
859.816	255
859.903	-38
859.991	324
860.079	-223
860.166	708
860.254	348
860.342	80
860.429	-505
860.517	453
860.604	127
860.692	-425
860.779	-399
860.867	-187
860.954	577
861.042	666
861.129	168
861.216	669
861.304	-134
861.391	498
861.478	-68
861.565	614
861.653	1355
861.740	-247
861.827	345
861.914	1
862.001	169
862.089	1332
862.176	-765
862.263	-275
862.350	690
862.437	1
862.524	-172
862.611	90
862.698	185
862.785	36
862.871	-101
862.958	-597
863.045	-244
863.132	854
863.219	471
863.306	-966
863.392	270
863.479	600
863.566	460
863.652	751
863.739	-208
863.826	62
863.912	-639
863.999	-149
864.086	127
864.172	466
864.259	-181
864.345	-278
864.432	240
864.518	400
864.604	9
864.691	-2
864.777	1196
864.863	798
864.950	1245
865.036	919
865.122	1771
865.209	1850
865.295	1359
865.381	1267
865.467	1527
865.553	1909
865.639	3679
865.726	5310
865.812	12355
865.898	23609
865.984	34552
866.070	64039
866.156	75281
866.242	21927
866.328	4671
866.414	2169
866.499	2168
866.585	1608
866.671	1481
866.757	1325
866.843	1924
866.928	1289
867.014	986
867.100	1307
867.186	1121
867.271	1572
867.357	1292
867.442	1606
867.528	1333
867.614	757
867.699	1839
867.785	960
867.870	1801
867.956	2102
868.041	2421
868.127	1627
868.212	1803
868.297	1696
868.383	964
868.468	2567
868.553	3439
868.639	4239
868.724	6735
868.809	6786
868.894	1836
868.979	823
869.065	1409
869.150	754
869.235	646
869.320	283
869.405	1028
869.490	-125
869.575	684
869.660	759
869.745	1283
869.830	631
869.915	374
870.000	816
870.085	1050
870.169	813
870.254	1122
870.339	144
870.424	-174
870.509	393
870.593	1481
870.678	747
870.763	1230
870.847	520
870.932	174
871.016	86
871.101	1390
871.186	822
871.270	849
871.355	249
871.439	120
871.523	771
871.608	631
871.692	863
871.777	1206
871.861	913
871.945	856
872.030	817
872.114	1651
872.198	604
872.282	142
872.367	229
872.451	-402
872.535	467
872.619	20
872.703	619
872.787	-446
872.871	760
872.955	129
873.039	166
873.123	580
873.207	1731
873.291	937
873.375	650
873.459	201
873.543	225
873.627	922
873.711	-480
873.794	924
873.878	689
873.962	623
874.045	298
874.129	-28
874.137	-8
874.213	186
874.245	387
874.296	709
874.352	137
874.380	-142
874.460	-364
874.464	-375
874.547	786
874.568	647
874.631	260
874.676	313
874.714	348
874.784	972
874.798	1089
874.881	727
874.892	578
874.965	-376
874.999	-377
875.048	-411
875.107	-40
875.131	108
875.215	67
875.215	67
875.298	-109
875.323	-42
875.381	152
875.430	627
875.465	932
875.538	507
875.548	448
875.631	642
875.646	542
875.714	119
875.753	266
875.798	450
875.861	740
875.881	794
875.964	873
875.968	826
876.047	162
876.076	235
876.130	258
876.183	469
876.213	667
876.291	900
876.296	902
876.379	906
876.398	835
876.462	669
876.506	996
876.545	1256
876.613	545
876.628	417
876.711	-17
876.721	127
876.794	1156
876.828	965
876.877	638
876.935	576
876.960	579
877.043	434
877.043	436
877.125	953
877.150	1044
877.208	1131
877.258	844
877.291	738
877.365	872
877.374	863
877.456	953
877.472	864
877.539	623
877.579	1039
877.622	1416
877.687	793
877.704	666
877.787	544
877.794	535
877.869	319
877.901	500
877.952	699
878.008	709
878.034	777
878.115	699
878.117	700
878.199	828
878.222	743
878.282	467
878.329	807
878.364	1096
878.437	1186
878.447	1158
878.529	616
878.544	581
878.611	696
878.651	991
878.694	1284
878.758	1041
878.776	975
878.858	1015
878.865	981
878.941	386
878.972	558
879.023	1060
879.078	599
879.105	367
879.185	912
879.187	922
879.269	1058
879.292	818
879.351	270
879.399	446
879.433	620
879.506	1305
879.516	1375
879.598	290
879.613	283
879.680	306
879.720	438
879.762	693
879.827	862
879.844	835
879.926	650
879.933	656
880.007	1082
880.040	1287
880.089	1475
880.147	1830
880.171	2088
880.253	3602
880.254	3608
880.335	4424
880.360	4654
880.417	6643
880.467	10109
880.499	12769
880.574	17873
880.580	17730
880.662	7425
880.680	5965
880.744	2728
880.787	1351
880.825	822
880.893	656
880.907	683
880.989	1195
881.000	1155
881.070	912
881.106	922
881.152	827
881.213	880
881.233	949
881.315	1212
881.319	1190
881.396	1074
881.426	1035
881.478	871
881.532	1346
881.559	1554
881.639	1382
881.641	1370
881.722	938
881.745	669
881.803	641
881.852	861
881.885	774
881.958	612
881.966	643
882.047	1531
882.064	1554
882.129	1630
882.171	1719
882.210	1992
882.277	3274
882.291	3426
882.372	2590
882.383	2469
882.454	1332
882.489	1061
882.535	776
882.596	620
882.616	882
882.697	1382
882.702	1444
882.778	1360
882.808	1074
882.859	631
882.914	580
882.940	937
883.020	1780
883.021	1782
883.102	1318
883.127	1158
883.183	1026
883.233	1047
883.264	1055
883.339	1070
883.345	1078
883.426	700
883.445	740
883.507	805
883.551	646
883.587	828
883.657	1725
883.668	1825
883.749	1615
883.763	1672
883.830	1207
883.869	772
883.910	800
883.975	962
883.991	917
884.072	499
884.081	492
884.152	1259
884.187	1481
884.233	1285
884.292	1211
884.314	1216
884.394	965
884.398	955
884.475	1283
884.504	1399
884.555	1296
884.610	1034
884.636	1045
884.716	1465
884.716	1471
884.797	1133
884.821	1114
884.877	1324
884.927	1548
884.958	1591
885.033	1403
885.038	1382
885.118	1273
885.139	1192
885.199	1396
885.244	1475
885.279	1278
885.350	983
885.359	1050
885.439	1643
885.456	1739
885.520	1564
885.561	1392
885.600	1290
885.667	1199
885.680	1223
885.760	1380
885.773	1412
885.840	1640
885.878	1558
885.920	1528
885.984	1782
886.000	1636
886.080	698
886.089	606
886.160	1273
886.195	1603
886.240	1674
886.300	1684
886.320	1618
886.400	1444
886.406	1424
886.480	1179
886.511	1025
886.560	1596
886.616	2255
886.640	2104
886.720	1454
886.722	1438
886.800	992
886.827	767
886.879	1201
886.932	1655
886.959	1754
887.038	2093
887.039	2091
887.119	1268
887.143	1061
887.198	1205
887.248	1201
887.278	1109
887.354	1068
887.358	1080
887.437	1184
887.459	1205
887.517	1678
887.564	2002
887.596	1804
887.669	1374
887.676	1357
887.755	1165
887.774	1055
887.835	909
887.880	948
887.914	1117
887.985	1276
887.994	1271
888.073	1214
888.090	1209
888.153	1359
888.195	1454
888.232	1404
888.300	1222
888.311	1306
888.391	1882
888.405	1993
888.470	1479
888.510	1115
888.549	1329
888.615	1736
888.628	1712
888.708	1495
888.720	1455
888.787	2229
888.825	2659
888.866	1960
888.930	819
888.945	875
889.024	1220
889.035	1258
889.103	1620
889.140	1797
889.182	1696
889.245	1568
889.261	1644
889.340	1959
889.349	1989
889.419	2118
889.454	2173
889.498	1951
889.559	1650
889.577	1699
889.656	1875
889.664	1890
889.735	1969
889.768	1992
889.814	2105
889.873	2243
889.978	2219
890.083	1916
890.187	1470
890.292	2034
890.397	1630
890.501	1374
890.606	1295
890.710	2291
890.815	2047
890.919	1701
891.024	1585
891.128	2102
891.233	2454
891.337	1752
891.442	2241
891.546	1516
891.650	1286
891.755	1849
891.859	2581
891.963	2523
892.068	1776
892.172	1702
892.276	1038
892.380	1600
892.484	1595
892.589	2087
892.693	1528
892.797	2230
892.901	1097
893.005	1441
893.109	1487
893.213	2456
893.317	2014
893.421	2131
893.525	1419
893.629	1393
893.733	1469
893.837	1694
893.941	1006
894.045	1332
894.148	1165
894.252	979
894.356	1379
894.460	2961
894.564	1397
894.667	1616
894.771	1003
894.875	1627
894.978	918
895.082	861
895.186	2224
895.289	1965
895.393	1737
895.496	1003
895.600	1253
895.703	962
895.807	1143
895.910	1323
896.014	1606
896.117	1141
896.221	1703
896.324	1925
896.427	1787
896.531	1467
896.634	1085
896.737	1240
896.840	1928
896.944	1095
897.047	1530
897.150	1234
897.253	1744
897.356	1488
897.460	1363
897.563	1589
897.666	1536
897.769	1263
897.872	594
897.975	857
898.078	794
898.181	1324
898.284	860
898.387	1930
898.490	922
898.593	1415
898.695	858
898.798	1266
898.901	1380
899.004	1693
899.107	1521
899.209	1674
899.312	848
899.415	1300
899.518	1409
899.620	950
899.723	1601
899.826	2413
899.928	3302
900.031	1826
900.133	537
900.236	773
900.338	777
900.441	622
900.543	1389
900.646	1038
900.748	1074
900.851	2127
900.953	1784
901.055	1066
901.158	1753
901.260	1505
901.362	895
901.465	716
901.567	1101
901.669	2101
901.771	909
901.873	1068
901.976	659
902.078	1364
902.180	842
902.282	1745
902.384	1112
902.486	1827
902.588	859
902.690	1649
902.792	1014
902.894	1161
902.996	530
903.098	980
903.200	812
903.302	1194
903.404	798
903.505	873
903.607	967
903.709	763
903.811	1764
903.913	1332
904.014	1085
904.116	1469
904.218	1538
904.319	1187
904.421	1918
904.523	2052
904.624	900
904.726	875
904.827	1466
904.929	353
905.030	981
905.132	1852
905.233	981
905.335	1474
905.436	755
905.537	506
905.639	1312
905.740	475
905.841	1711
905.943	1097
906.044	1061
906.145	1451
906.247	784
906.348	1827
906.449	578
906.550	848
906.651	1647
906.752	618
906.854	1251
906.955	1013
907.056	818
907.157	1043
907.258	1086
907.359	762
907.460	698
907.561	1095
907.662	1171
907.762	1527
907.863	868
907.964	2112
908.065	1463
908.166	1471
908.267	716
908.367	244
908.468	1289
908.569	1454
908.670	1593
908.770	1494
908.871	1692
908.971	1934
909.072	1851
909.173	1272
909.273	1054
909.374	1332
909.474	1115
909.575	1392
909.675	665
909.776	1337
909.876	1087
909.977	911
910.077	1845
910.177	1429
910.278	1060
910.378	1155
910.478	700
910.579	1509
910.679	1000
910.779	1008
910.879	1147
910.980	1287
911.080	1188
911.180	1725
911.280	667
911.380	834
911.480	1706
911.580	749
911.680	635
911.780	1476
911.880	1169
911.980	496
912.080	763
912.180	932
912.280	1094
912.380	1404
912.480	455
912.580	1506
912.679	545
912.779	1809
912.879	1093
912.979	1240
913.078	866
913.178	803
913.278	-302
913.377	1176
913.477	-88
913.577	420
913.676	2133
913.776	1568
913.875	171
913.975	1234
914.074	840
914.174	1311
914.273	93
914.373	987
914.472	664
914.572	539
914.671	417
914.770	1300
914.870	877
914.969	1190
915.068	431
915.167	1665
915.267	1057
915.366	1248
915.465	610
915.564	952
915.663	547
915.763	520
915.862	1449
915.961	852
916.060	405
916.159	893
916.258	-30
916.357	1196
916.456	1607
916.555	429
916.654	1357
916.752	1490
916.851	578
916.950	1072
917.049	-248
917.148	847
917.247	949
917.345	1296
917.444	695
917.543	669
917.642	915
917.740	1431
917.839	689
917.937	1548
918.036	1257
918.135	1059
918.233	799
918.332	830
918.430	1054
918.529	925
918.627	282
918.726	1125
918.824	1253
918.923	1287
919.021	1071
919.119	1421
919.218	602
919.316	1575
919.414	1041
919.512	790
919.611	456
919.709	852
919.807	1087
919.905	1166
920.003	1028
920.102	895
920.200	1536
920.298	1060
920.396	635
920.494	1227
920.592	825
920.690	1098
920.788	530
920.886	1215
920.984	902
921.082	1745
921.180	1506
921.277	1798
921.375	991
921.473	1932
921.571	1468
921.669	1904
921.766	1555
921.864	1835
921.962	1357
922.060	1982
922.157	1074
922.255	2450
922.352	1698
922.450	2352
922.548	1256
922.645	2447
922.743	3175
922.840	3191
922.938	3565
923.035	3408
923.133	3540
923.230	3397
923.327	4565
923.425	5396
923.522	4524
923.619	3630
923.717	3514
923.814	3673
923.911	3741
924.008	3665
924.106	3533
924.203	3119
924.300	3579
924.397	3399
924.494	3556
924.591	3862
924.688	3114
924.786	2941
924.883	3073
924.979	3285
925.077	3706
925.173	2331
925.270	2947
925.367	3328
925.464	3331
925.561	3468
925.658	4201
925.755	4267
925.852	4302
925.948	3767
926.045	3689
926.142	4339
926.239	4364
926.335	2764
926.432	3612
926.529	4632
926.625	3943
926.722	3495
926.818	3089
926.915	3051
927.011	3425
927.108	3513
927.204	3189
927.301	2814
927.397	3194
927.494	3398
927.590	2386
927.687	2677
927.783	3937
927.879	3740
927.976	3352
928.072	3226
928.168	2694
928.264	3475
928.361	2689
928.457	2939
928.553	2587
928.649	3196
928.745	2997
928.841	2123
928.937	2457
929.033	3764
929.129	2596
929.225	3216
929.321	3000
929.417	2925
929.513	2895
929.609	2527
929.705	2610
929.801	2683
929.897	2531
929.993	2674
930.089	1889
930.184	2845
930.280	3212
930.376	3215
930.471	2453
930.567	2209
930.663	2482
930.758	1775
930.854	2056
930.950	2966
931.045	2177
931.141	2339
931.236	2889
931.332	3043
931.427	2408
931.523	3097
931.618	2131
931.714	979
931.809	2091
931.905	2906
932.000	2302
932.095	2522
932.191	3512
932.286	2602
932.381	2300
932.476	1496
932.572	1942
932.667	2249
932.762	1833
932.857	2712
932.952	2741
933.047	2150
933.142	1722
933.237	2471
933.332	2803
933.427	2846
933.522	2685
933.617	1570
933.712	1748
933.807	2829
933.902	2276
933.997	3545
934.092	1343
934.187	2111
934.282	1850
934.376	2430
934.471	2488
934.566	2064
934.661	2038
934.755	2335
934.850	2965
934.945	2992
935.039	2260
935.134	1829
935.228	1168
935.323	3584
935.417	2875
935.512	1818
935.606	1696
935.701	2269
935.795	1472
935.890	2550
935.984	2208
936.079	2003
936.173	1280
936.267	2383
936.362	2057
936.456	2719
936.550	2811
936.644	3292
936.738	1606
936.833	1619
936.927	2069
937.021	2578
937.115	2247
937.209	1186
937.303	2824
937.397	1602
937.491	1504
937.585	2568
937.679	1830
937.773	2524
937.867	1184
937.961	1150
938.055	2433
938.149	3007
938.243	1170
938.337	1665
938.430	1492
938.524	2365
938.618	1954
938.712	1971
938.805	1283
938.899	1846
938.993	2739
939.086	2524
939.180	1860
939.274	2521
939.367	2156
939.461	2481
939.554	2140
939.648	2214
939.741	2634
939.835	1886
939.928	2348
940.022	2156
940.115	1723
940.208	2173
940.302	2318
940.395	2654
940.488	1369
940.582	2027
940.675	1553
940.768	2015
940.861	698
940.954	1702
941.048	1756
941.141	1549
941.234	1706
941.327	2034
941.420	2608
941.513	3701
941.606	1695
941.699	2106
941.792	1899
941.885	2758
941.978	2180
942.071	1876
942.164	1183
942.257	1967
942.349	2446
942.442	1475
942.535	680
942.628	1941
942.721	821
942.813	1100
942.906	2257
942.999	1521
943.091	1873
943.184	1635
943.277	750
943.369	1846
943.462	1381
943.554	2033
943.647	1349
943.739	2102
943.832	1598
943.924	361
944.017	1340
944.109	1149
944.201	2141
944.294	775
944.386	1208
944.478	1438
944.571	1107
944.663	1849
944.755	756
944.847	2104
944.940	1532
945.032	944
945.124	1079
945.216	1490
945.308	1573
945.400	1093
945.492	1348
945.584	1547
945.676	1525
945.768	1021
945.860	1837
945.952	1266
946.044	1754
946.136	1177
946.228	1040
946.320	989
946.412	1013
946.503	2011
946.595	2604
946.687	1227
946.779	864
946.870	1013
946.962	1557
947.054	1468
947.145	1377
947.237	1806
947.329	1367
947.420	932
947.512	872
947.603	1090
947.695	408
947.786	647
947.878	1644
947.969	1463
948.061	531
948.152	724
948.243	1204
948.335	557
948.426	654
948.517	1021
948.609	1671
948.700	868
948.791	1077
948.882	1435
948.973	74
949.065	1228
949.156	620
949.247	449
949.338	757
949.429	361
949.520	444
949.611	373
949.702	1032
949.793	1243
949.884	1222
949.975	1879
950.066	1200
950.157	624
950.247	1453
950.338	600
950.429	522
950.520	1319
950.611	558
950.701	1390
950.792	1222
950.883	1714
950.973	472
951.064	1155
951.155	1115
951.245	1751
951.336	767
951.427	1221
951.517	1495
951.608	750
951.698	477
951.788	565
951.879	649
951.969	645
952.060	155
952.150	358
952.240	1556
952.331	-680
952.421	1948
952.511	-186
952.602	356
952.692	224
952.782	795
952.872	244
952.962	644
953.052	723
953.143	271
953.233	1117
953.323	1238
953.413	532
953.503	716
953.593	845
953.683	170
953.773	-338
953.863	503
953.953	-296
954.042	570
954.132	1321
954.222	1003
954.312	1071
954.402	252
954.492	1340
954.581	1646
954.671	1182
954.761	325
954.850	1496
954.940	332
955.030	330
955.119	345
955.209	199
955.298	251
955.388	795
955.477	1029
955.567	-461
955.656	68
955.746	804
955.835	156
955.925	-330
956.014	530
956.103	-588
956.193	903
956.282	643
956.371	437
956.461	65
956.550	7
956.639	806
956.728	-1023
956.817	676
956.906	56
956.995	1263
957.085	1191
957.174	71
957.263	15
957.352	366
957.441	234
957.530	86
957.619	831
957.708	219
957.796	369
957.885	478
957.974	42
958.063	928
958.152	-565
958.241	1255
958.329	-345
958.418	380
958.507	-402
958.596	791
958.684	-270
958.773	563
958.861	674
958.950	890
959.039	-275
959.127	277
959.216	136
959.304	-53
959.393	475
959.481	315
959.570	327
959.658	733
959.746	-115
959.835	633
959.923	2021
960.011	1291
960.100	527
960.188	637
960.276	-197
960.365	199
960.453	-191
960.541	-860
960.629	192
960.717	-167
960.805	-331
960.893	536
960.981	-1742
961.069	1275
961.158	-384
961.245	822
961.333	568
961.421	-221
961.509	-444
961.597	496
961.685	-98
961.773	-710
961.861	-130
961.949	696
962.036	-122
962.124	-106
962.212	-472
962.299	148
962.387	-832
962.475	-633
962.562	-347
962.650	658
962.738	133
962.825	-652
962.913	-65
963.000	64
963.088	90
963.175	678
963.263	427
963.350	-215
963.438	-38
963.525	464
963.612	1565
963.700	3666
963.787	10812
963.874	5186
963.962	-222
964.049	-338
964.136	-1154
964.223	-576
964.310	-456
964.398	-635
964.485	-553
964.572	100
964.659	1160
964.746	1233
964.833	-113
964.920	401
965.007	398
965.094	-215
965.181	-931
965.268	289
965.355	346
965.441	-451
965.528	-796
965.615	960
965.702	-144
965.789	-677
965.875	-918
965.962	218
966.049	-532
966.136	388
966.222	-104
966.309	1249
966.395	-567
966.482	588
966.569	-271
966.655	-22
966.742	-1385
966.828	-105
966.915	-1251
967.001	-464
967.087	-482
967.174	-125
967.260	157
967.347	1364
967.433	1797
967.519	7106
967.605	2711
967.692	171
967.778	-350
967.864	-144
967.950	-59
968.036	-752
968.123	-874
968.209	-631
968.295	-949
968.381	578
968.467	-544
968.553	-951
968.639	273
968.725	-334
968.811	1067
968.897	1739
968.983	425
969.069	-1048
969.154	-631
969.240	-588
969.326	-536
969.412	-943
969.497	-1093
969.583	-824
969.669	678
969.755	401
969.840	-1112
969.926	-746
970.012	168
970.097	1392
970.183	365
970.268	464
970.354	-259
970.439	1344
970.525	3375
970.610	1708
970.696	752
970.781	28
970.866	-1545
970.952	485
971.037	-480
971.122	-1013
971.208	-304
971.293	-310
971.378	-873
971.463	-288
971.549	-189
971.634	-628
971.719	-462
971.804	304
971.889	-187
971.974	-638
972.059	27
972.144	-214
972.229	-721
972.314	-253
972.399	-655
972.484	-685
972.569	-650
972.654	-869
972.739	2207
972.824	1829
972.908	-182
972.993	36
973.078	-1277
973.163	-450
973.247	-212
973.332	-1318
973.417	87
973.501	-635
973.586	-134
973.671	11
973.755	-977
973.840	878
973.924	133
974.009	-991
974.093	1
974.178	1170
974.262	1115
974.346	1710
974.431	619
974.515	-882
974.600	-700
974.684	69
974.768	-1103
974.852	1359
974.937	-804
975.021	-314
975.105	-528
975.189	-783
975.273	399
975.358	-193
975.442	-1128
975.526	-214
975.610	-1052
975.694	-760
975.778	170
975.862	-816
975.946	-2503
976.030	-167
976.114	-770
976.198	-281
976.281	-31
976.365	709
976.449	-904
976.533	-576
976.617	-341
976.700	-435
976.784	-513
976.868	-991
976.951	113
977.035	269
977.119	-1075
977.202	-431
977.286	-357
977.369	-299
977.453	97
977.536	214
977.620	-310
977.703	474
977.787	-547
977.870	149
977.953	598
978.037	-854
978.120	266
978.203	537
978.287	1669
978.370	1241
978.453	-866
978.536	-261
978.620	579
978.703	1156
978.786	470
978.869	-422
978.952	-1246
979.035	498
979.118	-918
979.201	-208
979.284	456
979.367	-1161
979.450	-877
979.533	-1097
979.616	-175
979.699	-399
979.782	258
979.865	-497
979.948	7
980.030	-339
980.113	-355
980.196	-931
980.279	269
980.361	-110
980.444	-988
980.526	-582
980.609	-349
980.692	235
980.774	210
980.857	-1878
980.939	154
981.022	-342
981.104	-1050
981.187	-577
981.269	519
981.352	-219
981.434	-882
981.516	-1056
981.599	19
981.681	-378
981.763	-72
981.846	-1563
981.928	-570
982.010	312
982.092	-1080
982.174	77
982.256	-783
982.339	211
982.421	57
982.503	-771
982.585	-1552
982.667	-307
982.749	-185
982.831	-76
982.913	-762
982.995	-141
983.077	-729
983.158	1149
983.240	-1363
983.322	-449
983.404	1210
983.486	-696
983.568	132
983.649	-366
983.731	-404
983.813	-218
983.894	405
983.976	-857
984.058	-997
984.139	-255
984.221	-1396
984.302	458
984.384	-699
984.465	-480
984.547	-480
984.628	-664
984.710	313
984.791	366
984.872	279
984.954	-1037
985.035	-26
985.116	-468
985.198	-1163
985.279	-9
985.360	-687
985.441	188
985.522	168
985.604	-646
985.685	-1971
985.766	201
985.847	829
985.928	-1406
986.009	49
986.090	-787
986.171	174
986.252	-814
986.333	-168
986.414	-235
986.495	-249
986.576	224
986.656	143
986.737	520
986.818	26
986.899	-575
986.980	-68
987.060	365
987.141	-865
987.222	627
987.302	-427
987.383	615
987.464	185
987.544	921
987.625	247
987.705	-127
987.786	-184
987.866	732
987.947	-220
988.027	321
988.108	-689
988.188	-129
988.268	-547
988.349	-472
988.429	-910
988.509	377
988.589	-30
988.670	-1686
988.750	1242
988.830	337
988.910	560
988.990	55
989.070	246
989.151	822
989.231	-1012
989.311	718
989.391	-1056
989.471	-694
989.551	565
989.631	-651
989.711	803
989.791	-807
989.870	-1955
989.950	521
990.030	-660
990.110	-1127
990.190	-625
990.269	-528
990.349	-762
990.429	-64
990.509	-381
990.588	-825
990.668	62
990.747	-753
990.827	-179
990.907	-762
990.986	-803
991.066	228
991.145	-1174
991.225	-574
991.304	-1179
991.383	395
991.463	-243
991.542	-84
991.622	-1034
991.701	-1088
991.780	-1227
991.859	-946
991.939	-894
992.018	-550
992.097	-571
992.176	-361
992.256	-1103
992.335	-325
992.414	-380
992.493	-1284
992.572	-640
992.651	656
992.730	-1482
992.809	-691
992.888	-1754
992.967	-923
993.046	-417
993.125	-1225
993.203	-657
993.282	431
993.361	-445
993.440	-533
993.519	-1237
993.597	-1006
993.676	-1358
993.755	-355
993.834	-925
993.912	-2265
993.991	-837
994.069	-782
994.148	-819
994.226	-1363
994.305	-819
994.384	-1078
994.462	270
994.540	-1685
994.619	-1392
994.697	-763
994.776	-1640
994.854	-205
994.932	-1270
995.011	-1220
995.089	-1186
995.167	-1074
995.245	-1534
995.324	-2153
995.402	-265
995.480	-934
995.558	-1243
995.636	-2155
995.714	-1560
995.792	-249
995.870	-1814
995.948	-1336
996.026	-665
996.104	-1385
996.182	-799
996.260	-1508
996.338	-1298
996.416	-1849
996.494	-1541
996.572	-337
996.649	-1301
996.727	-1806
996.805	-1007
996.883	-516
996.960	-1330
997.038	-401
997.116	-777
997.193	-1052
997.271	-1208
997.348	-1420
997.426	-1396
997.504	-1844
997.581	-1415
997.658	-448
997.736	-2540
997.813	-1781
997.891	-1361
997.968	-1497
998.046	-1315
998.123	-1132
998.200	-1541
998.277	-2257
998.355	-936
998.432	-2073
998.509	-1278
998.586	-837
998.663	-1372
998.741	-1316
998.818	-1225
998.895	-1390
998.972	-733
999.049	-1387
999.126	-1868
999.203	-1394
999.280	-1527
999.357	-1562
999.434	-1978
999.511	-1176
999.587	-1579
999.664	-1363
999.741	-1332
999.818	-757
999.895	-2190
999.971	-1662
1000.048	-1122
1000.125	-1014
1000.202	-2131
1000.278	-1817
1000.355	-907
1000.431	-2478
1000.508	-2214
1000.584	-1678
1000.661	-1943
1000.738	-1674
1000.814	-1252
1000.890	-789
1000.967	-2862
1001.043	-1574
1001.120	-2384
1001.196	-831
1001.272	-2169
1001.349	-2129
1001.425	-972
1001.501	-1634
1001.577	-2571
1001.654	-598
1001.730	-1931
1001.806	-1994
1001.882	-3391
1001.958	-2247
1002.034	-1607
1002.110	-1467
1002.186	-2633
1002.262	-2001
1002.338	-2361
1002.414	-2048
1002.490	-1308
1002.566	-2102
1002.642	-1518
1002.718	-1598
1002.794	-1355
1002.870	-1699
1002.945	-1735
1003.021	-2065
1003.097	-1937
1003.173	-1277
1003.248	-2356
1003.324	-1762
1003.400	-2101
1003.475	-2143
1003.551	-1597
1003.626	-1190
1003.702	-2219
1003.777	-2004
1003.853	-2826
1003.928	-1990
1004.004	-1640
1004.079	-1521
1004.155	-1943
1004.230	-2369
1004.305	-1012
1004.381	-2294
1004.456	-1883
1004.531	-1145
1004.607	-2091
1004.682	-2522
1004.757	-2610
1004.832	-2200
1004.907	-2009
1004.982	-2057
1005.057	-1542
1005.133	-2561
1005.208	-2329
1005.283	-1961
1005.358	-1368
1005.433	-2953
1005.508	-1992
1005.583	-2381
1005.657	-2202
1005.732	-1279
1005.807	-1813
1005.882	-2369
1005.957	-2669
1006.032	-1987
1006.106	-2524
1006.181	-1977
1006.256	-2111
1006.331	-2653
1006.405	-1959
1006.480	-1543
1006.554	-2887
1006.629	-2663
1006.704	-1754
1006.778	-1724
1006.853	-1258
1006.927	-2069
1007.002	-2415
1007.076	-1522
1007.150	-2815
1007.225	-1841
1007.299	-1549
1007.373	-1931
1007.448	-2144
1007.522	-2203
1007.596	-1308
1007.671	-1686
1007.745	-2229
1007.819	-2914
1007.893	-2650
1007.967	-1347
1008.041	-2892
1008.115	-1632
1008.190	-2978
1008.264	-2436
1008.338	-3069
1008.412	-1939
1008.486	-1847
1008.560	-2031
1008.633	-2325
1008.707	-2242
1008.781	-2012
1008.855	-1362
1008.929	-2859
1009.003	-3262
1009.076	-1779
1009.150	-1746
1009.224	-1983
1009.298	-2062
1009.371	-2830
1009.445	-2492
1009.519	-2012
1009.592	-1930
1009.666	-2540
1009.739	-1668
1009.813	-2557
1009.886	-1238
1009.960	-3353
1010.033	-1749
1010.107	-1509
1010.180	-2564
1010.253	-2402
1010.327	-2535
1010.400	-2265
1010.473	-1981
1010.547	-1269
1010.620	-2550
1010.693	-2227
1010.766	-2167
1010.840	-2077
1010.913	-1711
1010.986	-3144
1011.059	-1989
1011.132	-2790
1011.205	-1322
1011.278	-2754
1011.351	-1888
1011.424	-1897
1011.497	-2046
1011.570	-1943
1011.643	-2200
1011.716	-3173
1011.789	-2155
1011.862	-2395
1011.934	-1762
1012.007	-2903
1012.080	-2239
1012.153	-2086
1012.225	-1907
1012.298	-2866
1012.371	-2096
1012.443	-1439
1012.516	-2814
1012.588	-2469
1012.661	-2270
1012.733	-2377
1012.806	-1620
1012.879	-2611
1012.951	-3196
1013.023	-2243
1013.096	-2258
1013.168	-2667
1013.241	-1731
1013.313	-1459
1013.385	-2620
1013.458	-2225
1013.530	-2341
1013.602	-2904
1013.674	-1762
1013.746	-2622
1013.819	-2846
1013.891	-2209
1013.963	-2408
1014.035	-3236
1014.107	-2150
1014.179	-2009
1014.251	-2145
1014.323	-1625
1014.395	-2573
1014.467	-2351
1014.539	-1479
1014.611	-2479
1014.683	-1993
1014.754	-2585
1014.826	-2468
1014.898	-2379
1014.970	-2315
1015.042	-2132
1015.113	-1560
1015.185	-2382
1015.257	-3073
1015.328	-3361
1015.400	-2570
1015.471	-2063
1015.543	-3202
1015.615	-2636
1015.686	-2005
1015.757	-2299
1015.829	-1521
1015.901	-2333
1015.972	-2324
1016.043	-2144
1016.115	-2438
1016.186	-2296
1016.257	-2222
1016.328	-2500
1016.400	-1977
1016.471	-2942
1016.542	-2074
1016.613	-2046
1016.685	-3037
1016.756	-2227
1016.827	-2537
1016.898	-2849
1016.969	-1612
1017.040	-2302
1017.111	-2219
1017.182	-2620
1017.253	-1974
1017.324	-2377
1017.395	-2401
1017.466	-2594
1017.537	-2657
1017.608	-2641
1017.678	-1763
1017.749	-3080
1017.820	-2028
1017.891	-2688
1017.961	-2375
1018.032	-2874
1018.103	-1564
1018.173	-2385
1018.244	-2149
1018.315	-2673
1018.385	-1535
1018.456	-3064
1018.526	-2597
1018.597	-2763
1018.667	-2820
1018.738	-3168
1018.808	-1620
1018.878	-3066
1018.949	-2107
1019.019	-2218
1019.089	-1818
1019.160	-2664
1019.230	-2615
1019.300	-1813
1019.371	-2903
1019.441	-3189
1019.511	-2043
1019.581	-2496
1019.651	-2702
1019.721	-2266
1019.791	-2869
1019.861	-2627
1019.931	-2544
1020.001	-2683
1020.071	-2040
1020.141	-2454
1020.211	-2422
1020.281	-3125
1020.351	-2779
1020.421	-1902
1020.491	-1905
1020.560	-2646
1020.630	-2768
1020.700	-2027
1020.770	-2593
1020.839	-2505
1020.909	-2611
1020.979	-1998
1021.048	-1768
1021.118	-2365
1021.187	-2825
1021.257	-2311
1021.326	-1667
1021.396	-2877
1021.465	-1916
1021.535	-2042
1021.604	-2493
1021.674	-2346
1021.743	-2333
1021.812	-1831
1021.882	-2361
1021.951	-2532
1022.020	-1884
1022.089	-2615
1022.159	-2408
1022.228	-2412
1022.297	-2527
1022.366	-2017
1022.435	-2652
1022.504	-2073
1022.573	-3161
1022.642	-3240
1022.711	-2829
1022.781	-2421
1022.849	-2710
1022.918	-2716
1022.987	-1633
1023.056	-2879
1023.125	-2596
1023.194	-2434
1023.263	-2131
1023.331	-1690
1023.400	-3091
1023.469	-2581
1023.538	-2069
1023.606	-2936
1023.675	-2510
1023.744	-2798
1023.812	-3076
1023.881	-2553
1023.949	-2922
1024.018	-2282
1024.086	-2476
1024.155	-3582
1024.223	-2866
1024.292	-2180
1024.360	-1850
1024.429	-3239
1024.497	-2998
1024.565	-2709
1024.634	-2796
1024.702	-2785
1024.770	-2754
1024.838	-2338
1024.907	-2603
1024.975	-2564
1025.043	-2913
1025.111	-2889
1025.179	-2669
1025.247	-2341
1025.315	-2208
1025.383	-2717
1025.451	-3484
1025.519	-2886
1025.587	-2511
1025.655	-2536
1025.723	-3218
1025.791	-3094
1025.859	-2098
1025.927	-2689
1025.995	-2172
1026.062	-2189
1026.130	-2763
1026.198	-3251
1026.266	-3105
1026.333	-2218
1026.401	-2304
1026.469	-3338
1026.536	-2863
1026.604	-2502
1026.671	-2259
1026.739	-2852
1026.806	-3073
1026.874	-2712
1026.941	-2189
1027.009	-2770
1027.076	-2034
1027.144	-1526
1027.211	-3496
1027.278	-2677
1027.345	-3208
1027.413	-2677
1027.480	-2290
1027.547	-2319
1027.614	-2904
1027.682	-2423
1027.749	-2302
1027.816	-2773
1027.883	-1999
1027.950	-2807
1028.017	-2673
1028.084	-2424
1028.151	-3241
1028.218	-2659
1028.285	-2437
1028.352	-2839
1028.419	-3345
1028.486	-4029
1028.553	-2374
1028.619	-2799
1028.686	-1864
1028.753	-3493
1028.820	-2822
1028.886	-3083
1028.953	-2673
1029.020	-2577
1029.086	-3027
1029.153	-2781
1029.220	-3143
1029.286	-3373
1029.353	-1700
1029.419	-2325
1029.486	-1570
1029.552	-3561
1029.619	-3238
1029.685	-2644
1029.751	-2831
1029.818	-1934
1029.884	-2240
1029.951	-882
1030.017	-2675
1030.083	-2802
1030.149	-2685
1030.216	-3003
1030.282	-2883
1030.348	-3639
1030.414	-3238
1030.480	-2991
1030.546	-2166
1030.612	-2152
1030.678	-2788
1030.744	-2656
1030.810	-2807
1030.876	-3202
1030.942	-3027
1031.008	-3183
1031.074	-2419
1031.140	-3494
1031.206	-2734
1031.272	-3474
1031.337	-2906
1031.403	-2887
1031.469	-2657
1031.534	-3398
1031.600	-2677
1031.666	-3352
1031.731	-3123
1031.797	-2860
1031.863	-3203
1031.928	-3246
1031.994	-3197
1032.059	-2712
1032.125	-3013
1032.190	-3452
1032.256	-2969
1032.321	-3238
1032.386	-2951
1032.452	-2830
1032.517	-2547
1032.582	-2509
1032.647	-1927
1032.713	-2961
1032.778	-3668
1032.843	-2537
1032.908	-2497
1032.974	-2996
1033.039	-2766
1033.104	-2853
1033.169	-2265
1033.234	-2711
1033.299	-2603
1033.364	-2203
1033.429	-2229
1033.494	-2639
1033.559	-3037
1033.624	-2757
1033.688	-2521
1033.753	-2493
1033.818	-2129
1033.883	-2879
1033.948	-1861
1034.013	-2636
1034.077	-2003
1034.142	-2202
1034.207	-1291
1034.271	-1420
1034.336	-614
1034.400	-580
1034.465	-2327
1034.530	-1834
1034.594	-2579
1034.658	-2275
1034.723	-3122
1034.787	-3150
1034.852	-2020
1034.916	-3854
1034.981	-3546
1035.045	-2162
1035.109	-2952
1035.173	-2522
1035.238	-3290
1035.302	-3106
1035.366	-2692
1035.430	-3155
1035.495	-3116
1035.559	-3401
1035.623	-3231
1035.687	-3305
1035.751	-3362
1035.815	-3123
1035.879	-3125
1035.943	-3024
1036.007	-3567
1036.071	-3566
1036.135	-3442
1036.198	-2409
1036.262	-2633
1036.326	-2216
1036.390	-2650
1036.454	-2444
1036.517	-3366
1036.581	-2376
1036.645	-1872
1036.709	-2608
1036.772	-2512
1036.836	-2963
1036.900	-2220
1036.963	-3533
1037.026	-3184
1037.090	-2725
1037.154	-2915
1037.217	-3806
1037.280	-3172
1037.344	-3252
1037.407	-2778
1037.471	-3263
1037.534	-2656
1037.597	-3336
1037.661	-3069
1037.724	-3622
1037.787	-3399
1037.850	-2777
1037.913	-2714
1037.977	-2228
1038.040	-3340
1038.103	-2794
1038.166	-3252
1038.229	-2175
1038.292	-2472
1038.355	-3677
1038.418	-2303
1038.481	-3229
1038.544	-2788
1038.607	-2762
1038.670	-2707
1038.732	-2927
1038.795	-3438
1038.858	-2965
1038.921	-2464
1038.984	-2622
1039.046	-3062
1039.109	-2978
1039.172	-2809
1039.234	-3242
1039.297	-2626
1039.360	-3779
1039.422	-2815
1039.485	-2334
1039.547	-3514
1039.610	-2299
1039.672	-2842
1039.734	-3217
1039.797	-3730
1039.859	-3475
1039.922	-3321
1039.984	-3153
1040.046	-2962
1040.109	-2583
1040.171	-3286
1040.233	-4176
1040.295	-2547
1040.358	-4100
1040.420	-2683
1040.482	-3330
1040.544	-2945
1040.606	-2658
1040.668	-3614
1040.730	-3424
1040.792	-2703
1040.854	-2764
1040.916	-2885
1040.978	-3446
1041.040	-3070
1041.102	-2489
1041.164	-3277
1041.225	-2949
1041.287	-3592
1041.349	-2439
1041.411	-3355
1041.472	-3208
1041.534	-3235
1041.596	-2768
1041.657	-2490
1041.719	-2560
1041.781	-3107
1041.842	-2931
1041.904	-3091
1041.965	-3257
1042.027	-2718
1042.088	-2539
1042.150	-3659
1042.211	-3336
1042.272	-3201
1042.334	-2825
1042.395	-2524
1042.456	-3470
1042.518	-2827
1042.579	-2295
1042.640	-2907
1042.701	-3244
1042.763	-2978
1042.824	-2424
1042.885	-3116
1042.946	-3085
1043.007	-3212
1043.068	-3529
1043.129	-2921
1043.190	-2863
1043.251	-2329
1043.312	-2926
1043.373	-2489
1043.434	-3194
1043.495	-2250
1043.556	-3438
1043.616	-2680
1043.677	-3168
1043.738	-2528
1043.799	-3313
1043.859	-2800
1043.920	-2865
1043.981	-2841
1044.041	-1983
1044.102	-3039
1044.162	-3649
1044.223	-3540
1044.284	-2793
1044.344	-2144
1044.405	-2553
1044.465	-2666
1044.525	-2655
1044.586	-2466
1044.646	-2913
1044.707	-2554
1044.767	-2411
1044.827	-2434
1044.887	-3113
1044.948	-2424
1045.008	-2506
1045.068	-2814
1045.128	-3065
1045.188	-3430
1045.249	-3123
1045.309	-3182
1045.369	-2739
1045.429	-1576
1045.489	-2830
1045.549	-2429
1045.609	-2788
1045.669	-2337
1045.729	-3095
1045.789	-2499
1045.848	-2675
1045.908	-2251
1045.968	-2689
1046.028	-1535
1046.088	-2313
1046.147	-2409
1046.207	-1925
1046.267	-2335
1046.326	-2428
1046.386	-2339
1046.446	-2385
1046.505	-1400
1046.565	-1607
1046.624	-1289
1046.684	-1067
1046.743	-1267
1046.803	-1118
1046.862	-1036
1046.922	0
