'Start Wavelength	183.907
'End Wavelength	1046.922
'Gate Delay	5.000
'Gate Width (ms)	1.050
'Laser Output Level	0.000
'X Position	0.000
'Y Position	0.000
'Z Position	0.000
'Grid Point Number	1.000
'Shot Number	100.000
183.907	-665.000
183.977	-390.000
184.047	-433
184.116	85
184.186	-429
184.256	-495
184.325	-424
184.395	-471
184.465	600
184.534	-195
184.604	-170
184.674	-278
184.743	-476
184.813	-170
184.883	204
184.952	-423
185.022	53
185.092	-88
185.161	-82
185.231	-64
185.301	-23
185.370	755
185.440	-284
185.509	-444
185.579	7
185.649	276
185.718	-219
185.788	-8
185.857	-499
185.927	188
185.996	-327
186.066	145
186.136	-277
186.205	-580
186.275	-427
186.344	-68
186.414	-198
186.483	-159
186.553	811
186.622	380
186.692	-87
186.761	-241
186.831	-321
186.900	-125
186.970	264
187.039	51
187.109	1434
187.178	180
187.248	173
187.317	227
187.387	-985
187.456	883
187.526	577
187.595	114
187.664	225
187.734	-97
187.803	88
187.873	141
187.942	220
188.012	634
188.081	133
188.150	106
188.220	-272
188.289	516
188.358	231
188.428	238
188.497	-255
188.567	214
188.636	369
188.705	-46
188.775	132
188.844	345
188.913	919
188.983	-436
189.052	-102
189.121	-485
189.191	-324
189.260	498
189.329	1038
189.399	-76
189.468	651
189.537	-532
189.606	448
189.676	-114
189.745	260
189.814	345
189.883	-47
189.953	-192
190.022	561
190.091	1145
190.161	2835
190.230	301
190.299	532
190.368	-348
190.437	-161
190.507	220
190.576	141
190.645	-30
190.714	340
190.783	-60
190.853	767
190.922	-58
190.991	-265
191.060	316
191.129	-792
191.198	-571
191.268	-86
191.337	-1029
191.406	15
191.475	-352
191.544	352
191.613	34
191.682	401
191.752	468
191.821	-205
191.890	573
191.959	46
192.028	-120
192.097	-73
192.166	-343
192.235	-782
192.304	237
192.373	447
192.442	-32
192.511	377
192.580	-681
192.650	338
192.719	-584
192.788	242
192.857	249
192.926	-310
192.995	988
193.064	1117
193.133	963
193.202	1863
193.271	672
193.340	1647
193.409	1112
193.478	872
193.547	1631
193.615	2358
193.684	1751
193.753	1378
193.822	1182
193.891	608
193.960	700
194.029	234
194.098	894
194.167	-22
194.236	289
194.305	879
194.374	-505
194.443	188
194.512	680
194.580	1034
194.649	809
194.718	941
194.787	373
194.856	276
194.925	867
194.994	976
195.062	1380
195.131	970
195.200	547
195.269	745
195.338	1006
195.407	409
195.475	526
195.544	712
195.613	1000
195.682	526
195.751	673
195.819	255
195.888	583
195.957	655
196.026	1127
196.094	1895
196.163	501
196.232	1859
196.301	543
196.369	223
196.438	406
196.507	1029
196.576	162
196.644	891
196.713	-61
196.782	237
196.850	896
196.919	872
196.988	77
197.056	382
197.125	823
197.194	610
197.262	369
197.331	33
197.400	777
197.468	586
197.537	-516
197.606	1350
197.674	776
197.743	2202
197.812	590
197.880	2564
197.949	1375
198.017	2090
198.086	1055
198.155	937
198.223	852
198.292	3691
198.360	1543
198.429	1317
198.497	640
198.566	1686
198.635	2283
198.703	959
198.772	353
198.840	2998
198.909	2993
198.977	895
199.046	461
199.114	1105
199.183	664
199.251	692
199.320	294
199.388	816
199.457	855
199.525	-114
199.594	575
199.662	940
199.731	-126
199.799	1328
199.867	794
199.936	323
200.004	937
200.073	1111
200.141	654
200.210	-175
200.278	325
200.346	1179
200.415	782
200.483	1120
200.552	1289
200.620	122
200.688	247
200.757	715
200.825	387
200.893	370
200.962	253
201.030	-80
201.098	711
201.167	1011
201.235	772
201.303	597
201.372	452
201.440	783
201.508	1553
201.577	1673
201.645	825
201.713	582
201.781	122
201.850	2103
201.918	1005
201.986	1119
202.055	1290
202.123	282
202.191	709
202.259	1366
202.327	135
202.396	635
202.464	798
202.532	1235
202.600	4343
202.669	1832
202.737	496
202.805	324
202.873	1379
202.941	983
203.009	-160
203.078	951
203.146	478
203.214	611
203.282	175
203.350	768
203.418	1543
203.487	837
203.555	1061
203.623	543
203.691	1114
203.759	1170
203.827	253
203.895	1014
203.963	396
204.031	620
204.099	332
204.168	884
204.236	499
204.304	883
204.372	755
204.440	601
204.508	854
204.576	564
204.644	1871
204.712	211
204.780	1302
204.848	990
204.916	462
204.984	1190
205.052	811
205.120	1412
205.188	1277
205.256	881
205.324	1310
205.392	1494
205.460	1224
205.528	1303
205.596	1120
205.664	1594
205.732	595
205.799	3681
205.867	5315
205.935	504
206.003	1637
206.071	887
206.139	1330
206.207	849
206.275	226
206.343	901
206.411	543
206.478	1210
206.546	643
206.614	1482
206.682	1173
206.750	342
206.818	1004
206.885	1881
206.953	39
207.021	1067
207.089	1258
207.157	740
207.225	424
207.292	961
207.360	515
207.428	1063
207.496	404
207.563	1968
207.631	626
207.699	816
207.767	733
207.834	615
207.902	1484
207.970	794
208.038	802
208.105	1213
208.173	1189
208.241	2319
208.309	1042
208.376	1400
208.444	2127
208.512	1241
208.579	601
208.647	1937
208.715	2695
208.782	1083
208.850	389
208.918	1469
208.985	925
209.053	2289
209.120	1359
209.188	926
209.256	1033
209.323	539
209.391	1240
209.459	2091
209.526	873
209.594	1003
209.661	791
209.729	1071
209.796	1135
209.864	999
209.932	488
209.999	2447
210.067	2287
210.134	1946
210.202	1508
210.269	1654
210.337	2270
210.404	608
210.472	870
210.539	1706
210.607	1234
210.674	2141
210.742	1660
210.809	1318
210.877	1550
210.944	2344
211.012	904
211.079	2871
211.146	1682
211.214	1012
211.281	1962
211.349	1416
211.416	2011
211.484	2594
211.551	1076
211.618	1616
211.686	2165
211.753	753
211.821	1924
211.888	1516
211.955	2100
212.023	1326
212.090	1248
212.157	1685
212.225	2326
212.292	3876
212.359	5427
212.427	16012
212.494	7856
212.561	2845
212.629	2274
212.696	1862
212.763	1971
212.831	814
212.898	1289
212.965	1200
213.032	2166
213.100	2257
213.167	1215
213.234	3247
213.301	2308
213.369	2057
213.436	1521
213.503	1790
213.570	2142
213.638	2569
213.705	1024
213.772	752
213.839	1876
213.906	2696
213.973	1568
214.041	1914
214.108	1904
214.175	2104
214.242	1964
214.309	1362
214.376	2183
214.444	2133
214.511	1952
214.578	2236
214.645	2591
214.712	2063
214.779	2203
214.846	2118
214.913	2850
214.980	2724
215.048	2951
215.115	3310
215.182	2158
215.249	2172
215.316	1771
215.383	1682
215.450	1636
215.517	2034
215.584	1650
215.651	1506
215.718	1294
215.785	2840
215.852	1303
215.919	2551
215.986	3144
216.053	1759
216.120	1182
216.187	2477
216.254	2543
216.321	2077
216.388	1817
216.455	2061
216.522	1943
216.589	2870
216.656	4194
216.722	4099
216.789	2801
216.856	4282
216.923	2944
216.990	4225
217.057	2510
217.124	3854
217.191	3468
217.258	4478
217.324	5329
217.391	6543
217.458	4888
217.525	3708
217.592	2615
217.659	2801
217.725	2698
217.792	3179
217.859	2386
217.926	1046
217.993	1786
218.059	2179
218.126	1543
218.193	1758
218.260	899
218.327	518
218.393	1137
218.460	898
218.527	474
218.594	1716
218.660	2453
218.727	3838
218.794	537
218.860	1631
218.927	762
218.994	743
219.061	812
219.127	1693
219.194	2578
219.261	1394
219.327	743
219.394	1920
219.461	487
219.527	967
219.594	2325
219.661	1560
219.727	348
219.794	1659
219.860	653
219.927	1619
219.994	2478
220.060	4755
220.127	3229
220.193	2648
220.260	2171
220.326	4106
220.393	7166
220.460	9948
220.526	5717
220.593	3913
220.659	4519
220.726	3296
220.792	9460
220.859	8038
220.925	11275
220.992	15906
221.058	14933
221.125	12491
221.191	8961
221.258	4170
221.324	2151
221.391	2205
221.457	2157
221.524	1704
221.590	3166
221.657	10172
221.723	6414
221.789	6231
221.856	6056
221.922	2679
221.989	2157
222.055	2399
222.121	1017
222.188	3541
222.254	1203
222.321	1199
222.387	1317
222.453	1090
222.520	905
222.586	-134
222.652	1849
222.719	1023
222.785	996
222.851	898
222.918	497
222.984	755
223.050	1047
223.116	-277
223.183	1404
223.249	397
223.315	384
223.382	1291
223.448	1138
223.514	27
223.580	116
223.647	640
223.713	430
223.779	486
223.845	1018
223.911	881
223.978	452
224.044	763
224.110	483
224.176	1254
224.242	796
224.309	331
224.375	1332
224.441	475
224.507	-231
224.573	482
224.639	1611
224.705	662
224.772	819
224.838	339
224.904	1353
224.970	1413
225.036	629
225.102	-4
225.168	1023
225.234	938
225.300	874
225.366	1743
225.432	1546
225.499	1351
225.565	1368
225.631	628
225.697	709
225.763	1932
225.829	1508
225.895	2167
225.961	3422
226.027	2524
226.093	2600
226.159	4215
226.225	5719
226.291	14000
226.357	24119
226.423	11766
226.489	5906
226.554	3951
226.620	3514
226.686	5057
226.752	7716
226.818	13098
226.884	27968
226.950	26149
227.016	9801
227.082	6110
227.148	3676
227.214	3934
227.279	3520
227.345	2244
227.411	1992
227.477	2494
227.543	4821
227.609	5579
227.674	3129
227.740	2288
227.806	1668
227.872	2629
227.938	1226
228.003	3526
228.069	1644
228.135	1731
228.201	693
228.267	1016
228.332	1755
228.398	2463
228.464	2897
228.530	1592
228.595	1439
228.661	473
228.727	2388
228.792	2358
228.858	1158
228.924	778
228.990	2553
229.055	1675
229.121	2697
229.187	1705
229.252	1047
229.318	982
229.384	1976
229.449	3104
229.515	-21
229.581	463
229.646	1697
229.712	1506
229.777	3156
229.843	4292
229.909	3267
229.974	3859
230.040	2858
230.105	1992
230.171	2072
230.236	3737
230.302	4881
230.368	4246
230.433	1211
230.499	2145
230.564	2879
230.630	928
230.695	1638
230.761	3027
230.826	-63
230.892	4211
230.957	1223
231.023	1135
231.088	1497
231.154	1651
231.219	1813
231.284	2601
231.350	2827
231.415	1425
231.481	1986
231.546	1147
231.612	663
231.677	367
231.742	-271
231.808	1276
231.873	668
231.939	-236
232.004	4201
232.069	4127
232.135	1349
232.200	1138
232.265	1165
232.331	587
232.396	476
232.461	492
232.527	286
232.592	1248
232.657	658
232.723	3084
232.788	2138
232.853	1190
232.918	1403
232.984	1358
233.049	670
233.114	3229
233.179	2694
233.245	5235
233.310	6637
233.375	783
233.440	1937
233.506	149
233.571	33
233.636	1491
233.701	646
233.766	3830
233.832	4674
233.897	1801
233.962	501
234.027	3120
234.092	1846
234.157	2504
234.222	1830
234.288	3748
234.353	12209
234.418	10708
234.483	6620
234.548	4162
234.613	2900
234.678	2255
234.743	2826
234.808	13541
234.873	7586
234.938	4090
235.004	1942
235.069	2524
235.134	1329
235.199	2179
235.264	2103
235.329	645
235.394	2441
235.459	3110
235.524	1897
235.589	2475
235.654	1770
235.719	400
235.784	1137
235.849	2372
235.913	6828
235.978	7957
236.043	8912
236.108	3311
236.173	2782
236.238	3433
236.303	2075
236.368	2090
236.433	4553
236.498	8826
236.563	4941
236.627	10107
236.692	35013
236.757	29370
236.822	11824
236.887	8687
236.952	7072
237.017	4482
237.081	6610
237.146	7101
237.211	16778
237.276	34926
237.341	56246
237.405	28350
237.470	11178
237.535	7467
237.600	5001
237.664	4355
237.729	2506
237.794	4976
237.859	11042
237.923	8079
237.988	3711
238.053	6748
238.118	6069
238.182	16791
238.247	15263
238.312	6836
238.376	5428
238.441	2638
238.506	4187
238.570	1463
238.635	2674
238.700	1934
238.764	1551
238.829	7824
238.893	9196
238.958	4199
239.023	3223
239.087	1879
239.152	2795
239.216	671
239.281	1525
239.346	2377
239.410	1139
239.475	3290
239.539	16702
239.604	11914
239.668	3275
239.733	2513
239.797	2897
239.862	8397
239.926	14629
239.991	5737
240.055	2348
240.120	2093
240.184	2096
240.249	1546
240.313	1076
240.378	1882
240.442	7559
240.507	16173
240.571	5124
240.635	7278
240.700	8948
240.764	3474
240.829	2294
240.893	305
240.957	1965
241.022	9433
241.086	16833
241.151	7815
241.215	1691
241.279	4412
241.344	8302
241.408	3874
241.472	2917
241.537	3880
241.601	2243
241.665	1536
241.730	1387
241.794	2994
241.858	1829
241.922	2039
241.987	2078
242.051	1819
242.115	555
242.179	2040
242.244	1582
242.308	3149
242.372	2601
242.436	3111
242.501	3028
242.565	2556
242.629	1470
242.693	2143
242.757	1169
242.822	1869
242.886	2559
242.950	3188
243.014	2023
243.078	2989
243.142	2231
243.206	2073
243.271	3157
243.335	1782
243.399	4346
243.463	18298
243.527	51266
243.591	16894
243.655	5725
243.719	2948
243.783	4139
243.847	6733
243.911	9447
243.975	10493
244.040	6345
244.104	3949
244.168	2031
244.232	4437
244.296	7232
244.360	7659
244.424	4702
244.488	3724
244.552	3257
244.615	1924
244.679	1948
244.743	3203
244.807	2717
244.871	2093
244.935	1874
244.999	1470
245.063	2153
245.127	3468
245.191	5973
245.255	4908
245.319	3873
245.383	2676
245.446	3384
245.510	2408
245.574	2706
245.638	2690
245.702	1669
245.766	8474
245.829	5327
245.893	3256
245.957	1938
246.021	3012
246.085	2830
246.149	4946
246.212	10275
246.276	14671
246.340	6253
246.404	4923
246.467	4410
246.531	7222
246.595	5439
246.659	4273
246.722	2879
246.786	5685
246.850	4946
246.913	7857
246.977	2166
247.041	3410
247.104	3517
247.168	3042
247.232	9829
247.295	20641
247.359	9826
247.423	4239
247.486	8440
247.550	5746
247.614	4249
247.677	6487
247.741	3205
247.804	3360
247.868	3613
247.932	7965
247.995	19360
248.059	7023
248.122	3163
248.186	4484
248.249	7553
248.313	30704
248.376	32303
248.440	21242
248.503	6948
248.567	7412
248.630	9001
248.694	13536
248.757	15884
248.821	33604
248.884	19983
248.948	16894
249.011	25016
249.075	39053
249.138	33649
249.202	13159
249.265	8838
249.328	11372
249.392	8044
249.455	6168
249.519	5032
249.582	6216
249.645	11084
249.709	7981
249.772	4997
249.835	5157
249.899	7118
249.962	5019
250.025	4131
250.089	12776
250.152	17550
250.215	8661
250.279	6113
250.342	6670
250.405	5730
250.468	5570
250.532	6741
250.595	11747
250.658	45371
250.721	75457
250.785	28169
250.848	13914
250.911	7700
250.974	6908
251.038	9464
251.101	21255
251.164	11399
251.227	11897
251.290	9685
251.354	14674
251.417	64218
251.480	62314
251.543	41243
251.606	116316
251.669	86367
251.732	32418
251.795	28127
251.859	30019
251.922	73491
251.985	43161
252.048	15781
252.111	11400
252.174	9872
252.237	17527
252.300	40235
252.363	44265
252.426	94082
252.489	39773
252.552	20867
252.615	12751
252.678	12948
252.741	30121
252.804	41383
252.867	95471
252.930	56517
252.993	29640
253.056	17117
253.119	12963
253.182	9457
253.245	17794
253.308	13503
253.371	12080
253.434	11150
253.497	10971
253.559	19699
253.622	14250
253.685	17751
253.748	18895
253.811	8157
253.874	11588
253.937	11322
254.000	7869
254.062	13081
254.125	19980
254.188	19970
254.251	17559
254.314	7668
254.376	14627
254.439	17298
254.502	14534
254.565	13481
254.628	23989
254.690	15878
254.753	8873
254.816	6874
254.878	7882
254.941	14245
255.004	14992
255.067	7074
255.129	6572
255.192	4181
255.255	3393
255.317	5261
255.380	3744
255.443	1833
255.505	2806
255.568	2461
255.631	2684
255.693	3124
255.756	2703
255.819	3619
255.881	2388
255.944	2026
256.006	2279
256.069	2792
256.132	1784
256.194	4203
256.257	15016
256.319	10664
256.382	9256
256.444	6008
256.507	3549
256.569	2551
256.632	4157
256.694	6699
256.757	19159
256.819	55988
256.882	22983
256.944	8159
257.007	6923
257.069	6802
257.132	5140
257.194	3839
257.257	3826
257.319	3221
257.381	3850
257.444	13394
257.506	63984
257.569	70262
257.631	34294
257.693	17188
257.756	8133
257.818	7640
257.880	3845
257.943	4101
258.005	2979
258.067	3330
258.130	3632
258.192	4453
258.254	10526
258.317	6388
258.379	3585
258.441	11493
258.503	11493
258.566	17326
258.628	23374
258.690	5591
258.753	5145
258.815	9582
258.877	5039
258.939	2966
259.001	3790
259.064	2444
259.126	4143
259.188	7028
259.250	4095
259.312	4098
259.375	14457
259.437	8847
259.499	3221
259.561	3658
259.623	3316
259.685	3010
259.747	3730
259.809	15039
259.872	32027
259.934	45461
259.996	39383
260.058	10496
260.120	4251
260.182	3056
260.244	2506
260.306	1913
260.368	3958
260.430	1873
260.492	6841
260.554	13888
260.616	10215
260.678	21861
260.740	33275
260.802	8348
260.864	5701
260.926	3227
260.988	5117
261.050	3375
261.112	9364
261.174	31969
261.236	25855
261.298	7711
261.359	13742
261.421	21019
261.483	6352
261.545	4237
261.607	2130
261.669	2580
261.731	8610
261.793	22917
261.854	8072
261.916	6532
261.978	3834
262.040	5374
262.102	3827
262.164	8759
262.225	6116
262.287	2762
262.349	10497
262.411	7594
262.472	4373
262.534	8636
262.596	21666
262.658	6433
262.719	3237
262.781	6156
262.843	21053
262.904	8869
262.966	5539
263.028	5822
263.090	35457
263.151	92997
263.213	28472
263.275	13742
263.336	5555
263.398	4900
263.459	1643
263.521	3031
263.583	9682
263.644	6313
263.706	2982
263.767	1486
263.829	2625
263.891	919
263.952	1348
264.014	1430
264.075	4207
264.137	10304
264.198	6552
264.260	2046
264.321	1889
264.383	6565
264.444	17964
264.506	4384
264.567	2976
264.629	6095
264.690	12184
264.752	5886
264.813	2879
264.875	1692
264.936	2470
264.998	1946
265.059	2299
265.120	2506
265.182	4580
265.243	29679
265.305	29556
265.366	7151
265.427	3452
265.489	2938
265.550	1004
265.611	2403
265.673	2833
265.734	2157
265.795	1918
265.857	909
265.918	2371
265.979	7533
266.040	48082
266.102	39594
266.163	10436
266.224	7416
266.286	4392
266.347	2031
266.408	2297
266.469	3746
266.530	2354
266.592	1038
266.653	6216
266.714	10789
266.775	4159
266.836	2662
266.898	1595
266.959	3509
267.020	2973
267.081	2759
267.142	1619
267.203	1148
267.264	828
267.326	3581
267.387	1321
267.448	915
267.509	2599
267.570	2158
267.631	2150
267.692	1705
267.753	2229
267.814	830
267.875	5185
267.936	12865
267.997	6012
268.058	5283
268.119	2261
268.180	2136
268.241	1538
268.302	1952
268.363	1149
268.424	1888
268.485	2844
268.546	727
268.607	1449
268.668	1034
268.729	795
268.790	1473
268.851	2046
268.912	7911
268.972	9477
269.033	4642
269.094	1949
269.155	1578
269.216	1632
269.277	2570
269.338	2016
269.398	1604
269.459	1402
269.520	3518
269.581	5147
269.642	6585
269.702	4117
269.763	1744
269.824	2232
269.885	2868
269.945	6739
270.006	1914
270.067	1446
270.128	2006
270.188	1436
270.249	1092
270.310	1434
270.370	1964
270.431	2550
270.492	893
270.553	1806
270.613	6271
270.674	13854
270.734	4578
270.795	2774
270.856	4330
270.916	2563
270.977	2683
271.038	3797
271.098	2955
271.159	5303
271.219	5567
271.280	2709
271.340	1848
271.401	2490
271.462	10887
271.522	4242
271.583	2236
271.643	2946
271.704	2162
271.764	2916
271.825	8001
271.885	30984
271.946	40185
272.006	13127
272.066	16910
272.127	30913
272.187	9358
272.248	4621
272.308	4605
272.369	21669
272.429	11010
272.489	9542
272.550	9496
272.610	9892
272.671	6177
272.731	7207
272.791	14014
272.852	6808
272.912	5798
272.972	3327
273.033	3234
273.093	7800
273.153	6117
273.214	4112
273.274	5017
273.334	16734
273.394	34520
273.455	14252
273.515	13191
273.575	31017
273.635	11800
273.696	17429
273.756	32385
273.816	13041
273.876	7493
273.936	19794
273.997	36061
274.057	9065
274.117	6484
274.177	7865
274.237	38663
274.297	34521
274.358	26338
274.418	26924
274.478	19322
274.538	7154
274.598	5781
274.658	28749
274.718	37518
274.778	13133
274.838	6063
274.898	14293
274.958	53048
275.018	36620
275.078	20802
275.138	9241
275.198	4198
275.258	2887
275.318	4884
275.378	10418
275.438	9744
275.498	6654
275.558	22352
275.618	47417
275.678	24847
275.738	14141
275.798	10709
275.858	5748
275.918	1805
275.978	3693
276.038	4362
276.098	2512
276.157	6678
276.217	23147
276.277	10847
276.337	8161
276.397	3375
276.457	5593
276.517	3752
276.576	3161
276.636	1829
276.696	4438
276.756	14319
276.815	11264
276.875	4500
276.935	5823
276.995	4599
277.055	3017
277.114	2576
277.174	4747
277.234	17718
277.293	7874
277.353	4390
277.413	3697
277.472	4285
277.532	4233
277.592	4431
277.651	20621
277.711	41056
277.771	12100
277.830	45741
277.890	36012
277.950	23430
278.009	73170
278.069	25708
278.128	28151
278.188	41950
278.248	16462
278.307	45367
278.367	27901
278.426	7995
278.486	5508
278.545	4235
278.605	4458
278.664	3669
278.724	4463
278.783	11569
278.843	33493
278.902	9798
278.962	6824
279.021	6651
279.081	12885
279.140	11788
279.199	7840
279.259	7938
279.318	8687
279.378	10160
279.437	18407
279.496	63844
279.556	215378
279.615	179288
279.675	51877
279.734	26621
279.793	36669
279.853	50296
279.912	18693
279.971	11013
280.031	9446
280.090	16847
280.149	30050
280.208	29163
280.268	149535
280.327	155858
280.386	39959
280.445	26126
280.505	21665
280.564	10853
280.623	8347
280.682	11562
280.742	17831
280.801	5931
280.860	5374
280.919	3689
280.978	4229
281.037	3899
281.097	3635
281.156	3751
281.215	3510
281.274	4444
281.333	22506
281.392	17932
281.451	5485
281.510	3103
281.569	2790
281.628	2998
281.688	2532
281.747	3253
281.806	2953
281.865	2072
281.924	2131
281.983	2439
282.042	2086
282.101	1880
282.160	1724
282.219	1078
282.278	3288
282.337	12741
282.396	9222
282.454	2968
282.513	4547
282.572	20589
282.631	11801
282.690	4362
282.749	3227
282.808	4733
282.867	3504
282.926	3809
282.985	3413
283.043	1913
283.102	3099
283.161	2842
283.220	9202
283.279	24118
283.338	6262
283.396	4077
283.455	3973
283.514	3384
283.573	6982
283.631	5905
283.690	3044
283.749	3210
283.808	8994
283.866	11469
283.925	4621
283.984	3789
284.043	4908
284.101	5508
284.160	4858
284.219	6716
284.277	5056
284.336	7611
284.395	27096
284.453	23569
284.512	9131
284.570	12057
284.629	10582
284.688	10043
284.746	11991
284.805	13146
284.863	19047
284.922	22516
284.981	25842
285.039	34726
285.098	60431
285.156	136705
285.215	199051
285.273	195857
285.332	149545
285.390	82877
285.449	48863
285.507	32514
285.566	23158
285.624	17829
285.683	14176
285.741	10725
285.799	9890
285.858	8399
285.916	7671
285.975	6914
286.033	5536
286.091	5470
286.150	4282
286.208	5673
286.267	6694
286.325	5485
286.383	8641
286.442	7273
286.500	3837
286.558	3360
286.616	2912
286.675	4730
286.733	5700
286.791	3409
286.850	5221
286.908	6604
286.966	11048
287.024	3529
287.083	3175
287.141	2889
287.199	3802
287.257	5434
287.315	4103
287.374	4409
287.432	11352
287.490	6659
287.548	4660
287.606	3001
287.664	3242
287.723	5843
287.781	8186
287.839	4031
287.897	4683
287.955	6115
288.013	7580
288.071	18909
288.129	96417
288.187	268508
288.245	118495
288.303	38400
288.361	20421
288.419	14451
288.477	9657
288.535	5983
288.593	4604
288.651	3779
288.709	2686
288.767	3180
288.825	2569
288.883	2715
288.941	2457
288.999	2429
289.057	2491
289.115	2077
289.173	2154
289.231	2211
289.289	3211
289.346	2046
289.404	3346
289.462	5348
289.520	6932
289.578	2787
289.636	1839
289.694	978
289.751	1015
289.809	2096
289.867	1741
289.925	2892
289.983	4109
290.040	1702
290.098	1186
290.156	2635
290.214	3173
290.271	1936
290.329	1670
290.387	1246
290.444	1153
290.502	534
290.560	742
290.617	1638
290.675	1277
290.733	1701
290.790	2484
290.848	1585
290.906	2589
290.963	2116
291.021	2280
291.078	1291
291.136	1477
291.194	9213
291.251	24521
291.309	6825
291.366	1934
291.424	1802
291.481	2077
291.539	2632
291.596	2489
291.654	1451
291.711	781
291.769	1702
291.826	6104
291.884	3445
291.941	1403
291.999	2819
292.056	2320
292.114	2794
292.171	1892
292.228	2292
292.286	3469
292.343	6738
292.401	9265
292.458	5137
292.515	3340
292.573	3646
292.630	3091
292.687	3519
292.745	3244
292.802	4294
292.859	12929
292.917	25004
292.974	13907
293.031	4547
293.089	2841
293.146	1556
293.203	1341
293.260	857
293.318	3635
293.375	5129
293.432	3031
293.489	1268
293.546	1499
293.604	3054
293.661	14855
293.718	37900
293.775	18072
293.832	9267
293.889	7296
293.947	7791
294.004	4774
294.061	4415
294.118	10490
294.175	23698
294.232	28907
294.289	11128
294.346	6097
294.403	4573
294.460	4870
294.517	3226
294.574	3145
294.631	2090
294.688	2372
294.745	9359
294.802	40826
294.859	44449
294.916	17161
294.973	9889
295.030	8140
295.087	6228
295.144	4188
295.201	2367
295.258	2377
295.315	3127
295.372	16331
295.429	31032
295.486	13000
295.542	6474
295.599	18429
295.656	30130
295.713	22126
295.770	29659
295.827	11518
295.883	5534
295.940	4542
295.997	9886
296.054	9502
296.111	4799
296.167	3426
296.224	709
296.281	2073
296.338	2067
296.394	2441
296.451	2637
296.508	12791
296.564	25023
296.621	15154
296.678	32487
296.734	45823
296.791	17213
296.848	8209
296.904	7588
296.961	19750
297.018	35074
297.074	25892
297.131	9120
297.187	6535
297.244	7926
297.301	31350
297.357	58273
297.414	20972
297.470	7631
297.527	4000
297.583	4369
297.640	4854
297.696	2978
297.753	2868
297.809	1902
297.866	1481
297.922	1672
297.979	1596
298.035	2663
298.092	5406
298.148	20557
298.204	18813
298.261	7615
298.317	14130
298.374	39528
298.430	22555
298.486	11544
298.543	8272
298.599	5734
298.656	5598
298.712	13163
298.768	38549
298.824	28245
298.881	8821
298.937	4430
298.993	4891
299.050	5922
299.106	4425
299.162	3582
299.218	4340
299.275	2704
299.331	3632
299.387	7335
299.443	34436
299.500	36215
299.556	15319
299.612	7857
299.668	6336
299.724	8070
299.780	8490
299.837	4593
299.893	7064
299.949	33241
300.005	35607
300.061	31917
300.117	50432
300.173	24265
300.229	10714
300.285	13859
300.341	15655
300.397	8407
300.453	4634
300.510	3751
300.566	4556
300.622	4107
300.678	17804
300.734	33705
300.790	31300
300.845	35837
300.901	23515
300.957	34331
301.013	25773
301.069	10433
301.125	6894
301.181	7509
301.237	5876
301.293	3459
301.349	2515
301.405	2918
301.461	2771
301.516	3369
301.572	4554
301.628	9469
301.684	7949
301.740	13224
301.796	21003
301.851	14287
301.907	23445
301.963	20635
302.019	35321
302.074	99817
302.130	94230
302.186	42127
302.242	17850
302.297	11276
302.353	10547
302.409	21524
302.464	17553
302.520	13987
302.576	38208
302.631	43408
302.687	25288
302.743	11260
302.798	6632
302.854	4178
302.910	4444
302.965	6678
303.021	11778
303.076	11214
303.132	16163
303.187	18534
303.243	9300
303.299	5444
303.354	4355
303.410	3362
303.465	2763
303.521	3540
303.576	3910
303.632	3666
303.687	9391
303.743	31412
303.798	26846
303.853	11005
303.909	6577
303.964	5264
304.020	8700
304.075	12950
304.130	12320
304.186	22468
304.241	24432
304.297	19150
304.352	9543
304.358	9213
304.407	6540
304.449	5256
304.463	4828
304.518	5553
304.539	5041
304.573	4219
304.629	4514
304.630	4560
304.684	6876
304.720	18278
304.739	24001
304.794	35709
304.811	30470
304.850	17968
304.902	8975
304.905	8408
304.960	5266
304.992	6129
305.015	6715
305.071	6159
305.083	5821
305.126	4599
305.173	2853
305.181	2574
305.236	2104
305.264	2683
305.292	3285
305.347	4765
305.354	4830
305.402	5262
305.445	6428
305.457	6738
305.512	7736
305.535	7413
305.567	7015
305.622	6019
305.626	6353
305.678	13638
305.716	31755
305.733	38445
305.788	40923
305.807	35076
305.843	25100
305.897	32205
305.898	32273
305.953	30927
305.988	21494
306.008	16343
306.063	9660
306.078	8734
306.118	6679
306.168	4589
306.173	4414
306.228	3650
306.259	3570
306.283	3534
306.338	3204
306.349	3457
306.393	4459
306.440	5134
306.448	5243
306.503	5109
306.530	5344
306.558	6844
306.613	17695
306.620	19111
306.668	27431
306.711	35730
306.723	36830
306.778	27784
306.801	21313
306.833	13993
306.888	7150
306.892	6908
306.943	5068
306.982	4665
306.997	4513
307.052	3790
307.072	3822
307.107	4300
307.162	6201
307.163	6246
307.217	11044
307.253	14332
307.272	15237
307.327	15939
307.343	14157
307.381	10468
307.434	9211
307.436	9413
307.491	19697
307.524	30454
307.546	34090
307.600	31722
307.614	28054
307.655	17047
307.704	9110
307.710	8719
307.765	9393
307.795	12857
307.819	16065
307.874	27071
307.885	26771
307.929	20557
307.975	14211
307.984	14126
308.038	17044
308.065	21333
308.093	35886
308.148	82369
308.156	94581
308.202	156157
308.246	183826
308.257	180387
308.312	100571
308.336	72086
308.366	54003
308.421	33961
308.426	32355
308.475	20615
308.517	15229
308.530	13816
308.585	10525
308.607	9815
308.639	10155
308.694	11337
308.697	11642
308.748	21431
308.787	32701
308.803	33562
308.857	25285
308.877	21118
308.912	17522
308.967	16004
308.967	16031
309.021	21346
309.058	27229
309.076	33864
309.130	59041
309.148	70054
309.185	120386
309.238	215977
309.239	216553
309.293	238155
309.328	215724
309.348	188125
309.402	94876
309.418	72255
309.457	49997
309.508	31481
309.511	30835
309.566	28822
309.598	30628
309.620	36442
309.674	56418
309.688	61775
309.729	59059
309.778	45629
309.783	44350
309.837	29068
309.868	22033
309.892	23482
309.946	31733
309.959	35041
310.001	44515
310.049	51657
310.055	50144
310.109	30363
310.139	19137
310.163	14873
310.218	8984
310.229	8132
310.272	6861
310.319	5971
310.326	5779
310.381	5003
310.409	4681
310.435	4571
310.489	4435
310.499	4427
310.543	4335
310.589	4545
310.598	4575
310.652	4556
310.679	4607
310.706	4189
310.760	2956
310.769	2798
310.814	2372
310.859	2118
310.868	2139
310.923	2294
310.948	2437
310.977	2914
311.031	4063
311.038	4197
311.085	4148
311.128	3845
311.139	3751
311.193	3593
311.218	3432
311.247	3297
311.301	3218
311.308	3207
311.356	3329
311.398	3373
311.410	3304
311.464	3108
311.488	3013
311.518	2926
311.572	2713
311.578	2704
311.626	3974
311.668	5117
311.680	5094
311.734	4890
311.758	4837
311.788	4649
311.842	4216
311.847	4183
311.896	5900
311.937	7498
311.950	7218
312.004	5941
312.027	5368
312.058	4652
312.112	3436
312.117	3324
312.165	3059
312.207	2854
312.297	3952
312.386	3908
312.476	2928
312.566	7672
312.656	3619
312.745	3380
312.835	2958
312.925	3630
313.015	3277
313.104	3591
313.194	2088
313.284	3153
313.374	4133
313.463	4445
313.553	3140
313.643	2604
313.732	2610
313.822	2316
313.912	3102
314.001	3791
314.091	3181
314.180	4767
314.270	4449
314.360	5193
314.449	4377
314.539	2262
314.628	2380
314.718	3080
314.808	4115
314.897	2051
314.987	2990
315.076	3591
315.166	5305
315.255	4398
315.345	5071
315.434	4683
315.524	4386
315.613	5605
315.703	6084
315.792	9710
315.881	23343
315.971	8529
316.060	9900
316.150	14423
316.239	15527
316.328	5236
316.418	2773
316.507	3153
316.597	4724
316.686	3995
316.775	7704
316.865	16763
316.954	3651
317.043	2334
317.133	2109
317.222	2434
317.311	2613
317.400	1842
317.490	4763
317.579	4432
317.668	3264
317.757	6380
317.847	15739
317.936	41787
318.025	16833
318.114	9912
318.203	5759
318.293	7764
318.382	13547
318.471	11816
318.560	17991
318.649	33238
318.738	5960
318.828	4251
318.917	4677
319.006	7492
319.095	20085
319.184	43419
319.273	23206
319.362	11273
319.451	3222
319.540	4427
319.629	10789
319.718	15613
319.807	6558
319.896	18123
319.985	54686
320.074	17305
320.163	5071
320.252	9313
320.341	6458
320.430	5771
320.519	8572
320.608	3787
320.697	3757
320.786	2834
320.875	5218
320.964	7290
321.053	11429
321.142	16620
321.230	15669
321.319	12530
321.408	29482
321.497	11731
321.586	11775
321.675	14809
321.764	12630
321.852	9042
321.941	16466
322.030	10167
322.119	11909
322.207	32499
322.296	22554
322.385	10098
322.474	12864
322.562	38865
322.651	17491
322.740	13844
322.829	18812
322.917	22817
323.006	10582
323.095	8712
323.183	6884
323.272	10181
323.361	25121
323.449	69164
323.538	20020
323.626	50013
323.715	25262
323.804	11529
323.892	44804
323.981	19849
324.069	6562
324.158	26399
324.246	19804
324.335	7267
324.424	10892
324.512	3125
324.601	4766
324.689	8100
324.778	12824
324.866	14520
324.954	3929
325.043	3248
325.131	9278
325.220	17377
325.308	19106
325.397	14228
325.485	7798
325.574	2450
325.662	2293
325.750	2685
325.839	2422
325.927	2079
326.015	2980
326.104	7407
326.192	9704
326.280	1629
326.369	2352
326.457	5127
326.545	8990
326.634	3704
326.722	1974
326.810	2704
326.898	1868
326.987	3082
327.075	7913
327.163	8998
327.251	3799
327.340	4130
327.428	4926
327.516	1878
327.604	2898
327.692	3059
327.781	4247
327.869	7646
327.957	4414
328.045	3501
328.133	2832
328.221	3549
328.309	2950
328.397	2909
328.485	2896
328.574	5458
328.662	20228
328.750	10748
328.838	4213
328.926	1986
329.014	2014
329.102	3426
329.190	10830
329.278	7051
329.366	2071
329.454	1333
329.542	1151
329.630	1345
329.718	2708
329.806	2740
329.893	3292
329.981	2268
330.069	3371
330.157	18613
330.245	53352
330.333	25441
330.421	4454
330.509	5036
330.597	24190
330.684	13966
330.772	5066
330.860	6694
330.948	8381
331.036	3311
331.123	1565
331.211	1999
331.299	2924
331.387	8359
331.475	13283
331.562	3998
331.650	1734
331.738	2591
331.825	4450
331.913	2206
332.001	1506
332.089	2727
332.176	8083
332.264	23592
332.352	15866
332.439	4400
332.527	2646
332.614	2700
332.702	4031
332.790	3152
332.877	10482
332.965	22105
333.052	6376
333.140	6840
333.228	18450
333.315	4418
333.403	3147
333.490	12980
333.578	12254
333.665	22882
333.753	8621
333.840	2720
333.928	4890
334.015	13355
334.103	20340
334.190	62336
334.278	12688
334.365	6931
334.452	4191
334.540	2662
334.627	4572
334.715	6312
334.802	12917
334.889	88944
334.977	78347
335.064	7954
335.151	3308
335.239	3650
335.326	5294
335.413	29224
335.501	36873
335.588	4089
335.675	2848
335.762	4478
335.850	7657
335.937	4762
336.024	18879
336.111	86614
336.199	31298
336.286	5235
336.373	2894
336.460	1872
336.547	1966
336.635	3499
336.722	2936
336.809	1886
336.896	4192
336.983	15341
337.070	40173
337.157	60207
337.245	54039
337.332	35030
337.419	4196
337.506	2061
337.593	2809
337.680	12105
337.767	36915
337.854	9466
337.941	11768
338.028	18107
338.115	5031
338.202	4550
338.289	14601
338.376	52990
338.463	14062
338.550	22235
338.637	22397
338.724	9702
338.811	15758
338.898	3223
338.984	2400
339.071	2819
339.158	3539
339.245	11191
339.332	5908
339.419	11826
339.506	10136
339.593	529
339.679	1881
339.766	1185
339.853	3572
339.940	8422
340.027	1690
340.113	2114
340.200	3953
340.287	2781
340.374	3105
340.460	7336
340.547	2846
340.634	5806
340.720	24656
340.807	12164
340.894	1803
340.980	2145
341.067	1783
341.154	2965
341.240	4426
341.327	10073
341.414	3878
341.500	3299
341.587	2616
341.674	3071
341.760	7956
341.847	8317
341.933	2738
342.020	936
342.106	1418
342.193	3041
342.279	5592
342.366	3881
342.452	6904
342.539	3771
342.625	9081
342.712	24806
342.798	9430
342.885	3379
342.971	1150
343.058	1088
343.144	1666
343.230	1860
343.317	1930
343.403	1585
343.490	1378
343.576	1569
343.662	1702
343.749	2393
343.835	3142
343.921	7226
344.008	48554
344.094	101055
344.180	19557
344.267	7339
344.353	29588
344.439	29897
344.525	11097
344.612	4488
344.698	2948
344.784	2290
344.870	1653
344.957	2212
345.043	4010
345.129	2410
345.215	7237
345.301	4091
345.387	2265
345.474	797
345.560	1528
345.646	1713
345.732	1684
345.818	2996
345.904	1958
345.990	2905
346.076	3142
346.162	6203
346.249	3114
346.335	1774
346.421	2203
346.507	12084
346.593	41744
346.679	9061
346.765	2736
346.851	2076
346.937	1951
347.023	1795
347.108	2114
347.194	1833
347.280	1732
347.366	3172
347.452	12368
347.538	49152
347.624	35724
347.710	28378
347.796	4292
347.882	2541
347.967	2467
348.053	2459
348.139	1888
348.225	1638
348.311	1777
348.397	1820
348.482	4167
348.568	3500
348.654	1441
348.740	3252
348.825	1751
348.911	5111
348.997	24169
349.083	45558
349.168	6900
349.254	2864
349.340	2396
349.425	2112
349.511	3259
349.597	4074
349.682	8401
349.768	27661
349.854	12328
349.939	2169
350.025	1162
350.110	1365
350.196	2107
350.282	1054
350.367	1424
350.453	4525
350.538	4378
350.624	3495
350.709	3186
350.795	1626
350.880	1478
350.966	3075
351.051	4732
351.137	3355
351.222	2389
351.308	8430
351.393	24530
351.479	5970
351.564	1958
351.649	1598
351.735	1273
351.820	1368
351.906	2202
351.991	3991
352.076	15561
352.162	23116
352.247	4360
352.332	2650
352.418	6059
352.503	7921
352.588	34512
352.673	27650
352.759	5638
352.844	2315
352.929	3565
353.014	4017
353.100	3635
353.185	4400
353.270	7962
353.355	8967
353.441	2563
353.526	3102
353.611	7438
353.696	9168
353.781	5469
353.866	1584
353.952	2270
354.037	6432
354.122	18708
354.207	16219
354.292	4834
354.377	2059
354.462	1743
354.547	2997
354.632	3022
354.717	4253
354.802	4662
354.887	2521
354.972	1049
355.057	885
355.142	1474
355.227	2040
355.312	4502
355.397	10876
355.482	28150
355.567	13115
355.652	9152
355.737	10352
355.822	33835
355.907	26805
355.991	3923
356.076	1727
356.161	1937
356.246	1359
356.331	2453
356.416	7177
356.501	56712
356.585	56010
356.670	6600
356.755	4597
356.840	7099
356.924	38101
357.009	132804
357.094	48393
357.179	8990
357.263	5430
357.348	6343
357.433	5685
357.517	5193
357.602	4078
357.687	2261
357.771	4047
357.856	6890
357.941	6802
358.025	29227
358.110	123922
358.195	53939
358.279	6914
358.364	5412
358.448	22669
358.533	61782
358.617	43529
358.702	42574
358.787	14853
358.871	8130
358.956	7462
359.040	1474
359.125	1510
359.209	1993
359.294	3303
359.378	6408
359.462	6835
359.547	4249
359.631	3042
359.716	1431
359.800	1335
359.885	5047
359.969	1918
360.053	2224
360.138	2365
360.222	3891
360.306	8176
360.391	5859
360.475	7835
360.559	18174
360.644	22529
360.728	16610
360.812	30932
360.896	84460
360.981	32094
361.065	15724
361.149	4557
361.233	4481
361.318	2666
361.402	4175
361.486	4200
361.570	2703
361.654	3624
361.739	11244
361.823	55087
361.907	82952
361.991	13424
362.075	6978
362.159	16678
362.243	11223
362.327	9084
362.411	13045
362.495	7134
362.580	3394
362.664	2294
362.748	1494
362.832	2348
362.916	4091
363.000	19725
363.084	66626
363.168	96608
363.252	20649
363.336	7307
363.420	10244
363.503	39027
363.587	45325
363.671	7500
363.755	4391
363.839	8674
363.923	2824
364.007	8602
364.091	10096
364.175	13856
364.258	61416
364.342	39987
364.426	40023
364.510	22589
364.594	11039
364.677	15896
364.761	71404
364.845	51657
364.929	15043
365.013	12319
365.096	10069
365.180	11961
365.264	17501
365.347	62846
365.431	25981
365.515	5256
365.598	2859
365.682	3115
365.766	4395
365.849	6359
365.933	3803
366.017	5368
366.100	3489
366.184	1173
366.267	2256
366.351	2223
366.435	1719
366.518	1057
366.602	962
366.685	1770
366.769	2710
366.852	4623
366.936	9691
367.019	5684
367.103	3197
367.186	8341
367.270	1927
367.353	1041
367.436	2514
367.520	2082
367.603	3306
367.687	4618
367.770	9409
367.853	6747
367.937	20115
368.020	33684
368.104	7619
368.187	7310
368.270	10669
368.353	8465
368.437	13894
368.520	35203
368.603	20218
368.687	23349
368.770	44450
368.853	11020
368.936	9225
369.020	8944
369.103	3890
369.186	1426
369.269	2116
369.352	6723
369.436	9428
369.519	5710
369.602	2006
369.685	3885
369.768	2998
369.851	2947
369.934	1515
370.018	2939
370.101	7734
370.184	7850
370.267	4389
370.350	7892
370.433	12572
370.516	35571
370.599	45498
370.682	12924
370.765	23265
370.848	30606
370.931	55753
371.014	21571
371.097	2827
371.180	3457
371.263	2523
371.346	310
371.429	2270
371.511	2065
371.594	5913
371.677	8637
371.760	9905
371.843	9059
371.926	44500
372.009	93869
372.091	31785
372.174	21108
372.257	52145
372.340	20828
372.423	12689
372.505	15404
372.588	7319
372.671	18096
372.754	54566
372.836	27972
372.919	17594
373.002	34690
373.085	10605
373.167	8855
373.250	22126
373.332	51800
373.415	72242
373.498	135501
373.580	51919
373.663	65234
373.746	86350
373.828	18904
373.911	7919
373.993	9458
374.076	33529
374.159	32955
374.241	15808
374.324	44317
374.406	32566
374.489	41517
374.571	110043
374.654	46317
374.736	23183
374.819	70418
374.901	101858
374.983	101521
375.066	17301
375.148	7083
375.231	28556
375.313	53787
375.395	18928
375.478	4170
375.560	3822
375.643	6163
375.725	23296
375.807	90042
375.890	74692
375.972	32518
376.054	17113
376.136	28228
376.219	12352
376.301	28325
376.383	77319
376.465	31303
376.548	16663
376.630	22675
376.712	64622
376.794	31070
376.877	4116
376.959	1847
377.041	2986
377.123	6562
377.205	7506
377.287	1548
377.369	1872
377.452	1849
377.534	1527
377.616	2104
377.698	1876
377.780	746
377.862	2150
377.944	3322
378.026	1073
378.108	2406
378.190	1014
378.272	2585
378.354	781
378.436	760
378.518	3182
378.600	13717
378.682	13446
378.764	29593
378.846	25333
378.928	6758
379.010	7800
379.091	5258
379.173	2339
379.255	1971
379.337	3706
379.419	15416
379.501	44390
379.583	19553
379.664	4921
379.746	11140
379.828	31030
379.910	41556
379.991	36711
380.073	6344
380.155	3288
380.237	2678
380.318	2276
380.400	2388
380.482	6809
380.564	10437
380.645	10233
380.727	9280
380.809	6206
380.890	4193
380.972	2624
381.053	2315
381.135	3917
381.217	10673
381.298	32252
381.380	16787
381.461	15106
381.543	65726
381.624	82016
381.706	14733
381.787	7288
381.869	8774
381.951	31603
382.032	104651
382.113	68677
382.195	13128
382.276	10016
382.358	21219
382.439	57764
382.521	70287
382.602	103970
382.684	50792
382.765	85953
382.846	110411
382.928	173541
383.009	100459
383.090	66850
383.172	232240
383.253	357166
383.334	121742
383.416	97274
383.497	53159
383.578	26545
383.659	55026
383.741	202429
383.822	491933
383.903	266474
383.984	81243
384.066	114642
384.147	72106
384.228	16799
384.309	10567
384.390	8408
384.471	6538
384.553	6757
384.634	9355
384.715	9844
384.796	4974
384.877	7578
384.958	28147
385.039	36006
385.120	12182
385.201	6233
385.282	6637
385.363	7582
385.444	6580
385.525	13821
385.606	44292
385.687	38257
385.768	8982
385.849	12966
385.930	49124
386.011	79659
386.092	21575
386.173	5547
386.254	3551
386.335	4357
386.416	5513
386.496	17813
386.577	30739
386.658	10650
386.739	5939
386.820	5815
386.901	3896
386.981	4833
387.062	3129
387.143	7239
387.224	29279
387.304	29257
387.385	10112
387.466	4578
387.547	7225
387.627	5003
387.708	12751
387.789	53952
387.869	67087
387.950	18410
388.031	2692
388.111	1011
388.192	8656
388.273	13233
388.353	7328
388.434	5278
388.514	12366
388.595	51031
388.676	65514
388.756	32323
388.837	28190
388.917	18180
388.998	2230
389.078	3017
389.159	2625
389.239	2286
389.320	6012
389.400	3196
389.480	11689
389.561	30934
389.641	17988
389.722	5824
389.802	8048
389.883	14813
389.963	39092
390.043	25868
390.124	7643
390.204	10859
390.284	34701
390.365	23706
390.445	27064
390.525	72330
390.605	62591
390.686	17659
390.766	6183
390.846	4666
390.927	2457
391.007	1929
391.087	3647
391.167	2350
391.247	2675
391.328	6749
391.408	8518
391.488	6438
391.568	1218
391.648	3568
391.728	6732
391.808	6667
391.888	6398
391.969	16688
392.049	28109
392.129	12976
392.209	14365
392.289	36954
392.369	21401
392.449	14708
392.529	9789
392.609	8442
392.689	12476
392.769	35773
392.849	32509
392.929	22742
393.009	49354
393.089	40265
393.169	35186
393.248	122476
393.328	421545
393.408	441163
393.488	112938
393.568	28822
393.648	14590
393.728	8213
393.807	5832
393.887	7095
393.967	5873
394.047	7340
394.127	8797
394.206	18306
394.286	67371
394.366	259160
394.446	276644
394.525	62059
394.605	14401
394.685	11561
394.764	21849
394.844	35501
394.924	26786
395.003	8663
395.083	6096
395.163	5870
395.242	4898
395.322	5274
395.402	2977
395.481	6764
395.561	16128
395.640	42414
395.720	35248
395.799	44663
395.879	38324
395.958	26136
396.038	98305
396.117	341138
396.197	367128
396.276	103753
396.356	30519
396.435	19922
396.515	14590
396.594	17189
396.673	34737
396.753	135531
396.832	386239
396.912	283069
396.991	64977
397.070	16487
397.150	8027
397.229	6927
397.308	8164
397.388	13296
397.467	7000
397.546	3710
397.625	1172
397.705	5295
397.784	4946
397.863	2729
397.942	2080
398.022	3219
398.101	12345
398.180	36785
398.259	19261
398.338	5527
398.417	3267
398.497	2272
398.576	3034
398.655	1031
398.734	2226
398.813	1989
398.892	12542
398.971	41393
399.050	21721
399.129	1582
399.208	1305
399.287	1367
399.366	198
399.445	1442
399.524	1052
399.603	304
399.682	4579
399.761	14394
399.840	44066
399.919	36992
399.998	3952
400.077	527
400.156	-66
400.235	3328
400.313	891
400.392	2773
400.471	15662
400.550	26418
400.629	6625
400.708	2152
400.786	3116
400.865	7635
400.944	8184
401.023	5155
401.102	-194
401.180	1258
401.259	871
401.338	1437
401.416	3153
401.495	2049
401.574	2648
401.652	1540
401.731	2834
401.810	1600
401.888	780
401.967	639
402.046	430
402.124	1650
402.203	3174
402.281	2622
402.360	2218
402.438	9957
402.517	6412
402.596	2007
402.674	1748
402.753	558
402.831	1787
402.910	1635
402.988	8694
403.066	28590
403.145	18587
403.223	9503
403.302	22159
403.380	18228
403.459	15955
403.537	5847
403.615	2062
403.694	-1272
403.772	1698
403.850	399
403.929	741
404.007	887
404.085	3628
404.164	2062
404.242	120
404.320	1684
404.398	4485
404.477	18365
404.555	80656
404.633	73554
404.711	10462
404.789	1920
404.868	700
404.946	-116
405.024	259
405.102	-282
405.180	22
405.258	-1193
405.336	1060
405.415	-46
405.493	3891
405.571	3344
405.649	389
405.727	-826
405.805	2207
405.883	1990
405.961	2739
406.039	2117
406.117	959
406.195	3846
406.273	20656
406.351	69512
406.429	44607
406.507	5511
406.585	908
406.663	1489
406.740	2519
406.818	2665
406.896	452
406.974	1945
407.052	6150
407.130	40829
407.208	58576
407.285	12265
407.363	861
407.441	578
407.519	671
407.596	1666
407.674	7769
407.752	24161
407.830	22407
407.907	7064
407.985	2075
408.063	934
408.141	203
408.218	2682
408.296	2086
408.373	1445
408.451	2136
408.529	1630
408.606	409
408.684	-191
408.762	21
408.839	-622
408.917	-733
408.994	322
409.072	-346
409.149	-321
409.227	1734
409.304	2222
409.382	1807
409.459	971
409.537	3217
409.614	2648
409.692	1774
409.769	1620
409.846	3095
409.924	4976
410.001	1352
410.079	1301
410.156	2028
410.233	1161
410.311	532
410.388	776
410.465	2339
410.543	904
410.620	518
410.697	752
410.775	2100
410.852	-1297
410.929	2878
411.006	2639
411.083	1750
411.161	3354
411.238	4099
411.315	1710
411.392	549
411.469	2202
411.547	1911
411.624	-159
411.701	206
411.778	467
411.855	4134
411.932	1628
412.009	-339
412.086	1297
412.163	1032
412.240	1487
412.317	1810
412.394	1014
412.471	244
412.548	242
412.625	212
412.702	1584
412.779	3901
412.856	1653
412.933	488
413.010	139
413.087	2115
413.164	13430
413.241	21667
413.318	4857
413.395	2844
413.471	3875
413.548	1945
413.625	1015
413.702	416
413.779	996
413.855	-650
413.932	-1051
414.009	-371
414.086	245
414.162	193
414.239	2095
414.316	14854
414.393	34153
414.469	12213
414.546	612
414.623	-48
414.699	409
414.776	230
414.853	-149
414.929	772
415.006	665
415.082	798
415.159	269
415.236	-528
415.312	702
415.389	2761
415.465	4180
415.542	2059
415.618	540
415.695	2633
415.771	1044
415.848	1710
415.924	1547
416.000	799
416.077	891
416.153	-1218
416.230	-1671
416.306	-797
416.383	205
416.459	652
416.535	-796
416.612	-625
416.688	-24
416.764	-57
416.841	-374
416.917	-373
416.993	167
417.069	1372
417.146	1359
417.222	1627
417.298	716
417.374	-139
417.451	1304
417.527	858
417.603	1879
417.679	991
417.755	-106
417.831	-1003
417.908	513
417.984	350
418.060	-340
418.136	3259
418.212	4826
418.288	1452
418.364	15
418.440	365
418.516	3002
418.592	2797
418.668	6099
418.744	9906
418.820	6935
418.896	1480
418.972	-767
419.048	86
419.124	4024
419.200	2292
419.276	811
419.352	-1089
419.428	-417
419.504	-102
419.579	1783
419.655	-66
419.731	902
419.807	6188
419.883	12097
419.959	8734
420.034	1999
420.110	4935
420.186	19261
420.262	16936
420.337	2399
420.413	1160
420.489	581
420.565	797
420.640	486
420.716	451
420.792	-997
420.867	1397
420.943	-196
421.019	2715
421.094	1226
421.170	461
421.245	41
421.321	245
421.397	105
421.472	4917
421.548	12412
421.623	9044
421.699	1970
421.774	2124
421.850	1392
421.925	4083
422.001	3311
422.076	2241
422.152	2680
422.227	5930
422.302	7063
422.378	9232
422.453	18363
422.529	50019
422.604	151090
422.679	249918
422.755	159050
422.830	52207
422.905	19015
422.981	9397
423.056	6301
423.131	4194
423.207	2408
423.282	2913
423.357	6562
423.432	4730
423.508	4163
423.583	10389
423.658	8374
423.733	2423
423.808	2104
423.883	3221
423.959	2477
424.034	1760
424.109	1332
424.184	16
424.259	557
424.334	441
424.409	188
424.484	-3
424.559	1150
424.634	1047
424.709	1339
424.784	2373
424.859	1138
424.934	2322
425.009	14931
425.084	25328
425.159	9069
425.234	239
425.309	-875
425.384	1050
425.459	842
425.534	755
425.609	-179
425.683	-308
425.758	-72
425.833	271
425.908	1342
425.983	8945
426.058	27047
426.132	12126
426.207	1138
426.282	3023
426.357	1341
426.431	281
426.506	374
426.581	783
426.655	633
426.730	140
426.805	-272
426.879	1010
426.954	624
427.029	3947
427.103	26286
427.178	63822
427.253	30492
427.327	2876
427.402	2066
427.476	4732
427.551	1019
427.625	1309
427.700	1253
427.774	-518
427.849	962
427.923	-976
427.998	-170
428.072	335
428.147	4620
428.221	18682
428.296	50213
428.370	29234
428.444	3740
428.519	3569
428.593	7973
428.667	8291
428.742	8495
428.816	10014
428.890	31094
428.965	50418
429.039	16279
429.113	9840
429.188	3634
429.262	919
429.336	3352
429.410	11659
429.485	8244
429.559	7149
429.633	6239
429.707	1647
429.781	6145
429.855	36178
429.930	58399
430.004	32704
430.078	42533
430.152	43830
430.226	70274
430.300	74583
430.374	12409
430.448	4187
430.522	13388
430.596	41115
430.670	30386
430.744	61798
430.818	98445
430.892	22212
430.966	1799
431.040	715
431.114	-1062
431.188	405
431.262	395
431.336	-109
431.410	3815
431.484	11187
431.557	8167
431.631	883
431.705	926
431.779	10055
431.853	43559
431.927	35394
432.000	3938
432.074	1051
432.148	1194
432.222	376
432.295	156
432.369	924
432.443	2667
432.516	25648
432.590	67164
432.664	27738
432.737	2285
432.811	-1074
432.885	-599
432.958	147
433.032	-1065
433.106	-312
433.179	-277
433.253	-462
433.326	-876
433.400	-1032
433.473	-659
433.547	-622
433.620	-648
433.694	1622
433.767	2213
433.841	110
433.914	-568
433.988	-704
434.061	-544
434.134	-1020
434.208	-305
434.281	-547
434.355	-812
434.428	-448
434.501	-1190
434.575	-716
434.648	-406
434.721	-1217
434.795	-563
434.868	-575
434.941	311
435.014	-951
435.088	60
435.161	526
435.234	2555
435.307	3583
435.381	1106
435.454	1274
435.527	1669
435.600	1169
435.673	461
435.746	502
435.819	-302
435.892	-603
435.966	-755
436.039	159
436.112	170
436.185	-260
436.258	-835
436.331	-1489
436.404	-742
436.477	-987
436.550	-1223
436.623	-214
436.696	-324
436.769	35
436.842	351
436.915	501
436.987	1223
437.060	879
437.133	-267
437.206	-1319
437.279	-466
437.352	-569
437.425	-412
437.498	646
437.570	2254
437.643	3153
437.716	84
437.789	-21
437.861	2097
437.934	8127
438.007	4461
438.080	136
438.152	1299
438.225	4248
438.298	36070
438.370	101674
438.443	47394
438.516	9289
438.588	1437
438.661	982
438.734	-587
438.806	522
438.879	1604
438.951	1562
439.024	4286
439.096	1968
439.169	764
439.241	-881
439.314	287
439.386	1221
439.459	2351
439.531	5279
439.604	1793
439.676	165
439.749	-523
439.821	-377
439.893	213
439.966	-7
440.038	723
440.110	1607
440.183	238
440.255	524
440.327	2381
440.400	14937
440.472	62043
440.544	48715
440.617	6479
440.689	3636
440.761	4311
440.833	8037
440.905	5496
440.978	543
441.050	-515
441.122	632
441.194	33
441.266	314
441.338	-815
441.411	2040
441.483	18667
441.555	32906
441.627	8601
441.699	2866
441.771	3106
441.843	493
441.915	-947
441.987	221
442.059	416
442.131	568
442.203	2579
442.275	3169
442.347	3671
442.419	4324
442.491	23163
442.563	62316
442.635	37695
442.706	17068
442.778	15187
442.850	2971
442.922	806
442.994	1933
443.066	3052
443.137	2599
443.209	1476
443.281	3115
443.353	8131
443.425	32640
443.496	114086
443.568	126045
443.640	52680
443.711	10827
443.783	2187
443.855	2301
443.926	1328
443.998	957
444.070	1983
444.141	1917
444.213	3122
444.285	5715
444.356	4240
444.428	3066
444.499	1411
444.571	376
444.642	-332
444.714	1301
444.785	4336
444.857	5079
444.928	10065
445.000	7440
445.071	6898
445.143	9606
445.214	6627
445.285	9833
445.357	27197
445.428	83593
445.500	191676
445.571	141582
445.642	72471
445.714	29069
445.785	21988
445.856	8930
445.928	5210
445.999	5460
446.070	3659
446.141	3058
446.213	4759
446.284	3162
446.355	1939
446.426	1603
446.497	1287
446.569	3102
446.640	6546
446.711	5431
446.782	1658
446.853	2341
446.924	2320
446.995	882
447.066	1056
447.138	2935
447.209	2981
447.280	255
447.351	-31
447.422	107
447.493	1110
447.564	2548
447.635	3304
447.706	2120
447.777	-446
447.847	161
447.918	-122
447.989	1292
448.060	3586
448.131	7455
448.202	8256
448.273	5536
448.344	2581
448.414	1339
448.485	830
448.556	462
448.627	-306
448.698	391
448.768	-326
448.839	581
448.910	2305
448.981	4760
449.051	1544
449.122	437
449.193	-554
449.263	-306
449.334	631
449.405	1637
449.475	5259
449.546	6182
449.616	4720
449.687	4837
449.758	2087
449.828	1376
449.899	551
449.969	423
450.040	19
450.110	573
450.181	1418
450.251	753
450.322	461
450.392	697
450.463	-123
450.533	120
450.604	74
450.674	1006
450.744	843
450.815	150
450.885	537
450.955	503
451.026	826
451.096	319
451.166	1274
451.237	4434
451.307	13524
451.377	8342
451.447	873
451.518	864
451.588	96
451.658	1230
451.728	3010
451.799	12192
451.869	19991
451.939	5575
452.009	1179
452.079	-51
452.149	110
452.219	3447
452.289	15894
452.360	17920
452.430	3044
452.500	1300
452.570	3995
452.640	5384
452.710	11988
452.780	21992
452.850	18028
452.920	15692
452.990	6662
453.060	2368
453.129	3173
453.199	5423
453.269	17079
453.339	50036
453.409	83040
453.479	61637
453.549	99948
453.619	108924
453.688	59256
453.758	9112
453.828	2752
453.898	1424
453.968	1248
454.037	1396
454.087	567
454.107	211
454.168	367
454.177	370
454.247	755
454.249	769
454.316	499
454.330	802
454.386	1744
454.411	3876
454.456	7108
454.492	11464
454.525	15385
454.574	9395
454.595	6835
454.655	1707
454.665	877
454.734	2000
454.736	2142
454.804	5307
454.817	7467
454.873	15255
454.898	18141
454.943	23299
454.979	15886
455.013	9405
455.060	5272
455.082	3566
455.141	3375
455.152	3160
455.221	11229
455.222	11460
455.291	22203
455.303	20408
455.360	13397
455.384	11224
455.430	6964
455.465	7871
455.499	8391
455.546	12917
455.569	14588
455.627	13401
455.638	13382
455.707	3307
455.708	3310
455.777	1663
455.789	1771
455.846	1987
455.869	1755
455.916	1427
455.950	1542
455.985	1602
456.031	1813
456.054	1845
456.112	1632
456.124	1634
456.193	1619
456.193	1597
456.262	1732
456.274	1946
456.332	2661
456.355	3022
456.401	3296
456.436	2786
456.470	2355
456.516	1190
456.540	703
456.597	1505
456.609	1628
456.678	1134
456.678	1121
456.747	417
456.759	617
456.817	1564
456.840	1412
456.886	1177
456.920	1538
456.955	1890
457.001	1418
457.024	1301
457.082	3037
457.093	3341
457.162	5165
457.163	5197
457.232	4827
457.243	4521
457.301	3113
457.324	2570
457.370	2066
457.405	1791
457.439	1561
457.485	2140
457.508	2424
457.566	2839
457.577	2999
457.646	4229
457.647	4263
457.715	7189
457.727	7911
457.784	12051
457.808	14543
457.853	16338
457.889	18839
457.922	19782
457.969	15905
457.991	16600
458.050	19444
458.060	19980
458.129	30008
458.130	30366
458.198	27278
458.211	24649
458.267	17510
458.292	13034
458.336	9425
458.372	9375
458.405	11627
458.453	16180
458.474	19541
458.533	32374
458.543	32802
458.611	45014
458.614	45319
458.680	31702
458.694	25616
458.749	14838
458.775	10953
458.818	6166
458.855	5239
458.887	4508
458.936	3957
458.955	3733
459.016	3594
459.024	3597
459.093	3759
459.097	3769
459.162	3725
459.177	3808
459.230	4640
459.257	5233
459.299	5539
459.338	5350
459.368	5199
459.418	5616
459.437	5463
459.499	4501
459.505	4506
459.574	3929
459.579	3912
459.643	3508
459.659	3491
459.711	3581
459.740	3603
459.780	3680
459.820	4118
459.849	4353
459.900	4424
459.917	4476
459.981	5276
459.986	5271
460.054	4330
460.061	4312
460.123	5425
460.141	5623
460.191	6323
460.222	7194
460.260	7765
460.302	8614
460.328	8381
460.382	6930
460.397	7058
460.462	6719
460.465	6870
460.534	12320
460.543	12993
460.602	27115
460.623	32474
460.671	49718
460.703	65219
460.739	53217
460.783	36086
460.808	32881
460.864	11514
460.876	9530
460.944	5128
460.945	5063
461.013	4722
461.024	4680
461.081	4747
461.104	4806
461.150	4585
461.184	4586
461.218	4765
461.264	4375
461.286	4133
461.345	3842
461.355	3886
461.423	4865
461.425	4864
461.491	5054
461.505	5243
461.559	10419
461.585	12910
461.628	19354
461.665	25793
461.696	25845
461.745	29254
461.764	26730
461.825	12059
461.832	12037
461.901	6460
461.905	6481
461.969	4802
461.985	4557
462.037	5229
462.065	5411
462.105	6350
462.145	7492
462.173	9862
462.225	14199
462.241	15210
462.305	20922
462.310	20342
462.378	11697
462.385	10219
462.446	7364
462.465	6494
462.514	4854
462.545	5053
462.582	5167
462.625	5016
462.650	4927
462.705	4535
462.718	4729
462.785	6195
462.786	6245
462.854	8748
462.865	9207
462.922	9986
462.945	10675
462.990	8868
463.025	6373
463.058	5818
463.104	4849
463.126	4477
463.184	4128
463.194	4250
463.262	5275
463.264	5311
463.330	5295
463.344	5308
463.398	6268
463.424	6536
463.466	6070
463.504	6075
463.533	6383
463.583	6311
463.601	6372
463.663	6752
463.669	7078
463.737	11039
463.743	11412
463.805	16572
463.823	18053
463.873	26639
463.903	32005
463.940	30477
463.982	29953
464.008	24678
464.062	11101
464.076	10720
464.142	6084
464.144	6010
464.211	5674
464.221	5716
464.279	6195
464.301	6424
464.347	6884
464.381	7203
464.414	7877
464.461	8931
464.482	8940
464.540	8975
464.550	8780
464.617	7004
464.620	6926
464.685	9229
464.699	9851
464.753	11135
464.779	11661
464.820	12628
464.859	13703
464.888	13071
464.938	11554
464.956	11568
465.018	11871
465.023	11802
465.091	10623
465.098	10459
465.158	9221
465.177	8929
465.226	9645
465.257	9986
465.293	10757
465.336	11619
465.361	12645
465.416	15050
465.428	15979
465.495	21054
465.496	21150
465.563	31406
465.575	33178
465.631	35571
465.654	36952
465.698	24160
465.734	12449
465.765	11762
465.813	10102
465.833	9685
465.893	9562
465.900	9535
465.968	9400
465.972	9372
466.035	9990
466.052	10116
466.102	10118
466.131	10195
466.170	10280
466.210	10260
466.237	10404
466.290	10668
466.304	10990
466.369	12361
466.372	12395
466.439	12857
466.449	12902
466.506	15464
466.528	16413
466.573	22207
466.607	26520
466.641	36254
466.687	49757
466.708	51586
466.766	56726
466.775	52672
466.842	21549
466.845	20031
466.909	16585
466.925	15837
466.977	15666
467.004	15701
467.044	15606
467.083	15485
467.111	17133
467.163	20172
467.178	20113
467.242	19699
467.245	19664
467.312	18345
467.321	18145
467.379	17272
467.400	16909
467.446	18288
467.480	19235
467.559	15699
467.638	14270
467.717	15086
467.796	17814
467.875	18666
467.955	16705
468.034	27812
468.113	54341
468.192	66401
468.271	17655
468.350	17065
468.429	19168
468.508	18854
468.588	14675
468.667	14785
468.746	15548
468.825	14195
468.904	12510
468.983	16236
469.062	23566
469.141	24199
469.220	11562
469.299	12430
469.378	13927
469.456	15886
469.535	14339
469.614	13909
469.693	15479
469.772	19001
469.851	25547
469.930	15723
470.009	14315
470.088	14501
470.166	19787
470.245	28722
470.324	33344
470.403	20532
470.482	15348
470.560	13763
470.639	14017
470.718	17009
470.797	12345
470.875	15634
470.954	20816
471.033	20619
471.111	10482
471.190	9793
471.269	9337
471.347	10387
471.426	11729
471.505	13469
471.583	13348
471.662	12935
471.740	11640
471.819	11755
471.898	11188
471.976	10754
472.055	11203
472.133	13330
472.212	15884
472.290	16110
472.369	10349
472.447	10270
472.526	9572
472.604	11720
472.683	12217
472.761	12113
472.839	10634
472.918	10844
472.996	11120
473.075	12968
473.153	11816
473.231	10765
473.310	12969
473.388	11049
473.466	11203
473.545	14460
473.623	19119
473.701	16111
473.780	10528
473.858	10167
473.936	12880
474.014	11328
474.093	14007
474.171	19581
474.249	25386
474.327	13352
474.405	9613
474.484	10006
474.562	10492
474.640	10672
474.718	11019
474.796	11677
474.874	10924
474.952	9598
475.030	10393
475.108	11064
475.187	12304
475.265	13362
475.343	18548
475.421	17711
475.499	9884
475.577	10963
475.655	15981
475.733	31549
475.811	49052
475.889	43496
475.966	21984
476.044	10338
476.122	13792
476.200	17101
476.278	11412
476.356	8754
476.434	10593
476.512	13050
476.590	15616
476.667	12590
476.745	8722
476.823	9743
476.901	9256
476.979	9622
477.056	9470
477.134	10616
477.212	10862
477.290	10056
477.367	7782
477.445	8784
477.523	8647
477.601	8834
477.678	8973
477.756	11471
477.834	11900
477.911	8620
477.989	9142
478.066	9365
478.144	10858
478.222	11797
478.299	19370
478.377	13612
478.454	7860
478.532	7394
478.609	8608
478.687	9217
478.764	7809
478.842	9731
478.919	10684
478.997	8219
479.074	8524
479.152	10323
479.229	12493
479.307	7655
479.384	6579
479.461	7479
479.539	7876
479.616	10130
479.694	8167
479.771	9206
479.848	10728
479.926	14330
480.003	13249
480.080	7663
480.157	7577
480.235	6725
480.312	8500
480.389	9742
480.467	15949
480.544	18394
480.621	9191
480.698	9779
480.775	10755
480.853	9406
480.930	7952
481.007	8430
481.084	11094
481.161	12729
481.238	10363
481.315	6810
481.392	7078
481.470	8009
481.547	8704
481.624	7402
481.701	6767
481.778	7596
481.855	10581
481.932	15347
482.009	27207
482.086	14142
482.163	8646
482.240	14095
482.317	23639
482.393	13829
482.470	8331
482.547	7978
482.624	8073
482.701	9346
482.778	7784
482.855	7110
482.932	6729
483.009	7739
483.085	9089
483.162	11905
483.239	10388
483.316	7551
483.393	8862
483.469	8671
483.546	9659
483.623	9921
483.699	7167
483.776	7836
483.853	10685
483.930	18625
484.006	43985
484.083	66100
484.160	34378
484.236	50192
484.313	34758
484.389	27274
484.466	24586
484.543	23626
484.619	25045
484.696	27578
484.772	26445
484.849	26501
484.925	21423
485.002	21607
485.078	23909
485.155	23344
485.231	20840
485.308	19982
485.384	22712
485.461	29014
485.537	45066
485.614	45201
485.690	21111
485.766	20122
485.843	23101
485.919	32890
485.995	30148
486.072	18273
486.148	18034
486.224	18115
486.301	19999
486.377	22761
486.453	22467
486.530	23679
486.606	31341
486.682	32369
486.758	39696
486.835	42678
486.911	37205
486.987	61208
487.063	64272
487.139	75709
487.215	49540
487.292	24774
487.368	22861
487.444	26053
487.520	31444
487.596	32678
487.672	59316
487.748	135611
487.824	162952
487.900	46300
487.976	26104
488.052	25790
488.128	29782
488.204	22265
488.280	21114
488.356	28953
488.432	55771
488.508	68996
488.584	22144
488.660	19181
488.736	18296
488.812	21251
488.888	27698
488.964	41533
489.039	87340
489.115	113528
489.191	50684
489.267	19390
489.343	18565
489.418	15346
489.494	15734
489.570	14029
489.646	16351
489.722	16243
489.797	18042
489.873	30474
489.949	58200
490.024	37006
490.100	15516
490.176	16685
490.251	20557
490.327	25291
490.403	14542
490.478	13934
490.554	12299
490.629	12746
490.705	12589
490.781	15295
490.856	14781
490.932	17479
491.007	16627
491.083	15825
491.158	15312
491.234	24279
491.309	44467
491.385	35912
491.460	14235
491.536	16084
491.611	13589
491.686	17953
491.762	25604
491.837	54894
491.913	84999
491.988	120598
492.063	120609
492.139	29444
492.214	17762
492.289	11591
492.365	11981
492.440	14973
492.515	14187
492.590	13851
492.666	10772
492.741	18231
492.816	23551
492.891	11751
492.967	10766
493.042	9021
493.117	10276
493.192	9890
493.267	13677
493.342	21561
493.418	19460
493.493	9782
493.568	8216
493.643	10263
493.718	15243
493.793	23398
493.868	23990
493.943	14065
494.018	10733
494.093	10288
494.168	10068
494.243	8159
494.318	8487
494.393	8685
494.468	8464
494.543	9660
494.618	11191
494.693	9077
494.768	9125
494.842	10561
494.917	8618
494.992	10326
495.067	8306
495.142	7542
495.217	10869
495.292	9252
495.366	11801
495.441	13861
495.516	19479
495.591	38921
495.665	125699
495.740	237855
495.815	57537
495.890	13323
495.964	10183
496.039	13832
496.114	11567
496.188	13882
496.263	12612
496.338	11192
496.412	13743
496.487	16133
496.561	17341
496.636	16518
496.710	13519
496.785	15019
496.860	16315
496.934	12509
497.009	13711
497.083	14327
497.158	16075
497.232	18581
497.307	21690
497.381	18441
497.455	22672
497.530	27553
497.604	20088
497.679	23486
497.753	37576
497.827	44480
497.902	42368
497.976	58136
498.050	151397
498.125	438762
498.199	302783
498.273	62832
498.348	50690
498.422	40725
498.496	36823
498.570	32377
498.645	23718
498.719	23285
498.793	28552
498.867	42519
498.941	65351
499.016	197545
499.090	406747
499.164	79720
499.238	15695
499.312	15803
499.386	19933
499.460	15637
499.534	14518
499.609	21049
499.683	28747
499.757	31993
499.831	94503
499.905	296140
499.979	178524
500.053	32637
500.127	33369
500.201	23566
500.275	14647
500.349	14739
500.422	17997
500.496	33824
500.570	76498
500.644	175254
500.718	243544
500.792	32436
500.866	14584
500.940	18501
501.013	14197
501.087	17161
501.161	31115
501.235	42059
501.309	105828
501.382	248700
501.456	144800
501.530	44318
501.603	66703
501.677	18491
501.751	10613
501.825	17035
501.898	37890
501.972	91223
502.046	36205
502.119	16838
502.193	48463
502.266	95534
502.340	33842
502.413	48867
502.487	75920
502.561	37944
502.634	12063
502.708	12680
502.781	9932
502.855	8941
502.928	7183
503.002	7966
503.075	6889
503.149	8135
503.222	8155
503.295	9336
503.369	12487
503.442	23331
503.516	84775
503.589	168569
503.662	81400
503.736	34541
503.809	81802
503.882	57366
503.956	97180
504.029	72405
504.102	76258
504.175	79175
504.249	23438
504.322	15505
504.395	11904
504.468	9577
504.542	7897
504.615	6329
504.688	6398
504.761	5561
504.834	10929
504.907	14684
504.980	20342
505.053	8997
505.127	12909
505.200	15109
505.273	13025
505.346	7007
505.419	5893
505.492	6483
505.565	4379
505.638	5116
505.711	5140
505.784	5220
505.857	4543
505.930	7616
506.003	4583
506.076	8142
506.149	9598
506.221	10314
506.294	14829
506.367	44717
506.440	123190
506.513	40037
506.586	11997
506.659	6015
506.731	6959
506.804	10350
506.877	13982
506.950	7221
507.022	6558
507.095	8761
507.168	10754
507.241	6978
507.313	5657
507.386	8016
507.459	11221
507.531	6215
507.604	5211
507.677	5140
507.749	4254
507.822	11054
507.894	20615
507.967	20394
508.040	10806
508.112	10147
508.185	9700
508.257	9030
508.330	13992
508.402	8174
508.475	8631
508.547	9795
508.620	10230
508.692	14668
508.765	7587
508.837	5897
508.909	6818
508.982	7853
509.054	9337
509.127	6619
509.199	6681
509.271	6478
509.344	5711
509.416	6428
509.488	6469
509.560	7295
509.633	9158
509.705	9009
509.777	9566
509.849	13119
509.922	7143
509.994	5943
510.066	8379
510.138	8912
510.210	20308
510.283	14682
510.355	12702
510.427	10612
510.499	9530
510.571	8567
510.643	10066
510.715	18720
510.787	11416
510.859	10824
510.931	13242
511.003	17158
511.076	12917
511.148	8145
511.219	9682
511.291	17207
511.363	15605
511.435	7658
511.507	7978
511.579	9112
511.651	8224
511.723	7766
511.795	6863
511.867	8524
511.939	12570
512.010	24345
512.082	14726
512.154	8352
512.226	9878
512.298	17697
512.369	20691
512.441	16909
512.513	16210
512.585	11087
512.656	12983
512.728	12700
512.800	10014
512.871	10185
512.943	11026
513.015	8039
513.086	10633
513.158	11456
513.230	11814
513.301	18989
513.373	19853
513.444	10221
513.516	9268
513.588	9763
513.659	12026
513.731	14113
513.802	12305
513.874	32372
513.945	42699
514.016	11754
514.088	9987
514.159	12127
514.231	16438
514.302	19133
514.374	13379
514.445	14211
514.516	28810
514.588	15880
514.659	14926
514.730	24031
514.802	17369
514.873	15165
514.944	16309
515.016	14152
515.087	14843
515.158	20567
515.229	23725
515.301	17608
515.372	21706
515.443	12663
515.514	10834
515.585	9102
515.656	10187
515.728	9909
515.799	9486
515.870	10567
515.941	11012
516.012	11864
516.083	16491
516.154	16464
516.225	22779
516.296	19796
516.367	17377
516.438	21748
516.509	31914
516.580	61908
516.651	207492
516.722	527865
516.793	130855
516.864	32392
516.935	32731
517.006	44603
517.077	78310
517.148	217569
517.219	747454
517.289	749936
517.360	157718
517.431	37893
517.502	18293
517.573	18579
517.643	16738
517.714	19465
517.785	20397
517.856	20316
517.926	25787
517.997	30396
518.068	43100
518.138	68214
518.209	149842
518.280	566980
518.350	1394657
518.421	316513
518.492	40864
518.562	26725
518.633	26598
518.703	28053
518.774	55123
518.845	114993
518.915	80583
518.986	28834
519.056	27059
519.127	48952
519.197	73755
519.268	136559
519.338	55244
519.408	21073
519.479	26994
519.549	16538
519.620	12606
519.690	10088
519.760	9874
519.831	10683
519.901	9831
519.971	9672
520.042	9240
520.112	10871
520.182	14867
520.253	14476
520.323	8748
520.393	9946
520.463	13758
520.534	9738
520.604	18114
520.674	11716
520.744	13223
520.814	22323
520.885	25234
520.955	55853
521.025	145763
521.095	32139
521.165	10123
521.235	9551
521.305	7288
521.375	8496
521.445	11355
521.515	13227
521.585	16569
521.655	12653
521.725	13019
521.795	9921
521.865	6445
521.935	14662
522.005	10172
522.075	6747
522.145	9610
522.215	9977
522.285	14791
522.355	22892
522.424	40546
522.494	27333
522.564	18886
522.634	48292
522.704	100822
522.774	22239
522.843	9481
522.913	10656
522.983	12786
523.053	8342
523.122	11623
523.192	20531
523.262	66006
523.331	40043
523.401	8268
523.471	6438
523.540	7679
523.610	5087
523.680	6622
523.749	6144
523.819	9246
523.888	7223
523.958	6085
524.027	7427
524.097	6986
524.166	7451
524.236	6717
524.305	8232
524.375	6027
524.444	5431
524.514	8295
524.583	7290
524.653	10177
524.722	10202
524.791	6174
524.861	7357
524.930	4941
524.999	7743
525.069	10830
525.138	8390
525.207	9408
525.277	7122
525.346	6849
525.415	6918
525.484	8405
525.554	8980
525.623	9573
525.692	9179
525.761	9260
525.830	10195
525.900	13690
525.969	23289
526.038	39965
526.107	93526
526.176	212348
526.245	126192
526.314	55516
526.383	126789
526.452	137881
526.522	277250
526.591	179937
526.660	54870
526.729	29773
526.797	46021
526.867	120129
526.935	396201
527.004	575015
527.073	188506
527.142	17047
527.211	10171
527.280	13538
527.349	10903
527.418	5491
527.487	6868
527.555	5756
527.624	4941
527.693	4415
527.762	6146
527.831	4022
527.899	5938
527.968	5821
528.037	4217
528.106	9638
528.174	16644
528.243	12513
528.312	22443
528.380	21727
528.449	5877
528.518	6334
528.586	2556
528.655	4880
528.723	3851
528.792	4598
528.861	3527
528.929	3296
528.998	5107
529.066	3841
529.135	3743
529.203	3101
529.272	2977
529.340	4331
529.409	5440
529.477	3507
529.545	6338
529.614	8222
529.682	7724
529.751	8672
529.819	9894
529.887	6125
529.956	3479
530.024	5637
530.092	3796
530.161	8025
530.229	10600
530.297	4540
530.365	4606
530.434	3891
530.502	2960
530.570	4234
530.638	2674
530.707	4786
530.775	6347
530.843	3666
530.911	3788
530.979	3758
531.047	3606
531.115	5082
531.183	4134
531.252	4744
531.320	3459
531.388	2541
531.456	3610
531.524	2377
531.592	4404
531.660	5754
531.728	3950
531.796	3250
531.864	3954
531.932	4199
532.000	3455
532.067	4572
532.135	5346
532.203	7420
532.271	8000
532.339	19258
532.407	43833
532.475	15873
532.542	9563
532.610	12830
532.678	25217
532.746	106084
532.814	164836
532.881	26243
532.949	6021
533.017	5614
533.084	4966
533.152	3876
533.220	5278
533.287	5162
533.355	3857
533.423	5509
533.490	3166
533.558	4752
533.625	5366
533.693	5655
533.761	4907
533.828	6158
533.896	5230
533.963	15403
534.031	16712
534.098	22673
534.166	7877
534.233	5091
534.300	6361
534.368	6038
534.435	4652
534.503	5588
534.570	5328
534.637	6197
534.705	7925
534.772	12162
534.840	28862
534.907	111183
534.974	83101
535.041	10435
535.109	8070
535.176	4841
535.243	6100
535.310	5404
535.378	4124
535.445	4664
535.512	5247
535.579	5987
535.646	4725
535.714	5731
535.781	7313
535.848	6091
535.915	6048
535.982	5277
536.049	5783
536.116	6749
536.183	6232
536.250	6118
536.317	7128
536.384	8218
536.451	14216
536.518	13789
536.585	8136
536.652	13078
536.719	19166
536.786	10992
536.853	10474
536.920	17900
536.987	28030
537.053	31683
537.120	106926
537.187	53958
537.254	6699
537.321	5800
537.388	7412
537.454	4090
537.521	5161
537.588	5525
537.654	7466
537.721	8139
537.788	7906
537.855	6030
537.921	7027
537.988	5901
538.055	6401
538.121	6232
538.188	8664
538.254	16268
538.321	28537
538.388	12608
538.454	6749
538.521	7057
538.587	5393
538.654	6354
538.720	6089
538.787	6484
538.853	7363
538.920	9689
538.986	9772
539.053	6279
539.119	7231
539.185	7720
539.252	11708
539.318	14576
539.385	10583
539.451	8493
539.517	10422
539.583	14569
539.650	36302
539.716	62321
539.782	11986
539.849	7340
539.915	7722
539.981	7428
540.047	9508
540.114	8297
540.180	9069
540.246	8725
540.312	14776
540.378	30166
540.444	26855
540.510	38138
540.576	71319
540.643	14816
540.709	5910
540.775	7423
540.841	6754
540.907	12055
540.973	15039
541.039	15056
541.105	14658
541.171	7401
541.237	7516
541.303	8632
541.369	11814
541.435	15600
541.500	24669
541.566	11099
541.632	7736
541.698	6135
541.764	6582
541.830	5437
541.896	6367
541.961	6940
542.027	6982
542.093	7489
542.159	7621
542.224	10022
542.290	15929
542.356	26065
542.421	23179
542.487	10226
542.553	8110
542.618	8812
542.684	7945
542.750	7958
542.815	12218
542.881	25502
542.947	74242
543.012	31535
543.078	6245
543.143	6810
543.209	8880
543.274	8209
543.340	12155
543.405	30496
543.471	31694
543.536	8316
543.602	6762
543.667	4830
543.732	7041
543.798	5594
543.863	6786
543.928	5733
543.994	5628
544.059	6765
544.124	7114
544.190	6188
544.255	7253
544.320	6689
544.386	7707
544.451	13409
544.516	14914
544.581	16694
544.646	51772
544.712	51608
544.777	10562
544.842	9186
544.907	9334
544.972	7871
545.037	8019
545.102	8858
545.168	8658
545.233	10342
545.298	11727
545.363	11958
545.428	15653
545.493	32713
545.558	51322
545.623	15384
545.688	9057
545.753	7997
545.818	8072
545.883	9534
545.947	8964
546.012	10499
546.077	9904
546.142	10444
546.207	10857
546.272	15488
546.337	13505
546.401	12209
546.466	11320
546.531	9596
546.596	12640
546.661	11695
546.725	11512
546.790	11302
546.855	11730
546.919	10940
546.984	13787
547.049	15337
547.113	17957
547.178	16505
547.243	19181
547.307	21739
547.372	25068
547.436	24653
547.501	21813
547.565	24316
547.630	25803
547.695	24730
547.759	24866
547.823	22638
547.888	21609
547.952	22395
548.017	23798
548.081	26901
548.146	29523
548.210	26672
548.274	23904
548.339	23386
548.403	22144
548.468	20187
548.532	20568
548.596	21928
548.660	21709
548.725	25900
548.789	28110
548.853	26816
548.917	24383
548.982	27578
549.046	23875
549.110	18367
549.174	18917
549.238	22007
549.303	23258
549.367	24509
549.431	22097
549.495	21516
549.559	22085
549.623	26418
549.687	29106
549.751	34223
549.815	31541
549.879	31235
549.943	28771
550.007	32858
550.071	31399
550.135	32358
550.199	27239
550.263	26921
550.327	28472
550.391	30598
550.455	28848
550.519	31542
550.582	33848
550.646	42300
550.710	39486
550.774	35102
550.838	35223
550.901	37324
550.965	39949
551.029	41915
551.093	48431
551.156	57756
551.220	85470
551.284	83115
551.347	55623
551.411	71959
551.475	61255
551.538	38203
551.602	34402
551.666	32916
551.729	29839
551.793	31081
551.856	29470
551.920	29648
551.983	28809
552.047	28572
552.110	29303
552.174	30202
552.237	29474
552.301	27768
552.364	27068
552.428	26900
552.491	27868
552.554	28565
552.618	28706
552.681	32452
552.745	34820
552.808	52417
552.871	59617
552.934	35670
552.998	29116
553.061	27865
553.124	26639
553.187	26329
553.251	27157
553.314	27741
553.377	27575
553.440	29898
553.503	34752
553.567	33829
553.630	28173
553.693	27759
553.756	28301
553.819	27040
553.882	26173
553.945	27801
554.008	25925
554.071	26758
554.134	25670
554.197	24531
554.260	25644
554.323	26524
554.386	26710
554.449	26802
554.512	26018
554.575	25863
554.638	25703
554.701	24614
554.764	24065
554.827	24665
554.889	22676
554.952	21588
555.015	21096
555.078	21849
555.141	22821
555.203	21291
555.266	22507
555.329	22912
555.391	20054
555.454	21007
555.517	20484
555.580	20078
555.642	18935
555.705	18192
555.768	18942
555.830	19100
555.893	16775
555.955	16723
556.018	17486
556.080	17868
556.143	17947
556.206	16888
556.268	18263
556.330	19385
556.393	18300
556.455	17771
556.518	23084
556.580	19827
556.643	15933
556.705	15945
556.767	15312
556.830	17112
556.892	18573
556.955	23954
557.017	16897
557.079	15834
557.142	16373
557.204	18793
557.266	32674
557.328	21303
557.391	13125
557.453	13255
557.515	15205
557.577	17244
557.639	15438
557.701	14558
557.764	12813
557.826	14392
557.888	16568
557.950	16669
558.012	20961
558.074	31957
558.136	74578
558.198	125997
558.260	31967
558.322	16934
558.384	19054
558.446	21845
558.508	27924
558.570	37418
558.632	62559
558.694	90052
558.756	132081
558.818	381385
558.880	620901
558.942	139649
559.003	138316
559.065	45865
559.127	25692
559.189	29846
559.251	42003
559.312	71790
559.374	179260
559.436	434883
559.498	122396
559.559	26838
559.621	29181
559.683	43642
559.744	79346
559.806	242446
559.868	230485
559.929	37172
559.991	34603
560.052	61702
560.114	143258
560.176	68850
560.237	93474
560.299	104578
560.360	18450
560.422	11506
560.483	11962
560.545	10674
560.606	11147
560.667	9734
560.729	8835
560.790	9422
560.852	9103
560.913	9870
560.974	8835
561.036	9192
561.097	9603
561.158	9645
561.220	10532
561.281	9486
561.342	10762
561.403	14217
561.465	19627
561.526	44437
561.587	42465
561.648	10852
561.709	8961
561.771	9302
561.832	9419
561.893	8962
561.954	9018
562.015	9576
562.076	9292
562.137	8255
562.198	8668
562.259	9713
562.320	10374
562.381	11881
562.442	15840
562.503	11686
562.564	9311
562.625	8187
562.686	8670
562.747	10987
562.808	8866
562.869	9103
562.930	11399
562.991	9613
563.051	10095
563.112	9531
563.173	8676
563.234	8399
563.294	8799
563.355	8861
563.416	9761
563.477	9201
563.537	8989
563.598	10511
563.659	9094
563.720	9607
563.780	11050
563.841	10284
563.901	9095
563.962	9423
564.023	9645
564.083	9244
564.144	9548
564.204	10273
564.265	10687
564.325	12721
564.386	24355
564.446	16322
564.507	9186
564.567	8482
564.628	8947
564.688	9665
564.749	8807
564.809	12028
564.869	12425
564.930	8800
564.990	9378
565.050	8818
565.111	9146
565.171	9064
565.231	8635
565.292	9357
565.352	8610
565.412	10075
565.472	9870
565.532	10550
565.593	9882
565.653	9595
565.713	10537
565.773	11939
565.833	13734
565.893	15227
565.953	10330
566.013	10573
566.074	11970
566.134	15743
566.194	23309
566.254	21715
566.314	14411
566.374	10825
566.434	11485
566.494	12166
566.554	11620
566.614	12355
566.673	12205
566.733	13828
566.793	13992
566.853	13742
566.913	14900
566.973	15645
567.033	16066
567.092	16083
567.152	14986
567.212	15440
567.272	16454
567.331	17757
567.391	17634
567.451	20339
567.511	23379
567.570	21005
567.630	15607
567.690	16160
567.749	16591
567.809	17771
567.868	20842
567.928	22376
567.988	29336
568.047	33478
568.107	43962
568.166	60085
568.226	95027
568.285	119101
568.345	91747
568.404	70871
568.464	61092
568.523	58284
568.582	61614
568.642	74153
568.701	97231
568.761	146395
568.820	212165
568.879	183465
568.939	128143
568.998	90899
569.057	68305
569.116	54444
569.176	42573
569.235	36001
569.294	30950
569.353	26958
569.413	24725
569.472	21641
569.531	20970
569.590	19331
569.649	17357
569.708	15750
569.767	16588
569.827	19541
569.886	15564
569.945	13679
570.004	14290
570.063	13595
570.122	14047
570.181	14394
570.240	15441
570.299	15148
570.358	14793
570.417	12015
570.475	11693
570.534	12594
570.593	13019
570.652	13359
570.711	12679
570.770	12629
570.829	13493
570.887	13708
570.946	13887
571.005	9754
571.064	11298
571.122	13492
571.181	13051
571.240	11097
571.299	9970
571.357	11485
571.416	11775
571.475	13710
571.533	13343
571.592	10683
571.650	12760
571.709	10390
571.768	10688
571.826	10681
571.885	10507
571.943	10024
572.002	10108
572.060	9344
572.119	8757
572.177	9171
572.236	9247
572.294	8337
572.352	9607
572.411	9545
572.469	8630
572.528	9729
572.586	10461
572.644	11694
572.703	14109
572.761	9844
572.819	8879
572.877	8974
572.936	7885
572.994	8771
573.052	9380
573.110	9185
573.169	8980
573.227	8404
573.285	8246
573.343	9117
573.401	8744
573.459	8929
573.517	8852
573.576	8846
573.634	9215
573.692	9610
573.750	9104
573.808	8816
573.866	10061
573.924	12100
573.982	11723
574.040	9519
574.098	9438
574.155	8231
574.213	8058
574.271	8524
574.329	8705
574.387	8010
574.445	7550
574.503	8226
574.560	7410
574.618	7943
574.676	8179
574.734	8131
574.792	8942
574.849	7046
574.907	7231
574.965	7096
575.022	7161
575.080	7515
575.138	8504
575.195	7712
575.253	8432
575.311	10104
575.368	8707
575.426	7562
575.483	7276
575.541	7922
575.598	8241
575.656	9118
575.713	8047
575.771	7881
575.828	8771
575.886	8367
575.943	8340
576.001	8619
576.058	9100
576.115	9331
576.173	12125
576.230	12412
576.287	14092
576.345	10850
576.402	9945
576.459	9417
576.517	8936
576.574	10730
576.631	10812
576.688	9170
576.746	8573
576.803	9381
576.860	7612
576.917	9016
576.974	8408
577.031	9138
577.089	8838
577.146	9750
577.203	8814
577.260	10062
577.317	9730
577.374	10817
577.431	9739
577.488	8870
577.545	8076
577.602	9025
577.659	7994
577.716	8031
577.773	7137
577.830	8079
577.886	8566
577.943	8286
578.000	8506
578.057	8775
578.114	8819
578.171	7985
578.227	8646
578.284	8048
578.341	9051
578.398	9836
578.454	9907
578.511	11700
578.568	11679
578.625	9561
578.681	9122
578.738	8746
578.794	8612
578.851	9434
578.908	8955
578.964	9473
579.021	9715
579.077	9643
579.134	8676
579.190	8483
579.247	9028
579.303	9241
579.360	7934
579.416	8075
579.473	7686
579.529	7771
579.586	9333
579.642	9162
579.698	9544
579.755	10013
579.811	8824
579.867	9590
579.924	8397
579.980	8577
580.036	9328
580.093	9534
580.149	10132
580.205	10741
580.261	9670
580.317	10870
580.374	10718
580.430	12276
580.486	11586
580.542	9671
580.598	10350
580.619	10384
580.654	10454
580.692	10133
580.710	9984
580.765	10217
580.767	10236
580.823	10441
580.838	10387
580.879	10278
580.911	10108
580.935	10000
580.984	9308
580.991	9224
581.047	9630
581.057	9602
581.103	9499
581.130	9662
581.159	9836
581.203	10613
581.215	10832
581.270	9748
581.276	9809
581.326	10508
581.349	10332
581.382	10045
581.422	10220
581.438	10317
581.494	10165
581.494	10159
581.550	10111
581.567	10551
581.606	11536
581.640	11140
581.661	10890
581.713	10804
581.717	10803
581.773	10829
581.786	10583
581.829	9837
581.859	10125
581.885	10351
581.932	10465
581.940	10488
581.996	10856
582.004	10918
582.052	11294
582.077	10850
582.107	10427
582.150	10863
582.163	10974
582.219	10802
582.223	10782
582.274	10612
582.296	10792
582.330	11084
582.368	11677
582.386	11944
582.441	10922
582.441	10922
582.497	10770
582.514	10648
582.552	10557
582.587	10354
582.608	10237
582.659	11033
582.663	11075
582.719	10791
582.732	10901
582.774	11495
582.805	11699
582.830	11797
582.877	11378
582.885	11325
582.941	11099
582.950	11225
582.996	11762
583.023	11944
583.052	12277
583.095	11673
583.107	11445
583.162	12877
583.168	12802
583.218	12209
583.240	12283
583.273	12322
583.313	11980
583.328	11923
583.384	11804
583.385	11826
583.439	12151
583.458	11643
583.494	10982
583.531	11268
583.549	11276
583.603	12175
583.605	12208
583.660	12154
583.676	12138
583.715	11971
583.748	12556
583.770	13094
583.820	12671
583.825	12606
583.881	12891
583.893	12848
583.936	12908
583.965	12525
583.991	12021
584.038	12519
584.046	12650
584.101	12882
584.110	12900
584.156	12791
584.183	12897
584.211	13028
584.255	12978
584.266	12981
584.321	12587
584.328	12681
584.376	13431
584.400	13843
584.431	14403
584.472	13113
584.486	12652
584.541	13705
584.545	13709
584.596	13687
584.617	14051
584.651	15000
584.689	15680
584.706	15770
584.761	14988
584.762	14990
584.816	15274
584.834	15688
584.871	16674
584.906	16517
584.926	16297
584.978	15826
584.980	15820
585.035	17014
585.051	17286
585.090	18058
585.123	18459
585.145	18566
585.195	18899
585.200	18969
585.254	20147
585.267	20488
585.309	21626
585.340	23428
585.364	24758
585.412	28408
585.419	29035
585.473	34336
585.484	35915
585.528	43019
585.556	50494
585.583	62231
585.628	88097
585.637	96676
585.692	189229
585.700	201415
585.747	247444
585.772	200986
585.801	116713
585.845	48200
585.856	40036
585.910	27782
585.917	26763
585.965	24949
585.989	24385
586.019	24277
586.061	23741
586.074	23521
586.128	23731
586.133	23749
586.183	24540
586.205	24667
586.237	24633
586.277	24803
586.292	24889
586.346	25758
586.349	25817
586.401	26567
586.421	26530
586.455	26889
586.493	28584
586.509	30128
586.564	35608
586.565	35890
586.618	50897
586.637	50796
586.672	42134
586.709	34416
586.727	32347
586.781	31192
586.781	31189
586.835	30297
586.853	30225
586.889	29855
586.925	29374
586.944	29537
586.996	30936
586.998	30961
587.052	31755
587.068	32053
587.106	33468
587.140	34602
587.161	34775
587.212	35743
587.215	35802
587.269	36291
587.284	36618
587.323	37925
587.356	39322
587.377	40045
587.427	41264
587.431	41355
587.485	43276
587.499	43865
587.539	45850
587.571	47302
587.593	48417
587.643	51143
587.648	51410
587.702	54860
587.715	55770
587.755	58576
587.786	61116
587.810	62970
587.858	66623
587.864	67099
587.917	72329
587.930	73734
587.971	79239
588.001	83705
588.025	87000
588.073	93612
588.079	94859
588.133	108502
588.145	111636
588.187	121544
588.217	129040
588.241	136539
588.288	153721
588.295	156326
588.348	180271
588.360	186246
588.402	210618
588.431	229384
588.456	247195
588.503	286937
588.510	293429
588.564	355271
588.575	370132
588.617	441569
588.646	498414
588.671	564266
588.718	703886
588.725	735917
588.778	1010234
588.789	1070976
588.832	1399719
588.861	1619635
588.886	1741664
588.932	1838942
588.939	1814798
588.993	1601512
589.004	1594540
589.047	1736756
589.075	1727892
589.100	1518228
589.147	1092531
589.154	1052931
589.207	792874
589.218	746374
589.261	681570
589.290	653020
589.314	672865
589.361	731069
589.368	756500
589.421	997654
589.433	1055063
589.475	1378492
589.504	1582399
589.528	1634686
589.576	1637410
589.582	1619934
589.635	1543266
589.647	1498060
589.689	1110375
589.718	835322
589.742	694454
589.790	447962
589.795	434020
589.849	324443
589.861	301168
589.902	257489
589.932	226334
589.955	206811
590.004	169497
590.009	166955
590.062	143019
590.075	137488
590.115	125674
590.146	116917
590.168	111740
590.218	100897
590.222	100212
590.275	92655
590.289	90678
590.328	85845
590.360	82152
590.381	80097
590.431	75459
590.435	75083
590.488	68988
590.503	67362
590.541	65339
590.574	63745
590.594	62434
590.645	58916
590.647	58784
590.700	55487
590.716	54565
590.753	53920
590.787	53153
590.806	52109
590.859	49514
590.859	49494
590.912	47856
590.930	47414
590.965	46987
591.001	46395
591.018	45937
591.071	44663
591.072	44638
591.124	43611
591.143	43309
591.177	42756
591.214	42036
591.230	42075
591.283	42364
591.285	42356
591.336	42248
591.356	42214
591.389	41384
591.427	40180
591.442	39543
591.495	37123
591.498	36946
591.547	36746
591.569	36595
591.600	36615
591.640	36629
591.653	36416
591.706	35494
591.711	35376
591.759	36234
591.782	36688
591.811	37736
591.853	39161
591.864	38653
591.917	35765
591.924	35342
591.969	34471
591.995	33918
592.022	33955
592.066	34025
592.075	34395
592.127	36547
592.137	36944
592.180	39332
592.208	40683
592.233	38281
592.279	33685
592.285	33593
592.338	32650
592.350	32425
592.390	31801
592.421	31289
592.443	31278
592.491	31186
592.495	31278
592.548	32258
592.562	32512
592.600	31748
592.633	31038
592.653	30991
592.704	30666
592.705	30844
592.775	30975
592.846	32773
592.916	31925
592.987	33953
593.058	33005
593.128	29478
593.199	30116
593.270	29115
593.341	28957
593.411	30313
593.482	30406
593.553	30482
593.623	29873
593.694	29599
593.764	31141
593.835	30718
593.906	29803
593.976	29543
594.047	31803
594.117	34219
594.188	34095
594.258	30688
594.329	30100
594.399	31313
594.470	30094
594.540	31132
594.611	31510
594.681	30551
594.751	31197
594.822	33026
594.892	33045
594.963	33853
595.033	33571
595.103	34063
595.174	35688
595.244	43963
595.314	49981
595.384	36177
595.455	33938
595.525	36314
595.595	35345
595.665	36666
595.736	35660
595.806	35365
595.876	35281
595.946	35158
596.016	36294
596.087	36792
596.157	37041
596.227	36741
596.297	38077
596.367	41678
596.437	43570
596.507	48596
596.577	55723
596.647	43786
596.717	43005
596.787	43450
596.857	42714
596.927	44175
596.997	42823
597.067	43209
597.137	44448
597.207	44816
597.277	44406
597.347	44494
597.417	42169
597.487	43512
597.557	45131
597.626	45301
597.696	47155
597.766	50817
597.836	54601
597.906	43423
597.975	40627
598.045	40521
598.115	41825
598.185	43290
598.254	48317
598.324	52135
598.394	51446
598.464	52248
598.533	48997
598.603	46487
598.672	46273
598.742	47297
598.812	45893
598.881	46470
598.951	46833
599.020	45956
599.090	48419
599.159	49248
599.229	46699
599.299	45586
599.368	46602
599.437	46440
599.507	43860
599.576	42884
599.646	42154
599.715	41729
599.785	42108
599.854	42764
599.924	42588
599.993	41877
600.062	41042
600.132	42071
600.201	43739
600.270	51410
600.340	51798
600.409	49821
600.478	49566
600.547	49677
600.617	47009
600.686	39997
600.755	37629
600.824	37667
600.894	35504
600.963	34487
601.032	34284
601.101	33592
601.170	32120
601.239	31725
601.308	33306
601.378	32680
601.447	31253
601.516	31821
601.585	32994
601.654	33875
601.723	34200
601.792	33248
601.861	34453
601.930	37530
601.999	38726
602.068	35979
602.137	37646
602.206	36605
602.275	36646
602.343	41450
602.412	41151
602.481	36322
602.550	35859
602.619	37064
602.688	37959
602.756	35939
602.825	37624
602.894	38342
602.963	38022
603.032	39329
603.100	38540
603.169	38094
603.238	39565
603.307	39046
603.375	39230
603.444	40678
603.513	39922
603.581	40592
603.650	40336
603.719	40283
603.787	41973
603.856	42866
603.924	43668
603.993	45592
604.061	45705
604.130	47257
604.198	48345
604.267	49418
604.335	49146
604.404	49643
604.472	50515
604.541	50381
604.609	50820
604.678	51678
604.746	51572
604.815	52552
604.883	52970
604.951	53237
605.020	53764
605.088	55562
605.156	55358
605.225	57347
605.293	56501
605.361	57332
605.429	57997
605.498	60041
605.566	61971
605.634	61813
605.702	64223
605.771	67043
605.839	66295
605.907	65594
605.975	62593
606.043	61727
606.111	61735
606.180	61523
606.248	60983
606.316	61840
606.384	61250
606.452	66803
606.520	70288
606.588	66802
606.656	63335
606.724	64009
606.792	58907
606.860	53646
606.928	47996
606.996	47046
607.064	45255
607.132	47688
607.200	49620
607.267	51650
607.335	52800
607.403	54917
607.471	52096
607.539	51246
607.607	51739
607.674	45924
607.742	46966
607.810	47173
607.878	46723
607.946	47652
608.013	48708
608.081	49840
608.149	49976
608.216	51365
608.284	53259
608.352	52801
608.419	53719
608.487	57539
608.555	52419
608.622	50962
608.690	54520
608.757	59411
608.825	61278
608.893	61093
608.960	60304
609.028	59934
609.095	61706
609.163	55000
609.230	49746
609.298	47066
609.365	46757
609.432	51384
609.500	54199
609.567	63497
609.635	72114
609.702	74813
609.769	73397
609.837	60897
609.904	51936
609.971	53278
610.039	62156
610.106	84695
610.173	163971
610.241	396162
610.308	331190
610.375	175279
610.442	70539
610.509	55928
610.577	53235
610.644	53036
610.711	53624
610.778	56016
610.845	57131
610.912	60514
610.980	62147
611.047	62006
611.114	62440
611.181	58178
611.248	57058
611.315	61799
611.382	62331
611.449	63777
611.516	65641
611.583	66285
611.650	65115
611.717	66762
611.784	67237
611.851	71778
611.918	78415
611.984	92226
612.051	139042
612.118	292319
612.185	745042
612.252	467701
612.319	111293
612.386	86200
612.452	80775
612.519	76577
612.586	80314
612.653	76519
612.719	75906
612.786	73943
612.853	67959
612.919	64837
612.986	67986
613.053	63264
613.120	59182
613.186	57583
613.253	58070
613.319	59113
613.386	59399
613.453	61067
613.519	62988
613.586	67364
613.652	79308
613.719	70251
613.785	66998
613.852	61164
613.918	58580
613.985	61156
614.051	62420
614.118	65282
614.184	62023
614.250	58927
614.317	61732
614.383	59705
614.449	60463
614.516	61201
614.582	62221
614.648	60503
614.715	58324
614.781	59027
614.847	58788
614.914	58247
614.980	57019
615.046	58209
615.112	59575
615.179	58889
615.245	62634
615.311	66260
615.377	85581
615.443	88316
615.509	68670
615.575	66412
615.642	65419
615.708	67551
615.774	71878
615.840	78122
615.906	90844
615.972	123279
616.038	217824
616.104	413548
616.170	928983
616.236	788652
616.302	166725
616.368	115083
616.434	84238
616.500	78457
616.565	83770
616.631	103008
616.697	84373
616.763	87013
616.829	127498
616.895	228630
616.961	214456
617.026	94065
617.092	67207
617.158	63789
617.224	61560
617.289	59439
617.355	56337
617.421	55201
617.487	55904
617.552	51940
617.618	51244
617.684	51306
617.749	54691
617.815	50052
617.880	49156
617.946	49266
618.012	50283
618.077	50592
618.143	48798
618.208	50623
618.274	52958
618.339	54393
618.405	44885
618.470	46015
618.536	45969
618.601	47297
618.667	44355
618.732	41644
618.798	41574
618.863	40893
618.928	39803
618.994	42605
619.059	44085
619.124	53902
619.190	44763
619.255	40300
619.320	39810
619.386	40113
619.451	39817
619.516	37906
619.581	39820
619.647	40880
619.712	39630
619.777	38051
619.842	38882
619.907	39899
619.972	40170
620.038	40468
620.103	38220
620.168	37645
620.233	39725
620.298	39014
620.363	39181
620.428	39303
620.493	39584
620.558	41779
620.623	41002
620.688	40989
620.753	40544
620.818	41980
620.883	41161
620.948	42458
621.013	41037
621.078	40643
621.143	40558
621.207	44901
621.272	43360
621.337	43313
621.402	43605
621.467	48010
621.532	48395
621.596	45349
621.661	41477
621.726	41172
621.791	40686
621.855	43414
621.920	43314
621.985	44076
622.049	46159
622.114	45095
622.179	44095
622.243	45936
622.308	45884
622.373	48092
622.437	46165
622.502	44436
622.566	43136
622.631	42348
622.695	44591
622.760	44099
622.824	44372
622.889	44864
622.953	47046
623.018	60278
623.082	57803
623.147	47283
623.211	44273
623.276	46129
623.340	43174
623.404	41636
623.469	41397
623.533	42145
623.597	41179
623.662	42203
623.726	38133
623.790	36741
623.854	36809
623.919	36374
623.983	36530
624.047	37953
624.111	36887
624.176	38237
624.240	39172
624.304	42837
624.368	38301
624.432	40012
624.496	39609
624.560	43649
624.625	45989
624.689	42442
624.753	41461
624.817	39081
624.881	39208
624.945	36985
625.009	34709
625.073	35960
625.137	37048
625.201	44900
625.265	43834
625.329	38111
625.393	38695
625.456	38274
625.520	39755
625.584	41241
625.648	45769
625.712	57716
625.776	98378
625.839	108060
625.903	52790
625.967	36210
626.031	49783
626.095	70539
626.158	40382
626.222	29244
626.286	27598
626.349	27394
626.413	25514
626.477	27752
626.540	26611
626.604	25855
626.668	26466
626.731	25171
626.795	26359
626.858	26526
626.922	24958
626.986	25092
627.049	24543
627.113	25005
627.176	24743
627.240	23699
627.303	24564
627.366	24038
627.430	24955
627.493	24935
627.557	24318
627.620	25863
627.684	25065
627.747	25382
627.810	23188
627.874	22510
627.937	20689
628.000	24499
628.064	22004
628.127	19000
628.190	20574
628.253	20718
628.317	18795
628.380	18481
628.443	17227
628.506	19745
628.569	17605
628.632	17290
628.696	17095
628.759	16335
628.822	16538
628.885	16851
628.948	16260
629.011	16042
629.074	16538
629.137	16166
629.200	15081
629.263	16967
629.326	14787
629.389	15221
629.452	14768
629.515	16235
629.578	15529
629.641	17334
629.704	15313
629.767	16833
629.830	14259
629.892	14876
629.955	13906
630.018	17245
630.081	16074
630.144	20564
630.207	15680
630.269	17176
630.332	15903
630.395	14736
630.458	14215
630.520	13600
630.583	14447
630.646	14065
630.708	13295
630.771	13506
630.834	14149
630.896	13834
630.959	14806
631.021	12864
631.084	14046
631.146	15654
631.209	16397
631.272	14215
631.334	14179
631.397	14806
631.459	13306
631.522	15430
631.584	14473
631.646	15922
631.709	16037
631.771	20022
631.834	16283
631.896	14551
631.958	12441
632.021	14570
632.083	12635
632.145	14541
632.208	12772
632.270	14055
632.332	13042
632.395	11411
632.457	13798
632.519	12542
632.581	13033
632.643	11203
632.706	12543
632.768	11669
632.830	11789
632.892	12907
632.954	12671
633.016	13492
633.078	12877
633.141	12145
633.203	12039
633.265	12108
633.327	12233
633.389	12883
633.451	13496
633.513	16358
633.575	15894
633.637	15870
633.698	14539
633.760	13547
633.822	12783
633.884	13626
633.946	13328
634.008	13751
634.070	13923
634.132	14116
634.193	14722
634.255	16298
634.317	15390
634.379	17649
634.441	13678
634.502	12990
634.564	13459
634.626	12357
634.687	11904
634.749	11922
634.811	11456
634.873	10133
634.934	11789
634.996	12384
635.057	10843
635.119	11359
635.181	11679
635.242	12229
635.304	9401
635.365	12682
635.427	11409
635.488	12838
635.550	11089
635.611	11613
635.673	9678
635.734	13539
635.796	12872
635.857	14840
635.918	13700
635.980	16471
636.041	15338
636.102	16511
636.164	16341
636.225	17149
636.286	13133
636.348	14324
636.409	11886
636.470	10766
636.531	11797
636.593	12272
636.654	11666
636.715	11075
636.776	9772
636.838	9375
636.899	11317
636.960	9748
637.021	9742
637.082	8976
637.143	10263
637.204	9316
637.265	9255
637.326	10165
637.387	9252
637.448	8525
637.509	10592
637.570	9275
637.631	10460
637.692	8133
637.753	8345
637.814	9283
637.875	8829
637.936	9894
637.997	7930
638.058	9766
638.119	9252
638.179	9151
638.240	7906
638.301	9002
638.362	7257
638.423	8371
638.483	9401
638.544	7222
638.605	7933
638.666	8238
638.726	8034
638.787	8758
638.848	7815
638.908	7697
638.969	8369
639.030	8481
639.090	7742
639.151	8101
639.211	9308
639.272	11775
639.332	17215
639.393	11545
639.453	8230
639.514	8991
639.574	8106
639.635	7066
639.695	8484
639.756	6949
639.816	8507
639.877	9945
639.937	15546
639.997	20729
640.058	8464
640.118	7483
640.178	7935
640.239	6795
640.299	7235
640.359	7394
640.420	7947
640.480	8754
640.540	8755
640.600	8999
640.661	8988
640.721	7855
640.781	11543
640.841	8564
640.901	8545
640.961	8358
641.021	8561
641.082	9159
641.142	12757
641.202	9869
641.262	6219
641.322	7378
641.382	5171
641.442	7469
641.502	7350
641.562	7999
641.622	6482
641.682	7497
641.742	7256
641.802	7875
641.861	8081
641.921	7780
641.981	9112
642.041	9510
642.101	10150
642.161	6308
642.221	5972
642.280	5589
642.340	5651
642.400	5280
642.460	7655
642.519	6810
642.579	6558
642.639	7699
642.698	4096
642.758	9552
642.818	6894
642.877	6378
642.937	6563
642.997	8507
643.056	13283
643.116	7177
643.175	8126
643.235	6890
643.294	7123
643.354	8349
643.414	8920
643.473	10616
643.532	11944
643.592	17019
643.651	29565
643.711	54090
643.770	107086
643.830	264375
643.889	589080
643.948	134610
644.008	21704
644.067	13222
644.126	9389
644.186	9186
644.245	9133
644.304	6047
644.363	8849
644.423	5878
644.482	6337
644.541	7629
644.600	5804
644.659	9365
644.719	10554
644.778	16749
644.837	25215
644.896	54427
644.955	129217
645.014	43868
645.073	10257
645.132	8064
645.191	7466
645.250	7044
645.309	8129
645.368	8052
645.427	11001
645.486	14072
645.545	25585
645.604	9702
645.663	6585
645.722	6465
645.781	8566
645.840	8340
645.898	10846
645.957	16460
646.016	25331
646.075	49533
646.134	98140
646.192	264795
646.251	409182
646.310	57191
646.369	14860
646.427	12087
646.486	8388
646.545	8039
646.603	7615
646.662	6448
646.721	5957
646.779	5795
646.838	4641
646.896	8457
646.955	10307
647.014	16786
647.072	27812
647.131	81211
647.189	38981
647.248	7050
647.306	6187
647.365	5819
647.423	3558
647.481	6438
647.540	3201
647.598	5145
647.657	4047
647.715	5301
647.773	3951
647.832	5363
647.890	3386
647.948	4422
648.007	4264
648.065	2894
648.123	4035
648.181	6062
648.240	3764
648.298	3993
648.356	4051
648.414	4644
648.472	4959
648.531	5248
648.589	3522
648.647	3856
648.705	3612
648.763	4375
648.821	5988
648.879	4745
648.937	5583
648.995	6558
649.053	8060
649.111	12494
649.169	20563
649.227	37789
649.285	77855
649.343	233056
649.401	113677
649.459	28410
649.516	16360
649.574	6320
649.632	9023
649.690	9290
649.748	10104
649.806	9939
649.863	20118
649.921	55197
649.979	37686
650.037	6675
650.094	3536
650.152	4555
650.210	3222
650.268	4776
650.325	3835
650.383	4103
650.440	2349
650.498	3711
650.556	3163
650.613	3903
650.671	3402
650.728	3137
650.786	3954
650.843	3805
650.901	1739
650.958	3892
651.016	3218
651.073	2928
651.131	2382
651.188	1823
651.246	2743
651.303	2711
651.360	3291
651.418	2445
651.475	3489
651.532	1868
651.590	3202
651.647	2551
651.704	2931
651.762	2622
651.819	3220
651.876	2218
651.933	2623
651.990	4104
652.048	1603
652.105	2315
652.162	3398
652.219	2152
652.276	3333
652.333	3057
652.390	1516
652.448	2441
652.505	2135
652.562	2519
652.619	2182
652.676	2840
652.733	2930
652.790	2211
652.847	1053
652.904	3378
652.961	1071
653.017	2170
653.074	3183
653.131	2459
653.188	2409
653.245	1440
653.302	2125
653.359	2214
653.415	2284
653.472	1987
653.529	1426
653.586	1267
653.642	1550
653.699	2362
653.756	2128
653.813	2101
653.869	3095
653.926	2205
653.983	1301
654.039	3083
654.096	1359
654.152	3810
654.209	1958
654.266	2661
654.322	1927
654.379	2194
654.435	3089
654.492	3503
654.548	4318
654.605	7837
654.661	4780
654.717	2326
654.774	2948
654.830	2568
654.887	2199
654.943	1566
655.000	2041
655.056	2837
655.112	2073
655.168	1857
655.225	2032
655.281	2960
655.337	3134
655.394	7109
655.450	5247
655.506	4670
655.562	6533
655.618	6796
655.675	932
655.731	2764
655.787	2310
655.843	3452
655.899	1425
655.955	3076
656.011	2073
656.067	1325
656.123	2551
656.179	2576
656.235	3226
656.291	670
656.347	3335
656.403	1898
656.459	2717
656.515	3253
656.571	2569
656.627	2847
656.683	2309
656.739	2532
656.795	1438
656.850	3035
656.906	3396
656.962	3525
657.018	1686
657.074	2318
657.129	2953
657.185	4450
657.241	7731
657.297	3764
657.352	2133
657.408	2611
657.464	3315
657.519	2019
657.575	1213
657.630	1716
657.686	1685
657.742	876
657.797	1215
657.853	1754
657.908	2982
657.964	297
658.019	2083
658.075	2496
658.130	2460
658.186	1719
658.241	1725
658.297	1072
658.352	898
658.407	2186
658.463	859
658.518	2291
658.573	2155
658.629	1240
658.684	1957
658.739	1676
658.795	770
658.850	1921
658.905	1176
658.960	1705
659.016	1509
659.071	2629
659.126	1548
659.181	2562
659.236	6361
659.291	6280
659.346	3217
659.401	2192
659.457	2733
659.512	1362
659.567	3055
659.622	2699
659.677	543
659.732	1795
659.787	2707
659.842	2605
659.897	3788
659.952	2499
660.007	1520
660.061	1104
660.116	1660
660.171	883
660.226	1862
660.281	2721
660.336	1543
660.391	2667
660.445	770
660.500	1776
660.555	1385
660.610	1729
660.664	1679
660.719	1463
660.774	1287
660.828	2010
660.883	1501
660.938	2768
660.992	1026
661.047	1844
661.101	961
661.156	1940
661.211	927
661.265	1734
661.320	1627
661.374	2151
661.429	600
661.483	2625
661.538	674
661.592	1781
661.647	1639
661.701	2887
661.755	1890
661.810	2177
661.864	1015
661.919	1174
661.973	1336
662.027	1923
662.081	988
662.136	1407
662.190	2368
662.244	2827
662.299	1227
662.353	2254
662.407	1209
662.461	1785
662.515	2091
662.569	1302
662.624	2118
662.678	1536
662.732	1681
662.786	1601
662.840	1626
662.894	2205
662.948	1511
663.002	1612
663.056	1472
663.110	2056
663.164	1633
663.218	998
663.272	2642
663.326	2003
663.380	2329
663.434	1891
663.488	1068
663.542	1684
663.595	2094
663.649	1192
663.703	2009
663.757	2289
663.811	1063
663.864	1535
663.918	1727
663.972	1753
664.026	1690
664.079	1476
664.133	1240
664.187	580
664.240	1867
664.294	1301
664.348	1851
664.401	1774
664.455	2190
664.508	1024
664.562	901
664.615	1909
664.669	249
664.722	1195
664.776	1913
664.829	1634
664.883	1637
664.936	1763
664.990	1877
665.043	1836
665.097	1912
665.150	3502
665.203	1855
665.257	1507
665.310	1903
665.363	1812
665.417	2123
665.470	1733
665.523	2193
665.576	1205
665.630	1217
665.683	1723
665.736	1777
665.789	1745
665.842	771
665.895	2000
665.949	1878
666.002	1635
666.055	648
666.108	2364
666.161	1703
666.214	2469
666.267	2355
666.320	2413
666.373	2797
666.426	1967
666.479	1495
666.532	2409
666.585	3152
666.638	3358
666.691	1663
666.744	3024
666.796	1616
666.849	2656
666.902	2234
666.955	1992
667.008	1598
667.060	1577
667.113	1199
667.166	2306
667.219	1880
667.271	744
667.324	1454
667.377	2117
667.430	993
667.482	2328
667.535	1364
667.587	1948
667.640	2790
667.693	3180
667.745	5221
667.798	5847
667.850	1990
667.903	2490
667.955	1940
668.008	2055
668.060	2610
668.113	2248
668.165	2730
668.218	2597
668.270	1799
668.322	2154
668.375	1341
668.427	2213
668.479	2026
668.532	2817
668.584	1543
668.636	2280
668.689	1623
668.741	1765
668.793	1658
668.845	2006
668.898	2485
668.950	1559
669.002	2196
669.054	2039
669.106	1069
669.158	2937
669.211	1770
669.263	1860
669.315	2261
669.367	2503
669.419	1699
669.471	4280
669.523	3922
669.575	5666
669.627	4054
669.679	3064
669.731	3238
669.783	3244
669.835	4018
669.886	3858
669.938	2548
669.990	3059
670.042	2910
670.094	3197
670.146	3160
670.197	5946
670.249	5666
670.301	7091
670.353	10949
670.404	16411
670.456	23440
670.508	37833
670.560	64473
670.611	112163
670.663	199359
670.715	452939
670.766	684338
670.818	245420
670.869	45850
670.921	22534
670.972	15060
671.024	10908
671.075	7878
671.127	6249
671.178	4500
671.230	4653
671.281	4629
671.333	4094
671.384	3431
671.436	4457
671.487	5763
671.538	6613
671.590	7287
671.641	11438
671.692	19286
671.744	37161
671.795	22966
671.846	7374
671.897	5429
671.949	4263
672.000	3001
672.051	3296
672.102	3336
672.153	2410
672.204	2674
672.256	2531
672.307	1544
672.358	2853
672.409	2696
672.460	1666
672.511	1272
672.562	1732
672.613	1381
672.664	1898
672.715	2234
672.766	1797
672.817	681
672.868	1838
672.919	1680
672.970	2104
673.021	822
673.071	833
673.122	1383
673.173	1537
673.224	2111
673.275	1829
673.326	2468
673.376	1455
673.427	930
673.478	875
673.528	1451
673.579	1596
673.630	413
673.680	1404
673.731	1127
673.782	728
673.832	1356
673.883	1876
673.934	1405
673.984	1220
674.035	1505
674.085	1499
674.136	2230
674.186	1877
674.237	2813
674.287	3879
674.338	2270
674.388	1474
674.438	1169
674.489	1836
674.539	1789
674.589	2245
674.640	1338
674.690	1168
674.740	1234
674.791	2239
674.841	1555
674.891	2003
674.942	1360
674.992	1377
675.042	805
675.092	868
675.142	1087
675.193	978
675.243	978
675.293	1490
675.343	956
675.393	1029
675.443	1005
675.493	1525
675.543	668
675.593	2186
675.643	1083
675.693	1372
675.743	1594
675.793	947
675.843	1041
675.893	1075
675.943	913
675.993	1949
676.043	985
676.093	1008
676.142	104
676.192	1772
676.242	710
676.292	585
676.341	1212
676.391	1239
676.441	296
676.491	1171
676.540	601
676.590	673
676.640	1149
676.689	825
676.739	274
676.789	1688
676.838	592
676.888	868
676.937	859
676.987	611
677.037	308
677.086	934
677.136	390
677.185	507
677.235	-379
677.284	805
677.333	668
677.383	855
677.432	152
677.482	1089
677.531	85
677.580	1083
677.630	380
677.679	603
677.728	908
677.778	1172
677.827	3
677.876	1297
677.925	265
677.975	638
678.024	649
678.073	875
678.122	930
678.171	865
678.220	295
678.269	1459
678.319	1183
678.368	1295
678.417	513
678.466	472
678.515	1501
678.564	899
678.613	1050
678.662	429
678.711	1499
678.760	646
678.809	-85
678.857	584
678.906	1282
678.955	893
679.004	861
679.053	939
679.102	460
679.151	1868
679.199	278
679.248	318
679.297	-470
679.346	533
679.394	454
679.443	806
679.492	-188
679.540	643
679.589	848
679.638	500
679.686	-2
679.735	738
679.784	594
679.832	1326
679.881	-30
679.929	923
679.978	-508
680.026	1276
680.075	653
680.123	691
680.172	57
680.220	277
680.268	257
680.317	426
680.365	-512
680.414	-661
680.462	26
680.510	1084
680.559	-181
680.607	823
680.655	-78
680.703	630
680.752	-115
680.800	132
680.848	406
680.896	-592
680.945	408
680.993	15
681.041	218
681.089	678
681.137	-394
681.185	-1
681.233	119
681.258	819
681.281	1442
681.329	-436
681.377	-192
681.380	-99
681.425	866
681.473	1382
681.502	1256
681.521	1089
681.569	1638
681.617	179
681.624	286
681.665	664
681.713	524
681.745	648
681.761	645
681.809	937
681.857	2414
681.867	2273
681.904	1589
681.952	1716
681.989	979
682.000	714
682.048	1159
682.096	865
682.111	1101
682.143	1442
682.191	1727
682.233	1992
682.239	1995
682.286	1774
682.334	1955
682.354	2086
682.382	2153
682.430	1903
682.476	2496
682.477	2473
682.525	2132
682.572	1964
682.598	2501
682.620	2875
682.667	2544
682.715	3000
682.720	2991
682.763	2660
682.810	3168
682.841	3584
682.857	3678
682.905	2498
682.952	2590
682.963	2630
683.000	2664
683.047	2920
683.085	4032
683.095	4317
683.142	3259
683.190	3883
683.206	3725
683.237	3265
683.284	3863
683.328	3327
683.332	3258
683.379	3618
683.426	3232
683.449	4057
683.473	4836
683.521	3866
683.568	3812
683.571	3897
683.615	4593
683.662	3887
683.693	4200
683.709	4339
683.757	4900
683.804	3866
683.814	4212
683.851	5288
683.898	5124
683.936	4995
683.945	4925
683.992	4942
684.039	5480
684.057	5423
684.086	5342
684.133	6314
684.179	5768
684.180	5716
684.227	6272
684.274	6441
684.300	6350
684.321	6230
684.368	6158
684.415	6433
684.422	6379
684.462	5727
684.509	5798
684.543	5521
684.556	5455
684.603	6190
684.649	5694
684.665	5883
684.696	6316
684.743	6289
684.786	6584
684.790	6589
684.837	7083
684.883	7468
684.908	7349
684.930	7100
684.977	8201
685.023	6990
685.029	7130
685.070	7900
685.117	6508
685.150	7220
685.164	7569
685.210	7533
685.257	8590
685.272	8673
685.303	8717
685.350	8252
685.393	7983
685.396	7967
685.443	8779
685.490	10116
685.514	10096
685.536	9737
685.583	9385
685.629	9454
685.636	9364
685.675	8796
685.722	9594
685.757	9160
685.768	9057
685.815	8914
685.861	9280
685.878	9109
685.908	8848
685.954	9542
686.000	10136
686.000	10143
686.047	10366
686.093	11483
686.121	12135
686.139	12054
686.185	11442
686.232	10213
686.242	10182
686.278	10137
686.324	9189
686.363	9331
686.370	9403
686.416	9570
686.463	9824
686.484	9569
686.509	9319
686.555	8537
686.601	8991
686.606	9029
686.647	9352
686.693	9491
686.727	9553
686.739	9573
686.785	9205
686.831	10050
686.848	9877
686.877	9482
686.923	9937
686.969	9681
686.969	9678
687.015	10100
687.061	10188
687.090	10324
687.107	10309
687.153	10305
687.199	10356
687.211	10302
687.245	10515
687.291	10942
687.332	11193
687.336	11190
687.382	11143
687.428	10973
687.453	11269
687.474	11350
687.520	10835
687.565	10941
687.574	10830
687.611	10760
687.657	10977
687.695	10740
687.702	10719
687.748	11557
687.794	11560
687.816	11838
687.839	11879
687.885	11327
687.931	11330
687.937	11206
687.976	10830
688.022	11550
688.058	11655
688.067	11664
688.113	11701
688.158	11584
688.179	11555
688.204	11477
688.249	11278
688.295	11747
688.300	11712
688.340	11916
688.386	12422
688.421	12509
688.431	12468
688.477	12297
688.522	12345
688.542	12325
688.567	12357
688.613	12098
688.658	12187
688.663	12206
688.703	12502
688.749	12428
688.784	12662
688.794	12696
688.839	12644
688.884	12328
688.905	12364
688.930	12417
688.975	12106
689.020	12320
689.026	12292
689.065	12446
689.110	12647
689.146	12591
689.155	12549
689.201	12490
689.246	12628
689.267	12670
689.291	12908
689.336	12915
689.381	13244
689.388	13232
689.426	12884
689.471	12547
689.509	12228
689.516	12200
689.561	12240
689.606	12308
689.630	12121
689.651	12230
689.696	12477
689.741	13121
689.750	13128
689.785	12821
689.830	12863
689.871	12588
689.875	12578
689.920	12550
689.965	12516
689.992	12481
690.010	12671
690.054	12346
690.099	13008
690.112	13105
690.144	13226
690.189	13419
690.233	13614
690.233	13634
690.278	13067
690.323	13410
690.354	13417
690.367	13427
690.412	13209
690.457	13693
690.474	13485
690.501	13138
690.546	12983
690.590	12637
690.595	12602
690.635	13030
690.680	13540
690.716	13933
690.724	13953
690.769	13959
690.813	14113
690.836	13899
690.857	13948
690.902	14171
690.946	14638
690.957	14613
690.991	15107
691.035	16347
691.077	16972
691.080	16998
691.124	17296
691.168	17650
691.198	17760
691.213	17721
691.257	17735
691.301	16873
691.318	16684
691.346	16140
691.390	15646
691.434	14972
691.439	14851
691.478	14959
691.522	15140
691.559	15024
691.567	15075
691.611	16041
691.655	16437
691.680	16317
691.699	15927
691.743	15940
691.787	15495
691.800	15315
691.831	15391
691.875	15520
691.919	15469
691.921	15456
691.964	16278
692.008	16498
692.041	16765
692.052	16805
692.096	16695
692.139	17096
692.162	16951
692.183	16741
692.227	16762
692.271	16224
692.282	16152
692.315	16355
692.359	16476
692.402	16705
692.403	16739
692.447	16310
692.490	16738
692.523	16754
692.534	16898
692.578	17136
692.622	17095
692.643	17319
692.666	17079
692.709	16309
692.753	15628
692.763	15423
692.797	15721
692.840	16137
692.884	16050
692.884	16084
692.928	16638
692.971	16674
693.004	16719
693.015	16733
693.059	16404
693.102	16612
693.124	16557
693.146	16851
693.189	17600
693.233	17817
693.245	17931
693.276	18038
693.320	18099
693.363	18308
693.365	18263
693.407	17990
693.450	17834
693.485	17575
693.493	17709
693.537	18496
693.580	18988
693.605	19446
693.624	19514
693.667	19225
693.710	18916
693.725	18774
693.753	20103
693.797	22282
693.840	24618
693.845	24809
693.883	24417
693.926	23813
693.966	23439
693.970	23301
694.013	21499
694.056	19287
694.086	17647
694.099	17697
694.142	18357
694.185	18472
694.206	18649
694.229	18890
694.272	18838
694.315	19248
694.326	19154
694.358	19441
694.401	20304
694.444	20872
694.446	20869
694.487	21032
694.530	20603
694.566	20686
694.573	20569
694.616	18858
694.659	17794
694.686	16843
694.702	16863
694.745	16783
694.787	16865
694.806	16834
694.830	16947
694.873	17044
694.916	17087
694.926	17073
694.959	17350
695.002	17870
695.044	17979
695.046	17950
695.087	18456
695.130	18817
695.166	19169
695.172	19173
695.215	18669
695.258	18345
695.286	18115
695.301	18263
695.343	18468
695.386	18729
695.406	18780
695.428	18725
695.471	18371
695.514	18346
695.526	18193
695.556	18060
695.599	18180
695.641	18117
695.646	18073
695.684	18162
695.726	17911
695.766	17873
695.769	17935
695.811	18072
695.854	18306
695.886	18340
695.896	18275
695.938	17869
695.981	17451
696.005	17185
696.023	17519
696.065	18270
696.108	18788
696.125	19003
696.150	19042
696.192	19174
696.235	19128
696.245	19066
696.277	18892
696.319	18694
696.361	18500
696.365	18423
696.404	18570
696.446	18825
696.485	18841
696.488	18886
696.530	19079
696.572	18943
696.604	19011
696.614	19100
696.656	19083
696.698	19015
696.724	19077
696.740	19069
696.783	18763
696.825	18429
696.844	18226
696.867	18285
696.909	18324
696.951	18362
696.964	18326
696.992	18484
697.034	18631
697.076	18814
697.083	18794
697.118	19177
697.160	19460
697.202	19842
697.203	19795
697.244	19685
697.286	19669
697.323	19454
697.327	19472
697.369	19230
697.411	18949
697.442	18712
697.453	18858
697.494	19194
697.536	19546
697.562	19722
697.578	19844
697.620	20034
697.661	20148
697.682	20162
697.703	20662
697.744	21675
697.786	22576
697.801	22833
697.828	23141
697.869	23551
697.911	23912
697.921	23954
697.952	22855
697.994	21253
698.035	19728
698.040	19480
698.077	19712
698.118	19927
698.160	20124
698.160	20066
698.201	20189
698.243	20218
698.279	20213
698.284	20271
698.325	20243
698.367	20229
698.399	20146
698.408	20162
698.449	19991
698.491	19821
698.518	19659
698.532	19779
698.573	19947
698.614	20137
698.638	20186
698.656	20224
698.697	20172
698.738	20122
698.757	20046
698.779	20360
698.820	20827
698.862	21319
698.877	21440
698.903	21751
698.944	22143
698.985	22541
698.996	22588
699.026	22281
699.067	21772
699.116	21104
699.235	20574
699.354	19780
699.474	20526
699.593	23452
699.713	22475
699.832	20321
699.951	22749
700.070	20807
700.190	20594
700.309	20188
700.428	22119
700.547	20653
700.667	20181
700.786	22136
700.905	19805
701.024	20161
701.143	20017
701.262	18005
701.381	18318
701.500	19301
701.619	23123
701.738	19704
701.857	19418
701.976	17343
702.095	18512
702.214	20892
702.333	21519
702.452	19541
702.571	18097
702.690	19092
702.809	18463
702.928	17413
703.047	17716
703.165	17893
703.284	16861
703.403	17099
703.522	18818
703.640	20406
703.759	23291
703.878	30276
703.997	19683
704.115	16728
704.234	16518
704.353	16434
704.471	17297
704.590	15604
704.708	16276
704.827	16340
704.946	16544
705.064	18319
705.183	17679
705.301	18181
705.420	25150
705.538	22896
705.656	19102
705.775	18762
705.893	20678
706.012	21925
706.130	20017
706.249	20057
706.367	20472
706.485	21894
706.604	20501
706.722	21923
706.840	25866
706.958	25799
707.077	21955
707.195	18474
707.313	19046
707.431	18783
707.549	18500
707.668	17985
707.786	19813
707.904	17379
708.022	17987
708.140	16853
708.258	17291
708.376	18404
708.494	18216
708.612	19813
708.730	25929
708.848	24645
708.966	23501
709.084	23579
709.202	20810
709.320	21053
709.438	21230
709.556	21614
709.674	20206
709.791	20980
709.909	20359
710.027	20748
710.145	20238
710.263	20813
710.380	20738
710.498	19779
710.616	20374
710.733	20710
710.851	22028
710.969	21397
711.086	21197
711.204	20746
711.322	20519
711.439	20087
711.557	21282
711.674	19644
711.792	19153
711.909	19092
712.027	17997
712.144	18320
712.262	18941
712.379	21256
712.497	26947
712.614	27754
712.732	24134
712.849	22226
712.966	25214
713.084	30817
713.201	24059
713.318	23916
713.436	22197
713.553	23965
713.670	23959
713.787	25950
713.905	27316
714.022	22658
714.139	23538
714.256	27861
714.373	32514
714.490	49436
714.608	108535
714.725	453059
714.842	551985
714.959	48721
715.076	26849
715.193	22081
715.310	22160
715.427	20497
715.544	20832
715.661	20539
715.778	18961
715.895	21260
716.011	21960
716.128	19626
716.245	20453
716.362	23819
716.479	25979
716.596	20439
716.713	19696
716.829	19763
716.946	19096
717.063	17766
717.180	17738
717.296	17157
717.413	17881
717.530	17928
717.646	18212
717.763	17384
717.880	16033
717.996	16648
718.113	18657
718.229	17445
718.346	16262
718.462	18352
718.579	23023
718.695	40763
718.812	31705
718.928	24327
719.045	19843
719.161	16094
719.277	15699
719.394	15402
719.510	16333
719.626	17226
719.743	20765
719.859	23515
719.975	37067
720.092	123338
720.208	320395
720.324	47999
720.440	19611
720.557	21398
720.673	31587
720.789	39836
720.905	79000
721.021	30485
721.137	15706
721.253	16807
721.369	16613
721.486	18120
721.602	25794
721.718	15337
721.834	13444
721.950	15451
722.066	14433
722.181	13671
722.297	15767
722.413	14238
722.529	13029
722.645	13479
722.761	13178
722.877	13308
722.993	12875
723.108	14525
723.224	14282
723.340	14873
723.456	12866
723.571	13834
723.687	12586
723.803	12419
723.918	12630
724.034	12686
724.150	13033
724.265	14380
724.381	28170
724.497	40343
724.612	12722
724.728	11979
724.843	12304
724.959	15017
725.074	26920
725.190	34478
725.305	14688
725.421	13599
725.536	11574
725.651	10623
725.767	10650
725.882	11592
725.997	10969
726.113	11656
726.228	10781
726.343	11285
726.459	10370
726.574	11526
726.689	10498
726.804	10680
726.920	11206
727.035	10830
727.150	11424
727.265	10861
727.380	11549
727.495	11839
727.610	10131
727.725	10618
727.841	11281
727.956	10579
728.071	12246
728.186	10931
728.301	9195
728.416	10864
728.531	10024
728.645	9928
728.760	10291
728.875	12688
728.990	10400
729.105	11065
729.220	12187
729.335	12034
729.449	10092
729.564	8918
729.679	9824
729.794	9441
729.908	10113
730.023	10315
730.138	8530
730.253	8839
730.367	8612
730.482	9668
730.596	9596
730.711	9948
730.826	10422
730.940	10730
731.055	10877
731.169	9203
731.284	8335
731.398	9572
731.513	10116
731.627	10730
731.742	11969
731.856	13790
731.970	10559
732.085	12191
732.199	15480
732.313	23231
732.428	52361
732.542	148763
732.656	99073
732.771	21154
732.885	12771
732.999	11236
733.113	11535
733.227	10412
733.342	9968
733.456	9680
733.570	9433
733.684	8575
733.798	9377
733.912	8353
734.026	9071
734.140	8975
734.254	9583
734.368	16144
734.482	22197
734.596	8370
734.710	8824
734.824	8716
734.938	9158
735.052	8439
735.166	9724
735.280	9571
735.393	8670
735.507	8309
735.621	11105
735.735	20681
735.849	10614
735.962	8523
736.076	8721
736.190	9437
736.303	12067
736.417	16250
736.531	8800
736.644	8252
736.758	7580
736.872	8267
736.985	7674
737.099	7399
737.212	7000
737.326	8171
737.439	7564
737.553	8505
737.666	8010
737.780	6823
737.893	7219
738.007	6953
738.120	6930
738.233	7009
738.347	6499
738.460	7170
738.573	8810
738.687	7995
738.800	8650
738.913	12211
739.026	8163
739.140	7197
739.253	6654
739.366	6991
739.479	6434
739.592	6265
739.705	6811
739.818	6757
739.932	6655
740.045	7051
740.158	7119
740.271	6859
740.384	6440
740.497	7629
740.610	7905
740.723	7612
740.836	7826
740.949	8718
741.062	11693
741.174	10872
741.287	6406
741.400	6917
741.513	7256
741.626	8097
741.739	7113
741.851	6352
741.964	6177
742.077	6541
742.189	7368
742.302	8145
742.415	7050
742.527	6530
742.640	6286
742.753	6624
742.865	6287
742.978	6412
743.090	5966
743.203	6266
743.316	6189
743.428	5861
743.541	6149
743.653	5602
743.766	6040
743.878	5970
743.990	7812
744.103	8921
744.215	5574
744.327	6456
744.440	7478
744.552	15602
744.664	8598
744.777	5530
744.889	4883
745.001	5448
745.113	5203
745.226	5492
745.338	5715
745.450	5826
745.562	5592
745.674	4655
745.786	5159
745.898	5077
746.010	5511
746.122	5031
746.234	4929
746.347	6229
746.459	5640
746.570	4849
746.682	5512
746.794	5420
746.906	4833
747.018	5272
747.130	5096
747.242	4526
747.354	5817
747.466	5492
747.577	4629
747.689	5133
747.801	5521
747.913	4925
748.024	4160
748.136	5282
748.248	5009
748.359	4247
748.471	5100
748.583	4328
748.694	4856
748.806	5926
748.918	6725
749.029	6544
749.141	6295
749.252	6200
749.364	7218
749.475	16818
749.587	12000
749.698	5403
749.809	5449
749.921	4522
750.032	4645
750.144	3756
750.255	4481
750.366	4410
750.478	4135
750.589	5301
750.700	6014
750.811	5481
750.923	7280
751.034	18409
751.145	20009
751.256	5194
751.367	5123
751.479	4398
751.590	4473
751.701	4507
751.812	4170
751.923	4501
752.034	4778
752.145	4685
752.256	4253
752.367	4188
752.478	4840
752.589	5143
752.700	3671
752.811	4179
752.922	4389
753.032	5186
753.143	7008
753.254	4446
753.365	5239
753.476	4505
753.586	4170
753.697	3754
753.808	3992
753.919	4097
754.029	3743
754.140	4514
754.251	3694
754.361	4286
754.472	4551
754.582	4181
754.693	4668
754.804	3834
754.914	3251
755.025	3700
755.135	3857
755.246	4099
755.356	3452
755.466	4273
755.577	4087
755.687	4659
755.798	4235
755.908	4419
756.018	4374
756.129	4089
756.239	4459
756.349	3199
756.460	3527
756.570	4276
756.680	4273
756.790	4159
756.900	5795
757.011	3639
757.121	4084
757.231	3775
757.341	3774
757.451	3648
757.561	3659
757.671	3988
757.781	3136
757.891	4292
758.001	4444
758.111	4531
758.221	4918
758.331	6588
758.441	5523
758.551	8732
758.661	6956
758.771	5109
758.880	4470
758.990	4853
759.100	4482
759.210	4174
759.320	5107
759.429	4066
759.539	4797
759.649	4866
759.758	5439
759.868	5504
759.978	4574
760.087	4988
760.197	5290
760.307	5629
760.416	4450
760.526	4345
760.635	5476
760.745	5494
760.854	4734
760.964	5296
761.073	5852
761.182	5006
761.292	4976
761.401	6159
761.511	5117
761.620	4374
761.729	4336
761.839	4964
761.948	4619
762.057	5361
762.166	4333
762.276	3903
762.385	4492
762.494	4149
762.603	4072
762.712	5043
762.822	4042
762.931	4715
763.040	3995
763.149	4408
763.258	3539
763.367	5362
763.476	4592
763.585	4242
763.694	4536
763.803	4645
763.912	4631
764.021	4650
764.130	4877
764.238	4483
764.347	4627
764.456	4107
764.565	5093
764.674	4518
764.783	4981
764.891	4204
765.000	6149
765.109	5593
765.217	5251
765.326	6989
765.435	8908
765.543	7540
765.652	7914
765.761	8999
765.869	12520
765.978	18635
766.086	31788
766.195	60699
766.303	155477
766.412	475302
766.520	483794
766.629	117218
766.737	39083
766.846	21848
766.954	15040
767.062	13261
767.171	9918
767.279	9413
767.387	7287
767.496	7542
767.604	6329
767.712	5992
767.820	5431
767.928	6275
768.037	5131
768.145	6861
768.253	5518
768.361	5315
768.469	5637
768.577	4631
768.685	6464
768.793	5738
768.901	5535
769.009	6245
769.117	6625
769.225	7050
769.333	9462
769.441	13614
769.549	23912
769.657	53953
769.765	175192
769.873	440192
769.981	168970
770.088	30829
770.196	14975
770.304	11408
770.412	10023
770.519	7084
770.627	6709
770.735	5758
770.842	5882
770.950	5859
771.058	4849
771.165	5155
771.273	4732
771.380	6025
771.488	5395
771.595	4917
771.703	5321
771.810	5829
771.918	4838
772.025	4719
772.133	4782
772.240	4588
772.348	5647
772.455	5003
772.562	4483
772.670	3948
772.777	5286
772.884	4487
772.991	4255
773.099	4727
773.206	3734
773.313	4838
773.420	4543
773.528	4101
773.635	3793
773.742	4220
773.849	5256
773.956	3509
774.063	4888
774.170	3864
774.277	4275
774.384	4044
774.491	3889
774.598	4308
774.705	4660
774.812	6327
774.919	4893
775.026	4897
775.133	4421
775.239	4546
775.346	4659
775.453	3883
775.560	3949
775.667	4751
775.773	3190
775.880	4825
775.987	4033
776.093	4763
776.200	3633
776.307	3688
776.413	3604
776.520	3230
776.627	4792
776.733	3926
776.840	2783
776.946	5487
777.053	3158
777.159	3690
777.266	3815
777.372	4789
777.478	4562
777.585	4853
777.691	3972
777.798	4316
777.904	5293
778.010	7226
778.117	6933
778.223	3866
778.329	3882
778.435	3797
778.542	4004
778.648	3333
778.754	3905
778.860	3535
778.966	4108
779.072	3694
779.178	3323
779.284	4223
779.391	3368
779.497	2581
779.603	5558
779.708	3285
779.815	4986
779.920	7404
780.026	13079
780.132	4756
780.238	3690
780.344	3100
780.450	3679
780.556	2991
780.661	3816
780.767	4440
780.873	3764
780.979	3867
781.085	3116
781.190	3391
781.296	3097
781.402	3113
781.507	2746
781.613	3919
781.719	2448
781.824	3498
781.930	3571
782.035	3707
782.141	4181
782.246	3176
782.352	3214
782.457	3146
782.563	3848
782.668	3195
782.773	3091
782.879	2699
782.984	4588
783.090	4883
783.195	7501
783.300	6735
783.405	4850
783.511	3491
783.616	4162
783.721	3497
783.826	3447
783.932	3378
784.037	3739
784.142	3678
784.247	3598
784.352	3347
784.457	4083
784.562	3815
784.667	3135
784.772	3229
784.877	3128
784.982	3235
785.087	3855
785.192	4709
785.297	2741
785.402	2832
785.507	3158
785.611	3513
785.716	3769
785.821	2774
785.926	3181
786.031	2681
786.135	2686
786.240	3138
786.345	2422
786.450	3871
786.554	2740
786.659	2982
786.763	1307
786.868	3883
786.973	3062
787.077	2762
787.182	2655
787.286	2662
787.391	3030
787.495	2849
787.600	2588
787.704	2285
787.809	2419
787.913	2710
788.017	2979
788.122	2412
788.226	2666
788.330	1662
788.435	2098
788.539	2905
788.643	2361
788.747	3033
788.852	1650
788.956	2078
789.060	2618
789.164	1677
789.268	1606
789.372	2293
789.476	2142
789.580	2024
789.684	2618
789.788	2202
789.892	2024
789.996	3409
790.100	2062
790.204	2542
790.308	2338
790.412	2433
790.516	2364
790.620	1929
790.724	3214
790.828	2935
790.931	1431
791.035	3841
791.139	2099
791.242	2097
791.346	2403
791.450	2457
791.554	2522
791.657	1383
791.761	3327
791.864	2796
791.968	1941
792.072	2924
792.175	3338
792.279	2271
792.382	2046
792.486	1786
792.589	2411
792.693	3049
792.796	1792
792.899	2791
793.003	2869
793.106	1237
793.209	1410
793.313	2843
793.416	1176
793.519	3434
793.623	5078
793.726	7812
793.829	3495
793.932	2186
794.035	1748
794.138	3462
794.242	2680
794.345	3493
794.448	4328
794.551	7164
794.654	8548
794.757	7396
794.860	4562
794.963	3211
795.066	1532
795.169	2678
795.272	1522
795.375	2523
795.477	2229
795.580	3400
795.683	799
795.786	2086
795.889	1213
795.991	2996
796.094	2829
796.197	2242
796.300	3244
796.402	1953
796.505	1418
796.608	1365
796.710	2754
796.813	2192
796.915	2347
797.018	2740
797.120	2346
797.223	1187
797.326	2772
797.428	1544
797.530	2367
797.633	2291
797.735	3301
797.838	4872
797.940	5232
798.042	1789
798.145	1989
798.247	2559
798.349	623
798.452	2525
798.554	1912
798.656	1122
798.758	2926
798.860	1915
798.962	1657
799.065	1146
799.167	978
799.269	3068
799.371	2370
799.473	3118
799.575	2402
799.677	3800
799.779	4384
799.881	5769
799.983	5209
800.085	3053
800.187	1437
800.289	1416
800.390	1947
800.492	1739
800.594	2630
800.696	2118
800.798	1383
800.899	769
801.001	1645
801.103	1863
801.205	1535
801.306	1378
801.408	997
801.509	1785
801.611	1634
801.713	2012
801.814	1100
801.916	1382
802.017	2022
802.119	1711
802.220	2155
802.322	1553
802.423	4516
802.525	2567
802.626	2112
802.727	2494
802.829	2148
802.930	-129
803.031	2976
803.133	1063
803.234	1393
803.335	1568
803.436	1268
803.538	1617
803.639	532
803.740	1568
803.841	608
803.942	1823
804.043	1605
804.144	840
804.245	1580
804.346	1301
804.447	2353
804.548	4229
804.649	5637
804.750	2382
804.851	1791
804.952	650
805.053	2031
805.154	603
805.255	2448
805.355	421
805.456	1204
805.557	1086
805.658	891
805.758	1070
805.859	1282
805.960	1534
806.061	825
806.161	987
806.262	1629
806.362	1386
806.463	1321
806.564	2030
806.664	2127
806.765	2863
806.865	3280
806.966	1317
807.066	654
807.166	2157
807.267	2029
807.367	1132
807.468	1698
807.568	232
807.668	1961
807.769	1728
807.869	1570
807.969	1398
808.069	2398
808.170	1121
808.270	1027
808.370	1505
808.470	3379
808.570	2785
808.670	1264
808.770	1161
808.870	1779
808.970	2158
809.070	966
809.170	1016
809.271	1683
809.370	1755
809.470	846
809.570	594
809.670	1009
809.770	1795
809.870	1015
809.970	1380
810.070	1356
810.169	2081
810.269	-68
810.369	2055
810.469	2075
810.568	1419
810.668	1462
810.768	834
810.867	1251
810.967	1534
811.066	574
811.166	1566
811.265	1785
811.365	603
811.464	947
811.564	1615
811.663	2056
811.763	325
811.862	2048
811.962	2361
812.061	1441
812.160	1903
812.260	1995
812.359	2934
812.458	5192
812.557	14803
812.657	26610
812.756	9645
812.855	2785
812.954	2055
813.053	3054
813.153	1440
813.252	1332
813.351	1681
813.450	1837
813.549	1305
813.648	1965
813.747	1490
813.846	2229
813.945	1146
814.044	2347
814.143	1559
814.242	2438
814.341	1201
814.439	2080
814.538	2831
814.637	917
814.736	1522
814.835	2396
814.933	1589
815.032	2428
815.131	1877
815.229	2747
815.328	2493
815.427	2285
815.525	3489
815.624	2673
815.722	2613
815.821	3752
815.919	2895
816.018	2490
816.116	3877
816.215	2727
816.313	3290
816.412	4006
816.510	4096
816.609	5897
816.707	4763
816.805	5016
816.904	4982
817.002	5881
817.100	7404
817.198	7440
817.296	7899
817.395	10040
817.493	11739
817.591	12040
817.689	18284
817.787	24278
817.885	38252
817.983	64031
818.081	128654
818.179	282961
818.277	627507
818.375	638042
818.473	240300
818.571	98447
818.669	61339
818.767	49625
818.865	48779
818.963	56372
819.061	76905
819.158	125132
819.256	236656
819.354	484174
819.452	871588
819.549	729506
819.647	308309
819.745	135169
819.842	78696
819.940	53027
820.038	37164
820.135	28553
820.233	23950
820.330	18145
820.428	14392
820.525	13838
820.623	12393
820.720	10142
820.818	9465
820.915	7541
821.012	7856
821.110	5761
821.207	6226
821.304	5463
821.402	5434
821.499	5565
821.596	5964
821.693	4384
821.791	5569
821.888	6607
821.985	11034
822.082	9530
822.179	5551
822.276	2737
822.373	3763
822.470	3001
822.567	3173
822.664	2486
822.761	2760
822.858	1952
822.955	3717
823.052	2626
823.149	2376
823.246	2996
823.343	2217
823.440	2343
823.536	2327
823.633	2475
823.730	2265
823.827	1804
823.923	2682
824.020	2937
824.117	1702
824.213	1533
824.310	2852
824.407	1687
824.503	1611
824.600	1862
824.696	1252
824.793	3517
824.889	2121
824.986	943
825.082	1287
825.179	2458
825.275	1706
825.371	1177
825.468	1853
825.564	935
825.660	2131
825.757	2158
825.853	1372
825.949	923
826.045	1679
826.142	432
826.238	1730
826.334	1421
826.430	543
826.526	953
826.622	1406
826.718	1138
826.814	209
826.910	1972
827.006	393
827.102	175
827.198	1626
827.294	265
827.390	1241
827.486	2294
827.582	221
827.678	803
827.774	1532
827.869	395
827.965	2623
828.061	248
828.157	1099
828.252	1228
828.348	727
828.444	1038
828.539	135
828.635	1055
828.731	1689
828.826	493
828.922	1642
829.017	1454
829.113	2399
829.208	1324
829.304	962
829.399	2280
829.495	924
829.590	1960
829.685	174
829.781	1176
829.876	710
829.971	1162
830.066	604
830.162	1310
830.257	672
830.352	787
830.447	2057
830.543	1671
830.638	165
830.733	1974
830.828	1213
830.923	1812
831.018	745
831.113	1563
831.208	182
831.303	792
831.398	264
831.493	739
831.588	288
831.683	-524
831.778	998
831.873	402
831.967	1810
832.062	660
832.157	1158
832.252	1600
832.346	1130
832.441	1981
832.536	3349
832.631	8959
832.725	8462
832.820	1105
832.914	558
833.009	737
833.104	1681
833.198	3254
833.293	442
833.387	1117
833.482	877
833.576	1127
833.670	1946
833.765	1832
833.859	803
833.954	2680
834.048	1206
834.142	1466
834.237	342
834.331	810
834.425	174
834.519	-163
834.613	1705
834.708	393
834.802	997
834.896	-94
834.990	913
835.084	779
835.178	622
835.272	1272
835.366	615
835.460	1666
835.554	219
835.648	425
835.742	173
835.836	1093
835.930	-498
836.024	1330
836.117	1650
836.211	1499
836.305	2600
836.399	2848
836.493	112
836.586	2143
836.680	471
836.774	241
836.867	1324
836.961	-441
837.055	176
837.148	244
837.242	274
837.335	1031
837.429	686
837.522	566
837.616	941
837.709	3674
837.803	2725
837.896	1550
837.989	1157
838.083	2125
838.176	3975
838.269	3957
838.363	2134
838.456	1406
838.549	3051
838.642	4205
838.735	10463
838.829	5227
838.922	1513
839.015	1478
839.108	209
839.201	1018
839.294	615
839.387	483
839.480	538
839.573	1582
839.666	3368
839.759	974
839.852	-129
839.945	745
840.038	285
840.131	-224
840.223	569
840.316	1068
840.409	599
840.502	-51
840.594	1360
840.687	-335
840.780	621
840.873	166
840.965	808
841.058	2515
841.150	3346
841.243	3351
841.336	793
841.428	284
841.521	1214
841.613	663
841.706	1477
841.798	162
841.890	287
841.983	-289
842.075	1189
842.167	413
842.260	-4
842.352	2245
842.444	1987
842.537	5464
842.629	8396
842.721	994
842.813	156
842.905	54
842.997	1265
843.090	1410
843.182	2372
843.274	4567
843.366	11220
843.458	23332
843.550	16507
843.642	2636
843.734	1357
843.826	1898
843.918	1544
844.009	1386
844.101	-115
844.193	-216
844.285	987
844.377	780
844.469	1474
844.560	-680
844.652	343
844.744	961
844.835	1086
844.927	816
845.019	599
845.110	806
845.202	982
845.293	2
845.385	-298
845.476	492
845.568	1260
845.659	582
845.751	967
845.842	-585
845.934	-452
846.025	-359
846.116	247
846.208	542
846.299	-247
846.390	735
846.482	648
846.573	1571
846.664	2147
846.755	3091
846.846	3400
846.937	-297
847.029	834
847.120	74
847.211	236
847.302	1215
847.393	-1062
847.484	1624
847.575	-290
847.666	-252
847.757	409
847.847	-513
847.938	1742
848.029	194
848.120	40
848.211	672
848.302	804
848.392	-178
848.483	1140
848.574	250
848.664	26
848.755	459
848.846	559
848.936	196
849.027	363
849.118	1034
849.208	923
849.299	1251
849.389	2124
849.480	5216
849.570	9843
849.661	18798
849.751	34883
849.841	14671
849.932	1260
850.022	-205
850.112	1261
850.203	-250
850.293	484
850.383	1166
850.474	-102
850.564	-254
850.654	-82
850.744	631
850.834	757
850.924	538
851.014	272
851.104	453
851.194	1229
851.284	1792
851.374	1634
851.464	955
851.554	498
851.644	814
851.734	2087
851.824	1276
851.914	378
852.004	356
852.094	-730
852.183	-558
852.273	835
852.363	-271
852.452	764
852.542	344
852.632	684
852.721	601
852.811	297
852.901	240
852.990	367
853.080	384
853.169	235
853.259	988
853.348	705
853.438	1554
853.527	2872
853.617	3406
853.706	8436
853.795	14168
853.885	33780
853.974	64259
854.063	114640
854.152	197454
854.242	84875
854.331	13269
854.420	5252
854.509	3635
854.598	3335
854.687	2143
854.777	2597
854.866	1312
854.955	1292
855.044	535
855.133	653
855.222	237
855.311	357
855.400	95
855.488	438
855.577	715
855.666	780
855.755	1394
855.844	898
855.933	-689
856.021	696
856.110	60
856.199	-296
856.288	273
856.376	400
856.465	-622
856.554	764
856.642	-229
856.731	286
856.819	603
856.908	-451
856.996	616
857.085	-345
857.173	595
857.262	-232
857.350	380
857.438	1099
857.527	-50
857.615	-11
857.703	106
857.792	-205
857.880	123
857.968	90
858.056	-368
858.145	1423
858.233	393
858.321	344
858.409	162
858.497	365
858.585	-385
858.673	-92
858.761	-207
858.849	-458
858.937	-516
859.025	484
859.113	448
859.201	-530
859.289	363
859.377	22
859.465	476
859.552	-489
859.640	-105
859.728	303
859.816	140
859.903	160
859.991	13
860.079	698
860.166	317
860.254	-438
860.342	799
860.429	-836
860.517	-63
860.604	-124
860.692	-634
860.779	345
860.867	-130
860.954	303
861.042	290
861.129	1072
861.216	829
861.304	136
861.391	-668
861.478	608
861.565	237
861.653	589
861.740	291
861.827	-185
861.914	484
862.001	-296
862.089	399
862.176	497
862.263	-627
862.350	305
862.437	-377
862.524	-601
862.611	558
862.698	254
862.785	94
862.871	-127
862.958	229
863.045	-690
863.132	-12
863.219	32
863.306	-562
863.392	997
863.479	-119
863.566	-517
863.652	963
863.739	-320
863.826	-155
863.912	-549
863.999	-384
864.086	255
864.172	-283
864.259	160
864.345	1042
864.432	562
864.518	483
864.604	-285
864.691	477
864.777	-399
864.863	651
864.950	1528
865.036	1089
865.122	1243
865.209	1410
865.295	1225
865.381	507
865.467	2077
865.553	2868
865.639	4025
865.726	7700
865.812	16056
865.898	32622
865.984	50084
866.070	88418
866.156	108216
866.242	31465
866.328	6827
866.414	1803
866.499	2019
866.585	2371
866.671	1428
866.757	1190
866.843	1007
866.928	982
867.014	620
867.100	1308
867.186	576
867.271	1848
867.357	2043
867.442	3201
867.528	998
867.614	287
867.699	-254
867.785	357
867.870	704
867.956	834
868.041	1212
868.127	609
868.212	953
868.297	1715
868.383	1362
868.468	3306
868.553	4393
868.639	5605
868.724	10786
868.809	12606
868.894	2728
868.979	337
869.065	908
869.150	524
869.235	263
869.320	-101
869.405	-424
869.490	-380
869.575	3
869.660	99
869.745	657
869.830	-320
869.915	173
870.000	613
870.085	33
870.169	209
870.254	353
870.339	179
870.424	-568
870.509	725
870.593	416
870.678	-75
870.763	763
870.847	813
870.932	42
871.016	-26
871.101	218
871.186	-69
871.270	704
871.355	133
871.439	520
871.523	-57
871.608	-357
871.692	311
871.777	514
871.861	300
871.945	-311
872.030	90
872.114	252
872.198	-394
872.282	373
872.367	-46
872.451	-175
872.535	743
872.619	-266
872.703	-187
872.787	523
872.871	481
872.955	197
873.039	-9
873.123	-66
873.207	557
873.291	433
873.375	149
873.459	346
873.543	473
873.627	757
873.711	877
873.794	586
873.878	186
873.962	-354
874.045	-355
874.129	411
874.137	371
874.213	-35
874.245	-163
874.296	-367
874.352	39
874.380	234
874.460	-428
874.464	-456
874.547	-285
874.568	-167
874.631	163
874.676	-48
874.714	-196
874.784	369
874.798	475
874.881	818
874.892	623
874.965	-688
874.999	-505
875.048	-268
875.107	-143
875.131	-92
875.215	108
875.215	108
875.298	436
875.323	384
875.381	232
875.430	583
875.465	891
875.538	24
875.548	-113
875.631	297
875.646	162
875.714	-401
875.753	-586
875.798	-818
875.861	-243
875.881	-70
875.964	-631
875.968	-599
876.047	143
876.076	355
876.130	651
876.183	493
876.213	390
876.291	589
876.296	608
876.379	300
876.398	208
876.462	-169
876.506	74
876.545	352
876.613	125
876.628	75
876.711	94
876.721	188
876.794	826
876.828	426
876.877	-144
876.935	450
876.960	730
877.043	964
877.043	965
877.125	1131
877.150	1107
877.208	1079
877.258	944
877.291	859
877.365	950
877.374	958
877.456	702
877.472	743
877.539	813
877.579	905
877.622	1118
877.687	874
877.704	779
877.787	983
877.794	948
877.869	739
877.901	854
877.952	874
878.008	883
878.034	901
878.115	995
878.117	998
878.199	605
878.222	537
878.282	555
878.329	985
878.364	1161
878.437	931
878.447	904
878.529	559
878.544	465
878.611	15
878.651	326
878.694	742
878.758	821
878.776	781
878.858	-226
878.865	-187
878.941	582
878.972	441
879.023	130
879.078	62
879.105	98
879.185	1002
879.187	1012
879.269	974
879.292	679
879.351	288
879.399	425
879.433	308
879.506	41
879.516	68
879.598	26
879.613	169
879.680	486
879.720	359
879.762	427
879.827	398
879.844	280
879.926	287
879.933	298
880.007	887
880.040	1134
880.089	1297
880.147	2045
880.171	2407
880.253	4817
880.254	4839
880.335	7724
880.360	8378
880.417	10718
880.467	15863
880.499	19223
880.574	24749
880.580	24839
880.662	9417
880.680	7564
880.744	2307
880.787	1148
880.825	710
880.893	863
880.907	769
880.989	274
881.000	192
881.070	442
881.106	605
881.152	496
881.213	243
881.233	280
881.315	572
881.319	567
881.396	-28
881.426	-49
881.478	312
881.532	307
881.559	95
881.639	-680
881.641	-679
881.722	-3
881.745	89
881.803	-50
881.852	-187
881.885	-187
881.958	453
881.966	513
882.047	980
882.064	926
882.129	1164
882.171	1374
882.210	1172
882.277	2151
882.291	2452
882.372	1549
882.383	1441
882.454	21
882.489	-107
882.535	185
882.596	181
882.616	74
882.697	-469
882.702	-481
882.778	-31
882.808	296
882.859	369
882.914	-59
882.940	-75
883.020	3
883.021	3
883.102	130
883.127	78
883.183	74
883.233	106
883.264	130
883.339	185
883.345	219
883.426	88
883.445	249
883.507	127
883.551	-231
883.587	-65
883.657	517
883.668	507
883.749	246
883.763	152
883.830	-108
883.869	170
883.910	394
883.975	21
883.991	32
884.072	153
884.081	196
884.152	-189
884.187	-499
884.233	-112
884.292	870
884.314	765
884.394	-24
884.398	-77
884.475	190
884.504	351
884.555	76
884.610	-204
884.636	-133
884.716	4
884.716	6
884.797	20
884.821	90
884.877	470
884.927	427
884.958	405
885.033	460
885.038	468
885.118	759
885.139	810
885.199	160
885.244	-350
885.279	-165
885.350	125
885.359	112
885.439	200
885.456	153
885.520	444
885.561	760
885.600	514
885.667	38
885.680	73
885.760	123
885.773	167
885.840	225
885.878	140
885.920	312
885.984	596
886.000	519
886.080	185
886.089	141
886.160	533
886.195	716
886.240	198
886.300	-509
886.320	-352
886.400	371
886.406	417
886.480	211
886.511	160
886.560	709
886.616	1088
886.640	871
886.720	240
886.722	222
886.800	954
886.827	1241
886.879	855
886.932	323
886.959	390
887.038	735
887.039	728
887.119	-220
887.143	-510
887.198	67
887.248	629
887.278	494
887.354	-10
887.358	0
887.437	268
887.459	323
887.517	198
887.564	138
887.596	328
887.669	679
887.676	651
887.755	279
887.774	183
887.835	173
887.880	178
887.914	193
887.985	237
887.994	276
888.073	595
888.090	648
888.153	21
888.195	-403
888.232	-156
888.300	359
888.311	317
888.391	-123
888.405	-172
888.470	-134
888.510	-184
888.549	-381
888.615	-658
888.628	-457
888.708	751
888.720	947
888.787	167
888.825	-339
888.866	116
888.930	891
888.945	898
889.024	912
889.035	912
889.103	1311
889.140	1496
889.182	964
889.245	185
889.261	234
889.340	499
889.349	528
889.419	506
889.454	487
889.498	447
889.559	405
889.577	390
889.656	324
889.664	319
889.735	937
889.768	1228
889.814	1039
889.873	783
889.978	717
890.083	195
890.187	513
890.292	406
890.397	1061
890.501	-270
890.606	1099
890.710	150
890.815	1021
890.919	-71
891.024	849
891.128	269
891.233	662
891.337	720
891.442	870
891.546	58
891.650	619
891.755	230
891.859	2419
891.963	258
892.068	970
892.172	-398
892.276	754
892.380	641
892.484	-121
892.589	516
892.693	751
892.797	680
892.901	856
893.005	-472
893.109	956
893.213	-69
893.317	-228
893.421	1061
893.525	-172
893.629	454
893.733	788
893.837	533
893.941	1512
894.045	771
894.148	796
894.252	72
894.356	377
894.460	882
894.564	173
894.667	-430
894.771	1332
894.875	-207
894.978	311
895.082	42
895.186	155
895.289	254
895.393	691
895.496	44
895.600	357
895.703	630
895.807	980
895.910	121
896.014	836
896.117	334
896.221	1027
896.324	550
896.427	370
896.531	-355
896.634	173
896.737	311
896.840	220
896.944	214
897.047	941
897.150	-7
897.253	-196
897.356	531
897.460	885
897.563	-72
897.666	306
897.769	-30
897.872	232
897.975	-56
898.078	455
898.181	-627
898.284	-69
898.387	-337
898.490	309
898.593	221
898.695	695
898.798	87
898.901	572
899.004	146
899.107	984
899.209	-70
899.312	89
899.415	-206
899.518	351
899.620	-1
899.723	863
899.826	1515
899.928	1424
900.031	-610
900.133	979
900.236	-725
900.338	178
900.441	-270
900.543	94
900.646	571
900.748	161
900.851	429
900.953	445
901.055	109
901.158	1022
901.260	-668
901.362	250
901.465	-493
901.567	398
901.669	633
901.771	870
901.873	-389
901.976	450
902.078	-381
902.180	174
902.282	-146
902.384	423
902.486	94
902.588	1447
902.690	-432
902.792	58
902.894	-152
902.996	-204
903.098	-664
903.200	271
903.302	335
903.404	348
903.505	-100
903.607	1222
903.709	90
903.811	715
903.913	-294
904.014	-394
904.116	-204
904.218	218
904.319	-366
904.421	1078
904.523	-43
904.624	-247
904.726	-1039
904.827	292
904.929	-152
905.030	-35
905.132	192
905.233	151
905.335	-923
905.436	576
905.537	104
905.639	983
905.740	-580
905.841	922
905.943	31
906.044	488
906.145	161
906.247	419
906.348	-468
906.449	735
906.550	-63
906.651	-275
906.752	-680
906.854	52
906.955	-310
907.056	112
907.157	-302
907.258	363
907.359	-275
907.460	-308
907.561	-417
907.662	-157
907.762	212
907.863	-53
907.964	61
908.065	345
908.166	-1233
908.267	263
908.367	148
908.468	-131
908.569	-259
908.670	-163
908.770	517
908.871	1016
908.971	264
909.072	218
909.173	-368
909.273	173
909.374	-281
909.474	1060
909.575	-390
909.675	335
909.776	-553
909.876	201
909.977	71
910.077	383
910.177	-205
910.278	-22
910.378	-567
910.478	321
910.579	-428
910.679	787
910.779	49
910.879	-58
910.980	-175
911.080	386
911.180	-112
911.280	198
911.380	-253
911.480	802
911.580	-382
911.680	309
911.780	394
911.880	729
911.980	-390
912.080	-600
912.180	-221
912.280	543
912.380	-693
912.480	90
912.580	-583
912.679	635
912.779	-377
912.879	399
912.979	-891
913.078	-45
913.178	-721
913.278	-368
913.377	-797
913.477	30
913.577	-432
913.676	47
913.776	-475
913.875	-329
913.975	-289
914.074	-130
914.174	-194
914.273	-493
914.373	199
914.472	18
914.572	-714
914.671	288
914.770	-741
914.870	453
914.969	-794
915.068	-767
915.167	-975
915.267	51
915.366	-515
915.465	-772
915.564	-549
915.663	14
915.763	-107
915.862	373
915.961	-78
916.060	-422
916.159	-331
916.258	-120
916.357	30
916.456	775
916.555	-466
916.654	373
916.752	-818
916.851	-808
916.950	-712
917.049	248
917.148	-925
917.247	621
917.345	15
917.444	478
917.543	-249
917.642	-732
917.740	-135
917.839	346
917.937	62
918.036	383
918.135	-509
918.233	86
918.332	-897
918.430	393
918.529	-843
918.627	-33
918.726	45
918.824	1048
918.923	-250
919.021	251
919.119	-712
919.218	-193
919.316	-858
919.414	-32
919.512	-494
919.611	586
919.709	-147
919.807	500
919.905	-612
920.003	-404
920.102	117
920.200	71
920.298	-744
920.396	91
920.494	-281
920.592	995
920.690	-644
920.788	927
920.886	-523
920.984	506
921.082	-822
921.180	737
921.277	-125
921.375	-136
921.473	-220
921.571	-519
921.669	90
921.766	349
921.864	266
921.962	989
922.060	-37
922.157	454
922.255	-8
922.352	478
922.450	155
922.548	-257
922.645	77
922.743	762
922.840	280
922.938	43
923.035	795
923.133	529
923.230	584
923.327	341
923.425	540
923.522	1631
923.619	188
923.717	1121
923.814	557
923.911	1008
924.008	-272
924.106	806
924.203	811
924.300	709
924.397	-300
924.494	1968
924.591	824
924.688	170
924.786	252
924.883	1632
924.979	48
925.077	287
925.173	80
925.270	1162
925.367	-318
925.464	1235
925.561	254
925.658	1614
925.755	348
925.852	1124
925.948	-123
926.045	1617
926.142	662
926.239	1032
926.335	24
926.432	968
926.529	545
926.625	426
926.722	276
926.818	1025
926.915	403
927.011	1171
927.108	477
927.204	844
927.301	1
927.397	877
927.494	-440
927.590	270
927.687	-265
927.783	253
927.879	-42
927.976	931
928.072	-106
928.168	622
928.264	-55
928.361	134
928.457	252
928.553	973
928.649	78
928.745	989
928.841	89
928.937	1123
929.033	36
929.129	1214
929.225	-255
929.321	550
929.417	209
929.513	987
929.609	115
929.705	-184
929.801	-39
929.897	212
929.993	-3
930.089	-29
930.184	-646
930.280	937
930.376	-29
930.471	-205
930.567	-101
930.663	677
930.758	525
930.854	-40
930.950	455
931.045	718
931.141	202
931.236	850
931.332	-207
931.427	35
931.523	-442
931.618	1151
931.714	-754
931.809	274
931.905	525
932.000	522
932.095	-262
932.191	665
932.286	129
932.381	723
932.476	205
932.572	-346
932.667	177
932.762	367
932.857	341
932.952	1316
933.047	-247
933.142	428
933.237	401
933.332	-176
933.427	-34
933.522	-222
933.617	-903
933.712	-189
933.807	-802
933.902	819
933.997	-55
934.092	-317
934.187	-203
934.282	747
934.376	42
934.471	480
934.566	-447
934.661	326
934.755	7
934.850	-117
934.945	-68
935.039	-226
935.134	-75
935.228	22
935.323	554
935.417	40
935.512	-735
935.606	-252
935.701	-528
935.795	622
935.890	-305
935.984	501
936.079	-671
936.173	718
936.267	-537
936.362	-125
936.456	-394
936.550	1078
936.644	-449
936.738	137
936.833	304
936.927	115
937.021	-665
937.115	-580
937.209	-1009
937.303	1471
937.397	251
937.491	-554
937.585	-306
937.679	205
937.773	-1011
937.867	292
937.961	-538
938.055	530
938.149	56
938.243	490
938.337	-811
938.430	-595
938.524	-455
938.618	-318
938.712	-55
938.805	388
938.899	-957
938.993	-109
939.086	-47
939.180	685
939.274	109
939.367	-19
939.461	-354
939.554	324
939.648	-480
939.741	-165
939.835	-624
939.928	-345
940.022	-344
940.115	-210
940.208	-467
940.302	461
940.395	-684
940.488	-404
940.582	24
940.675	356
940.768	-717
940.861	98
940.954	-348
941.048	199
941.141	-212
941.234	-497
941.327	847
941.420	763
941.513	156
941.606	432
941.699	454
941.792	680
941.885	-401
941.978	-60
942.071	-752
942.164	-739
942.257	-801
942.349	684
942.442	27
942.535	-336
942.628	472
942.721	487
942.813	-1636
942.906	-921
942.999	-629
943.091	-53
943.184	-625
943.277	-336
943.369	-853
943.462	368
943.554	-188
943.647	-626
943.739	-364
943.832	147
943.924	-746
944.017	465
944.109	-1005
944.201	-201
944.294	80
944.386	115
944.478	-139
944.571	836
944.663	-553
944.755	-625
944.847	-67
944.940	-722
945.032	-781
945.124	-526
945.216	-259
945.308	-186
945.400	-151
945.492	224
945.584	-817
945.676	-2
945.768	-961
945.860	188
945.952	-425
946.044	440
946.136	-1139
946.228	218
946.320	-674
946.412	677
946.503	-711
946.595	683
946.687	-1145
946.779	121
946.870	-576
946.962	324
947.054	-481
947.145	44
947.237	-340
947.329	-288
947.420	-1558
947.512	308
947.603	-334
947.695	-384
947.786	-322
947.878	-948
947.969	-160
948.061	-362
948.152	-602
948.243	-412
948.335	-1191
948.426	63
948.517	-1170
948.609	622
948.700	-1261
948.791	-639
948.882	-550
948.973	-716
949.065	-671
949.156	335
949.247	-1295
949.338	500
949.429	-1467
949.520	-143
949.611	-1493
949.702	483
949.793	-565
949.884	61
949.975	-487
950.066	-551
950.157	-1237
950.247	803
950.338	-538
950.429	-26
950.520	-377
950.611	-198
950.701	-979
950.792	-120
950.883	-703
950.973	58
951.064	-305
951.155	-934
951.245	-780
951.336	-616
951.427	-1105
951.517	319
951.608	-356
951.698	-301
951.788	-1065
951.879	-629
951.969	-607
952.060	-249
952.150	-737
952.240	537
952.331	-1596
952.421	504
952.511	-517
952.602	81
952.692	-874
952.782	-584
952.872	-1208
952.962	-536
953.052	-322
953.143	-1310
953.233	-885
953.323	-244
953.413	-1148
953.503	-340
953.593	-537
953.683	-447
953.773	-1483
953.863	-590
953.953	-1101
954.042	-91
954.132	-979
954.222	33
954.312	-748
954.402	-776
954.492	-1341
954.581	-78
954.671	-691
954.761	-914
954.850	622
954.940	-583
955.030	-1233
955.119	-305
955.209	-1234
955.298	-1269
955.388	-625
955.477	122
955.567	-1208
955.656	-334
955.746	-436
955.835	-554
955.925	-1477
956.014	-447
956.103	-982
956.193	341
956.282	-712
956.371	-870
956.461	-663
956.550	-379
956.639	-476
956.728	-394
956.817	-341
956.906	-455
956.995	-2
957.085	-482
957.174	-1478
957.263	-787
957.352	-959
957.441	-901
957.530	-626
957.619	-76
957.708	-833
957.796	-761
957.885	-376
957.974	-622
958.063	-1109
958.152	-693
958.241	-808
958.329	-761
958.418	-363
958.507	-1458
958.596	-401
958.684	-878
958.773	-453
958.861	-384
958.950	-1289
959.039	-270
959.127	-890
959.216	42
959.304	-948
959.393	-1094
959.481	-384
959.570	98
959.658	-1135
959.746	-102
959.835	-517
959.923	-150
960.011	-867
960.100	124
960.188	-595
960.276	-67
960.365	-661
960.453	-1005
960.541	-1247
960.629	-524
960.717	-838
960.805	-558
960.893	-360
960.981	-834
961.069	-327
961.158	-588
961.245	-379
961.333	-585
961.421	-1635
961.509	-691
961.597	-464
961.685	-787
961.773	-1668
961.861	-1354
961.949	-604
962.036	-650
962.124	-1010
962.212	-373
962.299	-1076
962.387	-411
962.475	-1443
962.562	-718
962.650	16
962.738	130
962.825	-679
962.913	-501
963.000	-290
963.088	-409
963.175	-828
963.263	-649
963.350	-1444
963.438	-485
963.525	-842
963.612	945
963.700	740
963.787	4829
963.874	1328
963.962	241
964.049	-771
964.136	-824
964.223	-775
964.310	140
964.398	-875
964.485	-387
964.572	-644
964.659	420
964.746	-384
964.833	-82
964.920	-1145
965.007	-681
965.094	-1062
965.181	-1236
965.268	-716
965.355	-482
965.441	-826
965.528	-1452
965.615	-8
965.702	-818
965.789	-1196
965.875	14
965.962	-1835
966.049	-577
966.136	-1433
966.222	-1286
966.309	-222
966.395	-689
966.482	-343
966.569	-302
966.655	-24
966.742	-1443
966.828	-958
966.915	-500
967.001	-1059
967.087	-766
967.174	-628
967.260	-309
967.347	-1095
967.433	441
967.519	2369
967.605	835
967.692	-1545
967.778	-911
967.864	-1002
967.950	-1028
968.036	-1472
968.123	-996
968.209	-1200
968.295	-1239
968.381	-118
968.467	-5
968.553	-914
968.639	-387
968.725	-865
968.811	321
968.897	217
968.983	-663
969.069	-1631
969.154	697
969.240	-492
969.326	-494
969.412	-1065
969.497	-727
969.583	-1721
969.669	279
969.755	-568
969.840	-890
969.926	-1226
970.012	-637
970.097	775
970.183	146
970.268	-863
970.354	412
970.439	-816
970.525	2060
970.610	-1007
970.696	210
970.781	-363
970.866	-1055
970.952	-527
971.037	-491
971.122	-530
971.208	-356
971.293	-775
971.378	-1322
971.463	-1728
971.549	-529
971.634	-188
971.719	-158
971.804	-888
971.889	-100
971.974	-1510
972.059	-423
972.144	-983
972.229	-794
972.314	-1569
972.399	-112
972.484	-1070
972.569	-81
972.654	-1132
972.739	111
972.824	-248
972.908	-511
972.993	-1486
973.078	-258
973.163	-739
973.247	-361
973.332	-2247
973.417	89
973.501	-1519
973.586	-329
973.671	-462
973.755	-409
973.840	-803
973.924	-54
974.009	-644
974.093	-107
974.178	-143
974.262	-130
974.346	-591
974.431	-685
974.515	-2023
974.600	-604
974.684	-1180
974.768	-356
974.852	-304
974.937	-1323
975.021	-313
975.105	-522
975.189	-700
975.273	407
975.358	-1765
975.442	-309
975.526	-656
975.610	-1729
975.694	-2181
975.778	-249
975.862	-1784
975.946	-1947
976.030	-480
976.114	-243
976.198	-1411
976.281	-219
976.365	-214
976.449	-910
976.533	-364
976.617	-660
976.700	-1069
976.784	596
976.868	-1326
976.951	-753
977.035	-812
977.119	-331
977.202	-944
977.286	-410
977.369	-1408
977.453	-75
977.536	-1219
977.620	-38
977.703	-346
977.787	-339
977.870	-22
977.953	590
978.037	-2359
978.120	-558
978.203	-1626
978.287	-556
978.370	-726
978.453	-1055
978.536	-1710
978.620	187
978.703	-683
978.786	323
978.869	-1167
978.952	-994
979.035	-158
979.118	-867
979.201	-2120
979.284	-232
979.367	-1390
979.450	-93
979.533	-1292
979.616	-1105
979.699	-1211
979.782	-879
979.865	-659
979.948	-653
980.030	-1097
980.113	-310
980.196	-1735
980.279	-254
980.361	-1249
980.444	-1156
980.526	-1329
980.609	-1034
980.692	-1381
980.774	-494
980.857	-1840
980.939	323
981.022	-457
981.104	-383
981.187	-1346
981.269	-18
981.352	-1247
981.434	-1480
981.516	-1285
981.599	560
981.681	-439
981.763	-41
981.846	-1335
981.928	-996
982.010	-1633
982.092	-916
982.174	32
982.256	-984
982.339	-1054
982.421	-1034
982.503	-916
982.585	-1356
982.667	-1171
982.749	-315
982.831	-824
982.913	-1232
982.995	48
983.077	-436
983.158	201
983.240	-1335
983.322	-1244
983.404	-224
983.486	-1268
983.568	-615
983.649	-1444
983.731	516
983.813	-1659
983.894	-458
983.976	-1231
984.058	-586
984.139	-25
984.221	-1625
984.302	-743
984.384	-289
984.465	-1758
984.547	-404
984.628	-1171
984.710	-250
984.791	-1270
984.872	-717
984.954	-1270
985.035	-542
985.116	-1195
985.198	-496
985.279	-610
985.360	-944
985.441	-943
985.522	-391
985.604	-1767
985.685	-2293
985.766	-444
985.847	216
985.928	-1458
986.009	-1071
986.090	-1830
986.171	-497
986.252	-1708
986.333	-748
986.414	-681
986.495	-59
986.576	-1013
986.656	-485
986.737	-1299
986.818	-465
986.899	-1011
986.980	-427
987.060	-633
987.141	-572
987.222	-924
987.302	-214
987.383	-1518
987.464	-1625
987.544	-900
987.625	-646
987.705	-1066
987.786	-1198
987.866	-1579
987.947	-582
988.027	-1558
988.108	-725
988.188	-937
988.268	-802
988.349	-1320
988.429	-323
988.509	-999
988.589	127
988.670	-2523
988.750	481
988.830	-1455
988.910	-646
988.990	-1848
989.070	-466
989.151	-765
989.231	-1062
989.311	-83
989.391	-949
989.471	-1462
989.551	-1093
989.631	-1382
989.711	103
989.791	-1493
989.870	-789
989.950	-546
990.030	-715
990.110	-758
990.190	-779
990.269	-1058
990.349	-440
990.429	-1137
990.509	9
990.588	-2259
990.668	-308
990.747	-1272
990.827	-460
990.907	-896
990.986	-1025
991.066	-608
991.145	-761
991.225	-617
991.304	-311
991.383	-1156
991.463	-532
991.542	-765
991.622	-692
991.701	-1834
991.780	-883
991.859	-902
991.939	-858
992.018	-1248
992.097	-705
992.176	-825
992.256	-302
992.335	-1606
992.414	-34
992.493	-1406
992.572	-810
992.651	-1359
992.730	-1094
992.809	-2021
992.888	-1592
992.967	-1417
993.046	-764
993.125	-1754
993.203	-914
993.282	-595
993.361	-1077
993.440	-627
993.519	-895
993.597	-747
993.676	-1473
993.755	-742
993.834	-842
993.912	-1812
993.991	-173
994.069	-1368
994.148	-1174
994.226	-1155
994.305	-639
994.384	-1394
994.462	15
994.540	-2218
994.619	-980
994.697	-1228
994.776	-816
994.854	-921
994.932	-1810
995.011	-1362
995.089	-440
995.167	-496
995.245	-921
995.324	-1675
995.402	277
995.480	-1734
995.558	-398
995.636	-1648
995.714	-468
995.792	-445
995.870	-735
995.948	-1523
996.026	-308
996.104	-2707
996.182	-805
996.260	-1090
996.338	-369
996.416	-2420
996.494	-1147
996.572	-1016
996.649	-493
996.727	-2145
996.805	-226
996.883	-2273
996.960	-1490
997.038	-1378
997.116	-746
997.193	-2844
997.271	-650
997.348	-846
997.426	-595
997.504	-1838
997.581	-282
997.658	-1018
997.736	-404
997.813	-1703
997.891	-1055
997.968	-1953
998.046	-227
998.123	-1634
998.200	-1156
998.277	-1934
998.355	20
998.432	-2989
998.509	169
998.586	-885
998.663	-834
998.741	-1395
998.818	-1046
998.895	-1969
998.972	-805
999.049	-1471
999.126	-862
999.203	-793
999.280	-1549
999.357	-2064
999.434	-1797
999.511	-1218
999.587	-584
999.664	-1628
999.741	-777
999.818	-844
999.895	-1170
999.971	-2082
1000.048	-1577
1000.125	-306
1000.202	-780
1000.278	-1440
1000.355	-272
1000.431	-1989
1000.508	-1618
1000.584	-1500
1000.661	-489
1000.738	-2268
1000.814	-1690
1000.890	-1133
1000.967	-1003
1001.043	-1527
1001.120	-2133
1001.196	-1286
1001.272	-1425
1001.349	-678
1001.425	-736
1001.501	-1379
1001.577	-1401
1001.654	-1324
1001.730	-1228
1001.806	-1483
1001.882	-1511
1001.958	-1594
1002.034	-1247
1002.110	-1234
1002.186	-1227
1002.262	-2195
1002.338	-1381
1002.414	-1317
1002.490	-385
1002.566	-2481
1002.642	-1366
1002.718	-976
1002.794	-1257
1002.870	-2076
1002.945	-737
1003.021	-890
1003.097	-1831
1003.173	-777
1003.248	-784
1003.324	-2037
1003.400	-1276
1003.475	-1977
1003.551	-1676
1003.626	-1391
1003.702	-1145
1003.777	-766
1003.853	-856
1003.928	-1891
1004.004	-930
1004.079	-969
1004.155	-483
1004.230	-1693
1004.305	-248
1004.381	-1572
1004.456	-1315
1004.531	-2197
1004.607	-1528
1004.682	-1404
1004.757	-1802
1004.832	-1097
1004.907	-453
1004.982	-889
1005.057	-764
1005.133	-1770
1005.208	-1434
1005.283	-1314
1005.358	-99
1005.433	-1761
1005.508	-608
1005.583	-1999
1005.657	-1255
1005.732	-390
1005.807	-1613
1005.882	-1482
1005.957	-236
1006.032	-1260
1006.106	-1273
1006.181	-1822
1006.256	-903
1006.331	-1708
1006.405	-1312
1006.480	-2138
1006.554	-518
1006.629	-1294
1006.704	-1990
1006.778	-1650
1006.853	-642
1006.927	-2383
1007.002	-1622
1007.076	-2018
1007.150	-1671
1007.225	-1257
1007.299	-1055
1007.373	-2009
1007.448	-1101
1007.522	-1008
1007.596	-31
1007.671	-1348
1007.745	-672
1007.819	-2679
1007.893	-720
1007.967	-1538
1008.041	-1911
1008.115	-1214
1008.190	-1615
1008.264	-1073
1008.338	-1893
1008.412	-2129
1008.486	-901
1008.560	-1754
1008.633	-2151
1008.707	-1853
1008.781	-967
1008.855	-1426
1008.929	-1288
1009.003	-1819
1009.076	-1623
1009.150	-1270
1009.224	-1073
1009.298	-1504
1009.371	-1737
1009.445	-259
1009.519	-1565
1009.592	-2313
1009.666	-827
1009.739	-1969
1009.813	-2120
1009.886	-1015
1009.960	-1040
1010.033	-901
1010.107	-991
1010.180	-2470
1010.253	-509
1010.327	-2131
1010.400	-756
1010.473	-1700
1010.547	-254
1010.620	-1845
1010.693	-540
1010.766	-2399
1010.840	-757
1010.913	-2094
1010.986	-1110
1011.059	-2319
1011.132	-1328
1011.205	-1335
1011.278	-781
1011.351	-1473
1011.424	-1006
1011.497	-1989
1011.570	-1216
1011.643	-1768
1011.716	-1361
1011.789	-1177
1011.862	-501
1011.934	-1269
1012.007	-1805
1012.080	-1910
1012.153	-612
1012.225	-1722
1012.298	-2085
1012.371	-2248
1012.443	-151
1012.516	-1905
1012.588	-1034
1012.661	-1827
1012.733	-2527
1012.806	-1690
1012.879	-861
1012.951	-1368
1013.023	-1226
1013.096	-905
1013.168	-1844
1013.241	-1523
1013.313	-1755
1013.385	-1760
1013.458	-1062
1013.530	-1629
1013.602	-2129
1013.674	-1578
1013.746	-1558
1013.819	-1060
1013.891	-436
1013.963	-2599
1014.035	-1042
1014.107	-1229
1014.179	-693
1014.251	-2169
1014.323	-863
1014.395	-2023
1014.467	-1133
1014.539	-1870
1014.611	-1279
1014.683	-1547
1014.754	-961
1014.826	-2632
1014.898	-593
1014.970	-2103
1015.042	-1520
1015.113	-2353
1015.185	-1762
1015.257	-2951
1015.328	-1004
1015.400	-1614
1015.471	-1735
1015.543	-2550
1015.615	-823
1015.686	-1998
1015.757	-1043
1015.829	-1620
1015.901	-769
1015.972	-2331
1016.043	-981
1016.115	-1396
1016.186	-1053
1016.257	-2159
1016.328	-800
1016.400	-1598
1016.471	-1787
1016.542	-1795
1016.613	-1801
1016.685	-2003
1016.756	-654
1016.827	-1898
1016.898	-1306
1016.969	-1619
1017.040	-603
1017.111	-2583
1017.182	-2084
1017.253	-1232
1017.324	-1236
1017.395	-2114
1017.466	-1294
1017.537	-2059
1017.608	-1992
1017.678	-2370
1017.749	-1433
1017.820	-1811
1017.891	-1799
1017.961	-1964
1018.032	-1641
1018.103	-1500
1018.173	-1586
1018.244	-2277
1018.315	-1236
1018.385	-1918
1018.456	-1470
1018.526	-2114
1018.597	-1070
1018.667	-2696
1018.738	-1748
1018.808	-1552
1018.878	-1688
1018.949	-2057
1019.019	-1133
1019.089	-2416
1019.160	-823
1019.230	-2485
1019.300	-1373
1019.371	-3154
1019.441	-768
1019.511	-2612
1019.581	-2097
1019.651	-2714
1019.721	-1981
1019.791	-1913
1019.861	-1689
1019.931	-2069
1020.001	-1850
1020.071	-1527
1020.141	-1663
1020.211	-2119
1020.281	-1179
1020.351	-2291
1020.421	-1671
1020.491	-1296
1020.560	-1594
1020.630	-2221
1020.700	-1887
1020.770	-2357
1020.839	-1648
1020.909	-1782
1020.979	-2470
1021.048	-1850
1021.118	-1874
1021.187	-1803
1021.257	-1500
1021.326	-1975
1021.396	-2158
1021.465	-2529
1021.535	-1698
1021.604	-2375
1021.674	-1283
1021.743	-1982
1021.812	-2331
1021.882	-2357
1021.951	-975
1022.020	-2264
1022.089	-1298
1022.159	-2267
1022.228	-1890
1022.297	-2964
1022.366	-2072
1022.435	-2744
1022.504	-1368
1022.573	-3039
1022.642	-1687
1022.711	-2868
1022.781	-1777
1022.849	-1866
1022.918	-1426
1022.987	-1398
1023.056	-1058
1023.125	-1170
1023.194	-1703
1023.263	-2307
1023.331	-965
1023.400	-2385
1023.469	-2368
1023.538	-1972
1023.606	-1768
1023.675	-2343
1023.744	-2487
1023.812	-2177
1023.881	-1042
1023.949	-2821
1024.018	-1509
1024.086	-2238
1024.155	-1612
1024.223	-2833
1024.292	-2243
1024.360	-1560
1024.429	-1767
1024.497	-2232
1024.565	-1435
1024.634	-2007
1024.702	-1710
1024.770	-2628
1024.838	-2006
1024.907	-1987
1024.975	-1444
1025.043	-1762
1025.111	-2658
1025.179	-1854
1025.247	-1714
1025.315	-1956
1025.383	-1950
1025.451	-2151
1025.519	-1709
1025.587	-2359
1025.655	-1220
1025.723	-2189
1025.791	-1296
1025.859	-1743
1025.927	-1687
1025.995	-2124
1026.062	-1338
1026.130	-2049
1026.198	-1369
1026.266	-3088
1026.333	-1538
1026.401	-1636
1026.469	-1777
1026.536	-2481
1026.604	-1616
1026.671	-2639
1026.739	-1815
1026.806	-2401
1026.874	-1457
1026.941	-2330
1027.009	-1928
1027.076	-2922
1027.144	-1098
1027.211	-2959
1027.278	-2658
1027.345	-2042
1027.413	-1381
1027.480	-2613
1027.547	-2038
1027.614	-2465
1027.682	-892
1027.749	-3085
1027.816	-1722
1027.883	-1572
1027.950	-1782
1028.017	-3094
1028.084	-1387
1028.151	-2845
1028.218	-2287
1028.285	-2306
1028.352	-1749
1028.419	-2958
1028.486	-1552
1028.553	-1566
1028.619	-2433
1028.686	-2760
1028.753	-2277
1028.820	-2627
1028.886	-2261
1028.953	-2648
1029.020	-2249
1029.086	-2599
1029.153	-1992
1029.220	-2680
1029.286	-1792
1029.353	-1819
1029.419	-2622
1029.486	-2393
1029.552	-1868
1029.619	-2164
1029.685	-2486
1029.751	-2528
1029.818	-1353
1029.884	-2128
1029.951	-1795
1030.017	-2284
1030.083	-1324
1030.149	-2413
1030.216	-1714
1030.282	-1953
1030.348	-2232
1030.414	-2462
1030.480	-2045
1030.546	-2563
1030.612	-1327
1030.678	-2642
1030.744	-1170
1030.810	-1952
1030.876	-2125
1030.942	-1910
1031.008	-2090
1031.074	-2741
1031.140	-2238
1031.206	-2411
1031.272	-2194
1031.337	-2287
1031.403	-1936
1031.469	-2702
1031.534	-2361
1031.600	-2239
1031.666	-1475
1031.731	-2608
1031.797	-912
1031.863	-2661
1031.928	-2321
1031.994	-2726
1032.059	-1824
1032.125	-2766
1032.190	-2104
1032.256	-2028
1032.321	-1800
1032.386	-2447
1032.452	-1661
1032.517	-2533
1032.582	-2081
1032.647	-2572
1032.713	-2022
1032.778	-2574
1032.843	-1990
1032.908	-3135
1032.974	-2085
1033.039	-2380
1033.104	-1446
1033.169	-2534
1033.234	-1368
1033.299	-1909
1033.364	-1538
1033.429	-2275
1033.494	-1000
1033.559	-2048
1033.624	-1637
1033.688	-2203
1033.753	-1657
1033.818	-2186
1033.883	-1668
1033.948	-2844
1034.013	-1305
1034.077	-1934
1034.142	-792
1034.207	-2090
1034.271	-849
1034.336	-806
1034.400	-1418
1034.465	-1975
1034.530	-752
1034.594	-1522
1034.658	-2085
1034.723	-2836
1034.787	-1069
1034.852	-2224
1034.916	-2092
1034.981	-2113
1035.045	-1577
1035.109	-2702
1035.173	-1802
1035.238	-2810
1035.302	-1726
1035.366	-2344
1035.430	-2254
1035.495	-2041
1035.559	-1599
1035.623	-1138
1035.687	-2524
1035.751	-3049
1035.815	-1853
1035.879	-2343
1035.943	-1223
1036.007	-2081
1036.071	-1501
1036.135	-2591
1036.198	-1906
1036.262	-2638
1036.326	-1293
1036.390	-1789
1036.454	-1456
1036.517	-2005
1036.581	-716
1036.645	-1902
1036.709	-597
1036.772	-2125
1036.836	-1029
1036.900	-2110
1036.963	-1770
1037.026	-2247
1037.090	-1952
1037.154	-2495
1037.217	-900
1037.280	-2638
1037.344	-985
1037.407	-3129
1037.471	-1963
1037.534	-2733
1037.597	-1488
1037.661	-2568
1037.724	-1407
1037.787	-2820
1037.850	-1399
1037.913	-3131
1037.977	-1496
1038.040	-2891
1038.103	-1967
1038.166	-2542
1038.229	-1168
1038.292	-1686
1038.355	-1892
1038.418	-2715
1038.481	-1321
1038.544	-1910
1038.607	-1836
1038.670	-2397
1038.732	-1889
1038.795	-2984
1038.858	-2684
1038.921	-1453
1038.984	-1986
1039.046	-2694
1039.109	-2523
1039.172	-3633
1039.234	-2302
1039.297	-2477
1039.360	-1983
1039.422	-2717
1039.485	-1705
1039.547	-2901
1039.610	-2118
1039.672	-2400
1039.734	-1821
1039.797	-1764
1039.859	-1512
1039.922	-2649
1039.984	-1316
1040.046	-2191
1040.109	-1660
1040.171	-1963
1040.233	-1766
1040.295	-2573
1040.358	-2155
1040.420	-2417
1040.482	-1683
1040.544	-2192
1040.606	-1733
1040.668	-2747
1040.730	-2021
1040.792	-2740
1040.854	-1783
1040.916	-1171
1040.978	-2482
1041.040	-1008
1041.102	-1091
1041.164	-2159
1041.225	-2697
1041.287	-2355
1041.349	-1439
1041.411	-2200
1041.472	-1990
1041.534	-2002
1041.596	-2122
1041.657	-2588
1041.719	-1609
1041.781	-3054
1041.842	-1493
1041.904	-2428
1041.965	-2199
1042.027	-2027
1042.088	-1622
1042.150	-2908
1042.211	-1009
1042.272	-1851
1042.334	-1641
1042.395	-1898
1042.456	-2017
1042.518	-2450
1042.579	-1888
1042.640	-1317
1042.701	-1901
1042.763	-2292
1042.824	-1538
1042.885	-2908
1042.946	-2139
1043.007	-2421
1043.068	-1756
1043.129	-1613
1043.190	-1550
1043.251	-2362
1043.312	-2044
1043.373	-2109
1043.434	-1509
1043.495	-2016
1043.556	-1595
1043.616	-2200
1043.677	-1310
1043.738	-2010
1043.799	-1835
1043.859	-1728
1043.920	-2067
1043.981	-2281
1044.041	-1884
1044.102	-2277
1044.162	-1986
1044.223	-2912
1044.284	-2250
1044.344	-1908
1044.405	-1545
1044.465	-2677
1044.525	-2684
1044.586	-1939
1044.646	-1650
1044.707	-2160
1044.767	-1480
1044.827	-2415
1044.887	-1101
1044.948	-1900
1045.008	-1827
1045.068	-2004
1045.128	-1390
1045.188	-2233
1045.249	-1146
1045.309	-2031
1045.369	-921
1045.429	-1623
1045.489	-1914
1045.549	-1101
1045.609	-1586
1045.669	-2891
1045.729	-1438
1045.789	-2474
1045.848	-1233
1045.908	-2405
1045.968	-696
1046.028	-2083
1046.088	-1250
1046.147	-1090
1046.207	-1556
1046.267	-1207
1046.326	-1105
1046.386	-1086
1046.446	-1483
1046.505	-837
1046.565	-207
1046.624	-1220
1046.684	-513
1046.743	-1390
1046.803	-210
1046.862	-575
1046.922	0
