'Start Wavelength	183.907
'End Wavelength	1046.922
'Gate Delay	5.000
'Gate Width (ms)	1.050
'Laser Output Level	0.000
'X Position	0.000
'Y Position	0.000
'Z Position	0.000
'Grid Point Number	1.000
'Shot Number	100.000
183.907	12.000
183.977	-799.000
184.047	363
184.116	-241
184.186	653
184.256	-236
184.325	-57
184.395	-544
184.465	964
184.534	107
184.604	-145
184.674	116
184.743	334
184.813	-351
184.883	-377
184.952	-210
185.022	-112
185.092	-214
185.161	697
185.231	-23
185.301	-234
185.370	463
185.440	386
185.509	-608
185.579	-175
185.649	-485
185.718	1495
185.788	19
185.857	-367
185.927	-177
185.996	405
186.066	-872
186.136	292
186.205	70
186.275	154
186.344	100
186.414	106
186.483	-338
186.553	932
186.622	1413
186.692	752
186.761	-821
186.831	691
186.900	-80
186.970	-38
187.039	-314
187.109	723
187.178	81
187.248	462
187.317	106
187.387	-275
187.456	96
187.526	651
187.595	293
187.664	-600
187.734	243
187.803	843
187.873	-622
187.942	45
188.012	428
188.081	37
188.150	-189
188.220	579
188.289	-255
188.358	673
188.428	212
188.497	-178
188.567	251
188.636	-106
188.705	53
188.775	-7
188.844	-365
188.913	531
188.983	242
189.052	514
189.121	8
189.191	-217
189.260	758
189.329	207
189.399	102
189.468	327
189.537	-107
189.606	-294
189.676	-18
189.745	452
189.814	432
189.883	-987
189.953	-115
190.022	-66
190.091	726
190.161	1505
190.230	345
190.299	203
190.368	-207
190.437	327
190.507	289
190.576	-344
190.645	715
190.714	812
190.783	-472
190.853	286
190.922	65
190.991	596
191.060	100
191.129	-703
191.198	641
191.268	234
191.337	254
191.406	82
191.475	-55
191.544	-215
191.613	81
191.682	141
191.752	603
191.821	-796
191.890	-224
191.959	915
192.028	-24
192.097	-260
192.166	242
192.235	78
192.304	504
192.373	348
192.442	-37
192.511	841
192.580	220
192.650	-349
192.719	43
192.788	205
192.857	739
192.926	-148
192.995	-393
193.064	602
193.133	381
193.202	1061
193.271	-786
193.340	818
193.409	141
193.478	1001
193.547	-150
193.615	403
193.684	803
193.753	153
193.822	746
193.891	279
193.960	561
194.029	556
194.098	518
194.167	817
194.236	784
194.305	-320
194.374	314
194.443	330
194.512	316
194.580	596
194.649	181
194.718	411
194.787	170
194.856	548
194.925	772
194.994	596
195.062	464
195.131	597
195.200	-200
195.269	1114
195.338	303
195.407	965
195.475	94
195.544	793
195.613	925
195.682	273
195.751	768
195.819	729
195.888	111
195.957	1251
196.026	334
196.094	1425
196.163	239
196.232	856
196.301	332
196.369	510
196.438	1003
196.507	113
196.576	180
196.644	238
196.713	250
196.782	181
196.850	1022
196.919	276
196.988	524
197.056	687
197.125	406
197.194	662
197.262	107
197.331	331
197.400	-184
197.468	54
197.537	503
197.606	55
197.674	272
197.743	1807
197.812	-277
197.880	1864
197.949	1187
198.017	894
198.086	714
198.155	480
198.223	161
198.292	1716
198.360	844
198.429	717
198.497	-591
198.566	1346
198.635	1200
198.703	1089
198.772	796
198.840	1596
198.909	1092
198.977	280
199.046	692
199.114	512
199.183	358
199.251	881
199.320	-30
199.388	527
199.457	-150
199.525	236
199.594	480
199.662	130
199.731	-245
199.799	31
199.867	156
199.936	521
200.004	307
200.073	407
200.141	-517
200.210	333
200.278	478
200.346	249
200.415	615
200.483	865
200.552	540
200.620	1181
200.688	402
200.757	130
200.825	-318
200.893	206
200.962	-599
201.030	121
201.098	427
201.167	1547
201.235	-83
201.303	284
201.372	-236
201.440	595
201.508	228
201.577	646
201.645	358
201.713	197
201.781	-225
201.850	773
201.918	538
201.986	70
202.055	-495
202.123	103
202.191	131
202.259	-45
202.327	851
202.396	323
202.464	653
202.532	454
202.600	2943
202.669	2175
202.737	540
202.805	546
202.873	703
202.941	725
203.009	-192
203.078	103
203.146	-47
203.214	712
203.282	-243
203.350	1140
203.418	-147
203.487	220
203.555	-578
203.623	786
203.691	127
203.759	-149
203.827	-562
203.895	275
203.963	510
204.031	48
204.099	1012
204.168	371
204.236	710
204.304	776
204.372	1306
204.440	-194
204.508	-502
204.576	-155
204.644	-92
204.712	365
204.780	-278
204.848	180
204.916	-167
204.984	554
205.052	-74
205.120	508
205.188	447
205.256	672
205.324	-282
205.392	589
205.460	529
205.528	255
205.596	37
205.664	702
205.732	-392
205.799	1937
205.867	3173
205.935	-679
206.003	-194
206.071	550
206.139	250
206.207	486
206.275	-459
206.343	395
206.411	-176
206.478	805
206.546	440
206.614	-274
206.682	-299
206.750	-93
206.818	118
206.885	671
206.953	-363
207.021	1072
207.089	460
207.157	562
207.225	-9
207.292	269
207.360	-207
207.428	180
207.496	73
207.563	-142
207.631	-581
207.699	93
207.767	75
207.834	-288
207.902	-138
207.970	115
208.038	447
208.105	87
208.173	20
208.241	330
208.309	1022
208.376	743
208.444	1638
208.512	1037
208.579	-361
208.647	856
208.715	571
208.782	-358
208.850	-277
208.918	-50
208.985	118
209.053	734
209.120	601
209.188	95
209.256	375
209.323	492
209.391	213
209.459	1897
209.526	453
209.594	354
209.661	331
209.729	40
209.796	145
209.864	484
209.932	-664
209.999	1118
210.067	1548
210.134	809
210.202	1030
210.269	798
210.337	1075
210.404	590
210.472	80
210.539	1042
210.607	43
210.674	924
210.742	1191
210.809	596
210.877	932
210.944	1611
211.012	187
211.079	1680
211.146	-182
211.214	826
211.281	531
211.349	1194
211.416	1020
211.484	1146
211.551	60
211.618	716
211.686	-108
211.753	-71
211.821	1002
211.888	1203
211.955	108
212.023	-310
212.090	-397
212.157	507
212.225	683
212.292	1620
212.359	2848
212.427	10137
212.494	3495
212.561	1537
212.629	689
212.696	600
212.763	1187
212.831	41
212.898	660
212.965	568
213.032	810
213.100	775
213.167	522
213.234	1562
213.301	618
213.369	1528
213.436	473
213.503	297
213.570	868
213.638	616
213.705	131
213.772	-214
213.839	1221
213.906	2399
213.973	931
214.041	428
214.108	950
214.175	-178
214.242	-26
214.309	1023
214.376	646
214.444	282
214.511	843
214.578	-254
214.645	224
214.712	599
214.779	605
214.846	591
214.913	1589
214.980	1224
215.048	1272
215.115	1828
215.182	1644
215.249	1131
215.316	747
215.383	1371
215.450	563
215.517	586
215.584	-191
215.651	478
215.718	-426
215.785	1738
215.852	-6
215.919	1291
215.986	1080
216.053	1237
216.120	-442
216.187	667
216.254	833
216.321	1708
216.388	280
216.455	1012
216.522	909
216.589	1360
216.656	2318
216.722	1968
216.789	2099
216.856	1392
216.923	92
216.990	1478
217.057	782
217.124	1224
217.191	714
217.258	2112
217.324	1764
217.391	2208
217.458	1134
217.525	1386
217.592	287
217.659	112
217.725	1576
217.792	2063
217.859	2469
217.926	-188
217.993	817
218.059	921
218.126	864
218.193	1594
218.260	71
218.327	581
218.393	298
218.460	1142
218.527	36
218.594	953
218.660	2416
218.727	3021
218.794	-8
218.860	387
218.927	-112
218.994	553
219.061	571
219.127	767
219.194	1590
219.261	721
219.327	417
219.394	1067
219.461	-136
219.527	-109
219.594	1750
219.661	1236
219.727	288
219.794	1346
219.860	-480
219.927	296
219.994	2441
220.060	3970
220.127	2146
220.193	1112
220.260	31
220.326	1374
220.393	2065
220.460	3326
220.526	1706
220.593	202
220.659	1719
220.726	1037
220.792	4958
220.859	2672
220.925	4343
220.992	6491
221.058	6717
221.125	6697
221.191	4885
221.258	1269
221.324	1030
221.391	1147
221.457	51
221.524	1347
221.590	1776
221.657	6952
221.723	2779
221.789	3589
221.856	3625
221.922	1258
221.989	1382
222.055	476
222.121	597
222.188	2052
222.254	332
222.321	-182
222.387	366
222.453	1360
222.520	-947
222.586	-197
222.652	772
222.719	233
222.785	1051
222.851	621
222.918	402
222.984	1026
223.050	797
223.116	160
223.183	1428
223.249	-8
223.315	261
223.382	1290
223.448	61
223.514	318
223.580	719
223.647	163
223.713	-522
223.779	280
223.845	436
223.911	609
223.978	-249
224.044	1002
224.110	180
224.176	235
224.242	320
224.309	-342
224.375	207
224.441	988
224.507	192
224.573	-273
224.639	584
224.705	84
224.772	215
224.838	-139
224.904	879
224.970	620
225.036	155
225.102	-63
225.168	934
225.234	764
225.300	1075
225.366	626
225.432	339
225.499	205
225.565	507
225.631	407
225.697	552
225.763	695
225.829	576
225.895	831
225.961	2586
226.027	1687
226.093	632
226.159	2387
226.225	1396
226.291	5542
226.357	9895
226.423	4562
226.489	2822
226.554	1461
226.620	1270
226.686	2652
226.752	4018
226.818	3953
226.884	13943
226.950	12393
227.016	3525
227.082	2759
227.148	2139
227.214	2117
227.279	1989
227.345	1058
227.411	1239
227.477	1578
227.543	4311
227.609	4128
227.674	2647
227.740	1829
227.806	1228
227.872	547
227.938	1534
228.003	2409
228.069	328
228.135	-1
228.201	907
228.267	506
228.332	1501
228.398	1494
228.464	1330
228.530	489
228.595	132
228.661	49
228.727	1680
228.792	2208
228.858	752
228.924	-300
228.990	3585
229.055	314
229.121	1507
229.187	313
229.252	1432
229.318	321
229.384	103
229.449	2244
229.515	-2021
229.581	-384
229.646	2456
229.712	1279
229.777	3922
229.843	3916
229.909	1798
229.974	2967
230.040	1688
230.105	1148
230.171	1265
230.236	1809
230.302	2973
230.368	2663
230.433	1175
230.499	1811
230.564	2047
230.630	615
230.695	840
230.761	1711
230.826	-990
230.892	3475
230.957	598
231.023	334
231.088	592
231.154	819
231.219	326
231.284	2391
231.350	2253
231.415	-138
231.481	1002
231.546	563
231.612	580
231.677	428
231.742	-913
231.808	1267
231.873	398
231.939	-1045
232.004	3096
232.069	2805
232.135	747
232.200	81
232.265	203
232.331	566
232.396	-123
232.461	-173
232.527	619
232.592	-184
232.657	642
232.723	2306
232.788	1382
232.853	1181
232.918	283
232.984	499
233.049	836
233.114	1957
233.179	1240
233.245	3578
233.310	4282
233.375	647
233.440	1237
233.506	480
233.571	1304
233.636	262
233.701	858
233.766	2906
233.832	3500
233.897	929
233.962	85
234.027	1846
234.092	2211
234.157	756
234.222	950
234.288	2538
234.353	8843
234.418	8380
234.483	3789
234.548	2505
234.613	1113
234.678	1647
234.743	1931
234.808	9292
234.873	5285
234.938	2719
235.004	807
235.069	910
235.134	1170
235.199	1469
235.264	894
235.329	-56
235.394	1039
235.459	2093
235.524	558
235.589	1638
235.654	248
235.719	-48
235.784	1681
235.849	1403
235.913	4871
235.978	5195
236.043	6275
236.108	2307
236.173	1272
236.238	2050
236.303	188
236.368	845
236.433	2329
236.498	5204
236.563	2411
236.627	4305
236.692	17504
236.757	13585
236.822	4780
236.887	4508
236.952	3424
237.017	894
237.081	2755
237.146	2453
237.211	5139
237.276	15874
237.341	31851
237.405	13327
237.470	4580
237.535	5101
237.600	1987
237.664	2956
237.729	935
237.794	1746
237.859	4263
237.923	4433
237.988	2204
238.053	3711
238.118	3866
238.182	11571
238.247	11193
238.312	4051
238.376	3157
238.441	1607
238.506	3157
238.570	792
238.635	2713
238.700	730
238.764	1598
238.829	5749
238.893	6152
238.958	3529
239.023	2468
239.087	1539
239.152	1324
239.216	434
239.281	1109
239.346	1527
239.410	730
239.475	1715
239.539	11327
239.604	9044
239.668	2750
239.733	1276
239.797	2484
239.862	6957
239.926	9804
239.991	3994
240.055	2140
240.120	1366
240.184	2106
240.249	957
240.313	672
240.378	1548
240.442	6521
240.507	11824
240.571	3735
240.635	4961
240.700	6836
240.764	2900
240.829	1162
240.893	913
240.957	1682
241.022	6153
241.086	12581
241.151	4920
241.215	952
241.279	2950
241.344	5778
241.408	2879
241.472	731
241.537	3035
241.601	1910
241.665	416
241.730	1122
241.794	2335
241.858	940
241.922	1703
241.987	1867
242.051	907
242.115	-526
242.179	1346
242.244	407
242.308	1522
242.372	1154
242.436	1742
242.501	1590
242.565	1083
242.629	195
242.693	1956
242.757	1114
242.822	1066
242.886	1575
242.950	1560
243.014	1251
243.078	1970
243.142	1405
243.206	1348
243.271	2048
243.335	2178
243.399	2742
243.463	10054
243.527	29969
243.591	9714
243.655	3506
243.719	1365
243.783	2374
243.847	3414
243.911	4512
243.975	7024
244.040	3845
244.104	3145
244.168	1179
244.232	3096
244.296	4365
244.360	4399
244.424	2045
244.488	2516
244.552	2035
244.615	646
244.679	1534
244.743	1774
244.807	1302
244.871	1503
244.935	1897
244.999	333
245.063	1370
245.127	2169
245.191	2896
245.255	2995
245.319	2899
245.383	1821
245.446	3257
245.510	924
245.574	1459
245.638	3124
245.702	622
245.766	6795
245.829	4237
245.893	2196
245.957	780
246.021	2132
246.085	1994
246.149	3216
246.212	8968
246.276	13560
246.340	5471
246.404	3304
246.467	3735
246.531	5471
246.595	3407
246.659	3628
246.722	2018
246.786	3764
246.850	3778
246.913	5880
246.977	2016
247.041	2676
247.104	2616
247.168	2171
247.232	6949
247.295	19055
247.359	8549
247.423	3922
247.486	6470
247.550	4367
247.614	2482
247.677	4599
247.741	2101
247.804	2079
247.868	3501
247.932	5875
247.995	17115
248.059	4562
248.122	2117
248.186	4296
248.249	5688
248.313	26821
248.376	28736
248.440	17573
248.503	5078
248.567	5368
248.630	6629
248.694	9668
248.757	12354
248.821	28912
248.884	16437
248.948	14659
249.011	21028
249.075	35156
249.138	29506
249.202	10636
249.265	5162
249.328	7973
249.392	5036
249.455	4550
249.519	3304
249.582	4034
249.645	7694
249.709	6155
249.772	3206
249.835	3974
249.899	3519
249.962	3449
250.025	2358
250.089	10005
250.152	14440
250.215	6192
250.279	3207
250.342	5044
250.405	3778
250.468	3782
250.532	4669
250.595	7555
250.658	26470
250.721	47048
250.785	16130
250.848	8887
250.911	4097
250.974	4533
251.038	7354
251.101	17772
251.164	8864
251.227	7877
251.290	6036
251.354	8704
251.417	39798
251.480	37559
251.543	21483
251.606	73407
251.669	52672
251.732	18009
251.795	20966
251.859	21482
251.922	45847
251.985	26212
252.048	10166
252.111	6946
252.174	6977
252.237	14388
252.300	33569
252.363	31510
252.426	66099
252.489	26782
252.552	13197
252.615	7672
252.678	8948
252.741	24627
252.804	27105
252.867	62334
252.930	38579
252.993	21498
253.056	12741
253.119	9205
253.182	5649
253.245	9793
253.308	8340
253.371	8103
253.434	7664
253.497	8136
253.559	16465
253.622	11665
253.685	12017
253.748	13100
253.811	5501
253.874	6874
253.937	6451
254.000	4770
254.062	11364
254.125	17953
254.188	14801
254.251	11767
254.314	4710
254.376	10302
254.439	12439
254.502	9859
254.565	11245
254.628	20993
254.690	11245
254.753	6373
254.816	4135
254.878	4637
254.941	12276
255.004	13326
255.067	5349
255.129	4928
255.192	2248
255.255	2108
255.317	3709
255.380	2336
255.443	1474
255.505	1947
255.568	1349
255.631	1764
255.693	2323
255.756	1260
255.819	2326
255.881	1366
255.944	1365
256.006	1085
256.069	908
256.132	1231
256.194	2542
256.257	10203
256.319	6367
256.382	5992
256.444	3078
256.507	2237
256.569	2034
256.632	1986
256.694	3731
256.757	9049
256.819	25810
256.882	8703
256.944	3769
257.007	3689
257.069	3422
257.132	2454
257.194	2858
257.257	1454
257.319	1339
257.381	1482
257.444	5846
257.506	30699
257.569	33785
257.631	24456
257.693	11764
257.756	4909
257.818	3839
257.880	1739
257.943	2522
258.005	1709
258.067	1650
258.130	2152
258.192	2162
258.254	7811
258.317	3764
258.379	2494
258.441	9979
258.503	10018
258.566	12821
258.628	17495
258.690	2849
258.753	3113
258.815	6358
258.877	3355
258.939	1685
259.001	1639
259.064	2099
259.126	2149
259.188	4381
259.250	2524
259.312	3301
259.375	14907
259.437	7895
259.499	2993
259.561	1227
259.623	1934
259.685	1488
259.747	2695
259.809	11150
259.872	22999
259.934	33985
259.996	29343
260.058	7451
260.120	1959
260.182	2545
260.244	2075
260.306	1582
260.368	1824
260.430	1264
260.492	4609
260.554	11660
260.616	10024
260.678	16854
260.740	25263
260.802	5191
260.864	4359
260.926	2272
260.988	3456
261.050	1985
261.112	6579
261.174	23698
261.236	19816
261.298	4826
261.359	10240
261.421	15004
261.483	4011
261.545	2614
261.607	1587
261.669	1733
261.731	6170
261.793	15515
261.854	5584
261.916	4066
261.978	2335
262.040	3079
262.102	2940
262.164	5217
262.225	4684
262.287	2519
262.349	7490
262.411	5984
262.472	2540
262.534	5796
262.596	15496
262.658	4863
262.719	1727
262.781	3448
262.843	14860
262.904	5672
262.966	2950
263.028	3616
263.090	23017
263.151	59674
263.213	19146
263.275	8802
263.336	3217
263.398	3015
263.459	1217
263.521	1236
263.583	7438
263.644	5311
263.706	2060
263.767	1220
263.829	1032
263.891	710
263.952	859
264.014	585
264.075	2190
264.137	6968
264.198	3342
264.260	395
264.321	1373
264.383	5104
264.444	12882
264.506	3228
264.567	2227
264.629	3477
264.690	8526
264.752	3751
264.813	1202
264.875	409
264.936	1526
264.998	660
265.059	535
265.120	1022
265.182	1906
265.243	10412
265.305	10668
265.366	2887
265.427	1237
265.489	649
265.550	-114
265.611	957
265.673	1604
265.734	892
265.795	1116
265.857	61
265.918	664
265.979	2051
266.040	20949
266.102	14740
266.163	5258
266.224	2949
266.286	1744
266.347	1242
266.408	1303
266.469	2048
266.530	569
266.592	837
266.653	4577
266.714	7233
266.775	2178
266.836	947
266.898	-184
266.959	2204
267.020	1164
267.081	2012
267.142	554
267.203	619
267.264	791
267.326	1877
267.387	773
267.448	156
267.509	1306
267.570	608
267.631	471
267.692	-344
267.753	675
267.814	20
267.875	3984
267.936	10600
267.997	4232
268.058	2996
268.119	1082
268.180	500
268.241	1082
268.302	214
268.363	422
268.424	508
268.485	1709
268.546	-135
268.607	-266
268.668	-97
268.729	-309
268.790	913
268.851	1702
268.912	5139
268.972	7272
269.033	2754
269.094	-24
269.155	1105
269.216	-35
269.277	637
269.338	829
269.398	824
269.459	1093
269.520	2236
269.581	3129
269.642	4270
269.702	2541
269.763	624
269.824	878
269.885	2345
269.945	3721
270.006	1940
270.067	547
270.128	843
270.188	858
270.249	204
270.310	156
270.370	1122
270.431	462
270.492	-109
270.553	248
270.613	3339
270.674	10817
270.734	3759
270.795	1707
270.856	2487
270.916	1920
270.977	849
271.038	2210
271.098	1099
271.159	4279
271.219	3834
271.280	1510
271.340	296
271.401	1075
271.462	7496
271.522	3865
271.583	1063
271.643	2682
271.704	540
271.764	1745
271.825	5949
271.885	26295
271.946	35697
272.006	9667
272.066	15291
272.127	28319
272.187	7112
272.248	3380
272.308	3170
272.369	21496
272.429	11623
272.489	7131
272.550	5964
272.610	6546
272.671	5287
272.731	4530
272.791	8740
272.852	4522
272.912	3556
272.972	2053
273.033	1353
273.093	3609
273.153	3369
273.214	2022
273.274	2454
273.334	12915
273.394	30728
273.455	11163
273.515	9631
273.575	25078
273.635	9491
273.696	12901
273.756	29633
273.816	10432
273.876	4894
273.936	13368
273.997	25000
274.057	6881
274.117	3650
274.177	5082
274.237	33830
274.297	30838
274.358	19953
274.418	23664
274.478	15762
274.538	4846
274.598	4075
274.658	19901
274.718	27370
274.778	8654
274.838	4388
274.898	10119
274.958	36388
275.018	31409
275.078	19081
275.138	6812
275.198	2749
275.258	2516
275.318	3594
275.378	6914
275.438	7124
275.498	4485
275.558	15635
275.618	36175
275.678	21567
275.738	11155
275.798	7712
275.858	3578
275.918	1421
275.978	3136
276.038	3062
276.098	1380
276.157	4895
276.217	17950
276.277	7444
276.337	5492
276.397	1838
276.457	3637
276.517	2580
276.576	1758
276.636	886
276.696	3094
276.756	11340
276.815	7876
276.875	2993
276.935	4102
276.995	2966
277.055	1835
277.114	1723
277.174	3198
277.234	15490
277.293	6237
277.353	2824
277.413	2586
277.472	2567
277.532	2505
277.592	3212
277.651	13556
277.711	28520
277.771	7234
277.830	33798
277.890	25757
277.950	16523
278.009	56827
278.069	19632
278.128	18907
278.188	27955
278.248	9753
278.307	30364
278.367	19027
278.426	4955
278.486	3187
278.545	1681
278.605	2697
278.664	1258
278.724	1355
278.783	10548
278.843	32850
278.902	8862
278.962	4638
279.021	4197
279.081	7297
279.140	5920
279.199	4916
279.259	3701
279.318	4540
279.378	6111
279.437	11259
279.496	50370
279.556	146132
279.615	117331
279.675	30707
279.734	16228
279.793	23176
279.853	42078
279.912	14691
279.971	7021
280.031	5993
280.090	14817
280.149	30141
280.208	17897
280.268	97401
280.327	101907
280.386	23898
280.445	16550
280.505	14674
280.564	6646
280.623	4765
280.682	8681
280.742	14161
280.801	4164
280.860	3684
280.919	2714
280.978	1362
281.037	3070
281.097	1900
281.156	2161
281.215	1806
281.274	2893
281.333	20792
281.392	16020
281.451	3591
281.510	2054
281.569	1207
281.628	1152
281.688	1296
281.747	1635
281.806	1388
281.865	966
281.924	1220
281.983	895
282.042	1410
282.101	915
282.160	984
282.219	963
282.278	1661
282.337	9642
282.396	6369
282.454	2423
282.513	3067
282.572	15265
282.631	7974
282.690	2260
282.749	1449
282.808	2268
282.867	2224
282.926	2407
282.985	1285
283.043	558
283.102	1355
283.161	1596
283.220	7734
283.279	19061
283.338	5031
283.396	2383
283.455	2198
283.514	1967
283.573	4933
283.631	3480
283.690	2293
283.749	1894
283.808	6120
283.866	7266
283.925	1976
283.984	2233
284.043	3399
284.101	2806
284.160	1761
284.219	3558
284.277	3450
284.336	5620
284.395	21537
284.453	19167
284.512	5525
284.570	6762
284.629	5898
284.688	5827
284.746	6738
284.805	6732
284.863	10627
284.922	12528
284.981	14083
285.039	18051
285.098	31673
285.156	85123
285.215	195811
285.273	188999
285.332	98948
285.390	49182
285.449	28739
285.507	17527
285.566	12965
285.624	9509
285.683	7600
285.741	5745
285.799	5074
285.858	4927
285.916	4690
285.975	3418
286.033	2935
286.091	2670
286.150	2251
286.208	2350
286.267	2842
286.325	3328
286.383	5748
286.442	3550
286.500	1637
286.558	1182
286.616	1502
286.675	3489
286.733	2741
286.791	1859
286.850	2428
286.908	2972
286.966	8298
287.024	3252
287.083	1284
287.141	1551
287.199	2328
287.257	3390
287.315	3405
287.374	2312
287.432	8946
287.490	3903
287.548	2795
287.606	1667
287.664	2081
287.723	3074
287.781	4920
287.839	2008
287.897	3183
287.955	2518
288.013	4330
288.071	9243
288.129	55292
288.187	180571
288.245	70004
288.303	21308
288.361	11923
288.419	8045
288.477	5167
288.535	2890
288.593	2601
288.651	1936
288.709	1317
288.767	1680
288.825	1364
288.883	999
288.941	1733
288.999	463
289.057	888
289.115	1255
289.173	1012
289.231	2244
289.289	2193
289.346	1002
289.404	1919
289.462	3483
289.520	3510
289.578	1586
289.636	637
289.694	-151
289.751	260
289.809	649
289.867	1197
289.925	1845
289.983	2252
290.040	641
290.098	835
290.156	1386
290.214	2104
290.271	337
290.329	1396
290.387	528
290.444	-214
290.502	-36
290.560	667
290.617	928
290.675	1370
290.733	452
290.790	1505
290.848	1347
290.906	1923
290.963	1295
291.021	1711
291.078	472
291.136	1405
291.194	7245
291.251	18488
291.309	4598
291.366	1931
291.424	1766
291.481	1490
291.539	1450
291.596	1255
291.654	1110
291.711	708
291.769	950
291.826	4172
291.884	2930
291.941	843
291.999	379
292.056	1246
292.114	1527
292.171	218
292.228	928
292.286	1297
292.343	4365
292.401	6713
292.458	3956
292.515	1221
292.573	2613
292.630	3207
292.687	2738
292.745	1279
292.802	1305
292.859	9312
292.917	20456
292.974	11827
293.031	3173
293.089	2049
293.146	1374
293.203	1422
293.260	327
293.318	3411
293.375	3922
293.432	1716
293.489	1298
293.546	1841
293.604	2607
293.661	12064
293.718	37111
293.775	16885
293.832	6762
293.889	5420
293.947	5905
294.004	3229
294.061	2980
294.118	8483
294.175	18233
294.232	20777
294.289	8105
294.346	3570
294.403	3247
294.460	3658
294.517	2304
294.574	1832
294.631	1582
294.688	2270
294.745	6597
294.802	40742
294.859	37651
294.916	15049
294.973	9164
295.030	6307
295.087	4304
295.144	3318
295.201	2104
295.258	2266
295.315	2674
295.372	15009
295.429	30672
295.486	11422
295.542	5296
295.599	13886
295.656	23426
295.713	18474
295.770	28322
295.827	9584
295.883	4392
295.940	4181
295.997	6925
296.054	6001
296.111	3239
296.167	2487
296.224	1576
296.281	1851
296.338	1533
296.394	1117
296.451	1729
296.508	10873
296.564	22234
296.621	12166
296.678	30470
296.734	44257
296.791	15291
296.848	7295
296.904	6038
296.961	17001
297.018	33004
297.074	24013
297.131	8334
297.187	4484
297.244	6649
297.301	33452
297.357	62052
297.414	21105
297.470	7579
297.527	4917
297.583	3288
297.640	3840
297.696	2840
297.753	1985
297.809	1443
297.866	1314
297.922	1539
297.979	1912
298.035	1239
298.092	5154
298.148	19269
298.204	17631
298.261	5969
298.317	13588
298.374	40549
298.430	22013
298.486	8898
298.543	6587
298.599	4962
298.656	5619
298.712	10797
298.768	23836
298.824	16303
298.881	5606
298.937	2537
298.993	3334
299.050	3545
299.106	2973
299.162	2798
299.218	3098
299.275	2135
299.331	1830
299.387	6753
299.443	36061
299.500	36909
299.556	13280
299.612	6570
299.668	6077
299.724	8140
299.780	8199
299.837	3845
299.893	6096
299.949	29584
300.005	33057
300.061	28392
300.117	50768
300.173	23123
300.229	9686
300.285	10155
300.341	12825
300.397	6118
300.453	3364
300.510	2962
300.566	3003
300.622	4035
300.678	15459
300.734	29595
300.790	30932
300.845	36067
300.901	22053
300.957	30170
301.013	22096
301.069	8904
301.125	5325
301.181	5815
301.237	4123
301.293	3130
301.349	2643
301.405	2338
301.461	2781
301.516	3843
301.572	4831
301.628	7296
301.684	6172
301.740	12161
301.796	19550
301.851	12617
301.907	19692
301.963	16648
302.019	33242
302.074	100166
302.130	95959
302.186	42194
302.242	17680
302.297	10557
302.353	9260
302.409	19871
302.464	17102
302.520	12833
302.576	35295
302.631	40017
302.687	21686
302.743	8704
302.798	4716
302.854	3109
302.910	2950
302.965	4830
303.021	9381
303.076	9309
303.132	11374
303.187	15412
303.243	7634
303.299	4392
303.354	3162
303.410	2762
303.465	2801
303.521	2258
303.576	2447
303.632	2799
303.687	9334
303.743	32853
303.798	26449
303.853	10151
303.909	5422
303.964	3769
304.020	6368
304.075	9981
304.130	8989
304.186	16536
304.241	19089
304.297	13929
304.352	7249
304.358	6935
304.407	4394
304.449	4373
304.463	4369
304.518	4204
304.539	3957
304.573	3565
304.629	3633
304.630	3696
304.684	6772
304.720	18020
304.739	23664
304.794	37618
304.811	31357
304.850	16423
304.902	8351
304.905	7845
304.960	4054
304.992	3576
305.015	3225
305.071	3259
305.083	3269
305.126	3285
305.173	2384
305.181	2255
305.236	1814
305.264	1697
305.292	1540
305.347	2972
305.354	3140
305.402	4198
305.445	4223
305.457	4216
305.512	5042
305.535	4965
305.567	4916
305.622	5096
305.626	5332
305.678	10821
305.716	26123
305.733	31771
305.788	35351
305.807	30436
305.843	22194
305.897	32740
305.898	32857
305.953	30742
305.988	20709
306.008	15249
306.063	8097
306.078	7490
306.118	6181
306.168	3397
306.173	3160
306.228	2909
306.259	2822
306.283	2739
306.338	2176
306.349	2210
306.393	2487
306.440	3168
306.448	3294
306.503	2744
306.530	3398
306.558	4983
306.613	12832
306.620	14001
306.668	21450
306.711	30059
306.723	31251
306.778	24617
306.801	18653
306.833	12051
306.888	5802
306.892	5585
306.943	3699
306.982	3467
306.997	3365
307.052	2790
307.072	2737
307.107	3295
307.162	4927
307.163	4961
307.217	8398
307.253	10792
307.272	11404
307.327	11805
307.343	10630
307.381	8073
307.434	6167
307.436	6337
307.491	15291
307.524	24711
307.546	27774
307.600	26713
307.614	23565
307.655	13827
307.704	6777
307.710	6446
307.765	6648
307.795	9262
307.819	11859
307.874	20542
307.885	20314
307.929	14560
307.975	8955
307.984	8685
308.038	9074
308.065	10593
308.093	18000
308.148	41860
308.156	49146
308.202	88443
308.246	106295
308.257	104261
308.312	56180
308.336	40167
308.366	30892
308.421	21024
308.426	20086
308.475	12001
308.517	8109
308.530	7364
308.585	6060
308.607	5787
308.639	5848
308.694	6594
308.697	6813
308.748	16173
308.787	25814
308.803	26036
308.857	18319
308.877	14639
308.912	11183
308.967	8869
308.967	8861
309.021	11086
309.058	14024
309.076	17673
309.130	31894
309.148	37800
309.185	68743
309.238	130731
309.239	131181
309.293	155657
309.328	139169
309.348	118557
309.402	54419
309.418	39321
309.457	25842
309.508	16247
309.511	15923
309.566	15107
309.598	16330
309.620	20060
309.674	34052
309.688	37484
309.729	35858
309.778	26934
309.783	26143
309.837	16857
309.868	12708
309.892	14963
309.946	24599
309.959	27905
310.001	37104
310.049	43947
310.055	42531
310.109	24338
310.139	14240
310.163	10984
310.218	6742
310.229	6114
310.272	4958
310.319	4054
310.326	3891
310.381	3482
310.409	3185
310.435	2989
310.489	2718
310.499	2674
310.543	2887
310.589	3427
310.598	3386
310.652	2886
310.679	2654
310.706	2684
310.760	2548
310.769	2561
310.814	1919
310.859	1263
310.868	1364
310.923	1976
310.948	2316
310.977	2781
311.031	3775
311.038	3921
311.085	3625
311.128	3042
311.139	3005
311.193	2948
311.218	2949
311.247	2739
311.301	2251
311.308	2203
311.356	2104
311.398	2036
311.410	2081
311.464	2270
311.488	2327
311.518	2114
311.572	1865
311.578	1844
311.626	2842
311.668	3689
311.680	3727
311.734	3841
311.758	3909
311.788	3983
311.842	4125
311.847	4142
311.896	5094
311.937	5950
311.950	5774
312.004	5003
312.027	4644
312.058	3885
312.112	2569
312.117	2447
312.165	2369
312.207	2324
312.297	3858
312.386	3185
312.476	3567
312.566	7036
312.656	2647
312.745	1647
312.835	2291
312.925	3121
313.015	2076
313.104	2726
313.194	1876
313.284	2185
313.374	2900
313.463	2616
313.553	1741
313.643	2073
313.732	1165
313.822	1912
313.912	2554
314.001	2688
314.091	2706
314.180	3845
314.270	4028
314.360	5148
314.449	3849
314.539	1420
314.628	1914
314.718	2352
314.808	3117
314.897	2056
314.987	1811
315.076	3133
315.166	4425
315.255	4389
315.345	4054
315.434	3604
315.524	3664
315.613	4381
315.703	5249
315.792	8765
315.881	23331
315.971	7163
316.060	8406
316.150	12931
316.239	13512
316.328	4512
316.418	2432
316.507	1902
316.597	3704
316.686	3699
316.775	6635
316.865	15634
316.954	3653
317.043	1916
317.133	1813
317.222	2082
317.311	2105
317.400	1353
317.490	3895
317.579	3731
317.668	3031
317.757	4497
317.847	14074
317.936	42624
318.025	15689
318.114	8418
318.203	5069
318.293	9236
318.382	17125
318.471	11882
318.560	17332
318.649	31987
318.738	5193
318.828	4342
318.917	4710
319.006	5355
319.095	18035
319.184	43003
319.273	21567
319.362	10286
319.451	3245
319.540	3212
319.629	8894
319.718	14200
319.807	5743
319.896	15453
319.985	52440
320.074	16232
320.163	4165
320.252	8837
320.341	6937
320.430	5371
320.519	7166
320.608	3696
320.697	3733
320.786	3658
320.875	4901
320.964	6450
321.053	9887
321.142	14153
321.230	14500
321.319	11613
321.408	26636
321.497	11047
321.586	9574
321.675	15421
321.764	12693
321.852	7099
321.941	14466
322.030	9351
322.119	10740
322.207	27825
322.296	21697
322.385	9410
322.474	11195
322.562	35059
322.651	16942
322.740	11414
322.829	18569
322.917	18897
323.006	9873
323.095	9084
323.183	5780
323.272	8970
323.361	20701
323.449	62607
323.538	18723
323.626	46153
323.715	24718
323.804	10031
323.892	41169
323.981	18850
324.069	5099
324.158	22447
324.246	19276
324.335	6162
324.424	9256
324.512	3016
324.601	5286
324.689	19709
324.778	36462
324.866	15229
324.954	3459
325.043	2613
325.131	7699
325.220	16899
325.308	18439
325.397	13125
325.485	7159
325.574	1828
325.662	2453
325.750	2696
325.839	2670
325.927	2386
326.015	3152
326.104	6154
326.192	8732
326.280	2535
326.369	2287
326.457	3516
326.545	7122
326.634	3155
326.722	2480
326.810	3007
326.898	2680
326.987	2685
327.075	6950
327.163	8206
327.251	3528
327.340	13304
327.428	19314
327.516	2779
327.604	1766
327.692	2545
327.781	2964
327.869	6539
327.957	4104
328.045	3184
328.133	2436
328.221	3445
328.309	2857
328.397	2242
328.485	3205
328.574	4706
328.662	17468
328.750	9199
328.838	3655
328.926	1665
329.014	1125
329.102	3062
329.190	9077
329.278	5342
329.366	1988
329.454	1427
329.542	1508
329.630	1187
329.718	1861
329.806	1929
329.893	2813
329.981	1540
330.069	1967
330.157	8585
330.245	29471
330.333	14284
330.421	2628
330.509	4267
330.597	20326
330.684	11140
330.772	4119
330.860	6317
330.948	7784
331.036	2961
331.123	740
331.211	1357
331.299	1756
331.387	6160
331.475	12782
331.562	4095
331.650	1516
331.738	2917
331.825	4976
331.913	991
332.001	1138
332.089	2222
332.176	6811
332.264	21089
332.352	14605
332.439	3694
332.527	3258
332.614	1230
332.702	3644
332.790	2183
332.877	8282
332.965	19436
333.052	4023
333.140	4401
333.228	11479
333.315	1696
333.403	2881
333.490	11361
333.578	9198
333.665	13091
333.753	5503
333.840	2143
333.928	3169
334.015	11356
334.103	17568
334.190	57591
334.278	12287
334.365	5775
334.452	4565
334.540	2207
334.627	3360
334.715	5749
334.802	10890
334.889	74546
334.977	76066
335.064	9219
335.151	2913
335.239	3771
335.326	4754
335.413	27128
335.501	37062
335.588	3782
335.675	2924
335.762	3583
335.850	6776
335.937	4521
336.024	15855
336.111	80526
336.199	33343
336.286	5925
336.373	2282
336.460	2120
336.547	1913
336.635	2918
336.722	2633
336.809	2174
336.896	3663
336.983	13813
337.070	37709
337.157	58137
337.245	48911
337.332	33441
337.419	3633
337.506	2208
337.593	3036
337.680	11203
337.767	37062
337.854	9095
337.941	10192
338.028	15890
338.115	4158
338.202	4388
338.289	11086
338.376	49567
338.463	13486
338.550	20558
338.637	21703
338.724	8579
338.811	15363
338.898	2866
338.984	1775
339.071	2532
339.158	3152
339.245	9780
339.332	5302
339.419	10065
339.506	9535
339.593	1374
339.679	1928
339.766	1757
339.853	3091
339.940	7502
340.027	2471
340.113	2198
340.200	3184
340.287	1897
340.374	2834
340.460	5466
340.547	1592
340.634	4331
340.720	19331
340.807	11545
340.894	1522
340.980	2335
341.067	1174
341.154	3023
341.240	3322
341.327	9115
341.414	2357
341.500	1868
341.587	2997
341.674	1784
341.760	6277
341.847	7570
341.933	2334
342.020	355
342.106	884
342.193	2594
342.279	4838
342.366	2842
342.452	6227
342.539	2669
342.625	7153
342.712	21325
342.798	8601
342.885	2972
342.971	735
343.058	1227
343.144	1049
343.230	2283
343.317	1142
343.403	1118
343.490	592
343.576	947
343.662	1181
343.749	1649
343.835	2070
343.921	5358
344.008	42874
344.094	106810
344.180	21689
344.267	6070
344.353	27403
344.439	29941
344.525	9085
344.612	3252
344.698	2898
344.784	2111
344.870	1456
344.957	1492
345.043	3779
345.129	2046
345.215	5909
345.301	2491
345.387	1491
345.474	365
345.560	163
345.646	1837
345.732	2443
345.818	2067
345.904	2027
345.990	2426
346.076	2539
346.162	5956
346.249	2401
346.335	800
346.421	1771
346.507	9631
346.593	43357
346.679	8552
346.765	1738
346.851	2116
346.937	1404
347.023	1312
347.108	2039
347.194	1670
347.280	1561
347.366	2882
347.452	11488
347.538	50670
347.624	35914
347.710	27904
347.796	4048
347.882	1969
347.967	1800
348.053	1927
348.139	1787
348.225	2045
348.311	1469
348.397	1158
348.482	1947
348.568	2487
348.654	1303
348.740	2769
348.825	1602
348.911	5044
348.997	21367
349.083	48186
349.168	6123
349.254	1471
349.340	1568
349.425	1687
349.511	2228
349.597	3036
349.682	6224
349.768	27641
349.854	12396
349.939	2105
350.025	1980
350.110	1317
350.196	1542
350.282	-571
350.367	1000
350.453	3746
350.538	3639
350.624	1520
350.709	2449
350.795	431
350.880	826
350.966	2532
351.051	2807
351.137	2742
351.222	2048
351.308	6474
351.393	22023
351.479	4956
351.564	1039
351.649	1819
351.735	792
351.820	853
351.906	1565
351.991	2499
352.076	13557
352.162	21073
352.247	3175
352.332	2482
352.418	4032
352.503	6060
352.588	29483
352.673	23770
352.759	4604
352.844	1793
352.929	1810
353.014	3038
353.100	3084
353.185	6399
353.270	7759
353.355	7206
353.441	1939
353.526	2308
353.611	6484
353.696	7552
353.781	4328
353.866	1445
353.952	2128
354.037	5514
354.122	15310
354.207	12533
354.292	4365
354.377	1433
354.462	2367
354.547	2030
354.632	2302
354.717	4432
354.802	6788
354.887	2632
354.972	911
355.057	2091
355.142	945
355.227	2618
355.312	2912
355.397	9303
355.482	23056
355.567	10495
355.652	8176
355.737	8395
355.822	29334
355.907	25074
355.991	3501
356.076	1681
356.161	1941
356.246	1225
356.331	1630
356.416	5835
356.501	51843
356.585	56603
356.670	4744
356.755	5044
356.840	5805
356.924	32889
357.009	125887
357.094	47345
357.179	7211
357.263	5592
357.348	5048
357.433	5199
357.517	5291
357.602	3291
357.687	2655
357.771	6444
357.856	16084
357.941	9807
358.025	22463
358.110	113152
358.195	54051
358.279	5680
358.364	4940
358.448	18511
358.533	56313
358.617	38699
358.702	39636
358.787	13275
358.871	6985
358.956	5560
359.040	2020
359.125	873
359.209	2037
359.294	7542
359.378	11953
359.462	5545
359.547	2146
359.631	2277
359.716	1093
359.800	1338
359.885	3797
359.969	1444
360.053	2424
360.138	1843
360.222	3778
360.306	7116
360.391	5599
360.475	8827
360.559	21047
360.644	20146
360.728	13684
360.812	27498
360.896	80561
360.981	30272
361.065	13993
361.149	3948
361.233	3336
361.318	2332
361.402	3254
361.486	3042
361.570	1846
361.654	2886
361.739	8328
361.823	47681
361.907	82256
361.991	12604
362.075	5562
362.159	12552
362.243	9930
362.327	8373
362.411	15479
362.495	7265
362.580	3785
362.664	1895
362.748	1467
362.832	2480
362.916	4099
363.000	19415
363.084	66412
363.168	95277
363.252	20078
363.336	6088
363.420	9318
363.503	35566
363.587	44328
363.671	6735
363.755	4416
363.839	6576
363.923	2777
364.007	6948
364.091	8752
364.175	12509
364.258	59559
364.342	40077
364.426	46930
364.510	27780
364.594	11014
364.677	13667
364.761	65884
364.845	51306
364.929	12238
365.013	10420
365.096	7747
365.180	10270
365.264	14173
365.347	60244
365.431	26736
365.515	5389
365.598	2360
365.682	2608
365.766	4788
365.849	5284
365.933	2936
366.017	4634
366.100	3381
366.184	793
366.267	2023
366.351	1177
366.435	1353
366.518	1203
366.602	284
366.685	1686
366.769	1507
366.852	5022
366.936	8745
367.019	5478
367.103	2279
367.186	8817
367.270	2816
367.353	884
367.436	2276
367.520	920
367.603	2809
367.687	3446
367.770	8284
367.853	5448
367.937	18479
368.020	33923
368.104	6479
368.187	5380
368.270	8704
368.353	7420
368.437	11205
368.520	30399
368.603	18676
368.687	20942
368.770	42771
368.853	9295
368.936	7999
369.020	9380
369.103	2514
369.186	873
369.269	1877
369.352	5720
369.436	8287
369.519	4970
369.602	1454
369.685	3467
369.768	2613
369.851	2531
369.934	1105
370.018	2389
370.101	5629
370.184	7273
370.267	3525
370.350	7041
370.433	10608
370.516	33541
370.599	48194
370.682	11779
370.765	19851
370.848	26557
370.931	51935
371.014	20176
371.097	2191
371.180	3096
371.263	1358
371.346	233
371.429	1344
371.511	2386
371.594	3277
371.677	7347
371.760	8120
371.843	7478
371.926	35742
372.009	91794
372.091	30388
372.174	18618
372.257	50605
372.340	20992
372.423	10241
372.505	14463
372.588	5790
372.671	15115
372.754	49558
372.836	26839
372.919	16072
373.002	33049
373.085	10078
373.167	6830
373.250	19706
373.332	48046
373.415	60134
373.498	126749
373.580	49072
373.663	59175
373.746	86855
373.828	17946
373.911	7234
373.993	7180
374.076	29957
374.159	31844
374.241	13711
374.324	39926
374.406	29646
374.489	36442
374.571	110001
374.654	47807
374.736	19261
374.819	65645
374.901	95377
374.983	100608
375.066	17151
375.148	5144
375.231	25558
375.313	52503
375.395	18360
375.478	3929
375.560	3000
375.643	4930
375.725	18829
375.807	82193
375.890	73159
375.972	29588
376.054	14753
376.136	26391
376.219	11326
376.301	22827
376.383	74591
376.465	30007
376.548	13815
376.630	18172
376.712	60558
376.794	31449
376.877	2948
376.959	2175
377.041	2890
377.123	5630
377.205	7660
377.287	1359
377.369	2135
377.452	2176
377.534	1532
377.616	1379
377.698	1579
377.780	737
377.862	1758
377.944	2468
378.026	388
378.108	1712
378.190	966
378.272	1697
378.354	966
378.436	1155
378.518	3019
378.600	13146
378.682	11850
378.764	26443
378.846	23779
378.928	5744
379.010	7963
379.091	4877
379.173	1861
379.255	1744
379.337	3067
379.419	12110
379.501	41323
379.583	17251
379.664	3415
379.746	8217
379.828	26477
379.910	37482
379.991	34852
380.073	5181
380.155	3634
380.237	2809
380.318	1308
380.400	2006
380.482	4945
380.564	8550
380.645	8839
380.727	8292
380.809	4872
380.890	2980
380.972	2485
381.053	2593
381.135	3574
381.217	9199
381.298	27537
381.380	15786
381.461	11413
381.543	56680
381.624	77446
381.706	13331
381.787	5819
381.869	6368
381.951	23384
382.032	96743
382.113	67013
382.195	11586
382.276	8850
382.358	18286
382.439	54051
382.521	61943
382.602	96726
382.684	43615
382.765	69545
382.846	76287
382.928	98460
383.009	58284
383.090	32790
383.172	129922
383.253	223210
383.334	79243
383.416	82282
383.497	45826
383.578	15143
383.659	28100
383.741	108339
383.822	306874
383.903	173691
383.984	55620
384.066	98881
384.147	63455
384.228	11857
384.309	7717
384.390	6780
384.471	4240
384.553	4898
384.634	7035
384.715	7305
384.796	3485
384.877	5925
384.958	24218
385.039	31754
385.120	10389
385.201	5340
385.282	5366
385.363	6680
385.444	4506
385.525	10645
385.606	41877
385.687	40317
385.768	8079
385.849	7983
385.930	41680
386.011	79595
386.092	21788
386.173	4453
386.254	2989
386.335	3945
386.416	4025
386.496	15743
386.577	28255
386.658	10492
386.739	4831
386.820	5221
386.901	3956
386.981	3908
387.062	2860
387.143	5915
387.224	25846
387.304	27359
387.385	9143
387.466	3499
387.547	7136
387.627	4708
387.708	10857
387.789	47200
387.869	64671
387.950	19117
388.031	2762
388.111	549
388.192	8202
388.273	11766
388.353	6684
388.434	3703
388.514	9420
388.595	48700
388.676	65834
388.756	30257
388.837	24781
388.917	16241
388.998	2244
389.078	3273
389.159	2542
389.239	1609
389.320	5313
389.400	2455
389.480	10678
389.561	29414
389.641	17005
389.722	4482
389.802	7800
389.883	12538
389.963	37093
390.043	25288
390.124	6687
390.204	9779
390.284	30214
390.365	20670
390.445	20053
390.525	41931
390.605	38267
390.686	14311
390.766	5579
390.846	3332
390.927	1531
391.007	1817
391.087	3252
391.167	2825
391.247	2085
391.328	5509
391.408	7196
391.488	5602
391.568	1416
391.648	3413
391.728	5589
391.808	4824
391.888	5859
391.969	15502
392.049	27058
392.129	11807
392.209	12832
392.289	34783
392.369	21005
392.449	13488
392.529	9382
392.609	7445
392.689	10542
392.769	32492
392.849	32498
392.929	19810
393.009	48410
393.089	41213
393.169	32823
393.248	97909
393.328	367173
393.408	425569
393.488	118751
393.568	29248
393.648	15080
393.728	9265
393.807	5768
393.887	6814
393.967	5512
394.047	4539
394.127	6018
394.206	9074
394.286	30317
394.366	143946
394.446	169060
394.525	34428
394.605	7081
394.685	7922
394.764	18348
394.844	33209
394.924	25687
395.003	6519
395.083	4810
395.163	4240
395.242	4110
395.322	4885
395.402	2085
395.481	4176
395.561	12652
395.640	37738
395.720	31551
395.799	40195
395.879	34224
395.958	12842
396.038	43132
396.117	187120
396.197	223668
396.276	57959
396.356	17441
396.435	15088
396.515	11336
396.594	13140
396.673	27477
396.753	105993
396.832	337313
396.912	278009
396.991	65397
397.070	16939
397.150	8019
397.229	6264
397.308	8383
397.388	14953
397.467	7085
397.546	3571
397.625	1488
397.705	4749
397.784	3849
397.863	1676
397.942	1694
398.022	2559
398.101	11001
398.180	36034
398.259	19265
398.338	5135
398.417	2309
398.497	2135
398.576	3223
398.655	752
398.734	2218
398.813	1466
398.892	10364
398.971	38789
399.050	21258
399.129	1964
399.208	1533
399.287	1890
399.366	279
399.445	1298
399.524	1528
399.603	494
399.682	3495
399.761	11874
399.840	41135
399.919	35382
399.998	4110
400.077	748
400.156	-501
400.235	3370
400.313	992
400.392	1319
400.471	13147
400.550	22463
400.629	5428
400.708	2987
400.786	1760
400.865	6674
400.944	7200
401.023	4780
401.102	-645
401.180	893
401.259	622
401.338	741
401.416	2753
401.495	1548
401.574	1393
401.652	537
401.731	2602
401.810	1245
401.888	601
401.967	42
402.046	1336
402.124	1846
402.203	1897
402.281	1751
402.360	2807
402.438	9288
402.517	6739
402.596	1548
402.674	1507
402.753	342
402.831	1185
402.910	2349
402.988	10944
403.066	42010
403.145	28410
403.223	12938
403.302	33462
403.380	27684
403.459	24984
403.537	10266
403.615	2774
403.694	-736
403.772	929
403.850	173
403.929	165
404.007	19
404.085	4293
404.164	5069
404.242	814
404.320	2849
404.398	5041
404.477	14713
404.555	71801
404.633	71474
404.711	10076
404.789	2715
404.868	1615
404.946	294
405.024	752
405.102	-752
405.180	-216
405.258	-1224
405.336	310
405.415	358
405.493	3725
405.571	4489
405.649	545
405.727	-560
405.805	1830
405.883	2326
405.961	1903
406.039	2066
406.117	138
406.195	2593
406.273	15910
406.351	61173
406.429	40525
406.507	4740
406.585	1265
406.663	422
406.740	1919
406.818	1541
406.896	186
406.974	1284
407.052	3806
407.130	33248
407.208	52635
407.285	10877
407.363	341
407.441	255
407.519	605
407.596	717
407.674	4389
407.752	15396
407.830	16898
407.907	7432
407.985	1094
408.063	957
408.141	20
408.218	1898
408.296	2102
408.373	1735
408.451	1367
408.529	1520
408.606	20
408.684	-331
408.762	43
408.839	-710
408.917	-1069
408.994	35
409.072	-547
409.149	402
409.227	2096
409.304	2084
409.382	1570
409.459	1301
409.537	3847
409.614	3353
409.692	928
409.769	1253
409.846	3318
409.924	5594
410.001	1985
410.079	1781
410.156	1271
410.233	598
410.311	-679
410.388	762
410.465	1381
410.543	1240
410.620	622
410.697	928
410.775	573
410.852	-231
410.929	1951
411.006	2981
411.083	560
411.161	3761
411.238	5553
411.315	1859
411.392	359
411.469	1812
411.547	2527
411.624	-614
411.701	-102
411.778	819
411.855	2907
411.932	975
412.009	458
412.086	689
412.163	1163
412.240	491
412.317	2266
412.394	1187
412.471	-63
412.548	-735
412.625	451
412.702	408
412.779	3085
412.856	1738
412.933	-1258
413.010	389
413.087	1184
413.164	10753
413.241	19214
413.318	3425
413.395	2026
413.471	3486
413.548	1371
413.625	571
413.702	429
413.779	800
413.855	-1192
413.932	-647
414.009	-1089
414.086	244
414.162	220
414.239	1733
414.316	11684
414.393	29895
414.469	10188
414.546	-161
414.623	-160
414.699	-592
414.776	784
414.853	-185
414.929	289
415.006	239
415.082	803
415.159	-252
415.236	636
415.312	469
415.389	2271
415.465	2285
415.542	2265
415.618	-220
415.695	1909
415.771	488
415.848	421
415.924	660
416.000	196
416.077	187
416.153	-915
416.230	-1243
416.306	-775
416.383	-1014
416.459	-295
416.535	-319
416.612	-591
416.688	-193
416.764	-366
416.841	-1365
416.917	-219
416.993	480
417.069	271
417.146	727
417.222	1328
417.298	717
417.374	-226
417.451	499
417.527	273
417.603	929
417.679	572
417.755	806
417.831	-469
417.908	147
417.984	-558
418.060	-1189
418.136	2774
418.212	3708
418.288	1757
418.364	486
418.440	-335
418.516	1368
418.592	2230
418.668	5136
418.744	7638
418.820	6032
418.896	1436
418.972	-332
419.048	239
419.124	3177
419.200	896
419.276	-33
419.352	-1339
419.428	-513
419.504	-66
419.579	843
419.655	554
419.731	220
419.807	5445
419.883	9252
419.959	7164
420.034	1558
420.110	4165
420.186	17027
420.262	14904
420.337	1521
420.413	144
420.489	-512
420.565	786
420.640	-114
420.716	1045
420.792	-687
420.867	1064
420.943	-12
421.019	808
421.094	1343
421.170	477
421.245	2
421.321	877
421.397	398
421.472	2942
421.548	8314
421.623	6348
421.699	2157
421.774	2483
421.850	1439
421.925	3854
422.001	3750
422.076	2939
422.152	2346
422.227	5347
422.302	7126
422.378	10011
422.453	19473
422.529	49046
422.604	140907
422.679	238031
422.755	167739
422.830	60677
422.905	23124
422.981	11486
423.056	6881
423.131	5812
423.207	3175
423.282	4184
423.357	6845
423.432	3995
423.508	4413
423.583	9321
423.658	7475
423.733	1998
423.808	2334
423.883	2607
423.959	2351
424.034	1691
424.109	1592
424.184	-228
424.259	-836
424.334	-334
424.409	-219
424.484	-14
424.559	569
424.634	1051
424.709	1230
424.784	1752
424.859	471
424.934	2195
425.009	11747
425.084	22572
425.159	9191
425.234	2324
425.309	-460
425.384	2443
425.459	5685
425.534	1926
425.609	379
425.683	401
425.758	25
425.833	-69
425.908	1777
425.983	6730
426.058	22615
426.132	11134
426.207	1655
426.282	2684
426.357	1928
426.431	571
426.506	308
426.581	73
426.655	1185
426.730	-309
426.805	56
426.879	929
426.954	-160
427.029	3294
427.103	21555
427.178	56434
427.253	28490
427.327	3070
427.402	2307
427.476	8090
427.551	3952
427.625	1431
427.700	1286
427.774	-559
427.849	253
427.923	-381
427.998	-314
428.072	38
428.147	3682
428.221	16623
428.296	52638
428.370	33689
428.444	3575
428.519	3766
428.593	7753
428.667	7462
428.742	8982
428.816	10118
428.890	31570
428.965	56139
429.039	20081
429.113	10356
429.188	3380
429.262	634
429.336	2340
429.410	9661
429.485	8478
429.559	6627
429.633	6471
429.707	2299
429.781	6147
429.855	35467
429.930	61228
430.004	33165
430.078	41342
430.152	42396
430.226	67706
430.300	78277
430.374	14554
430.448	3933
430.522	11888
430.596	40215
430.670	30859
430.744	57570
430.818	95829
430.892	23415
430.966	2432
431.040	505
431.114	-570
431.188	-79
431.262	526
431.336	-563
431.410	3066
431.484	10784
431.557	9109
431.631	708
431.705	223
431.779	9588
431.853	45027
431.927	39865
432.000	5220
432.074	219
432.148	1281
432.222	959
432.295	174
432.369	536
432.443	1702
432.516	20278
432.590	61616
432.664	27736
432.737	1785
432.811	-271
432.885	-1067
432.958	367
433.032	-27
433.106	-826
433.179	72
433.253	-444
433.326	-959
433.400	-381
433.473	-431
433.547	-1332
433.620	-328
433.694	1412
433.767	2066
433.841	165
433.914	-915
433.988	-531
434.061	-353
434.134	-510
434.208	-1006
434.281	-1316
434.355	61
434.428	131
434.501	-127
434.575	-494
434.648	336
434.721	-127
434.795	-445
434.868	-845
434.941	-1129
435.014	-821
435.088	-539
435.161	543
435.234	1797
435.307	2169
435.381	860
435.454	-25
435.527	2199
435.600	2997
435.673	1564
435.746	-13
435.819	189
435.892	-175
435.966	-861
436.039	-439
436.112	533
436.185	-417
436.258	-839
436.331	-1926
436.404	-1213
436.477	-1011
436.550	-882
436.623	-942
436.696	-740
436.769	568
436.842	282
436.915	-176
436.987	743
437.060	452
437.133	-1100
437.206	-845
437.279	-513
437.352	112
437.425	-778
437.498	-645
437.570	1520
437.643	2654
437.716	-730
437.789	-976
437.861	1886
437.934	9015
438.007	5438
438.080	-40
438.152	246
438.225	3527
438.298	29559
438.370	96466
438.443	49530
438.516	11532
438.588	1901
438.661	-732
438.734	-646
438.806	376
438.879	709
438.951	1182
439.024	5183
439.096	1914
439.169	-204
439.241	-640
439.314	-619
439.386	1552
439.459	2858
439.531	4873
439.604	3120
439.676	88
439.749	-625
439.821	-1257
439.893	55
439.966	-400
440.038	411
440.110	1531
440.183	175
440.255	100
440.327	854
440.400	12671
440.472	56391
440.544	49054
440.617	6943
440.689	4455
440.761	4830
440.833	8797
440.905	6995
440.978	146
441.050	-442
441.122	58
441.194	-710
441.266	-756
441.338	-426
441.411	2183
441.483	15989
441.555	32405
441.627	9524
441.699	3380
441.771	2923
441.843	1051
441.915	75
441.987	134
442.059	-247
442.131	556
442.203	2440
442.275	3746
442.347	4664
442.419	6010
442.491	26078
442.563	77988
442.635	47469
442.706	18803
442.778	16198
442.850	2928
442.922	1374
442.994	2489
443.066	2723
443.137	3297
443.209	1933
443.281	4033
443.353	9170
443.425	35639
443.496	130277
443.568	153297
443.640	71890
443.711	14847
443.783	4074
443.855	2455
443.926	1074
443.998	1632
444.070	2944
444.141	2286
444.213	3627
444.285	4849
444.356	4258
444.428	3749
444.499	1847
444.571	391
444.642	1023
444.714	1199
444.785	4074
444.857	5148
444.928	10511
445.000	10162
445.071	7998
445.143	12109
445.214	8885
445.285	10770
445.357	31827
445.428	90235
445.500	214793
445.571	169152
445.642	95209
445.714	38232
445.785	27897
445.856	11611
445.928	6184
445.999	6140
446.070	4502
446.141	4027
446.213	5808
446.284	4260
446.355	2777
446.426	1697
446.497	2000
446.569	3724
446.640	6780
446.711	5428
446.782	1737
446.853	2038
446.924	2848
446.995	2408
447.066	2395
447.138	3475
447.209	2948
447.280	-847
447.351	-599
447.422	288
447.493	616
447.564	2745
447.635	4353
447.706	1941
447.777	-364
447.847	-164
447.918	-598
447.989	2079
448.060	2540
448.131	8495
448.202	10197
448.273	5656
448.344	2429
448.414	342
448.485	364
448.556	-131
448.627	-429
448.698	551
448.768	-1462
448.839	-130
448.910	3186
448.981	5332
449.051	2525
449.122	296
449.193	261
449.263	-267
449.334	303
449.405	1229
449.475	4579
449.546	5747
449.616	5040
449.687	5347
449.758	988
449.828	280
449.899	508
449.969	441
450.040	-72
450.110	834
450.181	2583
450.251	-157
450.322	173
450.392	207
450.463	333
450.533	-92
450.604	-195
450.674	544
450.744	997
450.815	-358
450.885	991
450.955	370
451.026	606
451.096	674
451.166	1033
451.237	4634
451.307	16701
451.377	10888
451.447	1209
451.518	435
451.588	468
451.658	412
451.728	2586
451.799	15101
451.869	24485
451.939	6944
452.009	564
452.079	517
452.149	596
452.219	2845
452.289	18515
452.360	21875
452.430	4513
452.500	1567
452.570	2760
452.640	5809
452.710	14923
452.780	29640
452.850	21417
452.920	18153
452.990	7355
453.060	2434
453.129	3720
453.199	5891
453.269	18233
453.339	57209
453.409	96237
453.479	71772
453.549	117347
453.619	131238
453.688	72732
453.758	10455
453.828	2226
453.898	901
453.968	806
454.037	1884
454.087	1779
454.107	1732
454.168	225
454.177	-8
454.247	-533
454.249	-477
454.316	418
454.330	767
454.386	1976
454.411	4424
454.456	8377
454.492	13529
454.525	18190
454.574	11445
454.595	8532
454.655	2022
454.665	971
454.734	2216
454.736	2325
454.804	5147
454.817	7420
454.873	16497
454.898	20538
454.943	27957
454.979	19563
455.013	12030
455.060	5995
455.082	3364
455.141	3371
455.152	3302
455.221	11374
455.222	11626
455.291	28540
455.303	27439
455.360	22676
455.384	24480
455.430	26761
455.465	25200
455.499	23989
455.546	20874
455.569	19234
455.627	17202
455.638	16998
455.707	3518
455.708	3516
455.777	815
455.789	916
455.846	1586
455.869	1418
455.916	994
455.950	1098
455.985	1212
456.031	1046
456.054	890
456.112	1156
456.124	1263
456.193	1040
456.193	1025
456.262	1340
456.274	1627
456.332	3026
456.355	3190
456.401	3078
456.436	2427
456.470	1979
456.516	1399
456.540	1070
456.597	932
456.609	929
456.678	875
456.678	864
456.747	-83
456.759	-53
456.817	472
456.840	665
456.886	754
456.920	647
456.955	777
457.001	1290
457.024	1483
457.082	1683
457.093	1738
457.162	3320
457.163	3343
457.232	4766
457.243	4431
457.301	3008
457.324	2355
457.370	1321
457.405	1422
457.439	1557
457.485	1418
457.508	1403
457.566	2519
457.577	2833
457.646	3702
457.647	3730
457.715	6054
457.727	6799
457.784	11197
457.808	14045
457.853	16539
457.889	20559
457.922	23360
457.969	18607
457.991	18641
458.050	18945
458.060	18972
458.129	30010
458.130	30393
458.198	32184
458.211	29548
458.267	23301
458.292	17506
458.336	10165
458.372	8851
458.405	10123
458.453	14769
458.474	17664
458.533	29566
458.543	30033
458.611	46120
458.614	46491
458.680	39821
458.694	33083
458.749	18934
458.775	14082
458.818	6492
458.855	4937
458.887	3898
458.936	3301
458.955	2906
459.016	2155
459.024	2182
459.093	3080
459.097	3104
459.162	2781
459.177	2736
459.230	2972
459.257	3753
459.299	4593
459.338	4601
459.368	4710
459.418	4727
459.437	4376
459.499	3787
459.505	3859
459.574	2670
459.579	2672
459.643	2058
459.659	1999
459.711	2363
459.740	2652
459.780	2778
459.820	2857
459.849	3033
459.900	3488
459.917	3588
459.981	3939
459.986	3943
460.054	3808
460.061	3768
460.123	3511
460.141	3535
460.191	4186
460.222	4587
460.260	4742
460.302	5792
460.328	6058
460.382	5747
460.397	5814
460.462	4018
460.465	4084
460.534	7592
460.543	8072
460.602	16672
460.623	20022
460.671	30385
460.703	41012
460.739	35305
460.783	26242
460.808	25240
460.864	9605
460.876	7716
460.944	3441
460.945	3382
461.013	3096
461.024	3042
461.081	2939
461.104	3151
461.150	3623
461.184	3639
461.218	3314
461.264	2683
461.286	2757
461.345	2945
461.355	2849
461.423	2728
461.425	2722
461.491	3635
461.505	3870
461.559	7026
461.585	8435
461.628	11827
461.665	16228
461.696	16864
461.745	22160
461.764	22186
461.825	13386
461.832	13302
461.901	5295
461.905	5291
461.969	3299
461.985	3032
462.037	4163
462.065	4276
462.105	3937
462.145	4080
462.173	5442
462.225	8364
462.241	9199
462.305	14537
462.310	14261
462.378	10687
462.385	9525
462.446	6468
462.465	5755
462.514	4018
462.545	4112
462.582	3793
462.625	3300
462.650	3131
462.705	3109
462.718	3379
462.785	4457
462.786	4464
462.854	4712
462.865	4855
462.922	6723
462.945	7769
462.990	7118
463.025	5414
463.058	4705
463.104	3643
463.126	3326
463.184	3030
463.194	3060
463.262	3407
463.264	3428
463.330	3200
463.344	3146
463.398	4184
463.424	4527
463.466	4056
463.504	4007
463.533	4488
463.583	4855
463.601	4968
463.663	4966
463.669	5062
463.737	7031
463.743	7218
463.805	10784
463.823	11741
463.873	16732
463.903	20277
463.940	19789
463.982	20858
464.008	18755
464.062	10695
464.076	10290
464.142	4523
464.144	4404
464.211	3540
464.221	3570
464.279	3756
464.301	3837
464.347	4647
464.381	5300
464.414	5631
464.461	5997
464.482	6405
464.540	7905
464.550	7746
464.617	6216
464.620	6139
464.685	6138
464.699	6225
464.753	6411
464.779	6563
464.820	7168
464.859	7590
464.888	7156
464.938	6491
464.956	6791
465.018	8070
465.023	7943
465.091	5990
465.098	5741
465.158	5735
465.177	5858
465.226	6155
465.257	6236
465.293	6438
465.336	6661
465.361	6972
465.416	7851
465.428	8632
465.495	12886
465.496	12945
465.563	19634
465.575	20881
465.631	22986
465.654	24335
465.698	16532
465.734	8569
465.765	8058
465.813	6529
465.833	5711
465.893	4873
465.900	4906
465.968	5308
465.972	5316
466.035	4627
466.052	4498
466.102	5430
466.131	5905
466.170	5462
466.210	4958
466.237	5340
466.290	6082
466.304	6205
466.369	6755
466.372	6805
466.439	8048
466.449	8205
466.506	8119
466.528	8083
466.573	12666
466.607	16106
466.641	21952
466.687	30103
466.708	31264
466.766	34896
466.775	32321
466.842	12662
466.845	11702
466.909	9934
466.925	9660
466.977	8262
467.004	7708
467.044	8086
467.083	8462
467.111	8995
467.163	9964
467.178	10170
467.242	10982
467.245	10920
467.312	9344
467.321	9126
467.379	9532
467.400	9656
467.446	10125
467.480	10441
467.559	9166
467.638	7240
467.717	8162
467.796	9827
467.875	10972
467.955	10298
468.034	18046
468.113	33083
468.192	43378
468.271	10449
468.350	10067
468.429	12690
468.508	13119
468.588	9745
468.667	8566
468.746	7845
468.825	8104
468.904	7502
468.983	9919
469.062	13651
469.141	15105
469.220	6495
469.299	8196
469.378	7322
469.456	9803
469.535	8165
469.614	8050
469.693	8994
469.772	13275
469.851	14407
469.930	9662
470.009	8137
470.088	8810
470.166	12530
470.245	19210
470.324	19572
470.403	11146
470.482	8532
470.560	7845
470.639	7862
470.718	10510
470.797	7373
470.875	10603
470.954	12960
471.033	11851
471.111	5639
471.190	5808
471.269	5781
471.347	6436
471.426	6727
471.505	8318
471.583	7655
471.662	7830
471.740	6428
471.819	6795
471.898	6066
471.976	6867
472.055	6470
472.133	8502
472.212	9812
472.290	9933
472.369	6788
472.447	6810
472.526	5618
472.604	7159
472.683	6814
472.761	8892
472.839	6474
472.918	7538
472.996	6566
473.075	7901
473.153	7037
473.231	6035
473.310	7487
473.388	7919
473.466	6458
473.545	9516
473.623	10060
473.701	10633
473.780	6045
473.858	5690
473.936	7681
474.014	7483
474.093	8596
474.171	11098
474.249	14367
474.327	8921
474.405	5326
474.484	5948
474.562	5179
474.640	6690
474.718	6266
474.796	6533
474.874	5479
474.952	5605
475.030	4598
475.108	6498
475.187	6897
475.265	9579
475.343	13307
475.421	12893
475.499	6121
475.577	7284
475.655	9628
475.733	18576
475.811	29624
475.889	27033
475.966	13236
476.044	7639
476.122	10296
476.200	13323
476.278	7260
476.356	6780
476.434	7182
476.512	10054
476.590	12633
476.667	10113
476.745	6005
476.823	7767
476.901	5668
476.979	6745
477.056	6695
477.134	6014
477.212	6312
477.290	7295
477.367	4711
477.445	4773
477.523	4808
477.601	6683
477.678	6168
477.756	6959
477.834	7903
477.911	6353
477.989	5165
478.066	6928
478.144	7201
478.222	9648
478.299	16791
478.377	11589
478.454	5033
478.532	6238
478.609	5785
478.687	6798
478.764	5184
478.842	6468
478.919	6357
478.997	6310
479.074	5629
479.152	7145
479.229	7279
479.307	5272
479.384	4837
479.461	4567
479.539	5242
479.616	7115
479.694	5560
479.771	6735
479.848	6444
479.926	8843
480.003	9157
480.080	4946
480.157	4427
480.235	5525
480.312	4720
480.389	6617
480.467	9770
480.544	13081
480.621	5835
480.698	6860
480.775	7405
480.853	7166
480.930	5789
481.007	6547
481.084	7864
481.161	8290
481.238	6770
481.315	5314
481.392	5773
481.470	5945
481.547	4667
481.624	5525
481.701	4684
481.778	6370
481.855	6706
481.932	11388
482.009	16606
482.086	9452
482.163	7385
482.240	13591
482.317	22376
482.393	12922
482.470	6304
482.547	6663
482.624	5397
482.701	6542
482.778	4770
482.855	5515
482.932	5359
483.009	5934
483.085	6501
483.162	9221
483.239	8065
483.316	5308
483.393	6457
483.469	6261
483.546	6133
483.623	6458
483.699	4326
483.776	5846
483.853	5923
483.930	11801
484.006	26672
484.083	41039
484.160	19363
484.236	25303
484.313	17795
484.389	14528
484.466	13441
484.543	13122
484.619	13657
484.696	16398
484.772	14250
484.849	15184
484.925	11499
485.002	13031
485.078	13422
485.155	14330
485.231	10801
485.308	11199
485.384	11733
485.461	17167
485.537	26313
485.614	26613
485.690	11274
485.766	11644
485.843	12642
485.919	19341
485.995	17180
486.072	10467
486.148	9818
486.224	11169
486.301	11119
486.377	14765
486.453	13742
486.530	12381
486.606	16653
486.682	18269
486.758	22860
486.835	25907
486.911	20766
486.987	36177
487.063	38571
487.139	46586
487.215	28732
487.292	14040
487.368	12453
487.444	14875
487.520	20793
487.596	21371
487.672	43810
487.748	109769
487.824	127163
487.900	27995
487.976	15170
488.052	16545
488.128	19615
488.204	14532
488.280	12312
488.356	16953
488.432	32501
488.508	41358
488.584	13357
488.660	11315
488.736	11432
488.812	12192
488.888	16923
488.964	23749
489.039	52341
489.115	70157
489.191	30515
489.267	11610
489.343	9747
489.418	9664
489.494	9254
489.570	8195
489.646	9263
489.722	9740
489.797	10444
489.873	18418
489.949	34787
490.024	22368
490.100	8529
490.176	9616
490.251	13082
490.327	15810
490.403	8556
490.478	8707
490.554	7350
490.629	7667
490.705	7079
490.781	9232
490.856	8580
490.932	10007
491.007	9492
491.083	9245
491.158	8294
491.234	14800
491.309	26865
491.385	22732
491.460	7965
491.536	10067
491.611	7923
491.686	11424
491.762	15963
491.837	33793
491.913	52690
491.988	75889
492.063	74072
492.139	18307
492.214	11040
492.289	7727
492.365	6522
492.440	9928
492.515	8313
492.590	7574
492.666	6730
492.741	11613
492.816	14903
492.891	7534
492.967	6436
493.042	6990
493.117	6443
493.192	8326
493.267	15043
493.342	38355
493.418	39012
493.493	7534
493.568	5184
493.643	6574
493.718	8561
493.793	15117
493.868	14603
493.943	9627
494.018	7179
494.093	6650
494.168	6240
494.243	5778
494.318	4538
494.393	6382
494.468	5497
494.543	6494
494.618	6909
494.693	5773
494.768	6263
494.842	6262
494.917	5349
494.992	5784
495.067	4674
495.142	5699
495.217	5085
495.292	6250
495.366	7217
495.441	8983
495.516	12833
495.591	25106
495.665	79648
495.740	151517
495.815	36879
495.890	10085
495.964	6492
496.039	9944
496.114	7961
496.188	9710
496.263	8789
496.338	7476
496.412	8209
496.487	11097
496.561	11458
496.636	10943
496.710	7788
496.785	9176
496.860	10403
496.934	9154
497.009	8764
497.083	8844
497.158	9095
497.232	11089
497.307	12723
497.381	10876
497.455	12847
497.530	15459
497.604	10675
497.679	12865
497.753	20688
497.827	23964
497.902	20709
497.976	31519
498.050	88711
498.125	272656
498.199	194392
498.273	32680
498.348	23749
498.422	19676
498.496	18586
498.570	15230
498.645	10636
498.719	11277
498.793	15185
498.867	25183
498.941	39123
499.016	124127
499.090	254030
499.164	54990
499.238	9301
499.312	9792
499.386	11847
499.460	11771
499.534	9752
499.609	13171
499.683	17657
499.757	20573
499.831	58249
499.905	184539
499.979	119527
500.053	21476
500.127	21220
500.201	15133
500.275	10196
500.349	10751
500.422	11909
500.496	22885
500.570	47726
500.644	109580
500.718	155309
500.792	22211
500.866	10640
500.940	12840
501.013	9915
501.087	11156
501.161	20830
501.235	27842
501.309	65804
501.382	158759
501.456	97850
501.530	29084
501.603	42772
501.677	13781
501.751	6935
501.825	13016
501.898	25148
501.972	59895
502.046	25804
502.119	12165
502.193	31217
502.266	60947
502.340	24884
502.413	32075
502.487	51032
502.561	24995
502.634	8972
502.708	9032
502.781	6398
502.855	7065
502.928	4558
503.002	6023
503.075	5068
503.149	6346
503.222	6227
503.295	7301
503.369	9581
503.442	15622
503.516	52073
503.589	106210
503.662	53052
503.736	24315
503.809	51938
503.882	39297
503.956	64327
504.029	54406
504.102	64223
504.175	66623
504.249	16439
504.322	11740
504.395	7969
504.468	6441
504.542	5682
504.615	5187
504.688	4659
504.761	4550
504.834	7442
504.907	10183
504.980	13541
505.053	6889
505.127	7942
505.200	12101
505.273	8718
505.346	5610
505.419	4326
505.492	5545
505.565	3266
505.638	4616
505.711	3050
505.784	3326
505.857	3565
505.930	6661
506.003	3444
506.076	6690
506.149	6312
506.221	7274
506.294	10420
506.367	29628
506.440	78769
506.513	29694
506.586	7459
506.659	4611
506.731	4849
506.804	7208
506.877	9347
506.950	5960
507.022	5537
507.095	5677
507.168	7150
507.241	5554
507.313	3137
507.386	5468
507.459	7831
507.531	4297
507.604	4010
507.677	5021
507.749	2639
507.822	7468
507.894	11368
507.967	12046
508.040	6489
508.112	7126
508.185	5489
508.257	5472
508.330	10365
508.402	6487
508.475	4326
508.547	6841
508.620	6413
508.692	11094
508.765	5326
508.837	4087
508.909	4470
508.982	5400
509.054	5345
509.127	5324
509.199	4312
509.271	3780
509.344	2588
509.416	4790
509.488	4305
509.560	5333
509.633	4989
509.705	6676
509.777	6229
509.849	9791
509.922	3435
509.994	4570
510.066	5642
510.138	4822
510.210	10360
510.283	9416
510.355	6769
510.427	6636
510.499	7196
510.571	8288
510.643	5372
510.715	11310
510.787	6224
510.859	7071
510.931	7786
511.003	10312
511.076	7765
511.148	6051
511.219	5165
511.291	10855
511.363	9128
511.435	5166
511.507	3659
511.579	5893
511.651	5017
511.723	5107
511.795	4152
511.867	4988
511.939	7237
512.010	14736
512.082	8786
512.154	5019
512.226	5628
512.298	9972
512.369	10740
512.441	8901
512.513	9530
512.585	6600
512.656	7482
512.728	7395
512.800	4557
512.871	6650
512.943	5843
513.015	4859
513.086	5802
513.158	7623
513.230	6755
513.301	11412
513.373	12319
513.444	5241
513.516	4738
513.588	5036
513.659	7226
513.731	9372
513.802	7648
513.874	21144
513.945	27445
514.016	7271
514.088	5482
514.159	6480
514.231	10117
514.302	10745
514.374	7425
514.445	7416
514.516	17282
514.588	9590
514.659	7824
514.730	14598
514.802	11122
514.873	7106
514.944	9042
515.016	7652
515.087	7792
515.158	11663
515.229	15065
515.301	9660
515.372	9722
515.443	5684
515.514	5591
515.585	4911
515.656	5832
515.728	6425
515.799	4932
515.870	6439
515.941	6703
516.012	6525
516.083	9085
516.154	10549
516.225	14252
516.296	12174
516.367	10044
516.438	13138
516.509	18920
516.580	38632
516.651	128892
516.722	321255
516.793	78185
516.864	21036
516.935	20607
517.006	28263
517.077	48933
517.148	136089
517.219	469436
517.289	441442
517.360	94405
517.431	26609
517.502	10452
517.573	11481
517.643	11368
517.714	12724
517.785	12473
517.856	13101
517.926	16039
517.997	19152
518.068	24520
518.138	42834
518.209	91518
518.280	355337
518.350	865421
518.421	170672
518.492	22048
518.562	17394
518.633	17045
518.703	18608
518.774	41597
518.845	97765
518.915	65478
518.986	19305
519.056	17486
519.127	31186
519.197	46581
519.268	89370
519.338	39578
519.408	13815
519.479	17437
519.549	10981
519.620	9143
519.690	6419
519.760	6868
519.831	7367
519.901	6005
519.971	6326
520.042	6447
520.112	9069
520.182	9991
520.253	10420
520.323	8349
520.393	14836
520.463	18546
520.534	15872
520.604	28001
520.674	10906
520.744	14172
520.814	36730
520.885	23562
520.955	36996
521.025	97421
521.095	24849
521.165	6624
521.235	5878
521.305	5109
521.375	6404
521.445	7394
521.515	9520
521.585	12014
521.655	8498
521.725	8925
521.795	8227
521.865	3638
521.935	11651
522.005	6244
522.075	5305
522.145	6669
522.215	7196
522.285	10002
522.355	15005
522.424	25586
522.494	18406
522.564	12759
522.634	30625
522.704	68082
522.774	17153
522.843	6572
522.913	7240
522.983	8372
523.053	5731
523.122	6560
523.192	13884
523.262	42959
523.331	25557
523.401	6358
523.471	4398
523.540	5317
523.610	4193
523.680	4304
523.749	4878
523.819	7299
523.888	6134
523.958	5114
524.027	5938
524.097	5994
524.166	5669
524.236	4724
524.305	6898
524.375	4037
524.444	3248
524.514	5631
524.583	5399
524.653	5938
524.722	8090
524.791	3522
524.861	6211
524.930	4220
524.999	5405
525.069	7460
525.138	6405
525.207	6354
525.277	6099
525.346	4796
525.415	6558
525.484	5510
525.554	6679
525.623	6318
525.692	6111
525.761	6694
525.830	8848
525.900	9896
525.969	19236
526.038	31409
526.107	77582
526.176	174298
526.245	100829
526.314	42737
526.383	104557
526.452	112668
526.522	226099
526.591	139829
526.660	37555
526.729	22465
526.797	34907
526.867	85933
526.935	293372
527.004	457483
527.073	146685
527.142	12934
527.211	8157
527.280	10219
527.349	8178
527.418	3447
527.487	6744
527.555	3669
527.624	4056
527.693	2846
527.762	5544
527.831	2369
527.899	4787
527.968	3585
528.037	3288
528.106	7374
528.174	13517
528.243	9436
528.312	15486
528.380	13954
528.449	3673
528.518	4422
528.586	2146
528.655	3840
528.723	3604
528.792	2554
528.861	4322
528.929	2054
528.998	4439
529.066	2825
529.135	4011
529.203	2168
529.272	2397
529.340	3803
529.409	5357
529.477	2109
529.545	4413
529.614	7047
529.682	5400
529.751	6706
529.819	10656
529.887	4421
529.956	4189
530.024	5002
530.092	2680
530.161	6165
530.229	9014
530.297	2698
530.365	4826
530.434	3066
530.502	3517
530.570	3563
530.638	2561
530.707	3385
530.775	5330
530.843	2654
530.911	3507
530.979	2982
531.047	3982
531.115	3676
531.183	3645
531.252	4295
531.320	3829
531.388	3083
531.456	3761
531.524	1882
531.592	3881
531.660	5710
531.728	3126
531.796	2676
531.864	4091
531.932	4148
532.000	3339
532.067	4475
532.135	4901
532.203	6356
532.271	6627
532.339	12847
532.407	30216
532.475	12192
532.542	8508
532.610	10361
532.678	17901
532.746	73181
532.814	121453
532.881	20234
532.949	4752
533.017	4083
533.084	4532
533.152	3281
533.220	3398
533.287	3325
533.355	3933
533.423	3710
533.490	3699
533.558	3542
533.625	4169
533.693	3889
533.761	4644
533.828	4910
533.896	4536
533.963	11607
534.031	12941
534.098	17871
534.166	7681
534.233	3941
534.300	6634
534.368	5369
534.435	5039
534.503	4678
534.570	7492
534.637	5173
534.705	7411
534.772	11277
534.840	24270
534.907	92572
534.974	70146
535.041	7829
535.109	6391
535.176	3598
535.243	5814
535.310	4479
535.378	4159
535.445	3563
535.512	5041
535.579	4227
535.646	3550
535.714	4576
535.781	6223
535.848	5350
535.915	6024
535.982	3562
536.049	4885
536.116	6024
536.183	5023
536.250	4197
536.317	5379
536.384	6573
536.451	10879
536.518	8739
536.585	5977
536.652	9842
536.719	14019
536.786	7988
536.853	8259
536.920	13073
536.987	20180
537.053	22242
537.120	76629
537.187	41485
537.254	6308
537.321	4878
537.388	6550
537.454	3109
537.521	4127
537.588	4360
537.654	6743
537.721	6310
537.788	6301
537.855	4374
537.921	4990
537.988	4832
538.055	6474
538.121	5111
538.188	7182
538.254	10367
538.321	20087
538.388	10158
538.454	6146
538.521	5367
538.587	6162
538.654	3181
538.720	4656
538.787	4725
538.853	5699
538.920	6471
538.986	6837
539.053	5308
539.119	6414
539.185	6069
539.252	9499
539.318	10117
539.385	8976
539.451	5775
539.517	8844
539.583	10445
539.650	26360
539.716	45223
539.782	10676
539.849	5536
539.915	7257
539.981	5412
540.047	8004
540.114	6209
540.180	7723
540.246	5609
540.312	10702
540.378	20809
540.444	18678
540.510	26703
540.576	52915
540.643	11984
540.709	5319
540.775	5193
540.841	6541
540.907	9496
540.973	14427
541.039	10265
541.105	11465
541.171	6051
541.237	5387
541.303	6620
541.369	9018
541.435	10466
541.500	17820
541.566	8206
541.632	5363
541.698	4533
541.764	6097
541.830	4420
541.896	4707
541.961	5887
542.027	6472
542.093	5174
542.159	6506
542.224	6938
542.290	11125
542.356	17599
542.421	18144
542.487	8144
542.553	5979
542.618	6850
542.684	5910
542.750	6379
542.815	10631
542.881	16751
542.947	53488
543.012	25504
543.078	6675
543.143	4775
543.209	7469
543.274	6533
543.340	8912
543.405	22584
543.471	24774
543.536	6045
543.602	6177
543.667	4730
543.732	6353
543.798	4365
543.863	5890
543.928	4669
543.994	3970
544.059	6328
544.124	5798
544.190	4074
544.255	6237
544.320	6399
544.386	5983
544.451	9549
544.516	10710
544.581	13281
544.646	36549
544.712	38116
544.777	8991
544.842	6689
544.907	8163
544.972	6055
545.037	7439
545.102	8624
545.168	8400
545.233	8314
545.298	9834
545.363	9322
545.428	11129
545.493	23524
545.558	38525
545.623	12316
545.688	8001
545.753	7939
545.818	8173
545.883	8660
545.947	7557
546.012	9608
546.077	9962
546.142	9442
546.207	9066
546.272	12506
546.337	11831
546.401	9888
546.466	10100
546.531	8147
546.596	12181
546.661	10969
546.725	11056
546.790	9670
546.855	11155
546.919	10634
546.984	14025
547.049	13785
547.113	17509
547.178	15658
547.243	20239
547.307	22463
547.372	24696
547.436	24255
547.501	24038
547.565	24803
547.630	25848
547.695	23544
547.759	26829
547.823	23500
547.888	23246
547.952	21884
548.017	26047
548.081	26387
548.146	29221
548.210	26617
548.274	26760
548.339	25004
548.403	24161
548.468	21452
548.532	22261
548.596	22081
548.660	23056
548.725	27194
548.789	29086
548.853	28672
548.917	25769
548.982	27291
549.046	25661
549.110	18764
549.174	21934
549.238	22950
549.303	25540
549.367	26893
549.431	24743
549.495	23315
549.559	24313
549.623	29170
549.687	32229
549.751	34361
549.815	36186
549.879	34986
549.943	33093
550.007	35624
550.071	34676
550.135	33677
550.199	30817
550.263	28488
550.327	30655
550.391	32371
550.455	32459
550.519	33073
550.582	38527
550.646	43367
550.710	43006
550.774	37095
550.838	39943
550.901	40911
550.965	44092
551.029	44597
551.093	50838
551.156	58720
551.220	80076
551.284	82667
551.347	55290
551.411	64722
551.475	58998
551.538	43582
551.602	39501
551.666	36446
551.729	33580
551.793	34468
551.856	34099
551.920	32454
551.983	34500
552.047	32152
552.110	33445
552.174	32258
552.237	34044
552.301	30841
552.364	31315
552.428	29370
552.491	31127
552.554	31284
552.618	32163
552.681	34431
552.745	34514
552.808	46974
552.871	50535
552.934	36336
552.998	32715
553.061	30992
553.124	29700
553.187	29075
553.251	31869
553.314	31206
553.377	32232
553.440	36605
553.503	49335
553.567	50714
553.630	33082
553.693	31996
553.756	33239
553.819	30628
553.882	31092
553.945	31735
554.008	29945
554.071	30670
554.134	31024
554.197	28621
554.260	27852
554.323	30592
554.386	31231
554.449	30345
554.512	31192
554.575	29020
554.638	29721
554.701	28632
554.764	28425
554.827	27342
554.889	25913
554.952	24718
555.015	24141
555.078	24925
555.141	25989
555.203	25298
555.266	26390
555.329	24534
555.391	24323
555.454	23974
555.517	24063
555.580	21980
555.642	21638
555.705	20962
555.768	22336
555.830	20867
555.893	18652
555.955	19181
556.018	20458
556.080	18328
556.143	20679
556.206	20123
556.268	21615
556.330	20171
556.393	20275
556.455	19324
556.518	23343
556.580	20031
556.643	17821
556.705	16529
556.767	16509
556.830	17532
556.892	18721
556.955	22639
557.017	18604
557.079	16081
557.142	16724
557.204	18915
557.266	28922
557.328	20395
557.391	14041
557.453	12782
557.515	15678
557.577	15961
557.639	16463
557.701	13132
557.764	13702
557.826	13907
557.888	16462
557.950	16908
558.012	20925
558.074	30618
558.136	68492
558.198	114699
558.260	29332
558.322	15694
558.384	18532
558.446	20200
558.508	23547
558.570	32069
558.632	53527
558.694	75855
558.756	113470
558.818	318104
558.880	511341
558.942	121500
559.003	121909
559.065	41618
559.127	24401
559.189	26512
559.251	38462
559.312	63438
559.374	156900
559.436	369472
559.498	104986
559.559	23762
559.621	27738
559.683	40824
559.744	73889
559.806	210656
559.868	203331
559.929	33853
559.991	31699
560.052	57580
560.114	128733
560.176	62273
560.237	86534
560.299	93818
560.360	17601
560.422	10869
560.483	11627
560.545	9903
560.606	10410
560.667	9239
560.729	9526
560.790	8710
560.852	9694
560.913	8990
560.974	9554
561.036	8340
561.097	10601
561.158	8690
561.220	10367
561.281	9296
561.342	10717
561.403	13603
561.465	16872
561.526	36472
561.587	34562
561.648	9555
561.709	9024
561.771	8549
561.832	9075
561.893	8656
561.954	8993
562.015	8114
562.076	8913
562.137	8068
562.198	8677
562.259	8974
562.320	10310
562.381	10146
562.442	14649
562.503	9852
562.564	9617
562.625	8571
562.686	8881
562.747	9472
562.808	8444
562.869	8829
562.930	11465
562.991	8135
563.051	9164
563.112	8925
563.173	8414
563.234	7066
563.294	8874
563.355	8383
563.416	8947
563.477	8289
563.537	8645
563.598	8677
563.659	9902
563.720	8063
563.780	9261
563.841	8848
563.901	8807
563.962	7672
564.023	9065
564.083	8875
564.144	9199
564.204	9250
564.265	9801
564.325	11623
564.386	21793
564.446	14744
564.507	9017
564.567	8254
564.628	9145
564.688	8177
564.749	8757
564.809	11085
564.869	10800
564.930	8834
564.990	9123
565.050	8470
565.111	8814
565.171	7946
565.231	9094
565.292	8207
565.352	7701
565.412	8582
565.472	9297
565.532	9171
565.593	8336
565.653	7822
565.713	9703
565.773	9815
565.833	12062
565.893	13223
565.953	8917
566.013	9576
566.074	9871
566.134	13660
566.194	20431
566.254	17295
566.314	12388
566.374	7986
566.434	10016
566.494	8971
566.554	8920
566.614	9513
566.673	9223
566.733	10890
566.793	11638
566.853	10250
566.913	10370
566.973	10999
567.033	12472
567.092	10463
567.152	11714
567.212	11678
567.272	11700
567.331	11554
567.391	12096
567.451	13285
567.511	17851
567.570	16028
567.630	11068
567.690	10405
567.749	10805
567.809	10939
567.868	12916
567.928	13613
567.988	15720
568.047	16034
568.107	20187
568.166	26051
568.226	39456
568.285	46307
568.345	33878
568.404	26527
568.464	25419
568.523	24532
568.582	25633
568.642	30720
568.701	38672
568.761	56895
568.820	84211
568.879	66106
568.939	47891
568.998	33612
569.057	26885
569.116	21349
569.176	19543
569.235	16424
569.294	15517
569.353	13704
569.413	14286
569.472	12591
569.531	12380
569.590	11068
569.649	11299
569.708	10775
569.767	12894
569.827	14066
569.886	12134
569.945	9699
570.004	10966
570.063	9870
570.122	11845
570.181	10782
570.240	12006
570.299	12479
570.358	12675
570.417	8670
570.475	9639
570.534	10209
570.593	11156
570.652	10667
570.711	10944
570.770	10164
570.829	11268
570.887	10310
570.946	11898
571.005	9091
571.064	9852
571.122	11223
571.181	12505
571.240	9351
571.299	8988
571.357	10134
571.416	11120
571.475	11098
571.533	11564
571.592	9338
571.650	10901
571.709	8854
571.768	10522
571.826	8940
571.885	9096
571.943	7790
572.002	8833
572.060	9112
572.119	8161
572.177	7520
572.236	8994
572.294	6891
572.352	9428
572.411	8521
572.469	8102
572.528	8289
572.586	9167
572.644	10711
572.703	13657
572.761	9556
572.819	8008
572.877	7498
572.936	7941
572.994	6862
573.052	7816
573.110	8355
573.169	9548
573.227	6702
573.285	7435
573.343	8076
573.401	7949
573.459	6889
573.517	7596
573.576	7962
573.634	8630
573.692	8111
573.750	8501
573.808	7117
573.866	9806
573.924	10961
573.982	10550
574.040	7825
574.098	9227
574.155	7175
574.213	7767
574.271	7318
574.329	8318
574.387	7024
574.445	6602
574.503	6062
574.560	7000
574.618	7766
574.676	6753
574.734	5794
574.792	6874
574.849	7261
574.907	6963
574.965	6819
575.022	6507
575.080	6905
575.138	7455
575.195	6376
575.253	8367
575.311	8539
575.368	7798
575.426	6417
575.483	7686
575.541	7531
575.598	7641
575.656	7065
575.713	7786
575.771	7456
575.828	7480
575.886	6830
575.943	8129
576.001	7168
576.058	7596
576.115	8798
576.173	10275
576.230	11575
576.287	13016
576.345	9824
576.402	8306
576.459	8657
576.517	8902
576.574	10040
576.631	10572
576.688	8406
576.746	8023
576.803	7267
576.860	8102
576.917	7759
576.974	8789
577.031	6961
577.089	8075
577.146	6764
577.203	9169
577.260	9260
577.317	10242
577.374	10907
577.431	9551
577.488	8603
577.545	7826
577.602	7841
577.659	9267
577.716	7517
577.773	7664
577.830	6416
577.886	7403
577.943	6812
578.000	7513
578.057	8143
578.114	7940
578.171	7726
578.227	8886
578.284	7095
578.341	8766
578.398	8495
578.454	9590
578.511	11071
578.568	12144
578.625	9500
578.681	8121
578.738	7901
578.794	8179
578.851	6852
578.908	8590
578.964	7979
579.021	8739
579.077	8437
579.134	7418
579.190	6632
579.247	7949
579.303	7210
579.360	7982
579.416	7475
579.473	7567
579.529	6665
579.586	8062
579.642	7619
579.698	8203
579.755	8369
579.811	7765
579.867	7582
579.924	7872
579.980	6493
580.036	9421
580.093	8195
580.149	9299
580.205	9356
580.261	8993
580.317	9287
580.374	10443
580.430	11141
580.486	10334
580.542	9156
580.598	9088
580.619	8842
580.654	8429
580.692	8904
580.710	9151
580.765	8313
580.767	8295
580.823	9103
580.838	9148
580.879	9271
580.911	8763
580.935	8410
580.984	7554
580.991	7443
581.047	8546
581.057	8691
581.103	9391
581.130	9130
581.159	8862
581.203	8671
581.215	8627
581.270	9722
581.276	9614
581.326	8619
581.349	8802
581.382	9135
581.422	9613
581.438	9780
581.494	9309
581.494	9289
581.550	7752
581.567	8532
581.606	10142
581.640	9922
581.661	9833
581.713	10141
581.717	10167
581.773	8469
581.786	8553
581.829	8912
581.859	8846
581.885	8738
581.932	8737
581.940	8777
581.996	9415
582.004	9367
582.052	8878
582.077	8516
582.107	8215
582.150	8729
582.163	8849
582.219	8974
582.223	9018
582.274	9703
582.296	9697
582.330	9684
582.368	10253
582.386	10523
582.441	8789
582.441	8787
582.497	8945
582.514	8973
582.552	9311
582.587	9109
582.608	8825
582.659	8978
582.663	9016
582.719	9093
582.732	9256
582.774	9592
582.805	9839
582.830	10142
582.877	9345
582.885	9194
582.941	9632
582.950	9493
582.996	8823
583.023	9515
583.052	10374
583.095	10055
583.107	9956
583.162	10753
583.168	10732
583.218	10313
583.240	10141
583.273	10032
583.313	9661
583.328	9509
583.384	10002
583.385	9975
583.439	9031
583.458	9085
583.494	9157
583.531	9241
583.549	9493
583.603	9538
583.605	9520
583.660	9131
583.676	9340
583.715	10141
583.748	10231
583.770	10150
583.820	10570
583.825	10649
583.881	9804
583.893	9997
583.936	10246
583.965	9512
583.991	9062
584.038	10203
584.046	10371
584.101	9374
584.110	9487
584.156	10221
584.183	10210
584.211	9997
584.255	9990
584.266	10088
584.321	10242
584.328	10348
584.376	10974
584.400	10658
584.431	10292
584.472	10852
584.486	10974
584.541	10629
584.545	10627
584.596	10798
584.617	10834
584.651	11176
584.689	12185
584.706	12408
584.761	11769
584.762	11767
584.816	11985
584.834	11960
584.871	11795
584.906	12483
584.926	12820
584.978	12013
584.980	12000
585.035	13844
585.051	14027
585.090	14364
585.123	14993
585.145	15506
585.195	15943
585.200	15984
585.254	17647
585.267	18165
585.309	20559
585.340	23146
585.364	24574
585.412	26059
585.419	26363
585.473	32113
585.484	33873
585.528	42615
585.556	51024
585.583	64794
585.628	94490
585.637	105174
585.692	211629
585.700	225997
585.747	277126
585.772	229995
585.801	134950
585.845	48509
585.856	38764
585.910	23884
585.917	22536
585.965	19849
585.989	19042
586.019	18345
586.061	17482
586.074	17429
586.128	17480
586.133	17533
586.183	18269
586.205	18549
586.237	18759
586.277	18427
586.292	18349
586.346	18631
586.349	18684
586.401	19401
586.421	19433
586.455	20028
586.493	21540
586.509	23012
586.564	29719
586.565	30010
586.618	44951
586.637	44464
586.672	35464
586.709	26617
586.727	23927
586.781	23292
586.781	23294
586.835	19805
586.853	19449
586.889	19540
586.925	19120
586.944	18994
586.996	19556
586.998	19583
587.052	20113
587.068	20330
587.106	20950
587.140	21157
587.161	21212
587.212	21798
587.215	21833
587.269	22161
587.284	22365
587.323	23157
587.356	23164
587.377	23014
587.427	24627
587.431	24807
587.485	25466
587.499	25880
587.539	26341
587.571	26433
587.593	27159
587.643	29189
587.648	29291
587.702	30178
587.715	30530
587.755	32390
587.786	33252
587.810	33536
587.858	34828
587.864	35116
587.917	37721
587.930	38493
587.971	41795
588.001	44110
588.025	45472
588.073	47819
588.079	48248
588.133	52555
588.145	53727
588.187	59858
588.217	64008
588.241	67182
588.288	74835
588.295	76263
588.348	88480
588.360	91329
588.402	102642
588.431	111029
588.456	119411
588.503	139508
588.510	142721
588.564	171131
588.575	178290
588.617	213721
588.646	241695
588.671	274747
588.718	349095
588.725	367768
588.778	528867
588.789	566454
588.832	815776
588.861	1001735
588.886	1177343
588.932	1470243
588.939	1472776
588.993	1381050
589.004	1365720
589.047	1231323
589.075	1087440
589.100	885779
589.147	543142
589.154	520169
589.207	377056
589.218	351727
589.261	324860
589.290	314077
589.314	328733
589.361	366961
589.368	383454
589.421	537695
589.433	575384
589.475	852423
589.504	1059226
589.528	1180853
589.576	1336289
589.582	1313610
589.635	1052722
589.647	984416
589.689	633017
589.718	409015
589.742	332821
589.790	202879
589.795	196946
589.849	149543
589.861	139640
589.902	124577
589.932	112215
589.955	101994
590.004	81262
590.009	80031
590.062	68487
590.075	65707
590.115	60886
590.146	57424
590.168	55875
590.218	52401
590.222	52152
590.275	48562
590.289	47667
590.328	46388
590.360	45065
590.381	43598
590.431	40319
590.435	40296
590.488	39705
590.503	39458
590.541	38221
590.574	37183
590.594	36788
590.645	35754
590.647	35729
590.700	34196
590.716	33750
590.753	33408
590.787	32834
590.806	32458
590.859	31972
590.859	31987
590.912	30855
590.930	30645
590.965	30776
591.001	30585
591.018	30415
591.071	30180
591.072	30145
591.124	29692
591.143	29563
591.177	29567
591.214	29351
591.230	29588
591.283	30501
591.285	30500
591.336	30459
591.356	30509
591.389	30389
591.427	29917
591.442	29322
591.495	27135
591.498	26949
591.547	27058
591.569	27159
591.600	27497
591.640	27720
591.653	27683
591.706	27522
591.711	27469
591.759	28715
591.782	29448
591.811	30346
591.853	31333
591.864	30910
591.917	28545
591.924	28170
591.969	27443
591.995	27084
592.022	27649
592.066	28473
592.075	28765
592.127	30392
592.137	30698
592.180	33459
592.208	35027
592.233	32819
592.279	28482
592.285	28428
592.338	27908
592.350	27743
592.390	26859
592.421	26178
592.443	26628
592.491	27513
592.495	27549
592.548	27637
592.562	27636
592.600	27488
592.633	27308
592.653	27184
592.704	26658
592.705	26811
592.775	26837
592.846	28154
592.916	28944
592.987	29805
593.058	28417
593.128	26177
593.199	27788
593.270	26531
593.341	26913
593.411	27733
593.482	28398
593.553	27713
593.623	28689
593.694	28164
593.764	31049
593.835	28343
593.906	28931
593.976	29981
594.047	30014
594.117	34025
594.188	34306
594.258	30190
594.329	29433
594.399	30415
594.470	30570
594.540	31418
594.611	31059
594.681	30193
594.751	31067
594.822	32730
594.892	33548
594.963	35111
595.033	34897
595.103	35050
595.174	37586
595.244	45736
595.314	53498
595.384	37128
595.455	37437
595.525	37950
595.595	39579
595.665	40156
595.736	39193
595.806	38778
595.876	39168
595.946	38673
596.016	39992
596.087	41283
596.157	40688
596.227	40409
596.297	42849
596.367	45691
596.437	49551
596.507	55784
596.577	61897
596.647	49844
596.717	49685
596.787	49719
596.857	49954
596.927	50566
596.997	50391
597.067	50426
597.137	52979
597.207	52657
597.277	52991
597.347	50531
597.417	49060
597.487	50722
597.557	51664
597.626	52577
597.696	54285
597.766	57281
597.836	62540
597.906	50247
597.975	46970
598.045	45799
598.115	48150
598.185	51997
598.254	57573
598.324	61636
598.394	63068
598.464	61969
598.533	59366
598.603	55598
598.672	54755
598.742	54494
598.812	54941
598.881	55888
598.951	56833
599.020	55043
599.090	57643
599.159	58007
599.229	56975
599.299	54867
599.368	56711
599.437	56158
599.507	52349
599.576	51293
599.646	51217
599.715	50345
599.785	48622
599.854	49776
599.924	50109
599.993	47790
600.062	48664
600.132	48704
600.201	52242
600.270	60252
600.340	62341
600.409	59555
600.478	59823
600.547	60678
600.617	56999
600.686	46562
600.755	43922
600.824	42066
600.894	40314
600.963	39449
601.032	39066
601.101	37614
601.170	36661
601.239	36196
601.308	39157
601.378	38065
601.447	36690
601.516	35418
601.585	37546
601.654	41365
601.723	37758
601.792	38108
601.861	39901
601.930	42971
601.999	44703
602.068	40121
602.137	44622
602.206	44719
602.275	42864
602.343	45307
602.412	46518
602.481	42179
602.550	42500
602.619	43518
602.688	43994
602.756	43142
602.825	44839
602.894	45140
602.963	44912
603.032	46477
603.100	46859
603.169	45919
603.238	47338
603.307	47048
603.375	47808
603.444	48171
603.513	49071
603.581	49800
603.650	50675
603.719	48786
603.787	49655
603.856	51699
603.924	53819
603.993	55347
604.061	54925
604.130	58970
604.198	60411
604.267	59382
604.335	60577
604.404	61110
604.472	62886
604.541	62954
604.609	64533
604.678	62701
604.746	63933
604.815	65613
604.883	67609
604.951	66659
605.020	67723
605.088	69230
605.156	70140
605.225	71453
605.293	70467
605.361	70804
605.429	71593
605.498	74300
605.566	77242
605.634	80555
605.702	81160
605.771	84407
605.839	84411
605.907	81689
605.975	80124
606.043	77209
606.111	79497
606.180	78743
606.248	79211
606.316	78764
606.384	78372
606.452	81514
606.520	86196
606.588	83845
606.656	80697
606.724	80122
606.792	76901
606.860	66870
606.928	62094
606.996	58405
607.064	57204
607.132	60088
607.200	63362
607.267	65665
607.335	66706
607.403	67275
607.471	65957
607.539	64536
607.607	64280
607.674	57633
607.742	58120
607.810	57231
607.878	58773
607.946	57149
608.013	61086
608.081	61559
608.149	62451
608.216	63878
608.284	66950
608.352	66167
608.419	66722
608.487	70814
608.555	65914
608.622	64662
608.690	67783
608.757	75033
608.825	77604
608.893	75967
608.960	75604
609.028	75470
609.095	75867
609.163	69606
609.230	62200
609.298	56623
609.365	58410
609.432	63067
609.500	68875
609.567	79266
609.635	90632
609.702	95746
609.769	92391
609.837	73966
609.904	62790
609.971	63496
610.039	73723
610.106	98020
610.173	191923
610.241	453517
610.308	308520
610.375	137704
610.442	75599
610.509	65350
610.577	64308
610.644	64100
610.711	65660
610.778	67028
610.845	70262
610.912	74651
610.980	78406
611.047	81200
611.114	78469
611.181	72917
611.248	71625
611.315	77122
611.382	78922
611.449	80523
611.516	83135
611.583	81888
611.650	83343
611.717	84426
611.784	85356
611.851	91765
611.918	99316
611.984	117766
612.051	170750
612.118	358421
612.185	900290
612.252	563786
612.319	138376
612.386	109129
612.452	101184
612.519	98024
612.586	100884
612.653	95619
612.719	97861
612.786	94319
612.853	86223
612.919	84070
612.986	87457
613.053	80660
613.120	77034
613.186	73357
613.253	74272
613.319	73146
613.386	74578
613.453	77136
613.519	79353
613.586	80207
613.652	91192
613.719	83476
613.785	82593
613.852	77333
613.918	76280
613.985	78706
614.051	85885
614.118	100759
614.184	97741
614.250	76475
614.317	77980
614.383	75337
614.449	77312
614.516	76869
614.582	78978
614.648	76310
614.715	75214
614.781	73040
614.847	75007
614.914	73834
614.980	72217
615.046	71871
615.112	74212
615.179	73813
615.245	74754
615.311	77791
615.377	86430
615.443	87455
615.509	80654
615.575	81129
615.642	79961
615.708	82246
615.774	88507
615.840	94088
615.906	105857
615.972	135335
616.038	219221
616.104	454852
616.170	1082589
616.236	927210
616.302	203851
616.368	141244
616.434	104951
616.500	97640
616.565	105518
616.631	132088
616.697	106867
616.763	110721
616.829	165415
616.895	296037
616.961	278531
617.026	117339
617.092	83700
617.158	80070
617.224	77762
617.289	72357
617.355	69071
617.421	67522
617.487	69893
617.552	64151
617.618	62850
617.684	64215
617.749	66035
617.815	62217
617.880	60345
617.946	61411
618.012	62634
618.077	61433
618.143	61041
618.208	59431
618.274	66259
618.339	66466
618.405	55542
618.470	54776
618.536	56039
618.601	55775
618.667	52817
618.732	48371
618.798	48171
618.863	48818
618.928	49226
618.994	49624
619.059	51686
619.124	58660
619.190	51172
619.255	47149
619.320	48182
619.386	48222
619.451	46647
619.516	46254
619.581	46852
619.647	48361
619.712	48770
619.777	45539
619.842	46277
619.907	47733
619.972	48953
620.038	47815
620.103	45701
620.168	45204
620.233	45714
620.298	46771
620.363	46887
620.428	48073
620.493	48758
620.558	49130
620.623	50844
620.688	49969
620.753	50066
620.818	49696
620.883	51838
620.948	50212
621.013	50646
621.078	49940
621.143	50222
621.207	53107
621.272	51692
621.337	51309
621.402	51630
621.467	55930
621.532	57924
621.596	53515
621.661	50511
621.726	48434
621.791	49481
621.855	49995
621.920	50807
621.985	51959
622.049	55035
622.114	51983
622.179	52506
622.243	54336
622.308	53929
622.373	56940
622.437	56724
622.502	51514
622.566	53432
622.631	50775
622.695	53948
622.760	52945
622.824	52445
622.889	51912
622.953	53581
623.018	66529
623.082	67061
623.147	54866
623.211	53880
623.276	55028
623.340	51885
623.404	50308
623.469	49954
623.533	49874
623.597	48657
623.662	48377
623.726	44794
623.790	43292
623.854	42236
623.919	44611
623.983	43878
624.047	45273
624.111	44564
624.176	45071
624.240	48032
624.304	50788
624.368	45422
624.432	44816
624.496	47399
624.560	49905
624.625	52869
624.689	47607
624.753	49859
624.817	47734
624.881	46138
624.945	41919
625.009	42303
625.073	42827
625.137	46164
625.201	51171
625.265	50717
625.329	43843
625.393	45702
625.456	44545
625.520	47883
625.584	49407
625.648	55409
625.712	66188
625.776	108785
625.839	117928
625.903	59967
625.967	42195
626.031	56541
626.095	79680
626.158	49050
626.222	34749
626.286	33665
626.349	31382
626.413	30159
626.477	31805
626.540	30179
626.604	30248
626.668	30410
626.731	29169
626.795	30537
626.858	29612
626.922	29386
626.986	28587
627.049	27928
627.113	30085
627.176	30058
627.240	28223
627.303	28813
627.366	27520
627.430	29025
627.493	29441
627.557	28153
627.620	28512
627.684	29449
627.747	29586
627.810	26992
627.874	25616
627.937	23787
628.000	27639
628.064	26263
628.127	21516
628.190	23571
628.253	23202
628.317	22323
628.380	20946
628.443	20972
628.506	21219
628.569	20831
628.632	18775
628.696	20134
628.759	18784
628.822	18742
628.885	17600
628.948	18653
629.011	17715
629.074	18854
629.137	17119
629.200	17136
629.263	18717
629.326	16015
629.389	16145
629.452	17675
629.515	16991
629.578	17184
629.641	18303
629.704	17027
629.767	17447
629.830	16736
629.892	14998
629.955	15235
630.018	18163
630.081	18697
630.144	20995
630.207	16985
630.269	17332
630.332	18247
630.395	16203
630.458	14634
630.520	14150
630.583	16115
630.646	14163
630.708	14638
630.771	14345
630.834	16654
630.896	15524
630.959	14307
631.021	14558
631.084	15274
631.146	16033
631.209	17845
631.272	14573
631.334	14844
631.397	13973
631.459	14391
631.522	16426
631.584	17398
631.646	17381
631.709	18276
631.771	21842
631.834	18892
631.896	16041
631.958	13718
632.021	16019
632.083	14568
632.145	14460
632.208	14313
632.270	15186
632.332	13706
632.395	13032
632.457	15174
632.519	13942
632.581	15097
632.643	13349
632.706	14251
632.768	12724
632.830	14702
632.892	12628
632.954	14317
633.016	14474
633.078	13946
633.141	13828
633.203	14593
633.265	12805
633.327	13424
633.389	13513
633.451	14967
633.513	17128
633.575	16796
633.637	16242
633.698	15498
633.760	14501
633.822	15372
633.884	15034
633.946	15325
634.008	14987
634.070	16125
634.132	16307
634.193	17815
634.255	19335
634.317	19017
634.379	18872
634.441	17224
634.502	16133
634.564	15861
634.626	13773
634.687	13768
634.749	13414
634.811	13408
634.873	12398
634.934	13531
634.996	12577
635.057	12788
635.119	11653
635.181	13098
635.242	13174
635.304	12352
635.365	14165
635.427	12487
635.488	12932
635.550	12236
635.611	12578
635.673	11658
635.734	14609
635.796	14077
635.857	16760
635.918	15165
635.980	17875
636.041	17467
636.102	19839
636.164	20221
636.225	19468
636.286	16227
636.348	15223
636.409	13580
636.470	12354
636.531	12697
636.593	13754
636.654	13231
636.715	11667
636.776	11859
636.838	10928
636.899	12433
636.960	10337
637.021	10498
637.082	10739
637.143	11879
637.204	9182
637.265	10548
637.326	10562
637.387	10511
637.448	9846
637.509	10740
637.570	10513
637.631	11028
637.692	8478
637.753	8906
637.814	10281
637.875	10160
637.936	9542
637.997	9857
638.058	9804
638.119	11015
638.179	9255
638.240	10198
638.301	9370
638.362	8846
638.423	9506
638.483	10848
638.544	8324
638.605	10055
638.666	8361
638.726	9081
638.787	10054
638.848	9320
638.908	7854
638.969	9344
639.030	8260
639.090	8333
639.151	7697
639.211	10398
639.272	11846
639.332	17316
639.393	12052
639.453	9415
639.514	10010
639.574	8520
639.635	7445
639.695	9805
639.756	7526
639.816	9784
639.877	9692
639.937	16275
639.997	18973
640.058	8989
640.118	8101
640.178	9123
640.239	7975
640.299	7876
640.359	7086
640.420	9677
640.480	9295
640.540	11172
640.600	10509
640.661	9431
640.721	8430
640.781	12587
640.841	8680
640.901	9540
640.961	8412
641.021	8751
641.082	10590
641.142	13605
641.202	10263
641.262	6507
641.322	8329
641.382	7237
641.442	7652
641.502	7510
641.562	7964
641.622	7451
641.682	8375
641.742	9008
641.802	8199
641.861	8646
641.921	8240
641.981	9758
642.041	9152
642.101	10770
642.161	6985
642.221	7028
642.280	6455
642.340	6991
642.400	5934
642.460	8451
642.519	6832
642.579	6827
642.639	7918
642.698	5526
642.758	8997
642.818	8359
642.877	7067
642.937	8065
642.997	9461
643.056	12480
643.116	6880
643.175	8873
643.235	7738
643.294	8519
643.354	8622
643.414	9918
643.473	12293
643.532	14656
643.592	19615
643.651	33734
643.711	60124
643.770	123224
643.830	301707
643.889	674543
643.948	155935
644.008	25374
644.067	14982
644.126	11569
644.186	10207
644.245	9012
644.304	8032
644.363	9765
644.423	6605
644.482	8014
644.541	8608
644.600	6203
644.659	10169
644.719	11802
644.778	19270
644.837	32328
644.896	67247
644.955	164343
645.014	54184
645.073	12583
645.132	9175
645.191	8835
645.250	7735
645.309	9325
645.368	7783
645.427	12880
645.486	17081
645.545	32122
645.604	10565
645.663	8856
645.722	7159
645.781	9066
645.840	9377
645.898	12842
645.957	19439
646.016	29994
646.075	57211
646.134	114725
646.192	309713
646.251	484177
646.310	66002
646.369	17698
646.427	13306
646.486	9433
646.545	8772
646.603	9414
646.662	7032
646.721	7659
646.779	6414
646.838	6117
646.896	9411
646.955	12763
647.014	19457
647.072	36307
647.131	102155
647.189	50037
647.248	7853
647.306	7737
647.365	5875
647.423	4230
647.481	6733
647.540	4394
647.598	5453
647.657	4601
647.715	5513
647.773	4271
647.832	6192
647.890	4068
647.948	4369
648.007	5665
648.065	3830
648.123	4939
648.181	5516
648.240	5859
648.298	4200
648.356	4812
648.414	4970
648.472	5396
648.531	5154
648.589	4392
648.647	4444
648.705	4789
648.763	4536
648.821	4943
648.879	4321
648.937	7068
648.995	6287
649.053	9946
649.111	14489
649.169	24325
649.227	44586
649.285	93655
649.343	286560
649.401	137520
649.459	28055
649.516	17927
649.574	10259
649.632	17916
649.690	19713
649.748	13370
649.806	14714
649.863	28278
649.921	69838
649.979	47421
650.037	7496
650.094	4217
650.152	4256
650.210	4200
650.268	4744
650.325	4587
650.383	4775
650.440	3184
650.498	3756
650.556	4004
650.613	2521
650.671	3422
650.728	3280
650.786	4763
650.843	3807
650.901	2537
650.958	3946
651.016	3265
651.073	2754
651.131	2213
651.188	2418
651.246	4139
651.303	2160
651.360	3913
651.418	3087
651.475	3100
651.532	1351
651.590	3589
651.647	2075
651.704	3378
651.762	2971
651.819	3719
651.876	2883
651.933	3532
651.990	3500
652.048	1974
652.105	2335
652.162	3965
652.219	1681
652.276	2694
652.333	2799
652.390	1617
652.448	2547
652.505	2875
652.562	2139
652.619	3081
652.676	3560
652.733	4656
652.790	2288
652.847	2118
652.904	3117
652.961	2263
653.017	1834
653.074	3072
653.131	3225
653.188	1645
653.245	2071
653.302	2781
653.359	2105
653.415	3101
653.472	2255
653.529	3783
653.586	1694
653.642	2418
653.699	2239
653.756	1768
653.813	2094
653.869	3120
653.926	1481
653.983	2527
654.039	2001
654.096	2866
654.152	2911
654.209	1539
654.266	2776
654.322	2509
654.379	2924
654.435	3213
654.492	3537
654.548	4838
654.605	7596
654.661	4656
654.717	2576
654.774	2532
654.830	2718
654.887	2925
654.943	2466
655.000	3256
655.056	2912
655.112	3211
655.168	1873
655.225	3027
655.281	3383
655.337	4451
655.394	6602
655.450	5532
655.506	5096
655.562	7194
655.618	5471
655.675	1187
655.731	1534
655.787	1772
655.843	2539
655.899	1733
655.955	2652
656.011	2806
656.067	1553
656.123	2755
656.179	2622
656.235	3663
656.291	2073
656.347	3143
656.403	1647
656.459	3011
656.515	3050
656.571	3100
656.627	2673
656.683	1977
656.739	2217
656.795	3104
656.850	2245
656.906	3843
656.962	3152
657.018	1363
657.074	2674
657.129	2391
657.185	4384
657.241	10075
657.297	5030
657.352	3323
657.408	1790
657.464	2774
657.519	2466
657.575	1337
657.630	2244
657.686	1880
657.742	1585
657.797	1741
657.853	1642
657.908	2609
657.964	1249
658.019	2513
658.075	2504
658.130	2894
658.186	312
658.241	2770
658.297	1695
658.352	1785
658.407	2259
658.463	1041
658.518	2469
658.573	2461
658.629	777
658.684	1724
658.739	1857
658.795	935
658.850	2192
658.905	2466
658.960	1994
659.016	1771
659.071	1598
659.126	2838
659.181	2296
659.236	5595
659.291	6221
659.346	3251
659.401	3085
659.457	3132
659.512	2655
659.567	3483
659.622	1697
659.677	1666
659.732	1020
659.787	2124
659.842	2216
659.897	3545
659.952	1882
660.007	2194
660.061	1554
660.116	1867
660.171	1115
660.226	1699
660.281	2552
660.336	926
660.391	2209
660.445	1741
660.500	1653
660.555	2211
660.610	1556
660.664	1565
660.719	1630
660.774	2390
660.828	2085
660.883	2215
660.938	1635
660.992	1607
661.047	2006
661.101	1599
661.156	1422
661.211	1196
661.265	1255
661.320	1565
661.374	1251
661.429	1169
661.483	2189
661.538	1083
661.592	1732
661.647	1927
661.701	1941
661.755	2994
661.810	2241
661.864	1436
661.919	701
661.973	2246
662.027	2210
662.081	1493
662.136	1797
662.190	2392
662.244	1869
662.299	1674
662.353	1549
662.407	2084
662.461	622
662.515	2107
662.569	1725
662.624	2816
662.678	894
662.732	1568
662.786	1083
662.840	2922
662.894	1792
662.948	2038
663.002	1524
663.056	1497
663.110	1037
663.164	1879
663.218	996
663.272	2048
663.326	2589
663.380	2558
663.434	2250
663.488	2017
663.542	943
663.595	2681
663.649	700
663.703	2440
663.757	1173
663.811	2032
663.864	1075
663.918	2381
663.972	999
664.026	1664
664.079	1694
664.133	2525
664.187	466
664.240	2461
664.294	1917
664.348	2003
664.401	1171
664.455	1949
664.508	1548
664.562	2100
664.615	1948
664.669	1444
664.722	1695
664.776	1671
664.829	1263
664.883	1669
664.936	786
664.990	1898
665.043	2281
665.097	1996
665.150	3113
665.203	2097
665.257	907
665.310	2338
665.363	1978
665.417	2387
665.470	2118
665.523	2849
665.576	1670
665.630	1630
665.683	2357
665.736	2209
665.789	1127
665.842	2548
665.895	2379
665.949	2035
666.002	1405
666.055	2236
666.108	2047
666.161	2003
666.214	2520
666.267	2128
666.320	2413
666.373	3264
666.426	2561
666.479	2089
666.532	2625
666.585	3076
666.638	3352
666.691	2727
666.744	2559
666.796	2136
666.849	2464
666.902	2561
666.955	1731
667.008	1601
667.060	1582
667.113	2176
667.166	943
667.219	2323
667.271	2654
667.324	1412
667.377	1804
667.430	1787
667.482	2224
667.535	2198
667.587	2549
667.640	2468
667.693	2291
667.745	5557
667.798	5967
667.850	2636
667.903	2005
667.955	1912
668.008	1707
668.060	2676
668.113	2531
668.165	3043
668.218	2465
668.270	3185
668.322	2814
668.375	2379
668.427	2532
668.479	2453
668.532	1373
668.584	1413
668.636	1626
668.689	2512
668.741	1726
668.793	2710
668.845	1965
668.898	2658
668.950	1069
669.002	2209
669.054	1658
669.106	1845
669.158	1987
669.211	2237
669.263	1809
669.315	3168
669.367	3301
669.419	2544
669.471	3469
669.523	3238
669.575	4147
669.627	3559
669.679	2132
669.731	2773
669.783	2813
669.835	3303
669.886	2139
669.938	3270
669.990	2047
670.042	1606
670.094	2569
670.146	2610
670.197	2282
670.249	5426
670.301	5162
670.353	7715
670.404	11050
670.456	16387
670.508	26668
670.560	47749
670.611	84083
670.663	149187
670.715	355131
670.766	559928
670.818	163848
670.869	28802
670.921	14320
670.972	10659
671.024	7136
671.075	6293
671.127	5374
671.178	4359
671.230	4009
671.281	3895
671.333	3712
671.384	3725
671.436	3882
671.487	5821
671.538	5444
671.590	9587
671.641	13905
671.692	24421
671.744	46442
671.795	28799
671.846	9810
671.897	5569
671.949	3759
672.000	3259
672.051	3452
672.102	3587
672.153	1698
672.204	2111
672.256	2545
672.307	2563
672.358	2420
672.409	2491
672.460	2215
672.511	1830
672.562	2289
672.613	1993
672.664	1571
672.715	2323
672.766	2280
672.817	2393
672.868	2045
672.919	2106
672.970	1571
673.021	2395
673.071	1016
673.122	2143
673.173	1623
673.224	2182
673.275	1421
673.326	1885
673.376	1798
673.427	1989
673.478	1159
673.528	2822
673.579	2420
673.630	2236
673.680	1554
673.731	1678
673.782	837
673.832	1632
673.883	1585
673.934	1382
673.984	1254
674.035	1802
674.085	1238
674.136	2098
674.186	2052
674.237	3432
674.287	4438
674.338	1980
674.388	1288
674.438	1618
674.489	1916
674.539	2644
674.589	1830
674.640	2028
674.690	2075
674.740	2439
674.791	1596
674.841	2198
674.891	1757
674.942	1452
674.992	1657
675.042	1403
675.092	718
675.142	1835
675.193	762
675.243	1846
675.293	1066
675.343	874
675.393	1728
675.443	1972
675.493	1462
675.543	902
675.593	1752
675.643	2134
675.693	1244
675.743	1988
675.793	1035
675.843	1369
675.893	380
675.943	1487
675.993	1320
676.043	970
676.093	1403
676.142	1826
676.192	1672
676.242	1284
676.292	765
676.341	1042
676.391	1167
676.441	1304
676.491	1096
676.540	1130
676.590	1222
676.640	1754
676.689	202
676.739	626
676.789	1240
676.838	1270
676.888	1025
676.937	1089
676.987	1016
677.037	726
677.086	43
677.136	1548
677.185	930
677.235	282
677.284	864
677.333	1241
677.383	63
677.432	854
677.482	351
677.531	1251
677.580	266
677.630	1357
677.679	582
677.728	832
677.778	1254
677.827	514
677.876	280
677.925	338
677.975	497
678.024	1537
678.073	454
678.122	755
678.171	630
678.220	1150
678.269	958
678.319	1831
678.368	1026
678.417	1247
678.466	1243
678.515	1406
678.564	416
678.613	676
678.662	286
678.711	1860
678.760	887
678.809	1092
678.857	605
678.906	1310
678.955	1052
679.004	1412
679.053	1109
679.102	1289
679.151	1112
679.199	896
679.248	703
679.297	1060
679.346	1035
679.394	1033
679.443	1006
679.492	935
679.540	924
679.589	834
679.638	637
679.686	1379
679.735	602
679.784	642
679.832	1039
679.881	930
679.929	295
679.978	1125
680.026	412
680.075	497
680.123	1069
680.172	157
680.220	970
680.268	1009
680.317	346
680.365	1638
680.414	291
680.462	750
680.510	474
680.559	-52
680.607	365
680.655	1362
680.703	500
680.752	343
680.800	18
680.848	217
680.896	602
680.945	714
680.993	237
681.041	1282
681.089	-46
681.137	106
681.185	432
681.233	217
681.258	491
681.281	707
681.329	1158
681.377	-190
681.380	-79
681.425	1107
681.473	584
681.502	1282
681.521	1681
681.569	1573
681.617	2281
681.624	2124
681.665	775
681.713	1778
681.745	1796
681.761	1740
681.809	1733
681.857	2248
681.867	2074
681.904	1283
681.952	1634
681.989	2233
682.000	2357
682.048	1671
682.096	2658
682.111	2298
682.143	1354
682.191	2369
682.233	2333
682.239	2291
682.286	1366
682.334	2350
682.354	2318
682.382	2171
682.430	2929
682.476	3311
682.477	3279
682.525	2357
682.572	2500
682.598	2614
682.620	2679
682.667	3239
682.715	3105
682.720	3172
682.763	3448
682.810	3262
682.841	3856
682.857	4057
682.905	3085
682.952	3873
682.963	3824
683.000	3498
683.047	4188
683.085	4369
683.095	4382
683.142	3684
683.190	4078
683.206	4230
683.237	4401
683.284	3735
683.328	4243
683.332	4250
683.379	4322
683.426	4409
683.449	4406
683.473	4351
683.521	4529
683.568	4530
683.571	4634
683.615	5571
683.662	5069
683.693	4963
683.709	4884
683.757	4061
683.804	4817
683.814	4967
683.851	5356
683.898	5717
683.936	5715
683.945	5677
683.992	6044
684.039	5358
684.057	5659
684.086	6228
684.133	6342
684.179	6280
684.180	6231
684.227	7280
684.274	6767
684.300	6740
684.321	6752
684.368	6557
684.415	6294
684.422	6364
684.462	6398
684.509	5660
684.543	6058
684.556	6282
684.603	6391
684.649	6899
684.665	6862
684.696	6646
684.743	7415
684.786	6830
684.790	6780
684.837	7231
684.883	8317
684.908	8521
684.930	8543
684.977	8305
685.023	8856
685.029	8759
685.070	7596
685.117	8236
685.150	7917
685.164	7899
685.210	8601
685.257	9094
685.272	9188
685.303	9244
685.350	8867
685.393	9762
685.396	9842
685.443	9983
685.490	11093
685.514	11166
685.536	10765
685.583	10167
685.629	9566
685.636	9536
685.675	9550
685.722	9750
685.757	9761
685.768	9779
685.815	10025
685.861	9976
685.878	9888
685.908	9823
685.954	10803
686.000	10765
686.000	10766
686.047	12353
686.093	13645
686.121	14881
686.139	14879
686.185	12722
686.232	12201
686.242	11873
686.278	10905
686.324	11391
686.363	10335
686.370	10207
686.416	10019
686.463	10021
686.484	10010
686.509	10065
686.555	9901
686.601	9916
686.606	9983
686.647	10555
686.693	10877
686.727	10288
686.739	10110
686.785	10929
686.831	10283
686.848	10584
686.877	10932
686.923	10485
686.969	10534
686.969	10532
687.015	9958
687.061	10890
687.090	10656
687.107	10483
687.153	11340
687.199	10584
687.211	10600
687.245	10906
687.291	10980
687.332	11343
687.336	11361
687.382	12418
687.428	12045
687.453	12236
687.474	12123
687.520	11871
687.565	10945
687.574	10908
687.611	11321
687.657	10622
687.695	11617
687.702	11859
687.748	12733
687.794	13313
687.816	13349
687.839	12832
687.885	12902
687.931	11732
687.937	11663
687.976	11835
688.022	12052
688.058	12542
688.067	12666
688.113	12149
688.158	12052
688.179	12363
688.204	12758
688.249	12569
688.295	12359
688.300	12415
688.340	12927
688.386	12739
688.421	13169
688.431	13239
688.477	13319
688.522	12886
688.542	12705
688.567	12555
688.613	12908
688.658	12985
688.663	12936
688.703	12924
688.749	12937
688.784	13500
688.794	13580
688.839	13181
688.884	13963
688.905	13575
688.930	13190
688.975	14023
689.020	12756
689.026	12821
689.065	13423
689.110	12708
689.146	13160
689.155	13233
689.201	12932
689.246	12840
689.267	12874
689.291	13176
689.336	13261
689.381	12965
689.388	13059
689.426	13580
689.471	13033
689.509	13514
689.516	13576
689.561	13255
689.606	13380
689.630	12993
689.651	12833
689.696	13182
689.741	13539
689.750	13668
689.785	14096
689.830	13672
689.871	13381
689.875	13349
689.920	12885
689.965	13157
689.992	12904
690.010	12940
690.054	13477
690.099	13185
690.112	13459
690.144	14020
690.189	13174
690.233	13547
690.233	13567
690.278	13118
690.323	13129
690.354	12920
690.367	13068
690.412	13623
690.457	13986
690.474	14272
690.501	14122
690.546	13497
690.590	12979
690.595	12874
690.635	13040
690.680	13587
690.716	13767
690.724	13792
690.769	14531
690.813	15031
690.836	14992
690.857	15309
690.902	15598
690.946	16519
690.957	16718
690.991	18299
691.035	20582
691.077	22344
691.080	22395
691.124	22892
691.168	23022
691.198	23096
691.213	22748
691.257	21649
691.301	20621
691.318	20165
691.346	19097
691.390	17608
691.434	15483
691.439	15290
691.478	15695
691.522	15765
691.559	16102
691.567	16234
691.611	16337
691.655	16914
691.680	16988
691.699	16792
691.743	16443
691.787	15931
691.800	15901
691.831	16362
691.875	16224
691.919	16341
691.921	16322
691.964	16899
692.008	17480
692.041	17500
692.052	17471
692.096	17586
692.139	17768
692.162	17840
692.183	17822
692.227	17306
692.271	16933
692.282	16830
692.315	17001
692.359	17516
692.402	17624
692.403	17657
692.447	17660
692.490	17089
692.523	17046
692.534	17156
692.578	17399
692.622	17506
692.643	17577
692.666	17438
692.709	16699
692.753	16416
692.763	16219
692.797	16010
692.840	16310
692.884	16037
692.884	16073
692.928	16465
692.971	16850
693.004	16945
693.015	16928
693.059	16899
693.102	17156
693.124	16965
693.146	17164
693.189	17515
693.233	18389
693.245	18469
693.276	18540
693.320	19029
693.363	18689
693.365	18656
693.407	18919
693.450	19197
693.485	19275
693.493	19470
693.537	20181
693.580	21107
693.605	21349
693.624	21588
693.667	22645
693.710	23292
693.725	23538
693.753	26676
693.797	31340
693.840	36407
693.845	36875
693.883	36132
693.926	35228
693.966	34485
693.970	34124
694.013	29790
694.056	25151
694.086	22029
694.099	21890
694.142	21199
694.185	20807
694.206	20394
694.229	20569
694.272	21017
694.315	21319
694.326	21361
694.358	21625
694.401	21734
694.444	22229
694.446	22182
694.487	21809
694.530	21599
694.566	21430
694.573	21259
694.616	19524
694.659	18089
694.686	17199
694.702	17294
694.745	17005
694.787	17111
694.806	17004
694.830	17094
694.873	17372
694.916	17321
694.926	17355
694.959	17533
695.002	17475
695.044	17548
695.046	17507
695.087	18345
695.130	19301
695.166	19827
695.172	19798
695.215	19408
695.258	19035
695.286	18701
695.301	18665
695.343	18441
695.386	18365
695.406	18217
695.428	18278
695.471	18468
695.514	18051
695.526	18075
695.556	18403
695.599	18789
695.641	18838
695.646	18813
695.684	18679
695.726	18509
695.766	18088
695.769	18126
695.811	18307
695.854	18265
695.886	18403
695.896	18450
695.938	18091
695.981	17870
696.005	17716
696.023	17859
696.065	18149
696.108	18305
696.125	18311
696.150	18695
696.192	19520
696.235	20142
696.245	20274
696.277	19893
696.319	19222
696.361	18445
696.365	18336
696.404	18435
696.446	18646
696.485	18766
696.488	18844
696.530	19036
696.572	19399
696.604	19615
696.614	19574
696.656	19224
696.698	18688
696.724	18430
696.740	18543
696.783	18428
696.825	18710
696.844	18663
696.867	18609
696.909	18621
696.951	18372
696.964	18347
696.992	18512
697.034	18260
697.076	18312
697.083	18247
697.118	18634
697.160	19192
697.202	19556
697.203	19517
697.244	19264
697.286	18940
697.323	18372
697.327	18416
697.369	18541
697.411	18712
697.442	18642
697.453	18867
697.494	19695
697.536	20575
697.562	21042
697.578	21054
697.620	20870
697.661	20817
697.682	20653
697.703	21071
697.744	21961
697.786	22727
697.801	22973
697.828	23236
697.869	23475
697.911	23789
697.921	23774
697.952	22469
697.994	20812
698.035	19066
698.040	18803
698.077	19363
698.118	19906
698.160	20570
698.160	20518
698.201	20469
698.243	20391
698.279	20242
698.284	20275
698.325	20084
698.367	19926
698.399	19695
698.408	19695
698.449	19448
698.491	19272
698.518	19051
698.532	19197
698.573	19527
698.614	19818
698.638	19945
698.656	20124
698.697	20400
698.738	20686
698.757	20758
698.779	21004
698.820	21370
698.862	21715
698.877	21793
698.903	22053
698.944	22359
698.985	22662
698.996	22685
699.026	22289
699.067	21658
699.116	20847
699.235	20195
699.354	20417
699.474	20979
699.593	24848
699.713	24450
699.832	20137
699.951	22894
700.070	21194
700.190	20110
700.309	20997
700.428	21870
700.547	19949
700.667	19951
700.786	24110
700.905	20496
701.024	21489
701.143	21844
701.262	17647
701.381	17553
701.500	19886
701.619	21474
701.738	19184
701.857	17928
701.976	16467
702.095	17768
702.214	20747
702.333	20861
702.452	20124
702.571	17710
702.690	17632
702.809	17397
702.928	17429
703.047	17962
703.165	16477
703.284	17462
703.403	16686
703.522	19987
703.640	20518
703.759	24422
703.878	36299
703.997	20242
704.115	17048
704.234	17229
704.353	16589
704.471	16222
704.590	14905
704.708	14706
704.827	15319
704.946	16802
705.064	19174
705.183	16275
705.301	19365
705.420	26197
705.538	24761
705.656	20518
705.775	20386
705.893	28961
706.012	37364
706.130	22118
706.249	20882
706.367	22482
706.485	24044
706.604	21832
706.722	23418
706.840	27750
706.958	28645
707.077	23096
707.195	20376
707.313	19633
707.431	18625
707.549	18603
707.668	19632
707.786	19732
707.904	18969
708.022	18183
708.140	17836
708.258	18079
708.376	18537
708.494	19166
708.612	20310
708.730	28938
708.848	27331
708.966	25406
709.084	24730
709.202	22910
709.320	22680
709.438	22748
709.556	23167
709.674	22124
709.791	23688
709.909	22136
710.027	21729
710.145	21869
710.263	21799
710.380	22963
710.498	21680
710.616	22273
710.733	22850
710.851	23202
710.969	25480
711.086	22070
711.204	21977
711.322	21941
711.439	22823
711.557	23188
711.674	21776
711.792	21903
711.909	21270
712.027	21532
712.144	20247
712.262	20144
712.379	23020
712.497	32207
712.614	32577
712.732	27295
712.849	25727
712.966	28190
713.084	36573
713.201	27748
713.318	27703
713.436	25306
713.553	26459
713.670	26712
713.787	30271
713.905	32265
714.022	25583
714.139	25599
714.256	30363
714.373	37602
714.490	59674
714.608	132520
714.725	569888
714.842	705578
714.959	61356
715.076	32048
715.193	26529
715.310	24825
715.427	23280
715.544	21499
715.661	22352
715.778	21611
715.895	24333
716.011	24561
716.128	22049
716.245	22187
716.362	26979
716.479	29110
716.596	21931
716.713	21414
716.829	19948
716.946	20179
717.063	19251
717.180	17947
717.296	18854
717.413	19460
717.530	19186
717.646	18654
717.763	18767
717.880	17081
717.996	18758
718.113	20604
718.229	18367
718.346	17887
718.462	18940
718.579	25177
718.695	45922
718.812	35296
718.928	31870
719.045	22037
719.161	16940
719.277	16823
719.394	16806
719.510	18580
719.626	19007
719.743	23785
719.859	27819
719.975	46517
720.092	162169
720.208	431184
720.324	62505
720.440	22023
720.557	23578
720.673	35849
720.789	49476
720.905	108327
721.021	38758
721.137	17234
721.253	17425
721.369	18636
721.486	21971
721.602	32769
721.718	17274
721.834	14085
721.950	16195
722.066	14776
722.181	14228
722.297	16669
722.413	14253
722.529	13370
722.645	13650
722.761	13653
722.877	13048
722.993	13012
723.108	16564
723.224	15120
723.340	14233
723.456	13143
723.571	14177
723.687	12746
723.803	12704
723.918	13002
724.034	13095
724.150	13448
724.265	15452
724.381	36526
724.497	53428
724.612	14486
724.728	12265
724.843	12360
724.959	15339
725.074	33942
725.190	47331
725.305	14942
725.421	14142
725.536	10846
725.651	11559
725.767	11616
725.882	10571
725.997	10527
726.113	12069
726.228	11475
726.343	11339
726.459	10117
726.574	12411
726.689	10312
726.804	11046
726.920	11043
727.035	11004
727.150	11984
727.265	10955
727.380	12306
727.495	10737
727.610	9203
727.725	10375
727.841	11217
727.956	16158
728.071	17853
728.186	10835
728.301	8958
728.416	11021
728.531	9832
728.645	9047
728.760	10486
728.875	12084
728.990	10748
729.105	10348
729.220	11349
729.335	11769
729.449	10320
729.564	9274
729.679	8904
729.794	8842
729.908	11204
730.023	9725
730.138	8654
730.253	9891
730.367	7872
730.482	9159
730.596	8884
730.711	9156
730.826	10376
730.940	9732
731.055	9365
731.169	8891
731.284	8157
731.398	8688
731.513	11473
731.627	11644
731.742	13561
731.856	15037
731.970	10992
732.085	14193
732.199	17829
732.313	29248
732.428	72338
732.542	211467
732.656	146292
732.771	25495
732.885	14433
732.999	12969
733.113	13397
733.227	11806
733.342	10275
733.456	9944
733.570	9573
733.684	9113
733.798	9573
733.912	8681
734.026	7480
734.140	9959
734.254	10507
734.368	19494
734.482	28914
734.596	8852
734.710	8322
734.824	8484
734.938	8175
735.052	9062
735.166	11228
735.280	9211
735.393	8540
735.507	8529
735.621	12406
735.735	27219
735.849	12046
735.962	8839
736.076	9469
736.190	10446
736.303	13931
736.417	21016
736.531	8551
736.644	9306
736.758	6964
736.872	6886
736.985	6285
737.099	6847
737.212	5856
737.326	7044
737.439	6869
737.553	7520
737.666	7382
737.780	6628
737.893	7506
738.007	6147
738.120	5783
738.233	5505
738.347	6925
738.460	6927
738.573	8030
738.687	7382
738.800	7988
738.913	11545
739.026	8571
739.140	7049
739.253	7526
739.366	5895
739.479	5825
739.592	5405
739.705	6084
739.818	6671
739.932	6792
740.045	6226
740.158	7084
740.271	6529
740.384	6642
740.497	5661
740.610	7749
740.723	7501
740.836	6050
740.949	7966
741.062	12091
741.174	10127
741.287	7535
741.400	6529
741.513	5705
741.626	7645
741.739	6695
741.851	7190
741.964	6444
742.077	6363
742.189	5811
742.302	7194
742.415	6125
742.527	6548
742.640	5475
742.753	5365
742.865	4986
742.978	5289
743.090	5912
743.203	6297
743.316	5721
743.428	5279
743.541	5346
743.653	5207
743.766	5103
743.878	5274
743.990	8678
744.103	8218
744.215	6512
744.327	6465
744.440	8627
744.552	15838
744.664	8213
744.777	5412
744.889	4006
745.001	4619
745.113	5567
745.226	5320
745.338	4686
745.450	4404
745.562	4733
745.674	4705
745.786	4322
745.898	4895
746.010	4471
746.122	4684
746.234	4974
746.347	4682
746.459	4825
746.570	4337
746.682	3624
746.794	5535
746.906	3975
747.018	5020
747.130	3810
747.242	4865
747.354	5060
747.466	5276
747.577	4003
747.689	5298
747.801	5021
747.913	3441
748.024	3403
748.136	4677
748.248	3868
748.359	4496
748.471	4106
748.583	4162
748.694	4127
748.806	5967
748.918	7691
749.029	5749
749.141	5784
749.252	6252
749.364	7294
749.475	17380
749.587	12753
749.698	5360
749.809	4404
749.921	4514
750.032	3686
750.144	4400
750.255	3821
750.366	3322
750.478	4653
750.589	4134
750.700	5271
750.811	5875
750.923	7595
751.034	17914
751.145	20121
751.256	5209
751.367	4251
751.479	4302
751.590	3311
751.701	4115
751.812	2785
751.923	4066
752.034	3663
752.145	3762
752.256	3090
752.367	4633
752.478	3704
752.589	2880
752.700	3051
752.811	4224
752.922	4167
753.032	4181
753.143	5719
753.254	4030
753.365	4031
753.476	3239
753.586	4416
753.697	3558
753.808	3459
753.919	3777
754.029	3978
754.140	3058
754.251	3865
754.361	3191
754.472	4018
754.582	3949
754.693	3772
754.804	3658
754.914	2632
755.025	2540
755.135	3230
755.246	4070
755.356	3201
755.466	3458
755.577	2901
755.687	3537
755.798	3112
755.908	3966
756.018	3030
756.129	3769
756.239	3928
756.349	3345
756.460	3632
756.570	4377
756.680	4070
756.790	4107
756.900	5178
757.011	3238
757.121	2915
757.231	3122
757.341	3159
757.451	4080
757.561	3164
757.671	4138
757.781	2347
757.891	3806
758.001	3837
758.111	4372
758.221	3674
758.331	5555
758.441	5269
758.551	8117
758.661	7848
758.771	4853
758.880	3871
758.990	4171
759.100	3707
759.210	4633
759.320	4077
759.429	4916
759.539	4364
759.649	4582
759.758	5773
759.868	5009
759.978	5232
760.087	6231
760.197	6237
760.307	5754
760.416	5045
760.526	4921
760.635	5042
760.745	5008
760.854	5299
760.964	6881
761.073	7081
761.182	6054
761.292	5096
761.401	6645
761.511	4848
761.620	4594
761.729	4716
761.839	4469
761.948	4655
762.057	6077
762.166	4823
762.276	4031
762.385	5538
762.494	3678
762.603	4572
762.712	4500
762.822	4156
762.931	4472
763.040	3544
763.149	4269
763.258	4694
763.367	4551
763.476	4007
763.585	4649
763.694	4765
763.803	5624
763.912	5198
764.021	4220
764.130	4077
764.238	5167
764.347	4539
764.456	5709
764.565	5336
764.674	5532
764.783	5377
764.891	5359
765.000	6769
765.109	7556
765.217	8210
765.326	9038
765.435	12262
765.543	11005
765.652	12182
765.761	15737
765.869	21688
765.978	33937
766.086	55492
766.195	108481
766.303	258579
766.412	625581
766.520	604513
766.629	229551
766.737	81287
766.846	44494
766.954	28431
767.062	23063
767.171	18268
767.279	14655
767.387	10131
767.496	9913
767.604	8729
767.712	8993
767.820	7574
767.928	8451
768.037	7456
768.145	7539
768.253	7487
768.361	6145
768.469	6255
768.577	6031
768.685	7208
768.793	7783
768.901	8162
769.009	8314
769.117	8682
769.225	10683
769.333	14746
769.441	23078
769.549	40462
769.657	90596
769.765	267600
769.873	552469
769.981	272086
770.088	64484
770.196	29501
770.304	19820
770.412	14937
770.519	11771
770.627	9742
770.735	8143
770.842	7508
770.950	7392
771.058	7489
771.165	6480
771.273	6047
771.380	6080
771.488	6683
771.595	7001
771.703	5332
771.810	6144
771.918	5431
772.025	6268
772.133	6516
772.240	5993
772.348	6660
772.455	6540
772.562	5150
772.670	4840
772.777	5973
772.884	5220
772.991	4902
773.099	5066
773.206	4513
773.313	5582
773.420	5152
773.528	4380
773.635	4667
773.742	5207
773.849	4633
773.956	4308
774.063	4950
774.170	5047
774.277	5246
774.384	4524
774.491	3934
774.598	5424
774.705	4446
774.812	7244
774.919	5779
775.026	5148
775.133	5435
775.239	4926
775.346	4370
775.453	3873
775.560	4827
775.667	4638
775.773	4264
775.880	4847
775.987	4253
776.093	4175
776.200	3771
776.307	3661
776.413	4497
776.520	4230
776.627	4102
776.733	4672
776.840	3165
776.946	4950
777.053	4610
777.159	4768
777.266	3563
777.372	5244
777.478	4639
777.585	4883
777.691	3740
777.798	4134
777.904	5329
778.010	7578
778.117	7979
778.223	5018
778.329	4055
778.435	4031
778.542	3204
778.648	4162
778.754	3346
778.860	4361
778.966	3731
779.072	5005
779.178	3847
779.284	3748
779.391	3368
779.497	2763
779.603	5487
779.708	3384
779.815	5111
779.920	9560
780.026	19816
780.132	5661
780.238	2984
780.344	3976
780.450	4463
780.556	3437
780.661	3315
780.767	2910
780.873	2824
780.979	3623
781.085	3081
781.190	3741
781.296	2739
781.402	2923
781.507	3036
781.613	2881
781.719	2689
781.824	3294
781.930	3745
782.035	3222
782.141	2814
782.246	3509
782.352	3550
782.457	2314
782.563	4174
782.668	3200
782.773	2820
782.879	2671
782.984	3593
783.090	4915
783.195	8175
783.300	6270
783.405	3773
783.511	3493
783.616	3496
783.721	4024
783.826	3501
783.932	4166
784.037	3710
784.142	3758
784.247	3184
784.352	4517
784.457	2750
784.562	2924
784.667	4052
784.772	3716
784.877	2033
784.982	3438
785.087	3474
785.192	3215
785.297	2929
785.402	3149
785.507	2458
785.611	3339
785.716	3490
785.821	3648
785.926	2662
786.031	2805
786.135	2464
786.240	3374
786.345	1440
786.450	2917
786.554	2680
786.659	3111
786.763	2260
786.868	3266
786.973	3797
787.077	2860
787.182	2057
787.286	3296
787.391	1932
787.495	1726
787.600	2321
787.704	2087
787.809	2811
787.913	1824
788.017	3633
788.122	2312
788.226	2363
788.330	1855
788.435	2772
788.539	1916
788.643	1781
788.747	2029
788.852	1260
788.956	1913
789.060	2105
789.164	2796
789.268	1858
789.372	2774
789.476	2405
789.580	2433
789.684	1998
789.788	2729
789.892	1523
789.996	2479
790.100	2319
790.204	2235
790.308	2742
790.412	2247
790.516	2465
790.620	2668
790.724	2774
790.828	2203
790.931	1734
791.035	3965
791.139	1554
791.242	2374
791.346	2804
791.450	2574
791.554	2845
791.657	1187
791.761	2211
791.864	3055
791.968	1914
792.072	2148
792.175	2648
792.279	2565
792.382	2540
792.486	3166
792.589	2731
792.693	3734
792.796	462
792.899	2776
793.003	2623
793.106	1350
793.209	1818
793.313	2735
793.416	-265
793.519	4254
793.623	4913
793.726	9212
793.829	3877
793.932	2905
794.035	1491
794.138	3194
794.242	2589
794.345	3477
794.448	4837
794.551	7195
794.654	9712
794.757	10498
794.860	5770
794.963	3674
795.066	966
795.169	2865
795.272	1291
795.375	2888
795.477	740
795.580	1646
795.683	605
795.786	1490
795.889	726
795.991	2327
796.094	3253
796.197	2442
796.300	2395
796.402	1633
796.505	770
796.608	1122
796.710	2527
796.813	1840
796.915	1271
797.018	2845
797.120	1409
797.223	1250
797.326	2462
797.428	735
797.530	1853
797.633	2154
797.735	3921
797.838	6629
797.940	5673
798.042	1152
798.145	988
798.247	2046
798.349	457
798.452	2438
798.554	830
798.656	1216
798.758	2916
798.860	2057
798.962	1232
799.065	1466
799.167	583
799.269	2688
799.371	2461
799.473	3939
799.575	2945
799.677	4612
799.779	5189
799.881	5026
799.983	4882
800.085	1708
800.187	1293
800.289	815
800.390	1459
800.492	1909
800.594	1915
800.696	1328
800.798	876
800.899	1233
801.001	1512
801.103	1653
801.205	1410
801.306	1866
801.408	514
801.509	972
801.611	1305
801.713	1552
801.814	185
801.916	1495
802.017	480
802.119	983
802.220	1628
802.322	753
802.423	3675
802.525	2935
802.626	1461
802.727	1378
802.829	1850
802.930	-111
803.031	2151
803.133	926
803.234	1346
803.335	2023
803.436	443
803.538	1656
803.639	47
803.740	1810
803.841	365
803.942	1240
804.043	1727
804.144	716
804.245	1450
804.346	1176
804.447	1095
804.548	3075
804.649	5384
804.750	2065
804.851	312
804.952	317
805.053	973
805.154	312
805.255	1739
805.355	548
805.456	161
805.557	328
805.658	-43
805.758	1124
805.859	778
805.960	1595
806.061	1009
806.161	603
806.262	1209
806.362	949
806.463	1128
806.564	1667
806.664	1327
806.765	2871
806.865	2220
806.966	1876
807.066	1133
807.166	1601
807.267	1392
807.367	576
807.468	1528
807.568	291
807.668	1223
807.769	1529
807.869	715
807.969	1421
808.069	828
808.170	1134
808.270	1147
808.370	1435
808.470	2758
808.570	2966
808.670	1375
808.770	1268
808.870	978
808.970	1089
809.070	465
809.170	341
809.271	830
809.370	915
809.470	1874
809.570	141
809.670	137
809.770	933
809.870	1075
809.970	-25
810.070	108
810.169	1030
810.269	-139
810.369	1529
810.469	554
810.568	225
810.668	620
810.768	499
810.867	542
810.967	772
811.066	1214
811.166	626
811.265	893
811.365	353
811.464	389
811.564	640
811.663	1265
811.763	-501
811.862	532
811.962	1369
812.061	1182
812.160	238
812.260	505
812.359	1743
812.458	1780
812.557	7911
812.657	11046
812.756	4620
812.855	773
812.954	515
813.053	879
813.153	1040
813.252	325
813.351	1206
813.450	889
813.549	271
813.648	1669
813.747	901
813.846	1090
813.945	720
814.044	-34
814.143	688
814.242	679
814.341	516
814.439	720
814.538	1473
814.637	768
814.736	364
814.835	857
814.933	1790
815.032	786
815.131	993
815.229	2219
815.328	1903
815.427	946
815.525	2417
815.624	1385
815.722	1396
815.821	1839
815.919	2090
816.018	1141
816.116	3143
816.215	1691
816.313	3154
816.412	2881
816.510	2476
816.609	4254
816.707	3066
816.805	2714
816.904	3446
817.002	4480
817.100	4316
817.198	4490
817.296	4456
817.395	5049
817.493	6879
817.591	6241
817.689	10044
817.787	11728
817.885	17858
817.983	32160
818.081	63851
818.179	149353
818.277	364538
818.375	387105
818.473	123577
818.571	46426
818.669	27941
818.767	22946
818.865	23739
818.963	26158
819.061	37044
819.158	61904
819.256	124326
819.354	274106
819.452	586810
819.549	480761
819.647	161759
819.745	64849
819.842	36865
819.940	25581
820.038	17801
820.135	14090
820.233	11679
820.330	8219
820.428	7602
820.525	7806
820.623	6070
820.720	5012
820.818	5038
820.915	4479
821.012	4493
821.110	2667
821.207	4282
821.304	2671
821.402	3370
821.499	2920
821.596	3342
821.693	2545
821.791	3779
821.888	4621
821.985	10318
822.082	8626
822.179	3774
822.276	2335
822.373	2432
822.470	1834
822.567	2428
822.664	345
822.761	2679
822.858	710
822.955	1478
823.052	1847
823.149	1953
823.246	999
823.343	1615
823.440	776
823.536	2293
823.633	546
823.730	463
823.827	1509
823.923	1495
824.020	2359
824.117	1561
824.213	825
824.310	1495
824.407	865
824.503	988
824.600	1252
824.696	1303
824.793	1757
824.889	785
824.986	1034
825.082	817
825.179	964
825.275	267
825.371	993
825.468	1606
825.564	-331
825.660	1698
825.757	1099
825.853	1709
825.949	-324
826.045	1165
826.142	502
826.238	1472
826.334	416
826.430	68
826.526	1032
826.622	393
826.718	359
826.814	620
826.910	2085
827.006	69
827.102	-487
827.198	1700
827.294	513
827.390	1057
827.486	1036
827.582	38
827.678	-354
827.774	1265
827.869	-409
827.965	1758
828.061	-516
828.157	1090
828.252	443
828.348	-68
828.444	1433
828.539	346
828.635	574
828.731	2147
828.826	283
828.922	748
829.017	216
829.113	2172
829.208	73
829.304	1311
829.399	2070
829.495	936
829.590	1250
829.685	137
829.781	581
829.876	529
829.971	709
830.066	602
830.162	-55
830.257	1079
830.352	537
830.447	2218
830.543	647
830.638	713
830.733	1404
830.828	792
830.923	817
831.018	570
831.113	991
831.208	281
831.303	985
831.398	1357
831.493	514
831.588	1073
831.683	327
831.778	545
831.873	675
831.967	1747
832.062	-224
832.157	197
832.252	1126
832.346	1158
832.441	2005
832.536	4015
832.631	7714
832.725	8110
832.820	1006
832.914	33
833.009	840
833.104	2008
833.198	2567
833.293	882
833.387	1049
833.482	1474
833.576	-239
833.670	1696
833.765	1158
833.859	1055
833.954	1664
834.048	632
834.142	587
834.237	390
834.331	1
834.425	472
834.519	-662
834.613	1027
834.708	-84
834.802	911
834.896	-309
834.990	373
835.084	-154
835.178	622
835.272	648
835.366	62
835.460	561
835.554	-395
835.648	477
835.742	539
835.836	1062
835.930	-330
836.024	948
836.117	1802
836.211	882
836.305	2190
836.399	4011
836.493	735
836.586	830
836.680	356
836.774	-406
836.867	1579
836.961	-822
837.055	543
837.148	-799
837.242	-35
837.335	-313
837.429	1124
837.522	487
837.616	1541
837.709	4309
837.803	3636
837.896	881
837.989	1221
838.083	2283
838.176	6170
838.269	5748
838.363	2152
838.456	441
838.549	2695
838.642	3416
838.735	10221
838.829	4417
838.922	345
839.015	142
839.108	-449
839.201	430
839.294	545
839.387	732
839.480	677
839.573	1174
839.666	3040
839.759	1117
839.852	141
839.945	636
840.038	508
840.131	197
840.223	271
840.316	-167
840.409	-221
840.502	-259
840.594	809
840.687	-1162
840.780	702
840.873	-266
840.965	105
841.058	1449
841.150	5030
841.243	3827
841.336	1337
841.428	-263
841.521	-107
841.613	-375
841.706	1186
841.798	-104
841.890	835
841.983	-810
842.075	1077
842.167	636
842.260	977
842.352	2145
842.444	3272
842.537	6678
842.629	10976
842.721	1259
842.813	227
842.905	-1135
842.997	337
843.090	725
843.182	2164
843.274	5860
843.366	15020
843.458	31439
843.550	23548
843.642	3750
843.734	1371
843.826	1443
843.918	2434
844.009	778
844.101	41
844.193	-419
844.285	437
844.377	790
844.469	642
844.560	1059
844.652	503
844.744	1093
844.835	597
844.927	399
845.019	1896
845.110	512
845.202	397
845.293	-141
845.385	-127
845.476	541
845.568	740
845.659	-278
845.751	632
845.842	-367
845.934	-468
846.025	-473
846.116	504
846.208	15
846.299	57
846.390	155
846.482	1499
846.573	888
846.664	2761
846.755	3265
846.846	3688
846.937	-172
847.029	-19
847.120	603
847.211	460
847.302	561
847.393	-349
847.484	416
847.575	173
847.666	-35
847.757	-303
847.847	-713
847.938	944
848.029	-499
848.120	-87
848.211	43
848.302	-42
848.392	-903
848.483	898
848.574	-173
848.664	-592
848.755	-358
848.846	158
848.936	575
849.027	574
849.118	441
849.208	396
849.299	1262
849.389	3894
849.480	7638
849.570	17510
849.661	29342
849.751	58063
849.841	24620
849.932	3013
850.022	628
850.112	680
850.203	533
850.293	457
850.383	476
850.474	21
850.564	-569
850.654	301
850.744	-400
850.834	767
850.924	1
851.014	1052
851.104	159
851.194	283
851.284	1076
851.374	1983
851.464	1016
851.554	1312
851.644	746
851.734	3003
851.824	1722
851.914	19
852.004	549
852.094	206
852.183	490
852.273	537
852.363	36
852.452	254
852.542	114
852.632	855
852.721	415
852.811	730
852.901	942
852.990	230
853.080	706
853.169	902
853.259	894
853.348	1456
853.438	1965
853.527	3892
853.617	5121
853.706	10655
853.795	20114
853.885	46469
853.974	89732
854.063	153280
854.152	262735
854.242	121562
854.331	22654
854.420	7738
854.509	4867
854.598	5111
854.687	3293
854.777	3434
854.866	1051
854.955	2159
855.044	204
855.133	1718
855.222	-180
855.311	328
855.400	585
855.488	-110
855.577	295
855.666	252
855.755	436
855.844	1422
855.933	639
856.021	1178
856.110	758
856.199	-630
856.288	-1268
856.376	437
856.465	75
856.554	-203
856.642	73
856.731	-379
856.819	410
856.908	-226
856.996	398
857.085	15
857.173	-15
857.262	88
857.350	295
857.438	-374
857.527	-201
857.615	-343
857.703	548
857.792	173
857.880	-659
857.968	34
858.056	238
858.145	853
858.233	-1042
858.321	-1125
858.409	1055
858.497	291
858.585	116
858.673	-274
858.761	-1365
858.849	-265
858.937	-647
859.025	489
859.113	267
859.201	72
859.289	448
859.377	-705
859.465	-797
859.552	206
859.640	-1188
859.728	-420
859.816	-352
859.903	450
859.991	-693
860.079	-304
860.166	128
860.254	249
860.342	392
860.429	-775
860.517	-879
860.604	-333
860.692	46
860.779	-1019
860.867	-629
860.954	978
861.042	644
861.129	543
861.216	149
861.304	-636
861.391	-525
861.478	416
861.565	431
861.653	1463
861.740	-154
861.827	-544
861.914	-153
862.001	136
862.089	394
862.176	314
862.263	-392
862.350	-647
862.437	-1032
862.524	-987
862.611	-533
862.698	-82
862.785	-256
862.871	576
862.958	-461
863.045	-332
863.132	-483
863.219	-72
863.306	-964
863.392	-133
863.479	-335
863.566	-22
863.652	782
863.739	-827
863.826	-472
863.912	24
863.999	-334
864.086	-1
864.172	-476
864.259	-161
864.345	-370
864.432	-379
864.518	142
864.604	804
864.691	-967
864.777	585
864.863	697
864.950	458
865.036	-31
865.122	1799
865.209	1440
865.295	1616
865.381	2647
865.467	2338
865.553	3511
865.639	5546
865.726	10760
865.812	22574
865.898	45299
865.984	69711
866.070	122984
866.156	156615
866.242	48027
866.328	10041
866.414	3563
866.499	3162
866.585	2672
866.671	1971
866.757	1523
866.843	1645
866.928	1040
867.014	1394
867.100	1662
867.186	1887
867.271	2076
867.357	3240
867.442	3427
867.528	2607
867.614	870
867.699	1057
867.785	1303
867.870	495
867.956	1006
868.041	1632
868.127	1086
868.212	1501
868.297	850
868.383	1129
868.468	1967
868.553	4672
868.639	4735
868.724	11079
868.809	11825
868.894	3051
868.979	725
869.065	1227
869.150	498
869.235	800
869.320	556
869.405	329
869.490	-162
869.575	-456
869.660	158
869.745	833
869.830	-221
869.915	303
870.000	-3
870.085	-5
870.169	278
870.254	1163
870.339	868
870.424	-136
870.509	536
870.593	604
870.678	63
870.763	294
870.847	322
870.932	-520
871.016	723
871.101	-723
871.186	329
871.270	955
871.355	-240
871.439	168
871.523	221
871.608	537
871.692	-11
871.777	375
871.861	96
871.945	-560
872.030	73
872.114	-12
872.198	-323
872.282	-450
872.367	-349
872.451	-430
872.535	-299
872.619	610
872.703	-638
872.787	285
872.871	-115
872.955	-331
873.039	-529
873.123	-120
873.207	1197
873.291	139
873.375	354
873.459	181
873.543	709
873.627	38
873.711	-543
873.794	807
873.878	-292
873.962	-796
874.045	-765
874.129	417
874.137	350
874.213	-318
874.245	-187
874.296	22
874.352	-370
874.380	-562
874.460	179
874.464	208
874.547	-475
874.568	-205
874.631	601
874.676	668
874.714	710
874.784	599
874.798	583
874.881	1327
874.892	1116
874.965	-328
874.999	-267
875.048	-219
875.107	-392
875.131	-444
875.215	398
875.215	398
875.298	453
875.323	240
875.381	-277
875.430	-221
875.465	-132
875.538	102
875.548	120
875.631	75
875.646	-67
875.714	-738
875.753	-84
875.798	683
875.861	-302
875.881	-597
875.964	535
875.968	505
876.047	-152
876.076	-47
876.130	180
876.183	250
876.213	310
876.291	594
876.296	610
876.379	214
876.398	108
876.462	-269
876.506	-481
876.545	-643
876.613	422
876.628	643
876.711	-596
876.721	-517
876.794	104
876.828	-191
876.877	-630
876.935	-200
876.960	12
877.043	43
877.043	45
877.125	552
877.150	612
877.208	712
877.258	713
877.291	713
877.365	336
877.374	313
877.456	1037
877.472	1007
877.539	627
877.579	333
877.622	222
877.687	492
877.704	493
877.787	631
877.794	632
877.869	762
877.901	694
877.952	552
878.008	129
878.034	-75
878.115	798
878.117	815
878.199	-351
878.222	-243
878.282	216
878.329	-165
878.364	-502
878.437	792
878.447	954
878.529	-430
878.544	-360
878.611	227
878.651	203
878.694	126
878.758	543
878.776	642
878.858	-379
878.865	-290
878.941	705
878.972	653
879.023	626
879.078	277
879.105	139
879.185	953
879.187	965
879.269	946
879.292	612
879.351	-211
879.399	-169
879.433	-16
879.506	300
879.516	329
879.598	18
879.613	-27
879.680	-381
879.720	-347
879.762	-274
879.827	-232
879.844	-225
879.926	332
879.933	305
880.007	143
880.040	180
880.089	335
880.147	658
880.171	765
880.253	2985
880.254	3000
880.335	4832
880.360	5069
880.417	6313
880.467	9813
880.499	12072
880.574	15705
880.580	15805
880.662	5863
880.680	4717
880.744	1081
880.787	337
880.825	58
880.893	91
880.907	132
880.989	-377
881.000	-295
881.070	273
881.106	466
881.152	436
881.213	82
881.233	33
881.315	159
881.319	162
881.396	463
881.426	308
881.478	-392
881.532	-463
881.559	-152
881.639	158
881.641	153
881.722	440
881.745	373
881.803	290
881.852	170
881.885	109
881.958	487
881.966	508
882.047	561
882.064	527
882.129	737
882.171	1150
882.210	1457
882.277	2511
882.291	2698
882.372	1189
882.383	1028
882.454	100
882.489	123
882.535	20
882.596	-26
882.616	5
882.697	-121
882.702	-133
882.778	46
882.808	150
882.859	167
882.914	95
882.940	-26
883.020	25
883.021	29
883.102	-115
883.127	-195
883.183	-194
883.233	12
883.264	2
883.339	-95
883.345	-82
883.426	-71
883.445	-77
883.507	-164
883.551	-67
883.587	44
883.657	54
883.668	81
883.749	363
883.763	417
883.830	350
883.869	162
883.910	248
883.975	349
883.991	250
884.072	75
884.081	47
884.152	129
884.187	-1
884.233	-57
884.292	63
884.314	-8
884.394	-390
884.398	-390
884.475	308
884.504	407
884.555	94
884.610	-121
884.636	-109
884.716	-107
884.716	-103
884.797	275
884.821	361
884.877	326
884.927	134
884.958	173
885.033	208
885.038	185
885.118	17
885.139	-103
885.199	-171
885.244	93
885.279	267
885.350	234
885.359	249
885.439	487
885.456	498
885.520	75
885.561	-163
885.600	-181
885.667	-88
885.680	-64
885.760	45
885.773	24
885.840	-25
885.878	115
885.920	132
885.984	-154
886.000	-88
886.080	564
886.089	587
886.160	164
886.195	113
886.240	184
886.300	222
886.320	236
886.400	311
886.406	301
886.480	317
886.511	501
886.560	869
886.616	892
886.640	688
886.720	234
886.722	215
886.800	57
886.827	170
886.879	368
886.932	397
886.959	461
887.038	523
887.039	522
887.119	214
887.143	141
887.198	204
887.248	175
887.278	173
887.354	138
887.358	142
887.437	200
887.459	224
887.517	678
887.564	996
887.596	664
887.669	117
887.676	153
887.755	325
887.774	361
887.835	-4
887.880	-114
887.914	66
887.985	226
887.994	223
888.073	123
888.090	133
888.153	34
888.195	-106
888.232	-119
888.300	-2
888.311	-21
888.391	-349
888.405	-393
888.470	324
888.510	751
888.549	546
888.615	277
888.628	302
888.708	315
888.720	331
888.787	421
888.825	397
888.866	306
888.930	269
888.945	312
889.024	428
889.035	453
889.103	467
889.140	441
889.182	369
889.245	284
889.261	332
889.340	540
889.349	563
889.419	30
889.454	-230
889.498	13
889.559	354
889.577	343
889.656	297
889.664	294
889.735	-134
889.768	-334
889.814	212
889.873	939
889.978	200
890.083	267
890.187	86
890.292	14
890.397	296
890.501	805
890.606	382
890.710	538
890.815	576
890.919	1162
891.024	-256
891.128	309
891.233	-3
891.337	66
891.442	562
891.546	472
891.650	128
891.755	1119
891.859	1285
891.963	829
892.068	747
892.172	-200
892.276	-411
892.380	1001
892.484	-19
892.589	691
892.693	1035
892.797	-222
892.901	402
893.005	-153
893.109	387
893.213	981
893.317	618
893.421	98
893.525	-29
893.629	7
893.733	1279
893.837	306
893.941	-62
894.045	346
894.148	-397
894.252	584
894.356	894
894.460	1302
894.564	192
894.667	-351
894.771	-9
894.875	-431
894.978	682
895.082	46
895.186	453
895.289	1233
895.393	-357
895.496	420
895.600	139
895.703	152
895.807	192
895.910	262
896.014	307
896.117	342
896.221	489
896.324	844
896.427	-477
896.531	-59
896.634	62
896.737	602
896.840	1022
896.944	288
897.047	3
897.150	-20
897.253	41
897.356	420
897.460	-126
897.563	46
897.666	-23
897.769	434
897.872	-74
897.975	-184
898.078	-38
898.181	496
898.284	785
898.387	-285
898.490	355
898.593	836
898.695	-139
898.798	399
898.901	910
899.004	1074
899.107	-365
899.209	457
899.312	721
899.415	403
899.518	71
899.620	188
899.723	676
899.826	538
899.928	407
900.031	669
900.133	-298
900.236	-950
900.338	-674
900.441	-423
900.543	-307
900.646	142
900.748	-43
900.851	-4
900.953	-246
901.055	185
901.158	-400
901.260	70
901.362	-80
901.465	-110
901.567	643
901.669	635
901.771	332
901.873	618
901.976	-11
902.078	668
902.180	-367
902.282	-32
902.384	-422
902.486	192
902.588	-909
902.690	436
902.792	-43
902.894	-765
902.996	-264
903.098	178
903.200	-204
903.302	753
903.404	198
903.505	73
903.607	59
903.709	535
903.811	107
903.913	466
904.014	126
904.116	-104
904.218	284
904.319	187
904.421	187
904.523	232
904.624	726
904.726	64
904.827	-123
904.929	-43
905.030	641
905.132	405
905.233	380
905.335	154
905.436	417
905.537	16
905.639	366
905.740	428
905.841	-654
905.943	118
906.044	182
906.145	202
906.247	-117
906.348	666
906.449	-362
906.550	448
906.651	403
906.752	-547
906.854	81
906.955	132
907.056	-831
907.157	266
907.258	-171
907.359	461
907.460	-13
907.561	374
907.662	-74
907.762	361
907.863	-172
907.964	152
908.065	102
908.166	-571
908.267	306
908.367	-347
908.468	783
908.569	303
908.670	566
908.770	282
908.871	381
908.971	526
909.072	373
909.173	280
909.273	470
909.374	-494
909.474	211
909.575	615
909.675	421
909.776	448
909.876	421
909.977	413
910.077	782
910.177	-143
910.278	635
910.378	-552
910.478	496
910.579	-22
910.679	-260
910.779	82
910.879	-319
910.980	194
911.080	324
911.180	-39
911.280	-5
911.380	-238
911.480	552
911.580	-64
911.680	-121
911.780	474
911.880	-271
911.980	-22
912.080	-310
912.180	-157
912.280	558
912.380	-499
912.480	-382
912.580	253
912.679	-133
912.779	22
912.879	-160
912.979	781
913.078	-299
913.178	333
913.278	284
913.377	115
913.477	393
913.577	-9
913.676	345
913.776	612
913.875	925
913.975	519
914.074	469
914.174	-344
914.273	-768
914.373	1543
914.472	524
914.572	306
914.671	-179
914.770	400
914.870	498
914.969	361
915.068	177
915.167	109
915.267	-179
915.366	-754
915.465	-253
915.564	-205
915.663	110
915.763	122
915.862	788
915.961	-20
916.060	16
916.159	29
916.258	-377
916.357	-248
916.456	1029
916.555	-141
916.654	-174
916.752	233
916.851	382
916.950	387
917.049	84
917.148	-125
917.247	111
917.345	186
917.444	-190
917.543	610
917.642	-152
917.740	51
917.839	556
917.937	96
918.036	529
918.135	357
918.233	-236
918.332	-420
918.430	135
918.529	799
918.627	-490
918.726	369
918.824	-448
918.923	-41
919.021	-447
919.119	38
919.218	183
919.316	332
919.414	-140
919.512	367
919.611	17
919.709	8
919.807	604
919.905	-294
920.003	166
920.102	-193
920.200	-158
920.298	154
920.396	-120
920.494	980
920.592	-408
920.690	16
920.788	-266
920.886	-135
920.984	-415
921.082	-710
921.180	466
921.277	37
921.375	790
921.473	-104
921.571	788
921.669	93
921.766	929
921.864	-89
921.962	289
922.060	-12
922.157	234
922.255	818
922.352	146
922.450	1541
922.548	15
922.645	-285
922.743	-86
922.840	1371
922.938	888
923.035	518
923.133	555
923.230	877
923.327	989
923.425	1237
923.522	1104
923.619	1437
923.717	997
923.814	-36
923.911	499
924.008	1238
924.106	644
924.203	104
924.300	841
924.397	-240
924.494	490
924.591	204
924.688	735
924.786	864
924.883	499
924.979	651
925.077	483
925.173	497
925.270	758
925.367	836
925.464	475
925.561	1191
925.658	219
925.755	571
925.852	730
925.948	1543
926.045	776
926.142	812
926.239	438
926.335	148
926.432	557
926.529	1183
926.625	674
926.722	288
926.818	837
926.915	719
927.011	241
927.108	757
927.204	1357
927.301	285
927.397	19
927.494	774
927.590	854
927.687	-248
927.783	-257
927.879	537
927.976	-179
928.072	-57
928.168	361
928.264	-265
928.361	197
928.457	641
928.553	291
928.649	-158
928.745	-28
928.841	-188
928.937	-12
929.033	1372
929.129	-727
929.225	145
929.321	-92
929.417	-55
929.513	34
929.609	610
929.705	-745
929.801	560
929.897	483
929.993	350
930.089	-253
930.184	489
930.280	588
930.376	213
930.471	164
930.567	-235
930.663	456
930.758	-432
930.854	353
930.950	586
931.045	456
931.141	947
931.236	1041
931.332	322
931.427	-278
931.523	-325
931.618	745
931.714	-455
931.809	-382
931.905	435
932.000	-175
932.095	-418
932.191	-107
932.286	663
932.381	172
932.476	547
932.572	-333
932.667	434
932.762	-427
932.857	521
932.952	68
933.047	735
933.142	410
933.237	-665
933.332	363
933.427	-89
933.522	181
933.617	-109
933.712	-285
933.807	188
933.902	509
933.997	861
934.092	-82
934.187	283
934.282	552
934.376	-327
934.471	690
934.566	-189
934.661	554
934.755	75
934.850	370
934.945	-121
935.039	-24
935.134	-575
935.228	-369
935.323	890
935.417	-292
935.512	-824
935.606	-252
935.701	-105
935.795	-372
935.890	188
935.984	324
936.079	-71
936.173	870
936.267	-649
936.362	105
936.456	-22
936.550	545
936.644	-310
936.738	-761
936.833	1150
936.927	-569
937.021	-352
937.115	-359
937.209	-498
937.303	786
937.397	87
937.491	-37
937.585	566
937.679	-94
937.773	-44
937.867	-754
937.961	-781
938.055	939
938.149	216
938.243	-182
938.337	-264
938.430	316
938.524	583
938.618	-420
938.712	154
938.805	-365
938.899	-370
938.993	261
939.086	398
939.180	-799
939.274	-446
939.367	-370
939.461	-75
939.554	569
939.648	77
939.741	-469
939.835	848
939.928	82
940.022	-492
940.115	-165
940.208	577
940.302	69
940.395	-262
940.488	-284
940.582	702
940.675	-470
940.768	-703
940.861	-182
940.954	-67
941.048	-1321
941.141	-262
941.234	-701
941.327	114
941.420	-348
941.513	435
941.606	-811
941.699	-300
941.792	-114
941.885	-216
941.978	-631
942.071	-666
942.164	45
942.257	700
942.349	219
942.442	422
942.535	-351
942.628	48
942.721	282
942.813	174
942.906	-408
942.999	-818
943.091	202
943.184	-577
943.277	-214
943.369	114
943.462	-462
943.554	-65
943.647	-387
943.739	265
943.832	-225
943.924	-490
944.017	13
944.109	-931
944.201	-185
944.294	512
944.386	-51
944.478	-724
944.571	-379
944.663	-592
944.755	226
944.847	-374
944.940	134
945.032	-335
945.124	-466
945.216	178
945.308	-466
945.400	611
945.492	-475
945.584	464
945.676	-373
945.768	-1208
945.860	-16
945.952	-670
946.044	-8
946.136	-525
946.228	107
946.320	-292
946.412	-34
946.503	-234
946.595	-209
946.687	-104
946.779	-980
946.870	-584
946.962	-1018
947.054	-156
947.145	146
947.237	-319
947.329	-455
947.420	-170
947.512	-159
947.603	-947
947.695	484
947.786	474
947.878	-174
947.969	286
948.061	-790
948.152	-1720
948.243	-417
948.335	-633
948.426	-899
948.517	-110
948.609	-67
948.700	-403
948.791	-752
948.882	-778
948.973	-942
949.065	-841
949.156	-506
949.247	-620
949.338	-733
949.429	-981
949.520	240
949.611	-843
949.702	-164
949.793	118
949.884	-645
949.975	-491
950.066	-498
950.157	-253
950.247	-309
950.338	54
950.429	341
950.520	-798
950.611	-600
950.701	-245
950.792	66
950.883	-174
950.973	-747
951.064	-826
951.155	-434
951.245	-711
951.336	366
951.427	-778
951.517	-534
951.608	-43
951.698	261
951.788	-75
951.879	-488
951.969	-182
952.060	-246
952.150	401
952.240	-252
952.331	-1799
952.421	322
952.511	-288
952.602	-740
952.692	205
952.782	-292
952.872	-493
952.962	-188
953.052	-749
953.143	-1038
953.233	323
953.323	412
953.413	-545
953.503	-291
953.593	-598
953.683	-61
953.773	-1098
953.863	-345
953.953	-882
954.042	-673
954.132	-900
954.222	954
954.312	-42
954.402	-605
954.492	-425
954.581	-791
954.671	-530
954.761	-1250
954.850	472
954.940	-1683
955.030	-344
955.119	-1013
955.209	-58
955.298	-977
955.388	68
955.477	-570
955.567	-613
955.656	-300
955.746	-574
955.835	-369
955.925	-464
956.014	-1023
956.103	-574
956.193	-870
956.282	-662
956.371	-297
956.461	-604
956.550	-925
956.639	-474
956.728	-959
956.817	-830
956.906	-629
956.995	-119
957.085	-1147
957.174	-46
957.263	-373
957.352	-536
957.441	-168
957.530	-1295
957.619	-36
957.708	-263
957.796	-556
957.885	5
957.974	-985
958.063	-342
958.152	-1234
958.241	-698
958.329	-809
958.418	-721
958.507	-715
958.596	-470
958.684	-1277
958.773	52
958.861	-449
958.950	-451
959.039	-433
959.127	-342
959.216	-434
959.304	-272
959.393	-742
959.481	11
959.570	-662
959.658	-122
959.746	-605
959.835	362
959.923	-492
960.011	-871
960.100	159
960.188	-648
960.276	-871
960.365	-222
960.453	-833
960.541	-642
960.629	-134
960.717	-268
960.805	-759
960.893	-549
960.981	-537
961.069	-418
961.158	-591
961.245	-52
961.333	-578
961.421	-780
961.509	-834
961.597	259
961.685	-752
961.773	-461
961.861	-860
961.949	13
962.036	-479
962.124	69
962.212	-898
962.299	-836
962.387	-1371
962.475	-2
962.562	-1482
962.650	-142
962.738	-351
962.825	-1108
962.913	405
963.000	-376
963.088	-174
963.175	-1238
963.263	-870
963.350	-496
963.438	-464
963.525	-1060
963.612	-32
963.700	90
963.787	2125
963.874	598
963.962	-676
964.049	-294
964.136	-1191
964.223	-704
964.310	-1206
964.398	-833
964.485	32
964.572	162
964.659	-399
964.746	599
964.833	-191
964.920	-530
965.007	0
965.094	-240
965.181	-1260
965.268	-393
965.355	-450
965.441	-479
965.528	-1714
965.615	-357
965.702	-699
965.789	-793
965.875	-860
965.962	-424
966.049	-503
966.136	-313
966.222	-1096
966.309	119
966.395	-472
966.482	-333
966.569	-146
966.655	-588
966.742	-39
966.828	-424
966.915	-1179
967.001	-62
967.087	-1288
967.174	-528
967.260	-960
967.347	70
967.433	-285
967.519	1420
967.605	244
967.692	-224
967.778	-573
967.864	-580
967.950	-1140
968.036	-570
968.123	150
968.209	-603
968.295	-1465
968.381	-20
968.467	-657
968.553	-779
968.639	290
968.725	-689
968.811	167
968.897	518
968.983	-1006
969.069	-1212
969.154	-106
969.240	-987
969.326	-1075
969.412	-871
969.497	-658
969.583	-1340
969.669	-21
969.755	-419
969.840	-612
969.926	-544
970.012	-338
970.097	-132
970.183	-867
970.268	-495
970.354	326
970.439	-391
970.525	1130
970.610	-637
970.696	-600
970.781	-403
970.866	-1359
970.952	-374
971.037	-502
971.122	-370
971.208	-633
971.293	-306
971.378	-1087
971.463	212
971.549	-132
971.634	-678
971.719	-750
971.804	-348
971.889	-417
971.974	-785
972.059	-135
972.144	-984
972.229	100
972.314	-933
972.399	-743
972.484	-1026
972.569	443
972.654	-1340
972.739	254
972.824	-463
972.908	135
972.993	-982
973.078	219
973.163	-777
973.247	-947
973.332	-2032
973.417	1562
973.501	-1120
973.586	-954
973.671	-563
973.755	-1405
973.840	244
973.924	-33
974.009	70
974.093	-165
974.178	61
974.262	-1023
974.346	-169
974.431	-504
974.515	-950
974.600	-596
974.684	-157
974.768	-897
974.852	-103
974.937	-1722
975.021	423
975.105	-487
975.189	-1044
975.273	-189
975.358	-872
975.442	-946
975.526	190
975.610	-1395
975.694	-1183
975.778	-288
975.862	-472
975.946	-1523
976.030	673
976.114	-1279
976.198	-161
976.281	-445
976.365	-190
976.449	-617
976.533	-696
976.617	-409
976.700	-770
976.784	-831
976.868	-1071
976.951	782
977.035	-873
977.119	-368
977.202	-294
977.286	132
977.369	20
977.453	-771
977.536	-800
977.620	-134
977.703	-570
977.787	-1462
977.870	448
977.953	-313
978.037	-1219
978.120	406
978.203	-796
978.287	90
978.370	-416
978.453	-1239
978.536	-362
978.620	435
978.703	-207
978.786	-808
978.869	-475
978.952	-1245
979.035	-1007
979.118	301
979.201	-971
979.284	-309
979.367	-839
979.450	-588
979.533	-1536
979.616	-942
979.699	-495
979.782	-617
979.865	-214
979.948	-250
980.030	-786
980.113	-1063
980.196	-933
980.279	167
980.361	-723
980.444	-621
980.526	-295
980.609	-906
980.692	-823
980.774	-80
980.857	-1402
980.939	-782
981.022	-987
981.104	-902
981.187	-919
981.269	149
981.352	-178
981.434	-1889
981.516	-978
981.599	641
981.681	-11
981.763	-459
981.846	-208
981.928	-279
982.010	-1316
982.092	-1471
982.174	-735
982.256	-994
982.339	-951
982.421	-439
982.503	-303
982.585	-1093
982.667	-625
982.749	-897
982.831	-670
982.913	-1556
982.995	728
983.077	-1164
983.158	77
983.240	-1544
983.322	70
983.404	1
983.486	-1085
983.568	-11
983.649	-888
983.731	200
983.813	-1090
983.894	-65
983.976	-1343
984.058	-740
984.139	403
984.221	-1276
984.302	-68
984.384	-984
984.465	-829
984.547	-880
984.628	-1082
984.710	357
984.791	-164
984.872	-266
984.954	-1174
985.035	-384
985.116	-1017
985.198	-1322
985.279	44
985.360	-327
985.441	-46
985.522	-163
985.604	-452
985.685	-1213
985.766	162
985.847	250
985.928	-1793
986.009	-463
986.090	-847
986.171	-529
986.252	-614
986.333	-702
986.414	-515
986.495	-450
986.576	-97
986.656	-1124
986.737	380
986.818	-504
986.899	-1264
986.980	-1582
987.060	1
987.141	-1648
987.222	-963
987.302	-893
987.383	-470
987.464	-945
987.544	-410
987.625	-974
987.705	-587
987.786	-921
987.866	-846
987.947	-552
988.027	196
988.108	-1447
988.188	-577
988.268	-968
988.349	-804
988.429	-259
988.509	-511
988.589	-1267
988.670	-2247
988.750	490
988.830	-348
988.910	-738
988.990	-536
989.070	-818
989.151	-1233
989.231	-384
989.311	-1028
989.391	-130
989.471	-499
989.551	-1237
989.631	-1065
989.711	-1045
989.791	-906
989.870	-1727
989.950	676
990.030	-1122
990.110	-772
990.190	-1054
990.269	-732
990.349	-1107
990.429	-539
990.509	119
990.588	-1012
990.668	49
990.747	81
990.827	-1300
990.907	-414
990.986	-810
991.066	-757
991.145	-1221
991.225	-290
991.304	-1539
991.383	-776
991.463	-788
991.542	-526
991.622	-800
991.701	-1076
991.780	-786
991.859	-1116
991.939	-964
992.018	-627
992.097	-537
992.176	-734
992.256	-503
992.335	-1376
992.414	-320
992.493	-1233
992.572	-1876
992.651	354
992.730	-231
992.809	-652
992.888	-1443
992.967	-1179
993.046	58
993.125	-1568
993.203	-1126
993.282	-106
993.361	-1094
993.440	-643
993.519	-1558
993.597	-859
993.676	-754
993.755	-310
993.834	-1141
993.912	-1387
993.991	28
994.069	-1470
994.148	-1000
994.226	-739
994.305	-892
994.384	-2153
994.462	-374
994.540	-1111
994.619	-1227
994.697	165
994.776	-588
994.854	-556
994.932	-2017
995.011	485
995.089	-730
995.167	-38
995.245	-632
995.324	-1444
995.402	-819
995.480	-1205
995.558	-776
995.636	-1488
995.714	-1070
995.792	-622
995.870	-1321
995.948	-1832
996.026	-438
996.104	-2258
996.182	-453
996.260	-1526
996.338	-216
996.416	-2130
996.494	-1783
996.572	104
996.649	-1174
996.727	-2296
996.805	-788
996.883	-172
996.960	-1759
997.038	-555
997.116	-501
997.193	-1828
997.271	-1252
997.348	-564
997.426	-1885
997.504	-1441
997.581	-729
997.658	-657
997.736	-1800
997.813	-1814
997.891	-1045
997.968	-1293
998.046	-1646
998.123	-1190
998.200	-1579
998.277	-1221
998.355	-582
998.432	-2046
998.509	-732
998.586	-803
998.663	-953
998.741	-992
998.818	-957
998.895	-1308
998.972	-579
999.049	-1374
999.126	-1715
999.203	132
999.280	-1601
999.357	-1483
999.434	-815
999.511	-1034
999.587	-658
999.664	-1080
999.741	-432
999.818	-714
999.895	-1958
999.971	-1390
1000.048	-1024
1000.125	-1028
1000.202	-1413
1000.278	-46
1000.355	-1223
1000.431	-1641
1000.508	-1258
1000.584	-550
1000.661	-921
1000.738	-1914
1000.814	-1729
1000.890	-806
1000.967	-1649
1001.043	-455
1001.120	-1859
1001.196	-708
1001.272	-1527
1001.349	-1052
1001.425	-978
1001.501	-459
1001.577	-2126
1001.654	-1223
1001.730	-1806
1001.806	-1487
1001.882	-2249
1001.958	-1227
1002.034	-1501
1002.110	-907
1002.186	-1636
1002.262	-1406
1002.338	-2240
1002.414	-1123
1002.490	-227
1002.566	-1714
1002.642	-1427
1002.718	-329
1002.794	-1263
1002.870	-1476
1002.945	-2028
1003.021	-1454
1003.097	-412
1003.173	-1371
1003.248	-1522
1003.324	-1276
1003.400	-1283
1003.475	-1854
1003.551	-1266
1003.626	-934
1003.702	-1444
1003.777	-985
1003.853	-1027
1003.928	-2030
1004.004	-1579
1004.079	-762
1004.155	-1055
1004.230	-2213
1004.305	-626
1004.381	-1657
1004.456	-1453
1004.531	-1798
1004.607	-1531
1004.682	-1578
1004.757	-1626
1004.832	-1940
1004.907	-2018
1004.982	-997
1005.057	-1394
1005.133	-1231
1005.208	-2016
1005.283	-1186
1005.358	-634
1005.433	-1796
1005.508	-1155
1005.583	-2009
1005.657	-2422
1005.732	-672
1005.807	-1837
1005.882	-981
1005.957	-860
1006.032	-237
1006.106	-876
1006.181	-1515
1006.256	-1492
1006.331	-1426
1006.405	-1844
1006.480	-1508
1006.554	-2256
1006.629	-1678
1006.704	-1120
1006.778	-2162
1006.853	-873
1006.927	-1595
1007.002	-1847
1007.076	-1017
1007.150	-1643
1007.225	-1248
1007.299	-2010
1007.373	-1644
1007.448	-672
1007.522	-868
1007.596	-1524
1007.671	-1527
1007.745	-1311
1007.819	-2432
1007.893	-1253
1007.967	-1065
1008.041	-3361
1008.115	-1057
1008.190	-736
1008.264	-1317
1008.338	-2166
1008.412	-1301
1008.486	-1273
1008.560	-1798
1008.633	-1715
1008.707	-1741
1008.781	-1514
1008.855	-1908
1008.929	-1397
1009.003	-1794
1009.076	-1272
1009.150	-1425
1009.224	-1778
1009.298	-1224
1009.371	-2011
1009.445	-721
1009.519	-1774
1009.592	-2309
1009.666	-1257
1009.739	-1251
1009.813	-2073
1009.886	-1551
1009.960	-2015
1010.033	-1900
1010.107	-1138
1010.180	-2267
1010.253	-2420
1010.327	-2333
1010.400	-1340
1010.473	-1512
1010.547	-26
1010.620	-1691
1010.693	-1154
1010.766	-1485
1010.840	-1578
1010.913	-1327
1010.986	-2064
1011.059	-2454
1011.132	-1754
1011.205	-1539
1011.278	-2354
1011.351	-2192
1011.424	-1180
1011.497	-1877
1011.570	-1634
1011.643	-1686
1011.716	-1861
1011.789	-1365
1011.862	-1524
1011.934	-1162
1012.007	-2581
1012.080	-1645
1012.153	-1837
1012.225	-894
1012.298	-1634
1012.371	-1408
1012.443	-1631
1012.516	-2396
1012.588	-1491
1012.661	-1127
1012.733	-2145
1012.806	-1236
1012.879	-2326
1012.951	-2029
1013.023	-1471
1013.096	-1456
1013.168	-1958
1013.241	-1663
1013.313	-1546
1013.385	-1460
1013.458	-1622
1013.530	-1402
1013.602	-1838
1013.674	-1228
1013.746	-2311
1013.819	-1690
1013.891	-1291
1013.963	-1628
1014.035	-1753
1014.107	-1349
1014.179	-1223
1014.251	-2243
1014.323	-1423
1014.395	-2062
1014.467	-1487
1014.539	-1531
1014.611	-1597
1014.683	-1247
1014.754	-1829
1014.826	-1669
1014.898	-1432
1014.970	-1531
1015.042	-1149
1015.113	-1311
1015.185	-1770
1015.257	-2239
1015.328	-851
1015.400	-1679
1015.471	-1995
1015.543	-2020
1015.615	-739
1015.686	-833
1015.757	-1629
1015.829	-1609
1015.901	-2022
1015.972	-1240
1016.043	-1740
1016.115	-1137
1016.186	-1631
1016.257	-1161
1016.328	-1554
1016.400	-669
1016.471	-1937
1016.542	-1349
1016.613	-2172
1016.685	-1196
1016.756	-1077
1016.827	-1779
1016.898	-2192
1016.969	-408
1017.040	-1462
1017.111	-2002
1017.182	-1424
1017.253	-699
1017.324	-1833
1017.395	-1235
1017.466	-1161
1017.537	-1816
1017.608	-1741
1017.678	-1636
1017.749	-1529
1017.820	-1740
1017.891	-1835
1017.961	-1289
1018.032	-2192
1018.103	-1442
1018.173	-1155
1018.244	-1902
1018.315	-1846
1018.385	-804
1018.456	-1222
1018.526	-2206
1018.597	-1609
1018.667	-1379
1018.738	-1284
1018.808	-1628
1018.878	-1685
1018.949	-1488
1019.019	-2158
1019.089	-974
1019.160	-1526
1019.230	-1102
1019.300	-1481
1019.371	-2452
1019.441	-1111
1019.511	-1863
1019.581	-1706
1019.651	-1278
1019.721	-1794
1019.791	-1039
1019.861	-2124
1019.931	-1228
1020.001	-2312
1020.071	-1723
1020.141	-2055
1020.211	-2018
1020.281	-2148
1020.351	-1844
1020.421	-1624
1020.491	-1019
1020.560	-1586
1020.630	-2266
1020.700	-1436
1020.770	-2617
1020.839	-1457
1020.909	-1901
1020.979	-1357
1021.048	-1703
1021.118	-1918
1021.187	-1016
1021.257	-1349
1021.326	-1224
1021.396	-1834
1021.465	-1451
1021.535	-2243
1021.604	-2234
1021.674	-1261
1021.743	-599
1021.812	-2315
1021.882	-2088
1021.951	-682
1022.020	-1278
1022.089	-1604
1022.159	-2203
1022.228	-2333
1022.297	-2608
1022.366	-1233
1022.435	-1164
1022.504	-1638
1022.573	-1425
1022.642	-1351
1022.711	-1622
1022.781	-1630
1022.849	-797
1022.918	-2384
1022.987	-1963
1023.056	-1739
1023.125	-2101
1023.194	-1644
1023.263	-2079
1023.331	-1539
1023.400	-1538
1023.469	-1875
1023.538	-1576
1023.606	-1850
1023.675	-1906
1023.744	-2353
1023.812	-2071
1023.881	-1638
1023.949	-1668
1024.018	-1536
1024.086	-1637
1024.155	-1967
1024.223	-2169
1024.292	-2239
1024.360	-1755
1024.429	-1674
1024.497	-2474
1024.565	-1718
1024.634	-1352
1024.702	-1309
1024.770	-1907
1024.838	-1954
1024.907	-1157
1024.975	-1262
1025.043	-786
1025.111	-1910
1025.179	-2110
1025.247	-1673
1025.315	-1768
1025.383	-2168
1025.451	-1044
1025.519	-2049
1025.587	-2352
1025.655	-1785
1025.723	-1062
1025.791	-910
1025.859	-607
1025.927	-891
1025.995	-1948
1026.062	-1225
1026.130	-1915
1026.198	-1579
1026.266	-1374
1026.333	-1148
1026.401	-1579
1026.469	-2097
1026.536	-1317
1026.604	-2015
1026.671	-1735
1026.739	-1575
1026.806	-2385
1026.874	-2436
1026.941	-2184
1027.009	-1343
1027.076	-2255
1027.144	-1237
1027.211	-2532
1027.278	-2098
1027.345	-1333
1027.413	-1669
1027.480	-1909
1027.547	-1140
1027.614	-1253
1027.682	-2347
1027.749	-1518
1027.816	-2125
1027.883	-827
1027.950	-1405
1028.017	-1502
1028.084	-1318
1028.151	-1691
1028.218	-1916
1028.285	-1749
1028.352	-1749
1028.419	-1672
1028.486	-1594
1028.553	-1484
1028.619	-2371
1028.686	-1088
1028.753	-1983
1028.820	-1353
1028.886	-1633
1028.953	-1682
1029.020	-2167
1029.086	-963
1029.153	-1690
1029.220	-1709
1029.286	-1044
1029.353	-1047
1029.419	-1729
1029.486	-1558
1029.552	-2057
1029.619	-1799
1029.685	-1414
1029.751	-2134
1029.818	-1256
1029.884	-1471
1029.951	-1219
1030.017	-1414
1030.083	-1383
1030.149	-1045
1030.216	-1763
1030.282	-1721
1030.348	-2295
1030.414	-2194
1030.480	-1664
1030.546	-2107
1030.612	-1644
1030.678	-1459
1030.744	-1409
1030.810	-2120
1030.876	-1296
1030.942	-1861
1031.008	-1782
1031.074	-2243
1031.140	-1760
1031.206	-618
1031.272	-1823
1031.337	-1698
1031.403	-1499
1031.469	-1769
1031.534	-1424
1031.600	-1599
1031.666	-2971
1031.731	-1197
1031.797	-1990
1031.863	-2340
1031.928	-1993
1031.994	-2811
1032.059	-2070
1032.125	-2104
1032.190	-1508
1032.256	-2001
1032.321	-1785
1032.386	-1713
1032.452	-228
1032.517	-1704
1032.582	-1915
1032.647	-2027
1032.713	-2096
1032.778	-1933
1032.843	-2023
1032.908	-1787
1032.974	-956
1033.039	-2063
1033.104	-692
1033.169	-1346
1033.234	-2099
1033.299	-728
1033.364	-1418
1033.429	-1704
1033.494	-966
1033.559	-1106
1033.624	-1217
1033.688	-1468
1033.753	-2039
1033.818	-1512
1033.883	-2149
1033.948	-1948
1034.013	-2620
1034.077	-1208
1034.142	-1158
1034.207	-1581
1034.271	-1370
1034.336	-622
1034.400	-917
1034.465	-1313
1034.530	-1181
1034.594	-1635
1034.658	-1716
1034.723	-2413
1034.787	-1248
1034.852	-1658
1034.916	-1936
1034.981	-1943
1035.045	-1307
1035.109	-1803
1035.173	-1919
1035.238	-2018
1035.302	-1333
1035.366	-1554
1035.430	-2628
1035.495	-1966
1035.559	-1544
1035.623	-1938
1035.687	-1768
1035.751	-1301
1035.815	-2412
1035.879	-1870
1035.943	-1151
1036.007	-1545
1036.071	-1601
1036.135	-2097
1036.198	-1657
1036.262	-1775
1036.326	-1621
1036.390	-1858
1036.454	-1253
1036.517	-664
1036.581	-1014
1036.645	-1012
1036.709	-1830
1036.772	-2104
1036.836	-1456
1036.900	-1710
1036.963	-1500
1037.026	-2287
1037.090	-2232
1037.154	-1798
1037.217	-2252
1037.280	-2149
1037.344	-2116
1037.407	-1710
1037.471	-2157
1037.534	-1389
1037.597	-2566
1037.661	-1683
1037.724	-1758
1037.787	-1964
1037.850	-1742
1037.913	-1978
1037.977	-1942
1038.040	-626
1038.103	-1858
1038.166	-2003
1038.229	-1264
1038.292	-1263
1038.355	-1420
1038.418	-1362
1038.481	-1698
1038.544	-2263
1038.607	-2529
1038.670	-1676
1038.732	-1636
1038.795	-1907
1038.858	-2696
1038.921	-926
1038.984	-1522
1039.046	-1453
1039.109	-2133
1039.172	-1707
1039.234	-2427
1039.297	-1847
1039.360	-1502
1039.422	-1919
1039.485	-1270
1039.547	-2310
1039.610	-994
1039.672	-1132
1039.734	-1923
1039.797	-1379
1039.859	-1297
1039.922	-1038
1039.984	-1651
1040.046	-2011
1040.109	-1799
1040.171	-1701
1040.233	-1486
1040.295	-2185
1040.358	-1395
1040.420	-2168
1040.482	-2157
1040.544	-2208
1040.606	-1908
1040.668	-1861
1040.730	-1507
1040.792	-1731
1040.854	-1605
1040.916	-2035
1040.978	-2127
1041.040	-1503
1041.102	-1431
1041.164	-2638
1041.225	-1633
1041.287	-1492
1041.349	-1758
1041.411	-2637
1041.472	-1809
1041.534	-1517
1041.596	-1587
1041.657	-1883
1041.719	-2266
1041.781	-2031
1041.842	-1754
1041.904	-2028
1041.965	-2148
1042.027	-2211
1042.088	-2331
1042.150	-1974
1042.211	-1152
1042.272	-1713
1042.334	-1774
1042.395	-1663
1042.456	-1860
1042.518	-1932
1042.579	-1472
1042.640	-1892
1042.701	-1732
1042.763	-2089
1042.824	-1745
1042.885	-2520
1042.946	-2046
1043.007	-2087
1043.068	-1857
1043.129	-1761
1043.190	-1737
1043.251	-981
1043.312	-1683
1043.373	-1302
1043.434	-1777
1043.495	-1907
1043.556	-1887
1043.616	-1747
1043.677	-2230
1043.738	-1614
1043.799	-2159
1043.859	-1431
1043.920	-929
1043.981	-1825
1044.041	-1568
1044.102	-1752
1044.162	-1611
1044.223	-1761
1044.284	-1797
1044.344	-1847
1044.405	-1963
1044.465	-2090
1044.525	-1934
1044.586	-1269
1044.646	-1610
1044.707	-1612
1044.767	-1364
1044.827	-1337
1044.887	-2263
1044.948	-1581
1045.008	-1513
1045.068	-1364
1045.128	-1930
1045.188	-1824
1045.249	-1659
1045.309	-1285
1045.369	-1641
1045.429	-2014
1045.489	-1338
1045.549	-2028
1045.609	-1733
1045.669	-2141
1045.729	-2076
1045.789	-1662
1045.848	-1391
1045.908	-907
1045.968	-1710
1046.028	-1265
1046.088	-1131
1046.147	-1124
1046.207	-2311
1046.267	-1800
1046.326	-1726
1046.386	-1056
1046.446	-1053
1046.505	-1502
1046.565	-543
1046.624	-180
1046.684	-1017
1046.743	-1074
1046.803	-827
1046.862	-1240
1046.922	0
