'Start Wavelength	183.907
'End Wavelength	1046.922
'Gate Delay	5.000
'Gate Width (ms)	1.050
'Laser Output Level	0.000
'X Position	0.000
'Y Position	0.000
'Z Position	0.000
'Grid Point Number	1.000
'Shot Number	100.000
183.907	113.000
183.977	140.000
184.047	-109
184.116	-349
184.186	231
184.256	99
184.325	-297
184.395	-1121
184.465	564
184.534	-178
184.604	85
184.674	-27
184.743	-53
184.813	125
184.883	-85
184.952	-19
185.022	-15
185.092	-333
185.161	-39
185.231	132
185.301	493
185.370	285
185.440	-546
185.509	240
185.579	427
185.649	-527
185.718	738
185.788	745
185.857	-243
185.927	-141
185.996	-422
186.066	38
186.136	177
186.205	362
186.275	382
186.344	-119
186.414	25
186.483	-683
186.553	997
186.622	81
186.692	363
186.761	212
186.831	-51
186.900	-409
186.970	-63
187.039	-488
187.109	843
187.178	222
187.248	-233
187.317	95
187.387	-135
187.456	-228
187.526	-370
187.595	-114
187.664	-589
187.734	549
187.803	13
187.873	561
187.942	200
188.012	-574
188.081	575
188.150	-291
188.220	261
188.289	800
188.358	39
188.428	119
188.497	-80
188.567	438
188.636	7
188.705	98
188.775	-92
188.844	-775
188.913	480
188.983	-516
189.052	78
189.121	92
189.191	116
189.260	280
189.329	52
189.399	-281
189.468	608
189.537	-236
189.606	1011
189.676	-830
189.745	68
189.814	226
189.883	3
189.953	513
190.022	493
190.091	1080
190.161	1167
190.230	881
190.299	33
190.368	-463
190.437	347
190.507	469
190.576	496
190.645	55
190.714	-181
190.783	-309
190.853	929
190.922	610
190.991	-173
191.060	689
191.129	-591
191.198	-275
191.268	145
191.337	-58
191.406	1052
191.475	-210
191.544	-334
191.613	-266
191.682	-173
191.752	79
191.821	56
191.890	-973
191.959	513
192.028	-139
192.097	90
192.166	323
192.235	-661
192.304	-84
192.373	-363
192.442	648
192.511	713
192.580	-153
192.650	548
192.719	-643
192.788	-317
192.857	214
192.926	748
192.995	-390
193.064	807
193.133	437
193.202	1510
193.271	408
193.340	1215
193.409	361
193.478	941
193.547	872
193.615	1756
193.684	1815
193.753	277
193.822	541
193.891	371
193.960	862
194.029	170
194.098	-103
194.167	501
194.236	127
194.305	277
194.374	-299
194.443	-414
194.512	-182
194.580	140
194.649	638
194.718	879
194.787	478
194.856	265
194.925	1396
194.994	202
195.062	544
195.131	978
195.200	363
195.269	1416
195.338	474
195.407	-117
195.475	-362
195.544	904
195.613	645
195.682	492
195.751	-80
195.819	1133
195.888	-667
195.957	1158
196.026	964
196.094	802
196.163	731
196.232	1242
196.301	27
196.369	1146
196.438	732
196.507	689
196.576	256
196.644	577
196.713	-276
196.782	213
196.850	417
196.919	463
196.988	-49
197.056	143
197.125	467
197.194	741
197.262	-319
197.331	939
197.400	112
197.468	153
197.537	192
197.606	10
197.674	414
197.743	1209
197.812	942
197.880	1776
197.949	1263
198.017	1791
198.086	927
198.155	682
198.223	474
198.292	1772
198.360	675
198.429	360
198.497	533
198.566	1289
198.635	2067
198.703	1263
198.772	63
198.840	2447
198.909	1960
198.977	569
199.046	298
199.114	497
199.183	698
199.251	500
199.320	-211
199.388	841
199.457	-93
199.525	694
199.594	226
199.662	-8
199.731	74
199.799	828
199.867	546
199.936	37
200.004	678
200.073	1001
200.141	-120
200.210	483
200.278	-235
200.346	993
200.415	1342
200.483	623
200.552	212
200.620	110
200.688	-220
200.757	-55
200.825	-53
200.893	-58
200.962	128
201.030	274
201.098	502
201.167	140
201.235	133
201.303	661
201.372	275
201.440	288
201.508	407
201.577	524
201.645	554
201.713	202
201.781	741
201.850	974
201.918	-16
201.986	709
202.055	136
202.123	787
202.191	776
202.259	486
202.327	656
202.396	603
202.464	312
202.532	690
202.600	2607
202.669	1959
202.737	686
202.805	830
202.873	408
202.941	986
203.009	941
203.078	576
203.146	129
203.214	178
203.282	-262
203.350	649
203.418	193
203.487	149
203.555	-443
203.623	128
203.691	1214
203.759	407
203.827	210
203.895	654
203.963	-291
204.031	403
204.099	423
204.168	550
204.236	1331
204.304	628
204.372	230
204.440	1239
204.508	220
204.576	403
204.644	666
204.712	694
204.780	783
204.848	1335
204.916	506
204.984	-84
205.052	-39
205.120	766
205.188	546
205.256	361
205.324	323
205.392	621
205.460	489
205.528	276
205.596	-10
205.664	648
205.732	243
205.799	2304
205.867	3303
205.935	741
206.003	1569
206.071	232
206.139	792
206.207	1139
206.275	303
206.343	778
206.411	719
206.478	478
206.546	903
206.614	517
206.682	595
206.750	699
206.818	2212
206.885	1114
206.953	-1037
207.021	1308
207.089	374
207.157	650
207.225	678
207.292	1037
207.360	168
207.428	769
207.496	12
207.563	200
207.631	782
207.699	705
207.767	428
207.834	601
207.902	861
207.970	1080
208.038	1068
208.105	421
208.173	440
208.241	1035
208.309	1364
208.376	1414
208.444	2207
208.512	1117
208.579	-137
208.647	1124
208.715	1335
208.782	564
208.850	661
208.918	1444
208.985	82
209.053	1357
209.120	804
209.188	652
209.256	217
209.323	1012
209.391	1245
209.459	1307
209.526	736
209.594	1433
209.661	1323
209.729	1020
209.796	948
209.864	693
209.932	-459
209.999	2032
210.067	412
210.134	42
210.202	1097
210.269	1586
210.337	1540
210.404	1652
210.472	775
210.539	729
210.607	773
210.674	1383
210.742	585
210.809	1505
210.877	1488
210.944	1951
211.012	571
211.079	2497
211.146	1243
211.214	1205
211.281	1614
211.349	1719
211.416	1212
211.484	2173
211.551	1350
211.618	974
211.686	956
211.753	669
211.821	1063
211.888	1106
211.955	1068
212.023	932
212.090	1212
212.157	1665
212.225	995
212.292	2603
212.359	3420
212.427	10527
212.494	4073
212.561	2000
212.629	1565
212.696	1237
212.763	1232
212.831	745
212.898	1042
212.965	1108
213.032	686
213.100	711
213.167	952
213.234	1502
213.301	1608
213.369	1889
213.436	892
213.503	86
213.570	1537
213.638	1714
213.705	348
213.772	1106
213.839	838
213.906	1937
213.973	1399
214.041	701
214.108	1599
214.175	1507
214.242	813
214.309	1901
214.376	1850
214.444	721
214.511	1830
214.578	1696
214.645	1875
214.712	2211
214.779	1374
214.846	1162
214.913	1517
214.980	2575
215.048	1251
215.115	1825
215.182	2051
215.249	1850
215.316	879
215.383	1602
215.450	766
215.517	956
215.584	1381
215.651	1035
215.718	967
215.785	1355
215.852	780
215.919	1635
215.986	1058
216.053	1505
216.120	259
216.187	1590
216.254	1239
216.321	970
216.388	1153
216.455	1696
216.522	1220
216.589	2327
216.656	3175
216.722	2858
216.789	2271
216.856	2336
216.923	1903
216.990	2060
217.057	1028
217.124	2014
217.191	1904
217.258	2553
217.324	3500
217.391	3637
217.458	2120
217.525	2070
217.592	2037
217.659	1409
217.725	1781
217.792	2156
217.859	3060
217.926	1148
217.993	787
218.059	1557
218.126	978
218.193	1535
218.260	497
218.327	446
218.393	890
218.460	756
218.527	449
218.594	514
218.660	2297
218.727	2320
218.794	757
218.860	2236
218.927	86
218.994	1179
219.061	1367
219.127	1502
219.194	2054
219.261	1668
219.327	-124
219.394	1386
219.461	240
219.527	846
219.594	1577
219.661	1547
219.727	131
219.794	1617
219.860	-232
219.927	1406
219.994	2072
220.060	3257
220.127	1948
220.193	1858
220.260	1638
220.326	2626
220.393	4147
220.460	5637
220.526	4238
220.593	2667
220.659	2608
220.726	2390
220.792	6281
220.859	5607
220.925	7761
220.992	11345
221.058	9808
221.125	8994
221.191	6114
221.258	2419
221.324	2506
221.391	1400
221.457	1362
221.524	1536
221.590	1883
221.657	6173
221.723	4304
221.789	4303
221.856	3844
221.922	1606
221.989	1863
222.055	1673
222.121	278
222.188	3105
222.254	1139
222.321	850
222.387	-624
222.453	1457
222.520	1030
222.586	276
222.652	914
222.719	648
222.785	1185
222.851	343
222.918	830
222.984	1121
223.050	-132
223.116	122
223.183	1639
223.249	885
223.315	54
223.382	601
223.448	23
223.514	236
223.580	637
223.647	515
223.713	611
223.779	-11
223.845	64
223.911	745
223.978	-507
224.044	205
224.110	546
224.176	1133
224.242	482
224.309	-20
224.375	959
224.441	669
224.507	10
224.573	-383
224.639	87
224.705	750
224.772	415
224.838	639
224.904	637
224.970	417
225.036	579
225.102	-315
225.168	842
225.234	1163
225.300	-180
225.366	697
225.432	-99
225.499	508
225.565	512
225.631	541
225.697	908
225.763	953
225.829	751
225.895	1842
225.961	2975
226.027	1753
226.093	1957
226.159	3051
226.225	4357
226.291	9507
226.357	16282
226.423	9229
226.489	3885
226.554	3063
226.620	2800
226.686	3123
226.752	5574
226.818	9328
226.884	21265
226.950	19127
227.016	7292
227.082	4051
227.148	2731
227.214	2382
227.279	2475
227.345	1717
227.411	1971
227.477	1663
227.543	5132
227.609	5835
227.674	3341
227.740	1603
227.806	2316
227.872	939
227.938	1719
228.003	2834
228.069	1540
228.135	887
228.201	752
228.267	185
228.332	1035
228.398	1294
228.464	1407
228.530	571
228.595	511
228.661	453
228.727	1283
228.792	1763
228.858	224
228.924	-69
228.990	2086
229.055	19
229.121	1609
229.187	498
229.252	496
229.318	267
229.384	1261
229.449	1867
229.515	-1484
229.581	-119
229.646	2211
229.712	1584
229.777	2581
229.843	2417
229.909	2771
229.974	2553
230.040	2286
230.105	1491
230.171	1237
230.236	1413
230.302	3462
230.368	2097
230.433	940
230.499	1370
230.564	1779
230.630	471
230.695	1188
230.761	687
230.826	-400
230.892	2232
230.957	390
231.023	653
231.088	989
231.154	543
231.219	1411
231.284	793
231.350	1396
231.415	835
231.481	880
231.546	633
231.612	683
231.677	580
231.742	-322
231.808	1941
231.873	50
231.939	-805
232.004	2187
232.069	2208
232.135	991
232.200	283
232.265	544
232.331	293
232.396	268
232.461	436
232.527	238
232.592	426
232.657	527
232.723	1493
232.788	696
232.853	701
232.918	434
232.984	144
233.049	395
233.114	133
233.179	1226
233.245	1949
233.310	1741
233.375	52
233.440	143
233.506	-419
233.571	323
233.636	513
233.701	155
233.766	1069
233.832	2216
233.897	1251
233.962	-620
234.027	1985
234.092	906
234.157	58
234.222	743
234.288	1103
234.353	4790
234.418	5089
234.483	2675
234.548	2086
234.613	977
234.678	1855
234.743	841
234.808	4921
234.873	2579
234.938	2033
235.004	746
235.069	1195
235.134	1001
235.199	1551
235.264	1314
235.329	-375
235.394	1064
235.459	1808
235.524	-286
235.589	907
235.654	841
235.719	416
235.784	1945
235.849	1119
235.913	1863
235.978	2463
236.043	3579
236.108	707
236.173	688
236.238	2395
236.303	505
236.368	445
236.433	2648
236.498	2999
236.563	3371
236.627	6768
236.692	24954
236.757	22027
236.822	7666
236.887	4895
236.952	4406
237.017	2152
237.081	3740
237.146	3671
237.211	10801
237.276	25451
237.341	42088
237.405	19441
237.470	7385
237.535	4691
237.600	2668
237.664	2209
237.729	1853
237.794	2404
237.859	7690
237.923	3777
237.988	1445
238.053	2965
238.118	2794
238.182	7501
238.247	7377
238.312	2470
238.376	2322
238.441	573
238.506	2060
238.570	660
238.635	1820
238.700	892
238.764	234
238.829	3427
238.893	3385
238.958	2632
239.023	1114
239.087	1457
239.152	545
239.216	143
239.281	1366
239.346	855
239.410	450
239.475	706
239.539	6658
239.604	5215
239.668	2157
239.733	1445
239.797	2982
239.862	8399
239.926	7933
239.991	3123
240.055	678
240.120	719
240.184	643
240.249	544
240.313	548
240.378	755
240.442	2810
240.507	6953
240.571	1412
240.635	2446
240.700	3598
240.764	1457
240.829	1312
240.893	69
240.957	1386
241.022	3614
241.086	6400
241.151	2130
241.215	406
241.279	1927
241.344	2057
241.408	1310
241.472	262
241.537	2573
241.601	1281
241.665	-147
241.730	872
241.794	2249
241.858	1381
241.922	816
241.987	492
242.051	777
242.115	524
242.179	632
242.244	201
242.308	2236
242.372	1822
242.436	1365
242.501	900
242.565	223
242.629	5
242.693	1812
242.757	-20
242.822	477
242.886	1272
242.950	1369
243.014	386
243.078	1708
243.142	1072
243.206	1339
243.271	1945
243.335	397
243.399	2790
243.463	10929
243.527	32915
243.591	11305
243.655	3193
243.719	883
243.783	2461
243.847	4151
243.911	5247
243.975	5082
244.040	3079
244.104	2547
244.168	588
244.232	2219
244.296	4115
244.360	4638
244.424	1690
244.488	1255
244.552	1676
244.615	-432
244.679	1126
244.743	1044
244.807	1314
244.871	1443
244.935	899
244.999	260
245.063	685
245.127	1679
245.191	2883
245.255	2683
245.319	2801
245.383	582
245.446	1805
245.510	259
245.574	1671
245.638	1967
245.702	125
245.766	6323
245.829	3610
245.893	1313
245.957	461
246.021	1361
246.085	1110
246.149	2245
246.212	6495
246.276	10056
246.340	3922
246.404	2595
246.467	2623
246.531	4329
246.595	2696
246.659	2475
246.722	1735
246.786	2918
246.850	3579
246.913	4177
246.977	176
247.041	1837
247.104	1937
247.168	2489
247.232	5444
247.295	14869
247.359	6909
247.423	2590
247.486	4918
247.550	4427
247.614	1341
247.677	3775
247.741	2086
247.804	1347
247.868	1526
247.932	4030
247.995	13476
248.059	4241
248.122	1145
248.186	3243
248.249	3887
248.313	21907
248.376	24245
248.440	14335
248.503	3871
248.567	4160
248.630	4838
248.694	7547
248.757	9975
248.821	24003
248.884	14184
248.948	10865
249.011	17688
249.075	27798
249.138	24964
249.202	8693
249.265	4240
249.328	5069
249.392	3758
249.455	3820
249.519	2490
249.582	3352
249.645	6337
249.709	5321
249.772	3611
249.835	3331
249.899	2735
249.962	3048
250.025	2776
250.089	7663
250.152	12044
250.215	5134
250.279	2828
250.342	4335
250.405	3916
250.468	2735
250.532	3832
250.595	7080
250.658	29507
250.721	53812
250.785	18156
250.848	9579
250.911	4084
250.974	4671
251.038	6102
251.101	14980
251.164	6518
251.227	7283
251.290	6247
251.354	9142
251.417	43500
251.480	43959
251.543	27325
251.606	79599
251.669	60916
251.732	22070
251.795	19561
251.859	20662
251.922	50508
251.985	30663
252.048	10517
252.111	7275
252.174	5683
252.237	11415
252.300	27911
252.363	30046
252.426	66598
252.489	28257
252.552	11632
252.615	7858
252.678	8342
252.741	19559
252.804	28340
252.867	66607
252.930	37360
252.993	20422
253.056	11640
253.119	7196
253.182	4939
253.245	9511
253.308	7661
253.371	6531
253.434	5516
253.497	6830
253.559	12991
253.622	7917
253.685	8703
253.748	10652
253.811	4000
253.874	5143
253.937	3595
254.000	3869
254.062	7962
254.125	13398
254.188	12457
254.251	9790
254.314	4068
254.376	8083
254.439	9000
254.502	7159
254.565	7778
254.628	16252
254.690	8272
254.753	3465
254.816	3212
254.878	4168
254.941	8573
255.004	10646
255.067	3656
255.129	3494
255.192	2126
255.255	715
255.317	2834
255.380	2216
255.443	188
255.505	718
255.568	1041
255.631	1613
255.693	1673
255.756	987
255.819	2247
255.881	1062
255.944	894
256.006	1223
256.069	1376
256.132	1740
256.194	1733
256.257	4873
256.319	3917
256.382	3283
256.444	2089
256.507	2492
256.569	811
256.632	2056
256.694	2139
256.757	12315
256.819	41904
256.882	16021
256.944	4670
257.007	4196
257.069	3158
257.132	1931
257.194	2025
257.257	1670
257.319	816
257.381	2015
257.444	8171
257.506	45143
257.569	51447
257.631	21996
257.693	11660
257.756	5331
257.818	2825
257.880	2470
257.943	2537
258.005	1040
258.067	1254
258.130	2309
258.192	2549
258.254	4573
258.317	3584
258.379	2063
258.441	7896
258.503	8080
258.566	6742
258.628	10669
258.690	2506
258.753	2757
258.815	4286
258.877	2230
258.939	1479
259.001	2078
259.064	1174
259.126	109
259.188	2204
259.250	2353
259.312	1821
259.375	8120
259.437	4169
259.499	2307
259.561	1260
259.623	2314
259.685	1224
259.747	2341
259.809	6508
259.872	14425
259.934	22136
259.996	22192
260.058	5747
260.120	2060
260.182	1640
260.244	1487
260.306	765
260.368	2223
260.430	333
260.492	4691
260.554	10245
260.616	5468
260.678	11113
260.740	15345
260.802	3039
260.864	2449
260.926	911
260.988	2838
261.050	1296
261.112	6412
261.174	17895
261.236	12906
261.298	2942
261.359	5871
261.421	9001
261.483	1413
261.545	2417
261.607	785
261.669	1028
261.731	2546
261.793	8521
261.854	4007
261.916	3243
261.978	2194
262.040	2643
262.102	1911
262.164	2520
262.225	3323
262.287	1769
262.349	5906
262.411	3806
262.472	2278
262.534	3006
262.596	8565
262.658	2161
262.719	1083
262.781	1818
262.843	6506
262.904	2929
262.966	1845
263.028	2310
263.090	15824
263.151	48953
263.213	16522
263.275	8280
263.336	2758
263.398	2979
263.459	1373
263.521	785
263.583	5309
263.644	4285
263.706	1509
263.767	380
263.829	1172
263.891	529
263.952	366
264.014	844
264.075	2484
264.137	9018
264.198	3780
264.260	1023
264.321	960
264.383	4029
264.444	14806
264.506	4527
264.567	1661
264.629	4751
264.690	11670
264.752	4894
264.813	2502
264.875	104
264.936	1593
264.998	823
265.059	341
265.120	1278
265.182	2076
265.243	20237
265.305	22291
265.366	4783
265.427	2326
265.489	1885
265.550	263
265.611	1110
265.673	999
265.734	1256
265.795	1614
265.857	-34
265.918	647
265.979	4362
266.040	34180
266.102	29370
266.163	8484
266.224	4627
266.286	2112
266.347	896
266.408	872
266.469	1346
266.530	738
266.592	681
266.653	2920
266.714	5766
266.775	2218
266.836	1333
266.898	835
266.959	2573
267.020	1559
267.081	1438
267.142	745
267.203	398
267.264	662
267.326	2333
267.387	831
267.448	436
267.509	889
267.570	398
267.631	293
267.692	-117
267.753	1328
267.814	-581
267.875	3173
267.936	8810
267.997	4493
268.058	2741
268.119	998
268.180	1450
268.241	554
268.302	308
268.363	975
268.424	-42
268.485	1303
268.546	-416
268.607	319
268.668	-507
268.729	-972
268.790	667
268.851	805
268.912	4230
268.972	6278
269.033	2035
269.094	927
269.155	667
269.216	175
269.277	533
269.338	41
269.398	977
269.459	1301
269.520	1904
269.581	1948
269.642	3937
269.702	1596
269.763	937
269.824	564
269.885	1700
269.945	2896
270.006	517
270.067	361
270.128	485
270.188	253
270.249	179
270.310	156
270.370	605
270.431	272
270.492	-212
270.553	97
270.613	2223
270.674	7869
270.734	2687
270.795	941
270.856	2520
270.916	1794
270.977	881
271.038	1165
271.098	1526
271.159	2826
271.219	2093
271.280	1040
271.340	492
271.401	1436
271.462	3424
271.522	2285
271.583	937
271.643	1122
271.704	997
271.764	1772
271.825	3781
271.885	19955
271.946	29650
272.006	8690
272.066	11393
272.127	23411
272.187	6982
272.248	4092
272.308	2871
272.369	15872
272.429	8451
272.489	5104
272.550	4291
272.610	5747
272.671	3357
272.731	3444
272.791	5605
272.852	3644
272.912	2104
272.972	1505
273.033	1125
273.093	1882
273.153	3392
273.214	1995
273.274	1795
273.334	11712
273.394	25885
273.455	8974
273.515	8619
273.575	20992
273.635	8173
273.696	10015
273.756	22412
273.816	9532
273.876	4626
273.936	7813
273.997	14188
274.057	4250
274.117	2517
274.177	4136
274.237	27047
274.297	24799
274.358	11880
274.418	18021
274.478	12716
274.538	4509
274.598	2776
274.658	10023
274.718	13563
274.778	6102
274.838	1258
274.898	4692
274.958	17602
275.018	21603
275.078	14497
275.138	5442
275.198	2132
275.258	954
275.318	1505
275.378	5477
275.438	5297
275.498	4031
275.558	8182
275.618	20669
275.678	16595
275.738	8357
275.798	6470
275.858	4066
275.918	2038
275.978	1928
276.038	1441
276.098	919
276.157	3788
276.217	14160
276.277	5867
276.337	3934
276.397	2080
276.457	2577
276.517	1344
276.576	1726
276.636	928
276.696	2598
276.756	7848
276.815	6527
276.875	1926
276.935	1597
276.995	2079
277.055	1456
277.114	1592
277.174	2768
277.234	12426
277.293	5271
277.353	1692
277.413	1644
277.472	1701
277.532	2288
277.592	1703
277.651	13453
277.711	29189
277.771	7609
277.830	32049
277.890	25439
277.950	14796
278.009	54585
278.069	19363
278.128	18272
278.188	28847
278.248	10962
278.307	30293
278.367	19457
278.426	5222
278.486	2732
278.545	2811
278.605	2832
278.664	1455
278.724	1435
278.783	8189
278.843	26637
278.902	8024
278.962	3791
279.021	3672
279.081	5027
279.140	4353
279.199	4111
279.259	3728
279.318	4185
279.378	5467
279.437	9849
279.496	42037
279.556	125324
279.615	104820
279.675	27463
279.734	13991
279.793	16594
279.853	32821
279.912	12807
279.971	5798
280.031	5109
280.090	11510
280.149	24495
280.208	14508
280.268	85089
280.327	91846
280.386	21314
280.445	14503
280.505	11966
280.564	5190
280.623	4129
280.682	6971
280.742	11600
280.801	3887
280.860	2240
280.919	2844
280.978	2873
281.037	1798
281.097	2217
281.156	1207
281.215	1331
281.274	1905
281.333	16675
281.392	11892
281.451	3230
281.510	1988
281.569	1706
281.628	736
281.688	1083
281.747	1553
281.806	2251
281.865	1339
281.924	601
281.983	1242
282.042	237
282.101	991
282.160	500
282.219	1135
282.278	1147
282.337	8341
282.396	6010
282.454	1511
282.513	2556
282.572	12169
282.631	6989
282.690	1866
282.749	1154
282.808	2008
282.867	1941
282.926	1773
282.985	1228
283.043	-140
283.102	1304
283.161	1153
283.220	5501
283.279	16508
283.338	4135
283.396	2171
283.455	1815
283.514	2069
283.573	4325
283.631	2686
283.690	2212
283.749	1871
283.808	4326
283.866	6110
283.925	1887
283.984	2209
284.043	3534
284.101	3512
284.160	1854
284.219	4398
284.277	3121
284.336	4126
284.395	17962
284.453	15960
284.512	6096
284.570	7237
284.629	5669
284.688	5865
284.746	7112
284.805	8801
284.863	11071
284.922	12944
284.981	16256
285.039	21799
285.098	39269
285.156	99555
285.215	191897
285.273	191970
285.332	117955
285.390	59044
285.449	34728
285.507	23007
285.566	14860
285.624	11121
285.683	8555
285.741	6190
285.799	5749
285.858	4898
285.916	5328
285.975	4176
286.033	3792
286.091	2703
286.150	2843
286.208	1967
286.267	3562
286.325	2807
286.383	5062
286.442	3610
286.500	2385
286.558	1142
286.616	1327
286.675	3196
286.733	2345
286.791	1695
286.850	2341
286.908	2800
286.966	6795
287.024	3133
287.083	2087
287.141	1150
287.199	1453
287.257	2454
287.315	2175
287.374	1524
287.432	6704
287.490	4602
287.548	1512
287.606	1801
287.664	1572
287.723	2677
287.781	4229
287.839	2253
287.897	2586
287.955	3662
288.013	5372
288.071	12427
288.129	65612
288.187	201902
288.245	90153
288.303	28591
288.361	15256
288.419	9956
288.477	6345
288.535	4414
288.593	3250
288.651	2448
288.709	2417
288.767	1016
288.825	1181
288.883	1458
288.941	1125
288.999	810
289.057	987
289.115	410
289.173	1126
289.231	940
289.289	1176
289.346	1102
289.404	2247
289.462	3309
289.520	3021
289.578	1974
289.636	1103
289.694	100
289.751	699
289.809	-83
289.867	1443
289.925	1680
289.983	2166
290.040	105
290.098	1156
290.156	644
290.214	1676
290.271	970
290.329	556
290.387	804
290.444	895
290.502	-6
290.560	1305
290.617	761
290.675	390
290.733	638
290.790	1584
290.848	-86
290.906	1569
290.963	1090
291.021	1262
291.078	807
291.136	1580
291.194	7200
291.251	18628
291.309	5617
291.366	1469
291.424	1389
291.481	1040
291.539	1323
291.596	1077
291.654	-127
291.711	462
291.769	773
291.826	3180
291.884	1699
291.941	1057
291.999	792
292.056	1426
292.114	1251
292.171	398
292.228	1159
292.286	1045
292.343	3547
292.401	5493
292.458	2851
292.515	1222
292.573	1960
292.630	2024
292.687	2446
292.745	842
292.802	1591
292.859	10209
292.917	16940
292.974	9760
293.031	2823
293.089	1570
293.146	448
293.203	899
293.260	529
293.318	1454
293.375	3845
293.432	1849
293.489	1014
293.546	267
293.604	2114
293.661	9109
293.718	31065
293.775	15948
293.832	6232
293.889	4394
293.947	4781
294.004	2021
294.061	2136
294.118	6488
294.175	17921
294.232	26050
294.289	10081
294.346	4467
294.403	2443
294.460	2207
294.517	1694
294.574	805
294.631	407
294.688	1567
294.745	6499
294.802	36537
294.859	40680
294.916	13974
294.973	7017
295.030	5159
295.087	3868
295.144	2410
295.201	2200
295.258	1236
295.315	2307
295.372	11506
295.429	25303
295.486	10151
295.542	4732
295.599	16351
295.656	28960
295.713	18971
295.770	25516
295.827	9199
295.883	3759
295.940	3526
295.997	5993
296.054	5531
296.111	2216
296.167	1582
296.224	681
296.281	1300
296.338	781
296.394	1184
296.451	1938
296.508	9529
296.564	20222
296.621	12569
296.678	25770
296.734	39047
296.791	14319
296.848	6821
296.904	6148
296.961	13990
297.018	27602
297.074	20864
297.131	7351
297.187	4219
297.244	5159
297.301	27355
297.357	52645
297.414	18624
297.470	6363
297.527	4639
297.583	2988
297.640	2688
297.696	2261
297.753	2039
297.809	1489
297.866	988
297.922	200
297.979	518
298.035	479
298.092	3442
298.148	14854
298.204	13942
298.261	5924
298.317	10983
298.374	33198
298.430	19044
298.486	7298
298.543	5209
298.599	3945
298.656	5074
298.712	7903
298.768	26033
298.824	18775
298.881	6424
298.937	3653
298.993	2420
299.050	3416
299.106	2702
299.162	2590
299.218	2978
299.275	1608
299.331	1585
299.387	5855
299.443	29284
299.500	34821
299.556	14704
299.612	6317
299.668	5567
299.724	8318
299.780	10384
299.837	3354
299.893	5491
299.949	25801
300.005	30479
300.061	25224
300.117	46086
300.173	21471
300.229	8620
300.285	9247
300.341	9698
300.397	5091
300.453	2605
300.510	2175
300.566	2222
300.622	3934
300.678	18825
300.734	31157
300.790	26794
300.845	31994
300.901	20219
300.957	29231
301.013	20564
301.069	7946
301.125	5050
301.181	4698
301.237	3826
301.293	1682
301.349	892
301.405	1589
301.461	2441
301.516	3272
301.572	4340
301.628	5292
301.684	4809
301.740	9486
301.796	16868
301.851	10654
301.907	16477
301.963	14350
302.019	27867
302.074	84916
302.130	82175
302.186	38608
302.242	14771
302.297	9260
302.353	7808
302.409	15989
302.464	13885
302.520	10973
302.576	29331
302.631	34690
302.687	17810
302.743	6633
302.798	3816
302.854	2426
302.910	2584
302.965	4093
303.021	8347
303.076	7402
303.132	9818
303.187	11311
303.243	5012
303.299	3518
303.354	2178
303.410	2326
303.465	2094
303.521	1350
303.576	2505
303.632	2447
303.687	6814
303.743	26926
303.798	23113
303.853	8710
303.909	4128
303.964	3027
304.020	5531
304.075	7595
304.130	7400
304.186	13300
304.241	14906
304.297	11935
304.352	5632
304.358	5378
304.407	3319
304.449	3474
304.463	3530
304.518	2862
304.539	3040
304.573	3320
304.629	2352
304.630	2421
304.684	5839
304.720	15287
304.739	19950
304.794	30382
304.811	26093
304.850	15705
304.902	7085
304.905	6547
304.960	4337
304.992	4397
305.015	4446
305.071	3385
305.083	3252
305.126	2776
305.173	2068
305.181	1949
305.236	1657
305.264	1540
305.292	1416
305.347	3336
305.354	3314
305.402	3329
305.445	4303
305.457	4556
305.512	4101
305.535	4464
305.567	4952
305.622	4249
305.626	4537
305.678	11052
305.716	25027
305.733	30076
305.788	32690
305.807	28250
305.843	21342
305.897	29341
305.898	29401
305.953	28209
305.988	18612
306.008	13658
306.063	7460
306.078	6612
306.118	4892
306.168	2810
306.173	2622
306.228	2450
306.259	2128
306.283	1957
306.338	1628
306.349	1714
306.393	1949
306.440	3229
306.448	3494
306.503	3473
306.530	3779
306.558	4859
306.613	12833
306.620	13810
306.668	20199
306.711	26859
306.723	27566
306.778	20371
306.801	15702
306.833	10816
306.888	5201
306.892	5040
306.943	3930
306.982	3566
306.997	3285
307.052	1975
307.072	2296
307.107	3502
307.162	4302
307.163	4340
307.217	8592
307.253	10794
307.272	11223
307.327	12092
307.343	10996
307.381	8690
307.434	6215
307.436	6320
307.491	14736
307.524	22569
307.546	24937
307.600	23658
307.614	21006
307.655	12934
307.704	6742
307.710	6493
307.765	7291
307.795	9900
307.819	12275
307.874	21441
307.885	21137
307.929	15670
307.975	10977
307.984	10981
308.038	13371
308.065	16813
308.093	30625
308.148	72573
308.156	83298
308.202	138419
308.246	165754
308.257	161612
308.312	85854
308.336	57604
308.366	41912
308.421	25040
308.426	23888
308.475	15155
308.517	10676
308.530	9657
308.585	8063
308.607	7738
308.639	7885
308.694	8161
308.697	8383
308.748	17172
308.787	26464
308.803	26815
308.857	19874
308.877	16393
308.912	13119
308.967	11363
308.967	11368
309.021	15454
309.058	19800
309.076	24804
309.130	43954
309.148	52631
309.185	105177
309.238	201388
309.239	201916
309.293	219415
309.328	195618
309.348	167065
309.402	76222
309.418	53496
309.457	35094
309.508	21712
309.511	21214
309.566	18983
309.598	19617
309.620	22813
309.674	35102
309.688	38224
309.729	35647
309.778	26785
309.783	26095
309.837	18061
309.868	14417
309.892	15973
309.946	22631
309.959	25164
310.001	32409
310.049	38076
310.055	36886
310.109	21595
310.139	13183
310.163	10319
310.218	6007
310.229	5469
310.272	5006
310.319	4425
310.326	4269
310.381	3732
310.409	3373
310.435	3326
310.489	3425
310.499	3456
310.543	3618
310.589	3893
310.598	3841
310.652	3530
310.679	3334
310.706	3097
310.760	2252
310.769	2208
310.814	2599
310.859	2788
310.868	2755
310.923	2524
310.948	2478
310.977	2767
311.031	3401
311.038	3496
311.085	3029
311.128	2334
311.139	2345
311.193	2584
311.218	2672
311.247	2699
311.301	2613
311.308	2621
311.356	2882
311.398	3157
311.410	3023
311.464	2277
311.488	1915
311.518	1872
311.572	1793
311.578	1799
311.626	2994
311.668	4055
311.680	4159
311.734	4536
311.758	4699
311.788	4539
311.842	4209
311.847	4179
311.896	5249
311.937	6198
311.950	6026
312.004	5273
312.027	4914
312.058	4079
312.112	2632
312.117	2495
312.165	2549
312.207	2612
312.297	4184
312.386	3372
312.476	3180
312.566	5903
312.656	3621
312.745	2095
312.835	3090
312.925	3255
313.015	1806
313.104	3063
313.194	2613
313.284	2163
313.374	3591
313.463	3224
313.553	2577
313.643	2031
313.732	2721
313.822	2059
313.912	3328
314.001	3277
314.091	4413
314.180	3646
314.270	3921
314.360	4038
314.449	3285
314.539	1978
314.628	2330
314.718	3500
314.808	4232
314.897	2493
314.987	3250
315.076	3346
315.166	4679
315.255	4132
315.345	4493
315.434	4016
315.524	3777
315.613	4483
315.703	4822
315.792	7817
315.881	22496
315.971	6007
316.060	7985
316.150	12597
316.239	13045
316.328	5066
316.418	2790
316.507	2502
316.597	4317
316.686	3084
316.775	6811
316.865	13634
316.954	3715
317.043	1375
317.133	2783
317.222	1461
317.311	3154
317.400	350
317.490	3938
317.579	3361
317.668	2707
317.757	5009
317.847	13846
317.936	40622
318.025	13535
318.114	8330
318.203	5715
318.293	6606
318.382	13694
318.471	11112
318.560	17518
318.649	34977
318.738	6356
318.828	3294
318.917	4008
319.006	6125
319.095	18264
319.184	45441
319.273	20462
319.362	8130
319.451	3506
319.540	3140
319.629	7072
319.718	11006
319.807	5306
319.896	17020
319.985	58447
320.074	14639
320.163	4284
320.252	8152
320.341	6353
320.430	5044
320.519	6319
320.608	3152
320.697	3831
320.786	3509
320.875	4346
320.964	5370
321.053	8547
321.142	12034
321.230	11274
321.319	9465
321.408	22056
321.497	9081
321.586	9423
321.675	13005
321.764	10737
321.852	6997
321.941	12252
322.030	5742
322.119	9001
322.207	24298
322.296	19535
322.385	8383
322.474	10316
322.562	28086
322.651	12932
322.740	9447
322.829	14935
322.917	17988
323.006	8327
323.095	7053
323.183	6209
323.272	7817
323.361	20145
323.449	63302
323.538	17781
323.626	44328
323.715	23469
323.804	8879
323.892	38566
323.981	16788
324.069	5351
324.158	22241
324.246	18576
324.335	5431
324.424	7381
324.512	2818
324.601	4260
324.689	11634
324.778	20930
324.866	13013
324.954	3737
325.043	3147
325.131	8094
325.220	15929
325.308	17351
325.397	12322
325.485	6345
325.574	2042
325.662	2188
325.750	2639
325.839	2069
325.927	2362
326.015	4147
326.104	5600
326.192	7387
326.280	2387
326.369	2187
326.457	3259
326.545	7108
326.634	2224
326.722	2015
326.810	1916
326.898	2128
326.987	2880
327.075	5838
327.163	7061
327.251	4161
327.340	7413
327.428	10287
327.516	1778
327.604	2013
327.692	2553
327.781	3722
327.869	6269
327.957	3907
328.045	3710
328.133	1536
328.221	2813
328.309	2644
328.397	1815
328.485	2848
328.574	4146
328.662	14973
328.750	7659
328.838	3167
328.926	1942
329.014	1137
329.102	3048
329.190	9982
329.278	5074
329.366	1707
329.454	1114
329.542	2225
329.630	1399
329.718	1139
329.806	2785
329.893	2637
329.981	1983
330.069	3456
330.157	19453
330.245	61117
330.333	26662
330.421	2518
330.509	3689
330.597	17035
330.684	10462
330.772	3878
330.860	6262
330.948	9355
331.036	2892
331.123	1245
331.211	1414
331.299	2098
331.387	6851
331.475	12318
331.562	3351
331.650	1512
331.738	2175
331.825	4255
331.913	1721
332.001	1490
332.089	3293
332.176	6757
332.264	19225
332.352	13166
332.439	3243
332.527	2876
332.614	3145
332.702	3390
332.790	1710
332.877	8736
332.965	17761
333.052	3718
333.140	4628
333.228	11695
333.315	3061
333.403	2993
333.490	11624
333.578	9530
333.665	14214
333.753	6137
333.840	2198
333.928	3814
334.015	11121
334.103	19655
334.190	62716
334.278	13150
334.365	5947
334.452	4950
334.540	2160
334.627	4574
334.715	4991
334.802	11680
334.889	80068
334.977	72699
335.064	8687
335.151	3601
335.239	3464
335.326	5696
335.413	32150
335.501	39728
335.588	4218
335.675	3278
335.762	4597
335.850	7493
335.937	5085
336.024	18578
336.111	82801
336.199	31486
336.286	6135
336.373	3073
336.460	2549
336.547	2952
336.635	3300
336.722	2591
336.809	2111
336.896	3861
336.983	15076
337.070	41060
337.157	64624
337.245	49518
337.332	31986
337.419	4361
337.506	2087
337.593	2781
337.680	12918
337.767	38180
337.854	9094
337.941	11330
338.028	15539
338.115	4586
338.202	5790
338.289	12399
338.376	49210
338.463	13282
338.550	22884
338.637	22871
338.724	8030
338.811	14818
338.898	2956
338.984	1848
339.071	2708
339.158	3393
339.245	7499
339.332	5380
339.419	9060
339.506	8904
339.593	1756
339.679	1614
339.766	916
339.853	2267
339.940	5516
340.027	2191
340.113	2197
340.200	3571
340.287	2375
340.374	2827
340.460	5630
340.547	1906
340.634	3873
340.720	17025
340.807	8978
340.894	1617
340.980	1857
341.067	1594
341.154	2766
341.240	3657
341.327	7440
341.414	3184
341.500	2595
341.587	2339
341.674	1305
341.760	4916
341.847	6511
341.933	2014
342.020	451
342.106	1132
342.193	2723
342.279	4319
342.366	1920
342.452	5134
342.539	2011
342.625	7068
342.712	17199
342.798	7511
342.885	2689
342.971	1115
343.058	662
343.144	1193
343.230	1853
343.317	2029
343.403	1731
343.490	1422
343.576	1114
343.662	1434
343.749	2655
343.835	2232
343.921	6946
344.008	58044
344.094	133004
344.180	23393
344.267	5791
344.353	27978
344.439	28289
344.525	7693
344.612	3312
344.698	2465
344.784	1056
344.870	1695
344.957	1050
345.043	3159
345.129	1529
345.215	4836
345.301	2741
345.387	1438
345.474	388
345.560	2176
345.646	1592
345.732	2757
345.818	2695
345.904	2660
345.990	1989
346.076	3358
346.162	6542
346.249	3121
346.335	1185
346.421	2719
346.507	12033
346.593	43581
346.679	8382
346.765	2332
346.851	2130
346.937	1392
347.023	2527
347.108	2233
347.194	1355
347.280	1792
347.366	2529
347.452	11916
347.538	54755
347.624	34394
347.710	25136
347.796	3447
347.882	2021
347.967	1864
348.053	2983
348.139	2315
348.225	1782
348.311	1952
348.397	1275
348.482	2497
348.568	2386
348.654	2392
348.740	2626
348.825	2245
348.911	5132
348.997	25022
349.083	51110
349.168	6576
349.254	1699
349.340	1644
349.425	1254
349.511	2220
349.597	2311
349.682	5379
349.768	23772
349.854	10537
349.939	2743
350.025	1795
350.110	1523
350.196	1664
350.282	615
350.367	1848
350.453	3365
350.538	2912
350.624	2870
350.709	2884
350.795	1043
350.880	1489
350.966	2514
351.051	3641
351.137	2046
351.222	2355
351.308	6139
351.393	18618
351.479	3764
351.564	1340
351.649	1583
351.735	1127
351.820	415
351.906	1894
351.991	1887
352.076	11886
352.162	17609
352.247	3028
352.332	1820
352.418	4100
352.503	5625
352.588	26484
352.673	19056
352.759	3974
352.844	1557
352.929	2949
353.014	2970
353.100	2242
353.185	3525
353.270	4921
353.355	5992
353.441	2304
353.526	2090
353.611	5014
353.696	5552
353.781	4370
353.866	623
353.952	1200
354.037	4880
354.122	12212
354.207	8925
354.292	3364
354.377	1898
354.462	1581
354.547	1625
354.632	2782
354.717	3368
354.802	4294
354.887	1057
354.972	1484
355.057	1035
355.142	794
355.227	2385
355.312	3546
355.397	6574
355.482	18657
355.567	8615
355.652	7619
355.737	7936
355.822	28087
355.907	21587
355.991	3968
356.076	1066
356.161	1663
356.246	1311
356.331	2593
356.416	6790
356.501	57177
356.585	57754
356.670	6026
356.755	4128
356.840	5645
356.924	36430
357.009	137652
357.094	47098
357.179	7612
357.263	4477
357.348	5063
357.433	4018
357.517	4300
357.602	2998
357.687	3261
357.771	6181
357.856	17897
357.941	10570
358.025	29949
358.110	144160
358.195	61672
358.279	5650
358.364	4091
358.448	16006
358.533	46427
358.617	32122
358.702	33968
358.787	10883
358.871	6011
358.956	4240
359.040	2119
359.125	1094
359.209	2418
359.294	7987
359.378	13610
359.462	4602
359.547	3978
359.631	2050
359.716	1142
359.800	1174
359.885	4573
359.969	622
360.053	2401
360.138	1780
360.222	3574
360.306	5621
360.391	5252
360.475	8326
360.559	19417
360.644	15815
360.728	11480
360.812	29875
360.896	88481
360.981	29004
361.065	11753
361.149	3191
361.233	3135
361.318	2447
361.402	4268
361.486	2509
361.570	1783
361.654	2351
361.739	8970
361.823	53361
361.907	89602
361.991	12290
362.075	5079
362.159	10891
362.243	8459
362.327	9057
362.411	13553
362.495	6830
362.580	2917
362.664	1859
362.748	2013
362.832	2759
362.916	5405
363.000	22069
363.084	73310
363.168	105891
363.252	20722
363.336	5777
363.420	8815
363.503	40034
363.587	48086
363.671	6047
363.755	3690
363.839	6391
363.923	2635
364.007	6028
364.091	8632
364.175	14699
364.258	68923
364.342	46018
364.426	50461
364.510	24847
364.594	10716
364.677	14365
364.761	74043
364.845	53695
364.929	11500
365.013	7499
365.096	7354
365.180	8228
365.264	17521
365.347	70325
365.431	28250
365.515	4517
365.598	1481
365.682	2934
365.766	5099
365.849	6403
365.933	2990
366.017	5029
366.100	2530
366.184	975
366.267	2849
366.351	1687
366.435	1709
366.518	799
366.602	1691
366.685	1594
366.769	2664
366.852	4831
366.936	8064
367.019	3579
367.103	2797
367.186	8350
367.270	2207
367.353	581
367.436	2629
367.520	957
367.603	3259
367.687	2929
367.770	5953
367.853	4935
367.937	18902
368.020	32574
368.104	5729
368.187	4884
368.270	7915
368.353	6249
368.437	10727
368.520	29198
368.603	16506
368.687	18653
368.770	38017
368.853	8182
368.936	8271
369.020	7967
369.103	2399
369.186	861
369.269	2416
369.352	4525
369.436	6413
369.519	4301
369.602	1659
369.685	3225
369.768	2760
369.851	2176
369.934	1437
370.018	2343
370.101	5260
370.184	6615
370.267	4128
370.350	6460
370.433	10894
370.516	36651
370.599	47772
370.682	10583
370.765	16801
370.848	23013
370.931	48618
371.014	18995
371.097	2068
371.180	3003
371.263	2085
371.346	-30
371.429	2047
371.511	1175
371.594	3494
371.677	7440
371.760	9459
371.843	7952
371.926	49577
372.009	122707
372.091	35644
372.174	19079
372.257	53860
372.340	20390
372.423	11287
372.505	13068
372.588	5983
372.671	14298
372.754	45982
372.836	24927
372.919	17958
373.002	34422
373.085	10175
373.167	5903
373.250	19325
373.332	48575
373.415	72779
373.498	157380
373.580	55305
373.663	76403
373.746	108810
373.828	17935
373.911	7489
373.993	7669
374.076	33744
374.159	32295
374.241	13065
374.324	35183
374.406	27192
374.489	45178
374.571	130053
374.654	50311
374.736	22457
374.819	76825
374.901	111495
374.983	119032
375.066	19406
375.148	6415
375.231	29579
375.313	57126
375.395	17757
375.478	3865
375.560	3419
375.643	5125
375.725	21661
375.807	95736
375.890	76860
375.972	27321
376.054	14305
376.136	24320
376.219	11438
376.301	25854
376.383	76989
376.465	29210
376.548	11332
376.630	18051
376.712	60217
376.794	28550
376.877	2862
376.959	871
377.041	3800
377.123	5799
377.205	7309
377.287	877
377.369	1816
377.452	1449
377.534	2025
377.616	1898
377.698	1660
377.780	811
377.862	2036
377.944	2273
378.026	1124
378.108	1410
378.190	1566
378.272	1459
378.354	809
378.436	1189
378.518	3338
378.600	12251
378.682	11114
378.764	23779
378.846	20173
378.928	4474
379.010	6201
379.091	4194
379.173	1124
379.255	1137
379.337	3161
379.419	11947
379.501	37278
379.583	15495
379.664	3333
379.746	7144
379.828	22776
379.910	32049
379.991	30636
380.073	4436
380.155	2506
380.237	2090
380.318	1210
380.400	1831
380.482	5256
380.564	7096
380.645	6199
380.727	6425
380.809	4509
380.890	2336
380.972	1991
381.053	2397
381.135	3158
381.217	7750
381.298	24008
381.380	13321
381.461	12255
381.543	58317
381.624	75990
381.706	12691
381.787	4897
381.869	7623
381.951	31046
382.032	120275
382.113	76443
382.195	10390
382.276	8553
382.358	19183
382.439	57525
382.521	69784
382.602	111210
382.684	45768
382.765	68429
382.846	77971
382.928	109225
383.009	60474
383.090	38466
383.172	155516
383.253	252826
383.334	83202
383.416	86138
383.497	46397
383.578	15481
383.659	32182
383.741	137926
383.822	370311
383.903	191235
383.984	55943
384.066	94471
384.147	57343
384.228	11050
384.309	7634
384.390	6032
384.471	4236
384.553	5122
384.634	6810
384.715	6600
384.796	3460
384.877	5200
384.958	22098
385.039	26081
385.120	8129
385.201	4369
385.282	4870
385.363	5868
385.444	5409
385.525	11578
385.606	44143
385.687	42752
385.768	8696
385.849	10665
385.930	54263
386.011	103580
386.092	25782
386.173	4422
386.254	3217
386.335	4177
386.416	4093
386.496	14165
386.577	23631
386.658	8701
386.739	4695
386.820	5952
386.901	3690
386.981	4618
387.062	2772
387.143	5700
387.224	22853
387.304	23411
387.385	7478
387.466	4344
387.547	6397
387.627	4623
387.708	11038
387.789	46221
387.869	61274
387.950	18008
388.031	2234
388.111	900
388.192	8060
388.273	12697
388.353	6303
388.434	3483
388.514	10305
388.595	56060
388.676	69824
388.756	26112
388.837	19715
388.917	12693
388.998	1198
389.078	3694
389.159	1947
389.239	1000
389.320	4751
389.400	2716
389.480	10731
389.561	27781
389.641	15180
389.722	4271
389.802	5188
389.883	12525
389.963	36635
390.043	23920
390.124	5732
390.204	8876
390.284	25621
390.365	17390
390.445	23164
390.525	58296
390.605	48658
390.686	12994
390.766	6219
390.846	3676
390.927	2025
391.007	1623
391.087	3564
391.167	3174
391.247	2086
391.328	6387
391.408	7557
391.488	5687
391.568	1436
391.648	2458
391.728	4509
391.808	4731
391.888	4878
391.969	14980
392.049	23616
392.129	11719
392.209	13535
392.289	32856
392.369	19217
392.449	14349
392.529	9264
392.609	7281
392.689	11378
392.769	32821
392.849	29613
392.929	22432
393.009	48704
393.089	40448
393.169	39546
393.248	133812
393.328	488476
393.408	534958
393.488	134129
393.568	34222
393.648	15833
393.728	9936
393.807	6844
393.887	7012
393.967	6164
394.047	6635
394.127	7953
394.206	13953
394.286	57295
394.366	251931
394.446	274564
394.525	53832
394.605	11519
394.685	9175
394.764	19778
394.844	35018
394.924	26371
395.003	7571
395.083	4955
395.163	5641
395.242	4648
395.322	5145
395.402	2202
395.481	6602
395.561	14683
395.640	39948
395.720	32987
395.799	47392
395.879	37212
395.958	20142
396.038	79411
396.117	324735
396.197	363330
396.276	86988
396.356	23785
396.435	18170
396.515	13159
396.594	15982
396.673	35635
396.753	145178
396.832	444234
396.912	327647
396.991	67354
397.070	18459
397.150	8042
397.229	8105
397.308	9297
397.388	16013
397.467	8952
397.546	4072
397.625	1405
397.705	5830
397.784	3872
397.863	2526
397.942	1513
398.022	2832
398.101	12291
398.180	37825
398.259	20046
398.338	4810
398.417	1994
398.497	2670
398.576	3143
398.655	1109
398.734	1769
398.813	2876
398.892	13260
398.971	44166
399.050	20977
399.129	1632
399.208	1418
399.287	1016
399.366	37
399.445	1883
399.524	1959
399.603	2
399.682	3634
399.761	12957
399.840	46924
399.919	38631
399.998	4147
400.077	174
400.156	-18
400.235	3553
400.313	1810
400.392	2026
400.471	11070
400.550	19660
400.629	4890
400.708	2758
400.786	1962
400.865	6673
400.944	7931
401.023	5054
401.102	-38
401.180	690
401.259	480
401.338	828
401.416	2094
401.495	1113
401.574	2117
401.652	1064
401.731	3005
401.810	1137
401.888	312
401.967	153
402.046	1671
402.124	1299
402.203	1854
402.281	1993
402.360	2315
402.438	10049
402.517	5599
402.596	2344
402.674	1662
402.753	111
402.831	1452
402.910	3056
402.988	9079
403.066	31207
403.145	20621
403.223	10970
403.302	23900
403.380	19279
403.459	16965
403.537	7369
403.615	2861
403.694	-181
403.772	1121
403.850	144
403.929	-202
404.007	747
404.085	3479
404.164	2474
404.242	717
404.320	2096
404.398	3804
404.477	15017
404.555	75161
404.633	69323
404.711	9107
404.789	2304
404.868	448
404.946	678
405.024	-146
405.102	253
405.180	-112
405.258	-1310
405.336	1459
405.415	1041
405.493	2305
405.571	2528
405.649	-174
405.727	369
405.805	2634
405.883	2421
405.961	2423
406.039	1174
406.117	111
406.195	2189
406.273	14694
406.351	60098
406.429	37965
406.507	4788
406.585	860
406.663	724
406.740	1809
406.818	1248
406.896	219
406.974	1403
407.052	4261
407.130	32142
407.208	46598
407.285	9980
407.363	28
407.441	675
407.519	925
407.596	2332
407.674	9357
407.752	36467
407.830	32519
407.907	7975
407.985	777
408.063	896
408.141	-63
408.218	2151
408.296	1975
408.373	888
408.451	1128
408.529	463
408.606	-92
408.684	-321
408.762	88
408.839	-208
408.917	-600
408.994	-62
409.072	-287
409.149	358
409.227	2236
409.304	3129
409.382	1389
409.459	1597
409.537	4094
409.614	3245
409.692	2159
409.769	1430
409.846	3251
409.924	5797
410.001	1546
410.079	1862
410.156	1772
410.233	901
410.311	39
410.388	734
410.465	530
410.543	617
410.620	1162
410.697	811
410.775	872
410.852	-497
410.929	1923
411.006	2665
411.083	416
411.161	2956
411.238	3696
411.315	1505
411.392	913
411.469	1707
411.547	1595
411.624	-889
411.701	-165
411.778	800
411.855	2216
411.932	128
412.009	-418
412.086	747
412.163	540
412.240	781
412.317	1825
412.394	1236
412.471	200
412.548	-426
412.625	-409
412.702	1060
412.779	2006
412.856	2062
412.933	-546
413.010	778
413.087	1410
413.164	10212
413.241	15017
413.318	3011
413.395	1679
413.471	2642
413.548	956
413.625	602
413.702	-495
413.779	626
413.855	-267
413.932	-606
414.009	-891
414.086	-19
414.162	134
414.239	1398
414.316	9208
414.393	24361
414.469	7915
414.546	-234
414.623	-429
414.699	-75
414.776	-113
414.853	-551
414.929	316
415.006	776
415.082	508
415.159	-62
415.236	100
415.312	884
415.389	2616
415.465	1899
415.542	362
415.618	642
415.695	2122
415.771	477
415.848	925
415.924	1156
416.000	84
416.077	408
416.153	-1414
416.230	-1057
416.306	-927
416.383	-713
416.459	-40
416.535	-443
416.612	-668
416.688	338
416.764	206
416.841	265
416.917	289
416.993	269
417.069	617
417.146	1296
417.222	1037
417.298	305
417.374	-656
417.451	1100
417.527	394
417.603	549
417.679	190
417.755	-524
417.831	-1059
417.908	176
417.984	-652
418.060	-1114
418.136	2742
418.212	2967
418.288	326
418.364	869
418.440	-618
418.516	1912
418.592	2168
418.668	4458
418.744	6017
418.820	4286
418.896	1131
418.972	277
419.048	-651
419.124	3396
419.200	1214
419.276	-470
419.352	-1469
419.428	479
419.504	21
419.579	823
419.655	-121
419.731	670
419.807	3139
419.883	6752
419.959	5085
420.034	2130
420.110	3256
420.186	13577
420.262	11418
420.337	1991
420.413	56
420.489	361
420.565	738
420.640	229
420.716	164
420.792	-1458
420.867	994
420.943	-208
421.019	1680
421.094	446
421.170	158
421.245	-153
421.321	499
421.397	1134
421.472	6275
421.548	20686
421.623	13222
421.699	2390
421.774	1591
421.850	1067
421.925	2285
422.001	2722
422.076	2118
422.152	3528
422.227	5422
422.302	6914
422.378	10752
422.453	21895
422.529	62774
422.604	204107
422.679	374069
422.755	221403
422.830	61783
422.905	23030
422.981	11406
423.056	7067
423.131	5457
423.207	4596
423.282	3027
423.357	5844
423.432	3798
423.508	3820
423.583	6770
423.658	5586
423.733	2202
423.808	1938
423.883	2557
423.959	1847
424.034	1253
424.109	1538
424.184	891
424.259	-214
424.334	55
424.409	682
424.484	39
424.559	284
424.634	278
424.709	1331
424.784	1110
424.859	1179
424.934	1577
425.009	9276
425.084	17069
425.159	5806
425.234	537
425.309	221
425.384	4135
425.459	6667
425.534	2382
425.609	-78
425.683	822
425.758	198
425.833	-147
425.908	1556
425.983	4910
426.058	17390
426.132	8468
426.207	1550
426.282	3559
426.357	1763
426.431	499
426.506	304
426.581	-267
426.655	683
426.730	-629
426.805	-488
426.879	-150
426.954	483
427.029	2124
427.103	17993
427.178	50076
427.253	24028
427.327	2020
427.402	2279
427.476	8412
427.551	3663
427.625	667
427.700	1240
427.774	109
427.849	1499
427.923	218
427.998	886
428.072	788
428.147	4214
428.221	20407
428.296	60909
428.370	33884
428.444	4078
428.519	3056
428.593	7249
428.667	7195
428.742	8756
428.816	10674
428.890	38753
428.965	61520
429.039	18222
429.113	9059
429.188	3302
429.262	43
429.336	2531
429.410	8301
429.485	6213
429.559	6337
429.633	5260
429.707	760
429.781	7301
429.855	39608
429.930	60706
430.004	29867
430.078	42118
430.152	45148
430.226	90082
430.300	94252
430.374	13497
430.448	3976
430.522	13437
430.596	40907
430.670	30327
430.744	64193
430.818	94089
430.892	19536
430.966	2383
431.040	1076
431.114	-323
431.188	-625
431.262	-372
431.336	-536
431.410	3841
431.484	9851
431.557	6847
431.631	57
431.705	1193
431.779	12891
431.853	55044
431.927	40721
432.000	4558
432.074	315
432.148	800
432.222	775
432.295	-478
432.369	-1113
432.443	2085
432.516	20272
432.590	55403
432.664	22488
432.737	1602
432.811	-397
432.885	-415
432.958	438
433.032	-403
433.106	-860
433.179	-1052
433.253	-819
433.326	-639
433.400	-1503
433.473	-994
433.547	-1695
433.620	330
433.694	298
433.767	1628
433.841	608
433.914	-160
433.988	66
434.061	-799
434.134	-881
434.208	-1293
434.281	-1384
434.355	-567
434.428	-137
434.501	-796
434.575	-833
434.648	-349
434.721	-698
434.795	-827
434.868	-379
434.941	-448
435.014	-878
435.088	-72
435.161	269
435.234	2458
435.307	1993
435.381	1482
435.454	109
435.527	2249
435.600	2095
435.673	1102
435.746	-218
435.819	-198
435.892	-532
435.966	169
436.039	-1251
436.112	105
436.185	-887
436.258	-645
436.331	-1677
436.404	-703
436.477	-1445
436.550	-933
436.623	-906
436.696	-966
436.769	-768
436.842	-165
436.915	-410
436.987	1016
437.060	308
437.133	-563
437.206	-1084
437.279	-48
437.352	-882
437.425	-408
437.498	-641
437.570	1240
437.643	1730
437.716	-380
437.789	139
437.861	861
437.934	5245
438.007	2339
438.080	-705
438.152	385
438.225	3006
438.298	31084
438.370	92394
438.443	40532
438.516	6247
438.588	957
438.661	-648
438.734	-1048
438.806	33
438.879	401
438.951	236
439.024	2387
439.096	38
439.169	-489
439.241	-581
439.314	-606
439.386	-218
439.459	1760
439.531	4314
439.604	1201
439.676	-269
439.749	-91
439.821	-510
439.893	-1048
439.966	372
440.038	117
440.110	532
440.183	202
440.255	-575
440.327	1200
440.400	10651
440.472	49400
440.544	38335
440.617	3499
440.689	1660
440.761	2474
440.833	4121
440.905	3105
440.978	358
441.050	-224
441.122	-149
441.194	-1228
441.266	0
441.338	-308
441.411	758
441.483	12356
441.555	21818
441.627	5452
441.699	1817
441.771	1451
441.843	-293
441.915	-839
441.987	-630
442.059	-198
442.131	420
442.203	1629
442.275	1615
442.347	3630
442.419	4645
442.491	26562
442.563	69167
442.635	36236
442.706	13061
442.778	11521
442.850	1429
442.922	516
442.994	1091
443.066	2617
443.137	2171
443.209	1379
443.281	2898
443.353	9110
443.425	37196
443.496	131157
443.568	135564
443.640	52276
443.711	10060
443.783	2558
443.855	870
443.926	825
443.998	53
444.070	2084
444.141	1038
444.213	2246
444.285	3564
444.356	3495
444.428	2498
444.499	926
444.571	-779
444.642	415
444.714	314
444.785	2563
444.857	2570
444.928	9172
445.000	6840
445.071	5992
445.143	8087
445.214	5611
445.285	8158
445.357	26461
445.428	92063
445.500	214790
445.571	144720
445.642	73149
445.714	26512
445.785	19126
445.856	6823
445.928	3896
445.999	3329
446.070	1977
446.141	1461
446.213	3000
446.284	1045
446.355	1811
446.426	794
446.497	1139
446.569	2332
446.640	4263
446.711	2368
446.782	584
446.853	1865
446.924	2023
446.995	489
447.066	605
447.138	2308
447.209	2379
447.280	-1041
447.351	-367
447.422	-1379
447.493	661
447.564	536
447.635	1797
447.706	326
447.777	-628
447.847	-195
447.918	-689
447.989	269
448.060	1527
448.131	5684
448.202	6030
448.273	2972
448.344	937
448.414	305
448.485	-528
448.556	-740
448.627	-451
448.698	-36
448.768	-171
448.839	-149
448.910	2124
448.981	2287
449.051	669
449.122	-178
449.193	-603
449.263	-210
449.334	127
449.405	305
449.475	2864
449.546	3452
449.616	2949
449.687	3428
449.758	1070
449.828	-208
449.899	-436
449.969	-400
450.040	-1129
450.110	620
450.181	1693
450.251	-309
450.322	-328
450.392	697
450.463	13
450.533	-899
450.604	-171
450.674	93
450.744	-195
450.815	-408
450.885	30
450.955	-403
451.026	-299
451.096	-446
451.166	811
451.237	3007
451.307	11039
451.377	6428
451.447	245
451.518	-449
451.588	-88
451.658	-411
451.728	1136
451.799	9907
451.869	16241
451.939	3435
452.009	565
452.079	-250
452.149	9
452.219	1991
452.289	13105
452.360	12850
452.430	2086
452.500	1161
452.570	1968
452.640	3103
452.710	11927
452.780	19557
452.850	12682
452.920	9252
452.990	3879
453.060	1503
453.129	2371
453.199	3573
453.269	14812
453.339	42683
453.409	70611
453.479	55558
453.549	85049
453.619	91738
453.688	46913
453.758	5713
453.828	1386
453.898	156
453.968	100
454.037	995
454.087	331
454.107	42
454.168	-20
454.177	-56
454.247	-425
454.249	-407
454.316	-607
454.330	-200
454.386	1045
454.411	2752
454.456	5082
454.492	8309
454.525	11203
454.574	6188
454.595	4078
454.655	1202
454.665	744
454.734	696
454.736	887
454.804	5136
454.817	7030
454.873	13039
454.898	14755
454.943	17844
454.979	12451
455.013	7921
455.060	4741
455.082	3536
455.141	3934
455.152	3808
455.221	10428
455.222	10698
455.291	19839
455.303	18647
455.360	14214
455.384	15354
455.430	16739
455.465	14921
455.499	12941
455.546	13569
455.569	13245
455.627	11003
455.638	10849
455.707	2143
455.708	2159
455.777	1160
455.789	1200
455.846	1269
455.869	1105
455.916	904
455.950	871
455.985	580
456.031	931
456.054	1176
456.112	1256
456.124	1253
456.193	1085
456.193	1062
456.262	1588
456.274	1842
456.332	2911
456.355	2992
456.401	2494
456.436	2533
456.470	2761
456.516	1125
456.540	372
456.597	611
456.609	621
456.678	975
456.678	959
456.747	1200
456.759	1106
456.817	558
456.840	698
456.886	1127
456.920	1369
456.955	1629
457.001	1455
457.024	1411
457.082	2465
457.093	2659
457.162	4351
457.163	4387
457.232	4431
457.243	4243
457.301	3533
457.324	2629
457.370	1401
457.405	1441
457.439	1323
457.485	1631
457.508	2067
457.566	3205
457.577	3463
457.646	4813
457.647	4863
457.715	9864
457.727	11016
457.784	18247
457.808	22209
457.853	23904
457.889	26079
457.922	25680
457.969	19734
457.991	21509
458.050	27575
458.060	28670
458.129	43656
458.130	44196
458.198	33660
458.211	29382
458.267	18992
458.292	13480
458.336	10667
458.372	11176
458.405	16084
458.453	24688
458.474	30523
458.533	51079
458.543	51439
458.611	63921
458.614	64247
458.680	35911
458.694	27048
458.749	15006
458.775	10825
458.818	6053
458.855	4829
458.887	3954
458.936	3217
458.955	3067
459.016	3393
459.024	3424
459.093	3768
459.097	3765
459.162	3676
459.177	3826
459.230	4643
459.257	5017
459.299	4843
459.338	4540
459.368	4636
459.418	4999
459.437	4697
459.499	3801
459.505	3803
459.574	3675
459.579	3659
459.643	3351
459.659	3425
459.711	3961
459.740	4100
459.780	4018
459.820	4164
459.849	4436
459.900	4899
459.917	4854
459.981	4727
459.986	4713
460.054	4543
460.061	4523
460.123	4686
460.141	4849
460.191	5699
460.222	6050
460.260	6277
460.302	6893
460.328	6820
460.382	6627
460.397	6944
460.462	7509
460.465	7858
460.534	16524
460.543	17797
460.602	42113
460.623	50996
460.671	78577
460.703	102720
460.739	81499
460.783	49861
460.808	43208
460.864	12401
460.876	9754
460.944	4926
460.945	4862
461.013	4583
461.024	4449
461.081	4388
461.104	4718
461.150	4653
461.184	4152
461.218	4334
461.264	4651
461.286	4514
461.345	4295
461.355	4334
461.423	5027
461.425	5026
461.491	5627
461.505	5952
461.559	13256
461.585	16571
461.628	24904
461.665	32905
461.696	32760
461.745	35246
461.764	30830
461.825	11147
461.832	11080
461.901	6438
461.905	6437
461.969	4877
461.985	4583
462.037	5360
462.065	5735
462.105	7005
462.145	8373
462.173	11651
462.225	17897
462.241	19206
462.305	25594
462.310	24748
462.378	12057
462.385	10200
462.446	7628
462.465	6902
462.514	5961
462.545	6174
462.582	5720
462.625	4972
462.650	4886
462.705	4710
462.718	5006
462.785	7005
462.786	7078
462.854	10695
462.865	11400
462.922	11782
462.945	12014
462.990	9365
463.025	6736
463.058	6316
463.104	5423
463.126	5150
463.184	5133
463.194	5186
463.262	5202
463.264	5205
463.330	5904
463.344	6055
463.398	6335
463.424	6448
463.466	6578
463.504	6810
463.533	6886
463.583	7081
463.601	7483
463.663	8230
463.669	8519
463.737	12378
463.743	12715
463.805	19904
463.823	22026
463.873	33389
463.903	40492
463.940	38031
463.982	36197
464.008	28762
464.062	10733
464.076	10383
464.142	6446
464.144	6389
464.211	6242
464.221	6338
464.279	6840
464.301	6931
464.347	7555
464.381	8166
464.414	9615
464.461	11420
464.482	11350
464.540	11385
464.550	11185
464.617	9526
464.620	9443
464.685	9917
464.699	10042
464.753	11298
464.779	12024
464.820	12599
464.859	12914
464.888	12553
464.938	12117
464.956	12289
465.018	12687
465.023	12566
465.091	10816
465.098	10588
465.158	10407
465.177	10403
465.226	10334
465.257	10269
465.293	10625
465.336	10964
465.361	12387
465.416	15552
465.428	16821
465.495	23623
465.496	23761
465.563	39325
465.575	42016
465.631	43487
465.654	44257
465.698	27630
465.734	13093
465.765	12001
465.813	9792
465.833	9705
465.893	10387
465.900	10397
465.968	10400
465.972	10381
466.035	10161
466.052	10077
466.102	10600
466.131	10880
466.170	10987
466.210	11028
466.237	11362
466.290	11999
466.304	12316
466.369	13580
466.372	13630
466.439	14400
466.449	14473
466.506	17259
466.528	18325
466.573	26228
466.607	32023
466.641	44362
466.687	61496
466.708	63561
466.766	69061
466.775	63755
466.842	22968
466.845	20982
466.909	17278
466.925	16447
466.977	16730
467.004	16952
467.044	16992
467.083	16953
467.111	18275
467.163	20683
467.178	20500
467.242	19531
467.245	19567
467.312	19546
467.321	19506
467.379	19004
467.400	18765
467.446	20296
467.480	21336
467.559	17211
467.638	15741
467.717	15779
467.796	17565
467.875	19130
467.955	18920
468.034	35374
468.113	70792
468.192	87227
468.271	21233
468.350	19187
468.429	24693
468.508	24156
468.588	18119
468.667	16687
468.746	17885
468.825	15071
468.904	13976
468.983	16542
469.062	27102
469.141	27725
469.220	12266
469.299	13276
469.378	14202
469.456	16287
469.535	14644
469.614	14151
469.693	15845
469.772	21783
469.851	31092
469.930	16107
470.009	14457
470.088	14319
470.166	19812
470.245	28957
470.324	33470
470.403	19710
470.482	15115
470.560	13760
470.639	13963
470.718	17043
470.797	14175
470.875	17021
470.954	24366
471.033	22060
471.111	10341
471.190	10427
471.269	10118
471.347	10057
471.426	11974
471.505	13843
471.583	13171
471.662	13024
471.740	11920
471.819	11093
471.898	11993
471.976	11942
472.055	12023
472.133	15064
472.212	20748
472.290	17342
472.369	11913
472.447	10740
472.526	9793
472.604	11190
472.683	12077
472.761	12891
472.839	11788
472.918	10983
472.996	12628
473.075	14806
473.153	13121
473.231	11157
473.310	14720
473.388	12378
473.466	12753
473.545	13944
473.623	17793
473.701	15682
473.780	11404
473.858	10285
473.936	14120
474.014	11969
474.093	15961
474.171	22532
474.249	30561
474.327	15227
474.405	9439
474.484	11170
474.562	11754
474.640	10456
474.718	12981
474.796	12590
474.874	12716
474.952	9925
475.030	11136
475.108	11979
475.187	13928
475.265	15434
475.343	20807
475.421	19857
475.499	11532
475.577	12396
475.655	19914
475.733	39657
475.811	62098
475.889	56908
475.966	26142
476.044	11094
476.122	15421
476.200	18863
476.278	12929
476.356	10307
476.434	11781
476.512	15020
476.590	18462
476.667	14050
476.745	9986
476.823	10605
476.901	11231
476.979	11214
477.056	11122
477.134	11403
477.212	11704
477.290	11061
477.367	9553
477.445	9347
477.523	9532
477.601	10134
477.678	10887
477.756	13698
477.834	14123
477.911	9683
477.989	9399
478.066	9490
478.144	13146
478.222	14553
478.299	23263
478.377	16125
478.454	9534
478.532	9159
478.609	10015
478.687	10366
478.764	9289
478.842	10874
478.919	12118
478.997	9859
479.074	8842
479.152	12635
479.229	16107
479.307	8249
479.384	8166
479.461	8030
479.539	10305
479.616	12490
479.694	9445
479.771	12109
479.848	12737
479.926	17234
480.003	16885
480.080	8827
480.157	8745
480.235	9034
480.312	9260
480.389	10940
480.467	21186
480.544	23027
480.621	11252
480.698	11402
480.775	12844
480.853	12499
480.930	9874
481.007	11337
481.084	15029
481.161	18859
481.238	12846
481.315	9088
481.392	9829
481.470	9926
481.547	10325
481.624	9055
481.701	9424
481.778	10538
481.855	13771
481.932	20245
482.009	34831
482.086	16711
482.163	12616
482.240	19005
482.317	29724
482.393	17096
482.470	11167
482.547	11469
482.624	10526
482.701	11463
482.778	10650
482.855	8585
482.932	8473
483.009	8997
483.085	13118
483.162	15592
483.239	14759
483.316	10980
483.393	11324
483.469	11065
483.546	12562
483.623	11777
483.699	10063
483.776	9988
483.853	13083
483.930	23592
484.006	57031
484.083	81310
484.160	32772
484.236	45141
484.313	32398
484.389	24890
484.466	24267
484.543	24205
484.619	26784
484.696	28557
484.772	27597
484.849	27861
484.925	22278
485.002	21880
485.078	23908
485.155	22650
485.231	20654
485.308	19483
485.384	22782
485.461	32162
485.537	53374
485.614	51071
485.690	21081
485.766	19541
485.843	22474
485.919	30284
485.995	27384
486.072	18150
486.148	18816
486.224	18791
486.301	19492
486.377	24674
486.453	23534
486.530	22453
486.606	29081
486.682	33361
486.758	43765
486.835	47516
486.911	40650
486.987	69175
487.063	60720
487.139	68114
487.215	47527
487.292	23963
487.368	23803
487.444	28167
487.520	38103
487.596	42553
487.672	86037
487.748	213524
487.824	257634
487.900	60481
487.976	30142
488.052	29094
488.128	32767
488.204	23575
488.280	21789
488.356	32773
488.432	67652
488.508	83085
488.584	22253
488.660	19274
488.736	19226
488.812	20798
488.888	25904
488.964	36009
489.039	75187
489.115	97076
489.191	44666
489.267	19386
489.343	19200
489.418	15691
489.494	14897
489.570	13898
489.646	17022
489.722	16856
489.797	19034
489.873	35501
489.949	73091
490.024	40546
490.100	16335
490.176	16408
490.251	19766
490.327	24410
490.403	15477
490.478	14083
490.554	12850
490.629	12471
490.705	12675
490.781	15198
490.856	15253
490.932	17971
491.007	17150
491.083	15411
491.158	16373
491.234	26662
491.309	57869
491.385	41883
491.460	15466
491.536	16057
491.611	14093
491.686	16112
491.762	24294
491.837	49659
491.913	77376
491.988	110289
492.063	104585
492.139	34377
492.214	19640
492.289	11550
492.365	12304
492.440	14346
492.515	16334
492.590	14768
492.666	12118
492.741	20718
492.816	29068
492.891	12476
492.967	10316
493.042	9472
493.117	10710
493.192	11980
493.267	19726
493.342	40374
493.418	41069
493.493	11450
493.568	10024
493.643	11229
493.718	16926
493.793	24977
493.868	23165
493.943	12759
494.018	10835
494.093	10152
494.168	10838
494.243	8860
494.318	9430
494.393	8820
494.468	8590
494.543	10312
494.618	11942
494.693	8396
494.768	10816
494.842	10892
494.917	8472
494.992	9614
495.067	9425
495.142	8950
495.217	9596
495.292	9764
495.366	12528
495.441	14173
495.516	19106
495.591	35503
495.665	111800
495.740	207237
495.815	49513
495.890	14803
495.964	11468
496.039	15242
496.114	13692
496.188	18584
496.263	16088
496.338	13014
496.412	16214
496.487	17654
496.561	18270
496.636	16730
496.710	15179
496.785	18202
496.860	19588
496.934	13671
497.009	15060
497.083	14151
497.158	16688
497.232	20577
497.307	24139
497.381	19945
497.455	27462
497.530	32025
497.604	21901
497.679	26793
497.753	44067
497.827	50808
497.902	47952
497.976	66338
498.050	185198
498.125	550754
498.199	351376
498.273	62826
498.348	51797
498.422	42254
498.496	39010
498.570	32762
498.645	26986
498.719	25979
498.793	32545
498.867	51725
498.941	80984
499.016	250773
499.090	509723
499.164	89562
499.238	17518
499.312	17717
499.386	22464
499.460	18547
499.534	18899
499.609	23569
499.683	36120
499.757	40366
499.831	121510
499.905	377638
499.979	216367
500.053	39636
500.127	36594
500.201	23355
500.275	15948
500.349	16481
500.422	20217
500.496	34593
500.570	82481
500.644	216484
500.718	302262
500.792	35918
500.866	17953
500.940	22538
501.013	16534
501.087	18263
501.161	33194
501.235	49883
501.309	137569
501.382	325037
501.456	176895
501.530	54950
501.603	89031
501.677	21560
501.751	13102
501.825	21078
501.898	48452
501.972	122733
502.046	44030
502.119	21631
502.193	61012
502.266	126061
502.340	42633
502.413	65315
502.487	102157
502.561	47752
502.634	13924
502.708	13830
502.781	10436
502.855	9223
502.928	8384
503.002	8563
503.075	10118
503.149	10835
503.222	11770
503.295	12449
503.369	17450
503.442	31871
503.516	110960
503.589	221491
503.662	102476
503.736	46717
503.809	110053
503.882	73275
503.956	131586
504.029	98117
504.102	116896
504.175	124443
504.249	36141
504.322	23179
504.395	16514
504.468	11609
504.542	10950
504.615	7571
504.688	8657
504.761	7167
504.834	11499
504.907	15231
504.980	19305
505.053	10233
505.127	13099
505.200	17245
505.273	16705
505.346	8307
505.419	8296
505.492	7823
505.565	6603
505.638	6156
505.711	5453
505.784	6317
505.857	6394
505.930	8351
506.003	6877
506.076	9530
506.149	13253
506.221	13621
506.294	19422
506.367	59719
506.440	158396
506.513	46172
506.586	15504
506.659	7740
506.731	8924
506.804	10024
506.877	13278
506.950	9458
507.022	9149
507.095	12224
507.168	12756
507.241	7650
507.313	6458
507.386	7834
507.459	11762
507.531	6174
507.604	5720
507.677	6262
507.749	5904
507.822	9916
507.894	19180
507.967	18004
508.040	10799
508.112	10146
508.185	10149
508.257	8190
508.330	14356
508.402	8090
508.475	9528
508.547	10850
508.620	13045
508.692	18290
508.765	9314
508.837	6541
508.909	6988
508.982	7916
509.054	9416
509.127	6358
509.199	7788
509.271	7048
509.344	6732
509.416	5994
509.488	6696
509.560	6866
509.633	8329
509.705	9298
509.777	9075
509.849	11869
509.922	6978
509.994	6303
510.066	9006
510.138	8976
510.210	18261
510.283	13128
510.355	11864
510.427	10142
510.499	10376
510.571	9118
510.643	9765
510.715	16632
510.787	10954
510.859	10278
510.931	13126
511.003	15810
511.076	12612
511.148	8066
511.219	9039
511.291	19702
511.363	18655
511.435	7868
511.507	7052
511.579	8576
511.651	8211
511.723	7396
511.795	8742
511.867	7942
511.939	14674
512.010	29025
512.082	16416
512.154	8708
512.226	10189
512.298	15552
512.369	18946
512.441	15535
512.513	15520
512.585	10456
512.656	13336
512.728	12172
512.800	9865
512.871	11054
512.943	10843
513.015	7837
513.086	9408
513.158	11581
513.230	11761
513.301	17994
513.373	16330
513.444	10131
513.516	9478
513.588	8975
513.659	11562
513.731	12320
513.802	13212
513.874	28722
513.945	36110
514.016	10422
514.088	10076
514.159	9816
514.231	15923
514.302	17094
514.374	13647
514.445	13718
514.516	33555
514.588	16862
514.659	16134
514.730	26986
514.802	19098
514.873	14768
514.944	17093
515.016	13312
515.087	14456
515.158	21847
515.229	25935
515.301	18164
515.372	22391
515.443	12350
515.514	11270
515.585	9426
515.656	10198
515.728	10246
515.799	9593
515.870	10504
515.941	11509
516.012	11035
516.083	15923
516.154	16179
516.225	20872
516.296	18427
516.367	16816
516.438	20182
516.509	30529
516.580	59834
516.651	201800
516.722	495214
516.793	113947
516.864	30796
516.935	31882
517.006	42779
517.077	76024
517.148	208829
517.219	745536
517.289	713934
517.360	176887
517.431	39694
517.502	18285
517.573	19420
517.643	18883
517.714	20046
517.785	21743
517.856	21508
517.926	25223
517.997	30430
518.068	42020
518.138	67168
518.209	147360
518.280	560145
518.350	1346587
518.421	275182
518.492	39940
518.562	29314
518.633	32998
518.703	38287
518.774	84069
518.845	185382
518.915	124104
518.986	37348
519.056	31213
519.127	48099
519.197	78839
519.268	169497
519.338	64733
519.408	22243
519.479	25653
519.549	15429
519.620	13118
519.690	10137
519.760	10766
519.831	11197
519.901	10399
519.971	10094
520.042	11561
520.112	12391
520.182	15028
520.253	14375
520.323	12107
520.393	20096
520.463	27995
520.534	23761
520.604	42059
520.674	15791
520.744	23167
520.814	53134
520.885	37746
520.955	71694
521.025	186880
521.095	37038
521.165	11387
521.235	9772
521.305	8801
521.375	8833
521.445	11430
521.515	12970
521.585	16456
521.655	11568
521.725	13638
521.795	10972
521.865	8500
521.935	17490
522.005	10632
522.075	7980
522.145	10941
522.215	12112
522.285	18802
522.355	28321
522.424	51923
522.494	33501
522.564	19280
522.634	43020
522.704	89623
522.774	19836
522.843	9857
522.913	10242
522.983	12700
523.053	9041
523.122	11463
523.192	19208
523.262	59372
523.331	31796
523.401	9626
523.471	7404
523.540	8250
523.610	6228
523.680	6895
523.749	7588
523.819	12566
523.888	8836
523.958	7321
524.027	7779
524.097	8391
524.166	7835
524.236	8230
524.305	9934
524.375	6475
524.444	5871
524.514	9058
524.583	9238
524.653	10927
524.722	11902
524.791	6429
524.861	8471
524.930	6604
524.999	8074
525.069	12206
525.138	9884
525.207	12729
525.277	7600
525.346	9346
525.415	8533
525.484	10265
525.554	12801
525.623	12455
525.692	12724
525.761	13303
525.830	15171
525.900	19870
525.969	35701
526.038	62952
526.107	157367
526.176	345880
526.245	196010
526.314	82641
526.383	206684
526.452	224032
526.522	440991
526.591	257183
526.660	59286
526.729	37365
526.797	56218
526.867	135344
526.935	451134
527.004	809633
527.073	256747
527.142	24710
527.211	14413
527.280	16990
527.349	12616
527.418	7716
527.487	9532
527.555	6799
527.624	5697
527.693	6261
527.762	8208
527.831	5694
527.899	6764
527.968	6116
528.037	5832
528.106	10541
528.174	17368
528.243	13928
528.312	24495
528.380	20862
528.449	5593
528.518	7251
528.586	3985
528.655	6078
528.723	4904
528.792	5441
528.861	5652
528.929	5047
528.998	6662
529.066	4709
529.135	4707
529.203	4289
529.272	3507
529.340	5051
529.409	6199
529.477	5248
529.545	8276
529.614	10449
529.682	9934
529.751	11572
529.819	14862
529.887	6416
529.956	4923
530.024	6510
530.092	4387
530.161	9055
530.229	10853
530.297	4110
530.365	5904
530.434	4751
530.502	3831
530.570	5147
530.638	3110
530.707	6915
530.775	6454
530.843	4990
530.911	4160
530.979	4239
531.047	4201
531.115	5762
531.183	4758
531.252	5994
531.320	5443
531.388	4792
531.456	4589
531.524	4086
531.592	6179
531.660	7578
531.728	4517
531.796	4789
531.864	4787
531.932	5584
532.000	4495
532.067	5559
532.135	6119
532.203	8534
532.271	7983
532.339	17612
532.407	39493
532.475	15113
532.542	9703
532.610	12622
532.678	22865
532.746	97019
532.814	143027
532.881	23904
532.949	7135
533.017	5601
533.084	5859
533.152	5375
533.220	6199
533.287	6388
533.355	5125
533.423	5301
533.490	4536
533.558	6048
533.625	5633
533.693	6439
533.761	6514
533.828	7525
533.896	6661
533.963	15150
534.031	16465
534.098	21847
534.166	8092
534.233	5370
534.300	7573
534.368	7619
534.435	6804
534.503	8852
534.570	10363
534.637	8608
534.705	12682
534.772	19855
534.840	45934
534.907	184058
534.974	129234
535.041	13877
535.109	10782
535.176	6311
535.243	7130
535.310	7344
535.378	5102
535.445	6024
535.512	5270
535.579	7242
535.646	5200
535.714	7205
535.781	8310
535.848	7961
535.915	7384
535.982	5785
536.049	6458
536.116	8558
536.183	6768
536.250	8142
536.317	6578
536.384	9184
536.451	13663
536.518	12311
536.585	8396
536.652	13057
536.719	16531
536.786	10798
536.853	9915
536.920	19234
536.987	26286
537.053	27896
537.120	95606
537.187	45469
537.254	7942
537.321	6049
537.388	7849
537.454	7123
537.521	6593
537.588	6380
537.654	8463
537.721	9304
537.788	8334
537.855	7200
537.921	7179
537.988	7315
538.055	8448
538.121	7818
538.188	9080
538.254	15044
538.321	23666
538.388	11615
538.454	8380
538.521	8267
538.587	6852
538.654	6185
538.720	6190
538.787	7503
538.853	9028
538.920	11261
538.986	9556
539.053	8297
539.119	8410
539.185	8073
539.252	11164
539.318	13553
539.385	11173
539.451	9043
539.517	10612
539.583	13561
539.650	33989
539.716	53242
539.782	11584
539.849	7605
539.915	8558
539.981	8959
540.047	9705
540.114	9201
540.180	9861
540.246	9179
540.312	13379
540.378	25747
540.444	22567
540.510	34347
540.576	62165
540.643	13069
540.709	6889
540.775	7153
540.841	7958
540.907	14423
540.973	19653
541.039	15328
541.105	13480
541.171	8300
541.237	8317
541.303	9412
541.369	11474
541.435	14655
541.500	21304
541.566	9997
541.632	7424
541.698	7268
541.764	7070
541.830	7228
541.896	6256
541.961	8066
542.027	6608
542.093	7904
542.159	9040
542.224	9254
542.290	13983
542.356	22784
542.421	19938
542.487	10574
542.553	8105
542.618	9497
542.684	7505
542.750	9854
542.815	11926
542.881	23504
542.947	65228
543.012	27225
543.078	7323
543.143	6968
543.209	9371
543.274	8612
543.340	11982
543.405	28688
543.471	27934
543.536	8742
543.602	8076
543.667	6778
543.732	8719
543.798	7418
543.863	8046
543.928	6715
543.994	6047
544.059	8129
544.124	7283
544.190	6807
544.255	7495
544.320	7893
544.386	8388
544.451	12615
544.516	14227
544.581	16510
544.646	45866
544.712	43439
544.777	11038
544.842	10241
544.907	10434
544.972	8496
545.037	10132
545.102	11078
545.168	9807
545.233	11582
545.298	12656
545.363	13828
545.428	14577
545.493	29279
545.558	43292
545.623	15160
545.688	10220
545.753	10592
545.818	11235
545.883	12288
545.947	10422
546.012	12954
546.077	10941
546.142	12574
546.207	11454
546.272	16319
546.337	13943
546.401	12878
546.466	12935
546.531	12116
546.596	15109
546.661	13464
546.725	14036
546.790	12359
546.855	15269
546.919	14961
546.984	16798
547.049	19365
547.113	21503
547.178	20848
547.243	25087
547.307	29174
547.372	31826
547.436	31953
547.501	28697
547.565	31518
547.630	31750
547.695	30816
547.759	33295
547.823	29958
547.888	28544
547.952	30327
548.017	31301
548.081	37583
548.146	37352
548.210	35016
548.274	33165
548.339	30625
548.403	29415
548.468	27926
548.532	27246
548.596	28828
548.660	28292
548.725	33159
548.789	36298
548.853	34366
548.917	31187
548.982	37864
549.046	31453
549.110	24771
549.174	26377
549.238	29332
549.303	31286
549.367	33236
549.431	29621
549.495	29469
549.559	29167
549.623	36493
549.687	38144
549.751	41809
549.815	42051
549.879	42193
549.943	40365
550.007	44805
550.071	42638
550.135	40935
550.199	37028
550.263	35796
550.327	38364
550.391	43362
550.455	40183
550.519	42208
550.582	44755
550.646	53815
550.710	51689
550.774	49319
550.838	48867
550.901	51255
550.965	54737
551.029	58858
551.093	67491
551.156	83688
551.220	122968
551.284	119929
551.347	77092
551.411	97882
551.475	79145
551.538	53596
551.602	46953
551.666	44492
551.729	41349
551.793	42396
551.856	39777
551.920	40490
551.983	39849
552.047	40278
552.110	40745
552.174	42786
552.237	40696
552.301	37734
552.364	37156
552.428	35769
552.491	36962
552.554	38951
552.618	38734
552.681	42158
552.745	43260
552.808	59434
552.871	63682
552.934	45210
552.998	39547
553.061	39129
553.124	36411
553.187	36767
553.251	37757
553.314	38201
553.377	37769
553.440	43479
553.503	53393
553.567	54669
553.630	39932
553.693	38911
553.756	39346
553.819	38475
553.882	35352
553.945	37201
554.008	37147
554.071	36164
554.134	37185
554.197	34954
554.260	34260
554.323	36112
554.386	36233
554.449	37823
554.512	36581
554.575	35838
554.638	35692
554.701	34988
554.764	34894
554.827	33560
554.889	31350
554.952	29830
555.015	29825
555.078	31428
555.141	31227
555.203	31439
555.266	30155
555.329	29815
555.391	28652
555.454	29972
555.517	27962
555.580	26907
555.642	25632
555.705	25323
555.768	26343
555.830	25353
555.893	23709
555.955	22881
556.018	23965
556.080	23933
556.143	23746
556.206	24662
556.268	23884
556.330	22910
556.393	23259
556.455	24148
556.518	28777
556.580	25112
556.643	19999
556.705	21068
556.767	19137
556.830	21433
556.892	21979
556.955	26949
557.017	20474
557.079	18981
557.142	20340
557.204	22727
557.266	32578
557.328	22700
557.391	16442
557.453	16836
557.515	17825
557.577	19325
557.639	19183
557.701	17748
557.764	16505
557.826	19010
557.888	21109
557.950	22365
558.012	29127
558.074	45183
558.136	115957
558.198	187062
558.260	40977
558.322	22660
558.384	22955
558.446	27700
558.508	32541
558.570	44309
558.632	69353
558.694	102488
558.756	172241
558.818	524074
558.880	807833
558.942	191485
559.003	203551
559.065	59393
559.127	32874
559.189	39097
559.251	54805
559.312	97858
559.374	259027
559.436	604656
559.498	155306
559.559	36101
559.621	38516
559.683	58779
559.744	108021
559.806	349899
559.868	315029
559.929	48700
559.991	46887
560.052	90241
560.114	211012
560.176	93671
560.237	136927
560.299	144226
560.360	21701
560.422	12696
560.483	12637
560.545	12966
560.606	11204
560.667	11318
560.729	11122
560.790	9789
560.852	9394
560.913	9492
560.974	9484
561.036	9795
561.097	9168
561.158	10789
561.220	9796
561.281	9987
561.342	10548
561.403	12890
561.465	15518
561.526	36084
561.587	30492
561.648	10192
561.709	9462
561.771	9711
561.832	8687
561.893	8935
561.954	8498
562.015	9131
562.076	8282
562.137	8579
562.198	8590
562.259	9236
562.320	8543
562.381	10229
562.442	13922
562.503	10247
562.564	8475
562.625	8079
562.686	8787
562.747	10370
562.808	8721
562.869	8482
562.930	10376
562.991	10226
563.051	8362
563.112	8057
563.173	7645
563.234	7179
563.294	8895
563.355	8790
563.416	8321
563.477	8513
563.537	8663
563.598	9286
563.659	8890
563.720	8757
563.780	8034
563.841	9184
563.901	8646
563.962	8421
564.023	7938
564.083	8865
564.144	8668
564.204	8683
564.265	10028
564.325	12723
564.386	23430
564.446	16041
564.507	7795
564.567	8073
564.628	6756
564.688	7591
564.749	7268
564.809	10702
564.869	11463
564.930	8067
564.990	8197
565.050	7676
565.111	7798
565.171	7530
565.231	7841
565.292	8437
565.352	7110
565.412	8633
565.472	7873
565.532	9253
565.593	7715
565.653	7723
565.713	8869
565.773	9025
565.833	10290
565.893	12781
565.953	8071
566.013	8964
566.074	9825
566.134	13962
566.194	20832
566.254	18353
566.314	11281
566.374	8881
566.434	9471
566.494	9439
566.554	9009
566.614	10311
566.673	10078
566.733	10766
566.793	11102
566.853	11861
566.913	11818
566.973	12474
567.033	11958
567.092	12276
567.152	12659
567.212	12656
567.272	12622
567.331	14304
567.391	14016
567.451	16529
567.511	19782
567.570	17090
567.630	12469
567.690	12387
567.749	12840
567.809	14154
567.868	15852
567.928	17696
567.988	20809
568.047	24805
568.107	32335
568.166	47643
568.226	75498
568.285	95218
568.345	70171
568.404	52412
568.464	43789
568.523	41898
568.582	44306
568.642	54649
568.701	73608
568.761	115753
568.820	170150
568.879	141718
568.939	96330
568.998	65873
569.057	47878
569.116	37095
569.176	29705
569.235	24956
569.294	19409
569.353	19119
569.413	16553
569.472	14648
569.531	13879
569.590	13123
569.649	11198
569.708	10952
569.767	11971
569.827	14645
569.886	10362
569.945	10808
570.004	9840
570.063	9491
570.122	10177
570.181	11474
570.240	12045
570.299	11633
570.358	10820
570.417	9525
570.475	8576
570.534	10190
570.593	8820
570.652	9508
570.711	9059
570.770	9921
570.829	9420
570.887	9644
570.946	9616
571.005	7761
571.064	8742
571.122	9853
571.181	10216
571.240	7145
571.299	6989
571.357	7845
571.416	8755
571.475	10610
571.533	8910
571.592	8430
571.650	8430
571.709	7734
571.768	8333
571.826	8566
571.885	6839
571.943	6484
572.002	6767
572.060	7755
572.119	6922
572.177	6637
572.236	5889
572.294	6069
572.352	7398
572.411	6827
572.469	5941
572.528	6891
572.586	7386
572.644	8627
572.703	10364
572.761	6525
572.819	6053
572.877	6981
572.936	6018
572.994	6544
573.052	6403
573.110	7180
573.169	6197
573.227	7309
573.285	5827
573.343	6178
573.401	5960
573.459	6134
573.517	7162
573.576	6023
573.634	5919
573.692	7080
573.750	6120
573.808	7503
573.866	6921
573.924	10332
573.982	8897
574.040	5941
574.098	6238
574.155	6289
574.213	5011
574.271	6133
574.329	6666
574.387	5820
574.445	4517
574.503	6480
574.560	4351
574.618	5865
574.676	4705
574.734	6249
574.792	5424
574.849	5835
574.907	5099
574.965	5074
575.022	3811
575.080	5790
575.138	5067
575.195	5406
575.253	5216
575.311	5628
575.368	5494
575.426	5340
575.483	4930
575.541	5927
575.598	5105
575.656	5235
575.713	4774
575.771	5194
575.828	5191
575.886	5392
575.943	5643
576.001	5592
576.058	4933
576.115	7024
576.173	7778
576.230	8986
576.287	8668
576.345	6875
576.402	5605
576.459	5609
576.517	6138
576.574	7795
576.631	6434
576.688	6634
576.746	5396
576.803	5821
576.860	5735
576.917	6189
576.974	4813
577.031	6227
577.089	5072
577.146	5616
577.203	5565
577.260	7209
577.317	7259
577.374	8055
577.431	5936
577.488	5625
577.545	4496
577.602	6279
577.659	6011
577.716	4877
577.773	4607
577.830	4840
577.886	4799
577.943	5798
578.000	5375
578.057	6109
578.114	6119
578.171	6189
578.227	5152
578.284	5678
578.341	5941
578.398	6287
578.454	6654
578.511	8031
578.568	8005
578.625	6756
578.681	5711
578.738	5888
578.794	5791
578.851	4791
578.908	5970
578.964	5897
579.021	5724
579.077	5067
579.134	4820
579.190	5325
579.247	5759
579.303	4430
579.360	4913
579.416	5106
579.473	4349
579.529	5265
579.586	5268
579.642	6047
579.698	5066
579.755	6358
579.811	5708
579.867	5280
579.924	4366
579.980	5119
580.036	5157
580.093	6716
580.149	5290
580.205	6230
580.261	5807
580.317	6535
580.374	7673
580.430	8821
580.486	6110
580.542	5604
580.598	6488
580.619	6465
580.654	6433
580.692	5623
580.710	5230
580.765	6444
580.767	6490
580.823	6355
580.838	6540
580.879	7057
580.911	5958
580.935	5162
580.984	5372
580.991	5412
581.047	6547
581.057	6402
581.103	5773
581.130	5973
581.159	6211
581.203	6035
581.215	5986
581.270	6214
581.276	6201
581.326	6162
581.349	5914
581.382	5498
581.422	5772
581.438	5915
581.494	5541
581.494	5540
581.550	5975
581.567	6146
581.606	6514
581.640	5907
581.661	5553
581.713	6736
581.717	6841
581.773	5529
581.786	5741
581.829	6344
581.859	6346
581.885	6419
581.932	5812
581.940	5681
581.996	6302
582.004	6253
582.052	6174
582.077	5990
582.107	5664
582.150	5827
582.163	5929
582.219	5636
582.223	5657
582.274	5767
582.296	5890
582.330	6181
582.368	6097
582.386	6111
582.441	6306
582.441	6307
582.497	5276
582.514	5456
582.552	5968
582.587	6093
582.608	6187
582.659	5329
582.663	5254
582.719	5597
582.732	5657
582.774	5935
582.805	5748
582.830	5616
582.877	6727
582.885	6906
582.941	5919
582.950	6002
582.996	6305
583.023	6035
583.052	5908
583.095	6256
583.107	6308
583.162	5790
583.168	5868
583.218	6613
583.240	6105
583.273	5249
583.313	5534
583.328	5787
583.384	6500
583.385	6487
583.439	5407
583.458	5524
583.494	6164
583.531	6068
583.549	5880
583.603	5654
583.605	5651
583.660	5396
583.676	5543
583.715	6002
583.748	6493
583.770	6745
583.820	5974
583.825	5890
583.881	6683
583.893	6527
583.936	6204
583.965	6111
583.991	5922
584.038	5960
584.046	6009
584.101	6139
584.110	6162
584.156	6016
584.183	6131
584.211	6352
584.255	6536
584.266	6550
584.321	5718
584.328	5714
584.376	5708
584.400	6144
584.431	6812
584.472	6630
584.486	6468
584.541	6851
584.545	6841
584.596	6833
584.617	6895
584.651	7352
584.689	7825
584.706	7700
584.761	7175
584.762	7173
584.816	7317
584.834	7627
584.871	8142
584.906	8177
584.926	8006
584.978	7546
584.980	7548
585.035	8192
585.051	8457
585.090	9076
585.123	9502
585.145	9754
585.195	10770
585.200	10898
585.254	12012
585.267	12523
585.309	13722
585.340	14634
585.364	15264
585.412	18101
585.419	18541
585.473	23985
585.484	25709
585.528	33546
585.556	40290
585.583	49085
585.628	74128
585.637	80995
585.692	174438
585.700	183266
585.747	217033
585.772	159235
585.801	78360
585.845	30763
585.856	23514
585.910	15168
585.917	14483
585.965	12837
585.989	12455
586.019	12014
586.061	11245
586.074	11224
586.128	11135
586.133	11204
586.183	11204
586.205	11029
586.237	10956
586.277	11521
586.292	11711
586.346	10637
586.349	10703
586.401	12002
586.421	12188
586.455	12469
586.493	13937
586.509	14955
586.564	17979
586.565	18176
586.618	26248
586.637	24907
586.672	19562
586.709	16787
586.727	16000
586.781	14784
586.781	14765
586.835	13208
586.853	12935
586.889	12570
586.925	12272
586.944	12375
586.996	13049
586.998	13038
587.052	13211
587.068	13234
587.106	13793
587.140	14455
587.161	14629
587.212	14635
587.215	14624
587.269	15542
587.284	15556
587.323	15487
587.356	15836
587.377	16299
587.427	17236
587.431	17241
587.485	18263
587.499	18298
587.539	18834
587.571	19654
587.593	20120
587.643	21480
587.648	21586
587.702	22580
587.715	22994
587.755	24494
587.786	25660
587.810	26411
587.858	27700
587.864	27908
587.917	31173
587.930	31985
587.971	34364
588.001	36454
588.025	37863
588.073	40472
588.079	40961
588.133	46090
588.145	47560
588.187	52711
588.217	56598
588.241	60133
588.288	67870
588.295	69025
588.348	80804
588.360	83623
588.402	94723
588.431	103702
588.456	111225
588.503	129513
588.510	132548
588.564	162951
588.575	170767
588.617	203370
588.646	231685
588.671	262606
588.718	332112
588.725	347519
588.778	490279
588.789	525894
588.832	753881
588.861	921402
588.886	1102197
588.932	1362240
588.939	1364299
588.993	1327722
589.004	1332634
589.047	1145300
589.075	939043
589.100	763710
589.147	467727
589.154	446194
589.207	331076
589.218	312711
589.261	291402
589.290	286836
589.314	298622
589.361	335016
589.368	348744
589.421	488271
589.433	524709
589.475	783741
589.504	964424
589.528	1089661
589.576	1256620
589.582	1225623
589.635	937817
589.647	857003
589.689	537003
589.718	336926
589.742	270959
589.790	167591
589.795	161633
589.849	120037
589.861	111780
589.902	95331
589.932	83419
589.955	75893
590.004	62399
590.009	61372
590.062	53029
590.075	51201
590.115	46886
590.146	43912
590.168	41678
590.218	37255
590.222	36970
590.275	34188
590.289	33573
590.328	31598
590.360	30082
590.381	29133
590.431	27292
590.435	27131
590.488	25270
590.503	24758
590.541	23773
590.574	23150
590.594	22500
590.645	21170
590.647	21136
590.700	21188
590.716	21142
590.753	19498
590.787	18379
590.806	18480
590.859	18728
590.859	18684
590.912	17657
590.930	17326
590.965	17248
591.001	17449
591.018	17046
591.071	15716
591.072	15730
591.124	15935
591.143	16061
591.177	15506
591.214	14958
591.230	15250
591.283	16364
591.285	16425
591.336	15653
591.356	15360
591.389	15517
591.427	15778
591.442	15413
591.495	13981
591.498	13899
591.547	13576
591.569	13528
591.600	13272
591.640	12860
591.653	13003
591.706	13723
591.711	13833
591.759	13382
591.782	13146
591.811	13811
591.853	14785
591.864	14482
591.917	12991
591.924	12808
591.969	13056
591.995	13239
592.022	12954
592.066	12510
592.075	12570
592.127	13159
592.137	13309
592.180	13927
592.208	14268
592.233	13925
592.279	13382
592.285	13220
592.338	12098
592.350	11871
592.390	11804
592.421	11797
592.443	11692
592.491	11559
592.495	11562
592.548	11967
592.562	12109
592.600	11602
592.633	11209
592.653	10976
592.704	10404
592.705	10467
592.775	10702
592.846	11707
592.916	10537
592.987	12339
593.058	11894
593.128	11674
593.199	10255
593.270	10927
593.341	10630
593.411	11294
593.482	10826
593.553	11528
593.623	10573
593.694	12274
593.764	12348
593.835	11290
593.906	10668
593.976	10689
594.047	10952
594.117	13199
594.188	12736
594.258	10985
594.329	11550
594.399	12273
594.470	11431
594.540	11994
594.611	11999
594.681	11554
594.751	11602
594.822	13388
594.892	13306
594.963	13438
595.033	12693
595.103	13581
595.174	14085
595.244	18539
595.314	19640
595.384	13952
595.455	14280
595.525	14570
595.595	14484
595.665	14932
595.736	13903
595.806	14540
595.876	14489
595.946	14614
596.016	14260
596.087	15677
596.157	15234
596.227	14768
596.297	16282
596.367	17042
596.437	18906
596.507	21867
596.577	22399
596.647	19722
596.717	18333
596.787	18641
596.857	17573
596.927	18858
596.997	18203
597.067	19209
597.137	19152
597.207	20379
597.277	18773
597.347	18845
597.417	18501
597.487	18944
597.557	17826
597.626	18787
597.696	20318
597.766	21413
597.836	22489
597.906	18589
597.975	16908
598.045	16884
598.115	17449
598.185	18957
598.254	20748
598.324	22437
598.394	23297
598.464	22204
598.533	21086
598.603	20693
598.672	19722
598.742	20967
598.812	20112
598.881	20476
598.951	21124
599.020	20154
599.090	20291
599.159	22093
599.229	20524
599.299	19734
599.368	19872
599.437	20570
599.507	19761
599.576	18906
599.646	18054
599.715	19172
599.785	17692
599.854	17727
599.924	19222
599.993	17859
600.062	17231
600.132	17799
600.201	18400
600.270	21716
600.340	22577
600.409	22019
600.478	21611
600.547	21689
600.617	20653
600.686	16888
600.755	15096
600.824	15730
600.894	14873
600.963	14291
601.032	13971
601.101	14093
601.170	12562
601.239	13116
601.308	14044
601.378	13362
601.447	12954
601.516	12044
601.585	13394
601.654	14734
601.723	14161
601.792	14134
601.861	13218
601.930	16042
601.999	16057
602.068	14895
602.137	14876
602.206	15770
602.275	14849
602.343	16522
602.412	16897
602.481	15600
602.550	15397
602.619	15997
602.688	16057
602.756	16580
602.825	15063
602.894	16701
602.963	15706
603.032	16221
603.100	16626
603.169	16537
603.238	16619
603.307	16409
603.375	17142
603.444	16768
603.513	16989
603.581	17522
603.650	17460
603.719	17722
603.787	17324
603.856	18631
603.924	18409
603.993	19552
604.061	18603
604.130	21059
604.198	20795
604.267	22108
604.335	20764
604.404	21743
604.472	21022
604.541	22715
604.609	21879
604.678	23246
604.746	22240
604.815	24132
604.883	23241
604.951	24512
605.020	23490
605.088	24433
605.156	24534
605.225	26244
605.293	24458
605.361	25712
605.429	24415
605.498	26367
605.566	27006
605.634	28231
605.702	29033
605.771	29942
605.839	30225
605.907	30099
605.975	27836
606.043	27568
606.111	27978
606.180	27693
606.248	26017
606.316	28296
606.384	27135
606.452	29497
606.520	30462
606.588	30333
606.656	28706
606.724	28441
606.792	26949
606.860	24293
606.928	21415
606.996	21150
607.064	20454
607.132	20699
607.200	22222
607.267	23961
607.335	22518
607.403	25453
607.471	23280
607.539	23438
607.607	23027
607.674	20742
607.742	21011
607.810	21581
607.878	20854
607.946	21263
608.013	21774
608.081	22343
608.149	23145
608.216	23480
608.284	24006
608.352	25364
608.419	22826
608.487	26604
608.555	22653
608.622	24813
608.690	24172
608.757	27740
608.825	28441
608.893	28410
608.960	26605
609.028	26553
609.095	27296
609.163	24971
609.230	22349
609.298	21055
609.365	21268
609.432	23157
609.500	24789
609.567	29288
609.635	32310
609.702	33697
609.769	33361
609.837	27124
609.904	23214
609.971	24133
610.039	28955
610.106	40334
610.173	76346
610.241	180632
610.308	110310
610.375	44995
610.442	25651
610.509	24043
610.577	23542
610.644	24157
610.711	24178
610.778	25696
610.845	25567
610.912	26751
610.980	28634
611.047	28867
611.114	27001
611.181	26529
611.248	25847
611.315	29263
611.382	27433
611.449	29647
611.516	31693
611.583	29733
611.650	29199
611.717	31636
611.784	31176
611.851	34776
611.918	38831
611.984	48202
612.051	73905
612.118	158495
612.185	394261
612.252	230943
612.319	53416
612.386	41326
612.452	37044
612.519	35381
612.586	36562
612.653	36094
612.719	35606
612.786	34437
612.853	31460
612.919	31069
612.986	32224
613.053	29427
613.120	26544
613.186	25494
613.253	28735
613.319	27206
613.386	26599
613.453	28203
613.519	28677
613.586	28877
613.652	32073
613.719	30513
613.785	28737
613.852	28292
613.918	27109
613.985	29204
614.051	31036
614.118	38279
614.184	34083
614.250	28576
614.317	27114
614.383	27412
614.449	27785
614.516	28150
614.582	27799
614.648	27311
614.715	27016
614.781	27761
614.847	27237
614.914	27755
614.980	26349
615.046	25891
615.112	26772
615.179	27721
615.245	28646
615.311	31648
615.377	37600
615.443	38572
615.509	31172
615.575	31997
615.642	29823
615.708	32815
615.774	33237
615.840	37022
615.906	43295
615.972	62103
616.038	108503
616.104	216507
616.170	503766
616.236	400075
616.302	84012
616.368	56776
616.434	38894
616.500	38229
616.565	41131
616.631	50425
616.697	41351
616.763	43869
616.829	66577
616.895	117029
616.961	106474
617.026	45692
617.092	30999
617.158	29728
617.224	28374
617.289	26592
617.355	25772
617.421	24417
617.487	26291
617.552	22983
617.618	22437
617.684	22669
617.749	25295
617.815	22503
617.880	21895
617.946	22346
618.012	23055
618.077	23662
618.143	21604
618.208	22651
618.274	23452
618.339	24373
618.405	19063
618.470	21514
618.536	19826
618.601	21281
618.667	18830
618.732	17580
618.798	17638
618.863	18094
618.928	16683
618.994	19272
619.059	18370
619.124	21387
619.190	18640
619.255	17761
619.320	16802
619.386	17676
619.451	16648
619.516	17270
619.581	16546
619.647	17555
619.712	17920
619.777	17764
619.842	16928
619.907	17961
619.972	16689
620.038	18297
620.103	16212
620.168	16277
620.233	17507
620.298	17019
620.363	17365
620.428	17699
620.493	17698
620.558	18499
620.623	18466
620.688	17772
620.753	17777
620.818	18261
620.883	18251
620.948	18431
621.013	18434
621.078	18728
621.143	16492
621.207	20757
621.272	18907
621.337	18778
621.402	18495
621.467	21046
621.532	19263
621.596	19331
621.661	17632
621.726	17898
621.791	16706
621.855	18851
621.920	18037
621.985	19295
622.049	20725
622.114	19139
622.179	18268
622.243	18520
622.308	18847
622.373	21765
622.437	19787
622.502	17768
622.566	17733
622.631	17394
622.695	19337
622.760	19069
622.824	18956
622.889	18692
622.953	19615
623.018	24307
623.082	23270
623.147	19744
623.211	18717
623.276	19550
623.340	17123
623.404	18290
623.469	17692
623.533	18263
623.597	16589
623.662	17730
623.726	15836
623.790	15022
623.854	14639
623.919	15860
623.983	15148
624.047	16098
624.111	15609
624.176	15943
624.240	16610
624.304	18518
624.368	16354
624.432	16470
624.496	16580
624.560	18268
624.625	18386
624.689	17737
624.753	17359
624.817	16718
624.881	15878
624.945	15773
625.009	14383
625.073	15939
625.137	15127
625.201	17844
625.265	17845
625.329	16943
625.393	15038
625.456	16638
625.520	17417
625.584	17718
625.648	19330
625.712	25186
625.776	40673
625.839	43491
625.903	20634
625.967	15327
626.031	21554
626.095	29286
626.158	16417
626.222	11889
626.286	11589
626.349	10927
626.413	9435
626.477	12280
626.540	10758
626.604	10534
626.668	10938
626.731	9971
626.795	9914
626.858	10912
626.922	9264
626.986	10983
627.049	8966
627.113	10886
627.176	9979
627.240	9604
627.303	9180
627.366	9207
627.430	9495
627.493	9641
627.557	8788
627.620	10050
627.684	10221
627.747	11445
627.810	8300
627.874	8840
627.937	7659
628.000	10316
628.064	8984
628.127	6976
628.190	7882
628.253	8103
628.317	6359
628.380	7264
628.443	6464
628.506	6537
628.569	6464
628.632	6213
628.696	6312
628.759	6383
628.822	5759
628.885	6340
628.948	6525
629.011	6254
629.074	5238
629.137	5692
629.200	5668
629.263	7436
629.326	3574
629.389	5279
629.452	5034
629.515	5658
629.578	4466
629.641	6558
629.704	4529
629.767	6195
629.830	5225
629.892	5683
629.955	3548
630.018	6404
630.081	4623
630.144	7664
630.207	4730
630.269	6247
630.332	4986
630.395	5250
630.458	4546
630.520	3896
630.583	5948
630.646	5173
630.708	3890
630.771	4390
630.834	6614
630.896	5493
630.959	4015
631.021	5165
631.084	4405
631.146	6122
631.209	6083
631.272	5293
631.334	4877
631.397	4106
631.459	4160
631.522	4505
631.584	4756
631.646	5993
631.709	6026
631.771	7261
631.834	5817
631.896	5523
631.958	4082
632.021	5576
632.083	3730
632.145	5329
632.208	3541
632.270	6046
632.332	3519
632.395	4548
632.457	4816
632.519	3956
632.581	4850
632.643	3559
632.706	4845
632.768	3528
632.830	5561
632.892	3807
632.954	3170
633.016	5196
633.078	4287
633.141	3936
633.203	3720
633.265	4526
633.327	4577
633.389	4522
633.451	4855
633.513	5054
633.575	5365
633.637	5423
633.698	4622
633.760	5372
633.822	4112
633.884	5166
633.946	3924
634.008	4906
634.070	4299
634.132	6193
634.193	5338
634.255	6697
634.317	5622
634.379	7798
634.441	4892
634.502	4717
634.564	4722
634.626	4782
634.687	3883
634.749	4617
634.811	3885
634.873	4564
634.934	3911
634.996	4779
635.057	3252
635.119	3580
635.181	4013
635.242	5523
635.304	2574
635.365	6333
635.427	3047
635.488	4450
635.550	3166
635.611	4695
635.673	2465
635.734	6419
635.796	3571
635.857	5816
635.918	4788
635.980	7133
636.041	5490
636.102	7754
636.164	7503
636.225	7804
636.286	4338
636.348	5895
636.409	4080
636.470	4578
636.531	3930
636.593	5128
636.654	4486
636.715	3399
636.776	3440
636.838	3497
636.899	3897
636.960	2957
637.021	2107
637.082	2702
637.143	3490
637.204	3004
637.265	3215
637.326	2925
637.387	2910
637.448	2623
637.509	3494
637.570	3325
637.631	3512
637.692	2183
637.753	1538
637.814	3457
637.875	2801
637.936	3709
637.997	1722
638.058	2888
638.119	3276
638.179	2532
638.240	1792
638.301	2332
638.362	1970
638.423	2342
638.483	2855
638.544	1944
638.605	3359
638.666	1742
638.726	2764
638.787	3777
638.848	2053
638.908	2454
638.969	2495
639.030	3234
639.090	1559
639.151	2918
639.211	3394
639.272	4106
639.332	4737
639.393	4086
639.453	1391
639.514	3017
639.574	2258
639.635	2171
639.695	2674
639.756	1927
639.816	2929
639.877	2809
639.937	5383
639.997	7168
640.058	1280
640.118	1839
640.178	3329
640.239	3127
640.299	2104
640.359	2226
640.420	2053
640.480	3410
640.540	2842
640.600	3554
640.661	3071
640.721	3003
640.781	5003
640.841	2471
640.901	2848
640.961	2765
641.021	3055
641.082	2400
641.142	3978
641.202	3970
641.262	314
641.322	3082
641.382	975
641.442	2909
641.502	2293
641.562	3132
641.622	1723
641.682	2698
641.742	1436
641.802	2353
641.861	2872
641.921	2124
641.981	3025
642.041	2644
642.101	2647
642.161	1879
642.221	1037
642.280	2435
642.340	1986
642.400	1367
642.460	3343
642.519	1852
642.579	1950
642.639	2531
642.698	-1083
642.758	4330
642.818	1991
642.877	1998
642.937	1700
642.997	3524
643.056	4014
643.116	871
643.175	4182
643.235	3037
643.294	2468
643.354	3111
643.414	3137
643.473	4637
643.532	4691
643.592	9169
643.651	16227
643.711	31361
643.770	61028
643.830	150017
643.889	315219
643.948	69783
644.008	10077
644.067	6447
644.126	3472
644.186	3580
644.245	3502
644.304	1204
644.363	4628
644.423	1468
644.482	2012
644.541	2842
644.600	511
644.659	3826
644.719	4016
644.778	7804
644.837	12482
644.896	29307
644.955	65158
645.014	20543
645.073	4367
645.132	2881
645.191	2852
645.250	1926
645.309	3434
645.368	2201
645.427	3879
645.486	6690
645.545	11953
645.604	3195
645.663	2348
645.722	2747
645.781	2914
645.840	3663
645.898	4161
645.957	9235
646.016	12028
646.075	26636
646.134	53590
646.192	146882
646.251	211776
646.310	29218
646.369	6434
646.427	5516
646.486	2417
646.545	3432
646.603	2231
646.662	2166
646.721	1829
646.779	1793
646.838	854
646.896	3729
646.955	4896
647.014	7697
647.072	14155
647.131	40856
647.189	18998
647.248	2386
647.306	2107
647.365	2504
647.423	-249
647.481	2627
647.540	-588
647.598	1515
647.657	504
647.715	2105
647.773	499
647.832	1745
647.890	159
647.948	650
648.007	1635
648.065	1067
648.123	-114
648.181	2197
648.240	1193
648.298	878
648.356	290
648.414	1251
648.472	1701
648.531	962
648.589	1577
648.647	1581
648.705	549
648.763	1149
648.821	870
648.879	1567
648.937	1021
648.995	2712
649.053	2742
649.111	5490
649.169	11208
649.227	18756
649.285	40884
649.343	121501
649.401	55620
649.459	10831
649.516	5718
649.574	2859
649.632	5341
649.690	6819
649.748	4387
649.806	3769
649.863	10322
649.921	27909
649.979	17517
650.037	2267
650.094	-333
650.152	813
650.210	-80
650.268	2017
650.325	661
650.383	1830
650.440	-850
650.498	911
650.556	642
650.613	532
650.671	1064
650.728	588
650.786	749
650.843	1146
650.901	-1224
650.958	1222
651.016	838
651.073	297
651.131	-675
651.188	309
651.246	604
651.303	-148
651.360	778
651.418	595
651.475	77
651.532	-187
651.590	766
651.647	27
651.704	-29
651.762	289
651.819	-436
651.876	-357
651.933	-779
651.990	1019
652.048	-1169
652.105	-131
652.162	380
652.219	104
652.276	-266
652.333	898
652.390	-823
652.448	76
652.505	391
652.562	-46
652.619	-943
652.676	1102
652.733	253
652.790	826
652.847	-1077
652.904	139
652.961	-1392
653.017	-1020
653.074	469
653.131	329
653.188	-1754
653.245	222
653.302	20
653.359	-335
653.415	667
653.472	158
653.529	211
653.586	-637
653.642	-1097
653.699	51
653.756	-1319
653.813	-364
653.869	497
653.926	-704
653.983	-261
654.039	266
654.096	-1177
654.152	1191
654.209	-1154
654.266	872
654.322	-1254
654.379	996
654.435	104
654.492	560
654.548	649
654.605	1768
654.661	1255
654.717	797
654.774	-232
654.830	-244
654.887	-255
654.943	-85
655.000	-446
655.056	1060
655.112	-358
655.168	-638
655.225	-545
655.281	978
655.337	509
655.394	1405
655.450	806
655.506	120
655.562	2163
655.618	2351
655.675	-772
655.731	263
655.787	-889
655.843	261
655.899	-1039
655.955	625
656.011	-914
656.067	-647
656.123	-810
656.179	722
656.235	987
656.291	-990
656.347	347
656.403	505
656.459	53
656.515	49
656.571	-781
656.627	593
656.683	66
656.739	658
656.795	162
656.850	324
656.906	256
656.962	1009
657.018	-1164
657.074	-232
657.129	-284
657.185	835
657.241	2187
657.297	577
657.352	433
657.408	479
657.464	-72
657.519	-173
657.575	-1039
657.630	555
657.686	-359
657.742	-789
657.797	-586
657.853	-371
657.908	-169
657.964	-826
658.019	-487
658.075	-343
658.130	272
658.186	-1170
658.241	42
658.297	-1043
658.352	-1259
658.407	450
658.463	-1159
658.518	58
658.573	-1012
658.629	-885
658.684	-977
658.739	479
658.795	-1642
658.850	-170
658.905	-80
658.960	-47
659.016	-885
659.071	-509
659.126	-450
659.181	-169
659.236	844
659.291	1817
659.346	-910
659.401	-186
659.457	-697
659.512	178
659.567	363
659.622	773
659.677	-350
659.732	-240
659.787	290
659.842	355
659.897	177
659.952	176
660.007	-531
660.061	156
660.116	-501
660.171	-326
660.226	-53
660.281	762
660.336	-1373
660.391	353
660.445	-1191
660.500	62
660.555	-813
660.610	-441
660.664	-472
660.719	165
660.774	-583
660.828	-143
660.883	-470
660.938	430
660.992	-1563
661.047	-164
661.101	-793
661.156	-533
661.211	-852
661.265	352
661.320	209
661.374	-764
661.429	-1179
661.483	-186
661.538	-1327
661.592	-335
661.647	-835
661.701	34
661.755	-228
661.810	263
661.864	-1188
661.919	-601
661.973	-808
662.027	-1372
662.081	-1113
662.136	-498
662.190	-98
662.244	-93
662.299	-611
662.353	45
662.407	-1418
662.461	-886
662.515	-556
662.569	-427
662.624	203
662.678	-530
662.732	-787
662.786	-101
662.840	-779
662.894	98
662.948	-1403
663.002	-209
663.056	-420
663.110	-922
663.164	-621
663.218	181
663.272	-698
663.326	1161
663.380	-1156
663.434	-319
663.488	-1635
663.542	-460
663.595	-1151
663.649	364
663.703	97
663.757	-762
663.811	-1053
663.864	-973
663.918	-938
663.972	-163
664.026	-555
664.079	-442
664.133	-468
664.187	-605
664.240	-648
664.294	-302
664.348	-732
664.401	-130
664.455	-670
664.508	-439
664.562	-1039
664.615	-354
664.669	-1182
664.722	837
664.776	-1340
664.829	36
664.883	-359
664.936	-280
664.990	-261
665.043	-117
665.097	-852
665.150	491
665.203	-1270
665.257	-147
665.310	-831
665.363	7
665.417	22
665.470	-65
665.523	-547
665.576	-443
665.630	-582
665.683	-974
665.736	-1167
665.789	-207
665.842	-711
665.895	-261
665.949	90
666.002	195
666.055	-752
666.108	-297
666.161	-133
666.214	469
666.267	-380
666.320	-233
666.373	7
666.426	542
666.479	-118
666.532	514
666.585	397
666.638	-117
666.691	-368
666.744	1308
666.796	-471
666.849	384
666.902	156
666.955	248
667.008	-1091
667.060	85
667.113	-69
667.166	215
667.219	-221
667.271	-192
667.324	-750
667.377	58
667.430	-583
667.482	293
667.535	-348
667.587	219
667.640	-389
667.693	816
667.745	571
667.798	1028
667.850	22
667.903	-112
667.955	-1102
668.008	-243
668.060	-152
668.113	118
668.165	-333
668.218	106
668.270	-341
668.322	567
668.375	-540
668.427	1304
668.479	-287
668.532	546
668.584	-635
668.636	482
668.689	50
668.741	-29
668.793	-588
668.845	-47
668.898	-826
668.950	510
669.002	-532
669.054	-500
669.106	-720
669.158	490
669.211	-214
669.263	-165
669.315	250
669.367	495
669.419	-727
669.471	293
669.523	642
669.575	1852
669.627	30
669.679	359
669.731	963
669.783	718
669.835	562
669.886	1039
669.938	-328
669.990	-24
670.042	-21
670.094	423
670.146	77
670.197	595
670.249	96
670.301	1379
670.353	2418
670.404	5114
670.456	6500
670.508	12900
670.560	21462
670.611	38584
670.663	68173
670.715	177642
670.766	292221
670.818	82440
670.869	11141
670.921	5041
670.972	3585
671.024	3017
671.075	1282
671.127	2077
671.178	966
671.230	1142
671.281	763
671.333	1381
671.384	-535
671.436	1603
671.487	1511
671.538	1761
671.590	3589
671.641	5745
671.692	10096
671.744	22153
671.795	14277
671.846	4623
671.897	1085
671.949	894
672.000	69
672.051	1051
672.102	643
672.153	-261
672.204	-109
672.256	803
672.307	293
672.358	417
672.409	-1080
672.460	-214
672.511	-469
672.562	153
672.613	-1112
672.664	659
672.715	-270
672.766	-131
672.817	-777
672.868	333
672.919	284
672.970	122
673.021	286
673.071	-208
673.122	-852
673.173	111
673.224	-321
673.275	267
673.326	-312
673.376	-109
673.427	-1296
673.478	-287
673.528	195
673.579	120
673.630	94
673.680	786
673.731	-836
673.782	-301
673.832	-441
673.883	272
673.934	-822
673.984	-76
674.035	-613
674.085	550
674.136	-751
674.186	-477
674.237	-414
674.287	488
674.338	507
674.388	-152
674.438	-919
674.489	-523
674.539	149
674.589	150
674.640	-106
674.690	477
674.740	113
674.791	876
674.841	-1016
674.891	386
674.942	-495
674.992	-405
675.042	-997
675.092	474
675.142	-773
675.193	-163
675.243	-395
675.293	-581
675.343	-546
675.393	-316
675.443	-336
675.493	-59
675.543	-1081
675.593	-235
675.643	-173
675.693	264
675.743	-77
675.793	-9
675.843	-51
675.893	-399
675.943	-729
675.993	316
676.043	-909
676.093	-146
676.142	-221
676.192	-280
676.242	-1054
676.292	-205
676.341	-585
676.391	-255
676.441	-839
676.491	-228
676.540	-1405
676.590	-116
676.640	-933
676.689	218
676.739	-1298
676.789	-134
676.838	-1412
676.888	143
676.937	-1235
676.987	171
677.037	-1170
677.086	-566
677.136	-274
677.185	-700
677.235	-1517
677.284	-552
677.333	-834
677.383	-543
677.432	-795
677.482	-622
677.531	-828
677.580	-290
677.630	-1262
677.679	304
677.728	-921
677.778	56
677.827	98
677.876	-554
677.925	-858
677.975	512
678.024	-1095
678.073	-838
678.122	-901
678.171	-270
678.220	-685
678.269	915
678.319	-389
678.368	229
678.417	-678
678.466	55
678.515	-225
678.564	55
678.613	-967
678.662	-686
678.711	-576
678.760	317
678.809	-579
678.857	-579
678.906	94
678.955	-588
679.004	-480
679.053	-803
679.102	-631
679.151	-789
679.199	-249
679.248	638
679.297	-971
679.346	-179
679.394	-1643
679.443	313
679.492	-411
679.540	-1087
679.589	-672
679.638	96
679.686	-774
679.735	52
679.784	-1181
679.832	-89
679.881	-1575
679.929	308
679.978	-941
680.026	-484
680.075	45
680.123	-1036
680.172	-947
680.220	118
680.268	-326
680.317	-136
680.365	-904
680.414	-719
680.462	-1017
680.510	351
680.559	-210
680.607	-199
680.655	-1363
680.703	-42
680.752	-1561
680.800	-69
680.848	-1093
680.896	-844
680.945	-1577
680.993	-1066
681.041	-510
681.089	-84
681.137	-1099
681.185	-1364
681.233	-409
681.258	-612
681.281	-818
681.329	-823
681.377	-361
681.380	-370
681.425	-788
681.473	-397
681.502	-246
681.521	-170
681.569	107
681.617	-798
681.624	-732
681.665	-393
681.713	-481
681.745	67
681.761	302
681.809	-69
681.857	34
681.867	-245
681.904	-1246
681.952	-415
681.989	-437
682.000	-462
682.048	224
682.096	-499
682.111	-340
682.143	-47
682.191	-910
682.233	463
682.239	656
682.286	-462
682.334	319
682.354	-67
682.382	-608
682.430	752
682.476	-634
682.477	-677
682.525	-263
682.572	419
682.598	380
682.620	359
682.667	-680
682.715	1078
682.720	947
682.763	-433
682.810	42
682.841	412
682.857	599
682.905	10
682.952	518
682.963	558
683.000	625
683.047	370
683.085	982
683.095	1138
683.142	134
683.190	533
683.206	251
683.237	-280
683.284	781
683.328	102
683.332	33
683.379	1606
683.426	-3
683.449	147
683.473	284
683.521	227
683.568	839
683.571	774
683.615	-120
683.662	963
683.693	791
683.709	638
683.757	655
683.804	527
683.814	534
683.851	525
683.898	1021
683.936	750
683.945	689
683.992	567
684.039	1028
684.057	833
684.086	528
684.133	1817
684.179	405
684.180	347
684.227	986
684.274	1221
684.300	1401
684.321	1571
684.368	405
684.415	1280
684.422	1253
684.462	951
684.509	860
684.543	831
684.556	832
684.603	1187
684.649	645
684.665	835
684.696	1250
684.743	858
684.786	1046
684.790	1054
684.837	673
684.883	1390
684.908	1602
684.930	1745
684.977	1586
685.023	1679
685.029	1667
685.070	1538
685.117	916
685.150	1329
685.164	1486
685.210	1813
685.257	2160
685.272	1893
685.303	1321
685.350	1825
685.393	1487
685.396	1458
685.443	1531
685.490	1656
685.514	1820
685.536	1896
685.583	1934
685.629	1858
685.636	1816
685.675	1640
685.722	2117
685.757	1989
685.768	1923
685.815	2627
685.861	2105
685.878	2066
685.908	1976
685.954	1586
686.000	2021
686.000	2032
686.047	2070
686.093	3625
686.121	3618
686.139	3336
686.185	3165
686.232	2004
686.242	2084
686.278	2418
686.324	2318
686.363	2062
686.370	2026
686.416	1639
686.463	2748
686.484	2359
686.509	2033
686.555	1952
686.601	2099
686.606	2149
686.647	2473
686.693	1790
686.727	2044
686.739	2162
686.785	2386
686.831	2393
686.848	2454
686.877	2364
686.923	2153
686.969	1773
686.969	1772
687.015	2034
687.061	2256
687.090	2621
687.107	2711
687.153	1871
687.199	2652
687.211	2321
687.245	1690
687.291	2464
687.332	2989
687.336	3017
687.382	3194
687.428	2701
687.453	2785
687.474	2783
687.520	2282
687.565	2546
687.574	2422
687.611	2161
687.657	2660
687.695	2888
687.702	3022
687.748	3755
687.794	4469
687.816	4730
687.839	4337
687.885	3178
687.931	3208
687.937	3043
687.976	2522
688.022	3181
688.058	2763
688.067	2675
688.113	2651
688.158	1925
688.179	2326
688.204	2900
688.249	2751
688.295	3527
688.300	3498
688.340	3039
688.386	3145
688.421	2547
688.431	2461
688.477	2733
688.522	2671
688.542	3063
688.567	3474
688.613	3260
688.658	3215
688.663	3235
688.703	3432
688.749	2717
688.784	3107
688.794	3199
688.839	3236
688.884	3178
688.905	3037
688.930	2931
688.975	2972
689.020	3313
689.026	3255
689.065	3019
689.110	3313
689.146	3670
689.155	3698
689.201	3377
689.246	3205
689.267	3141
689.291	3155
689.336	2976
689.381	3287
689.388	3246
689.426	3153
689.471	3585
689.509	3472
689.516	3421
689.561	3527
689.606	2837
689.630	2872
689.651	2994
689.696	2936
689.741	3247
689.750	3151
689.785	2804
689.830	3383
689.871	3223
689.875	3206
689.920	3300
689.965	3196
689.992	2772
690.010	2537
690.054	2654
690.099	3309
690.112	3224
690.144	3103
690.189	2803
690.233	2836
690.233	2842
690.278	3476
690.323	2943
690.354	3319
690.367	3507
690.412	3599
690.457	3528
690.474	3671
690.501	3744
690.546	3629
690.590	3044
690.595	3041
690.635	3321
690.680	3049
690.716	3250
690.724	3313
690.769	3401
690.813	3779
690.836	3549
690.857	3399
690.902	4138
690.946	4079
690.957	4195
690.991	4643
691.035	4818
691.077	5014
691.080	5030
691.124	4683
691.168	5542
691.198	5384
691.213	5148
691.257	5158
691.301	4144
691.318	4248
691.346	4493
691.390	4051
691.434	3535
691.439	3522
691.478	3775
691.522	3823
691.559	3755
691.567	3765
691.611	4203
691.655	3769
691.680	4122
691.699	4359
691.743	3973
691.787	4482
691.800	4322
691.831	4006
691.875	4516
691.919	4163
691.921	4160
691.964	4471
692.008	4223
692.041	4613
692.052	4724
692.096	4739
692.139	4808
692.162	4619
692.183	4366
692.227	4353
692.271	3956
692.282	3932
692.315	4144
692.359	4072
692.402	4588
692.403	4602
692.447	4209
692.490	4393
692.523	4444
692.534	4500
692.578	4638
692.622	4334
692.643	4575
692.666	4673
692.709	4228
692.753	4018
692.763	3947
692.797	4035
692.840	4042
692.884	4247
692.884	4260
692.928	4289
692.971	4193
693.004	4263
693.015	4273
693.059	3886
693.102	4171
693.124	3927
693.146	3929
693.189	4310
693.233	4559
693.245	4685
693.276	4951
693.320	4797
693.363	4867
693.365	4858
693.407	4832
693.450	5007
693.485	4866
693.493	4907
693.537	5277
693.580	5116
693.605	5443
693.624	5587
693.667	5437
693.710	5600
693.725	5495
693.753	5899
693.797	6895
693.840	7618
693.845	7693
693.883	7386
693.926	6985
693.966	6899
693.970	6890
694.013	6146
694.056	5824
694.086	5325
694.099	5225
694.142	5165
694.185	4853
694.206	4834
694.229	5114
694.272	5276
694.315	5635
694.326	5747
694.358	5904
694.401	5807
694.444	5783
694.446	5761
694.487	5555
694.530	5462
694.566	5525
694.573	5496
694.616	4799
694.659	4169
694.686	3872
694.702	3899
694.745	4105
694.787	3790
694.806	3812
694.830	3980
694.873	4465
694.916	4423
694.926	4458
694.959	4501
695.002	4708
695.044	4537
695.046	4519
695.087	4645
695.130	4885
695.166	5161
695.172	5201
695.215	5052
695.258	5405
695.286	5259
695.301	5184
695.343	5078
695.386	5184
695.406	5155
695.428	5174
695.471	5172
695.514	5180
695.526	5105
695.556	5026
695.599	5472
695.641	5279
695.646	5282
695.684	5374
695.726	5199
695.766	5248
695.769	5264
695.811	5061
695.854	5010
695.886	4865
695.896	4911
695.938	5175
695.981	5295
696.005	5415
696.023	5394
696.065	5144
696.108	5284
696.125	5143
696.150	5218
696.192	5554
696.235	5719
696.245	5747
696.277	5636
696.319	5608
696.361	5572
696.365	5550
696.404	5598
696.446	5599
696.485	5506
696.488	5534
696.530	5697
696.572	5923
696.604	6077
696.614	6043
696.656	5747
696.698	5617
696.724	5408
696.740	5340
696.783	5296
696.825	5099
696.844	5008
696.867	5091
696.909	5180
696.951	5303
696.964	5326
696.992	5433
697.034	5649
697.076	5648
697.083	5670
697.118	5819
697.160	5745
697.202	5880
697.203	5860
697.244	5671
697.286	5622
697.323	5476
697.327	5472
697.369	5303
697.411	5142
697.442	4953
697.453	5005
697.494	5157
697.536	5349
697.562	5501
697.578	5698
697.620	6019
697.661	6361
697.682	6556
697.703	6724
697.744	6949
697.786	7338
697.801	7356
697.828	7338
697.869	7453
697.911	7435
697.921	7447
697.952	7029
697.994	6325
698.035	5683
698.040	5579
698.077	5361
698.118	5135
698.160	4930
698.160	4913
698.201	5215
698.243	5483
698.279	5763
698.284	5777
698.325	5671
698.367	5627
698.399	5531
698.408	5538
698.449	5537
698.491	5466
698.518	5440
698.532	5533
698.573	5748
698.614	5956
698.638	6054
698.656	6149
698.697	6353
698.738	6512
698.757	6584
698.779	6579
698.820	6510
698.862	6455
698.877	6410
698.903	6681
698.944	7086
698.985	7495
698.996	7586
699.026	7313
699.067	6904
699.116	6397
699.235	6804
699.354	6200
699.474	6038
699.593	7186
699.713	7700
699.832	6962
699.951	6709
700.070	6687
700.190	6788
700.309	7214
700.428	6984
700.547	6584
700.667	6237
700.786	7886
700.905	6249
701.024	6790
701.143	6163
701.262	6068
701.381	4974
701.500	5869
701.619	6250
701.738	6103
701.857	5200
701.976	4860
702.095	5152
702.214	6045
702.333	5689
702.452	5837
702.571	5520
702.690	5418
702.809	5447
702.928	5678
703.047	6050
703.165	5149
703.284	5726
703.403	5505
703.522	6230
703.640	5996
703.759	7032
703.878	11078
703.997	6051
704.115	5825
704.234	5551
704.353	5494
704.471	5774
704.590	5095
704.708	4542
704.827	4634
704.946	5384
705.064	6146
705.183	4626
705.301	5732
705.420	7957
705.538	7475
705.656	5419
705.775	6037
705.893	7945
706.012	9594
706.130	5748
706.249	6401
706.367	6308
706.485	6785
706.604	6398
706.722	7718
706.840	9486
706.958	12496
707.077	8386
707.195	5523
707.313	6175
707.431	5157
707.549	5238
707.668	5633
707.786	6737
707.904	5129
708.022	5164
708.140	5376
708.258	5526
708.376	5853
708.494	5467
708.612	6174
708.730	7682
708.848	7229
708.966	7129
709.084	7398
709.202	7254
709.320	6609
709.438	6080
709.556	6875
709.674	6487
709.791	6922
709.909	5372
710.027	6858
710.145	6052
710.263	6941
710.380	6439
710.498	6268
710.616	6394
710.733	6440
710.851	7046
710.969	6764
711.086	6178
711.204	5927
711.322	5856
711.439	6599
711.557	8016
711.674	5977
711.792	5988
711.909	5709
712.027	5721
712.144	5386
712.262	6583
712.379	6919
712.497	8882
712.614	8316
712.732	7327
712.849	6974
712.966	7690
713.084	9467
713.201	8212
713.318	7512
713.436	7227
713.553	7475
713.670	7357
713.787	8276
713.905	8905
714.022	7080
714.139	7768
714.256	9632
714.373	13996
714.490	24204
714.608	65815
714.725	292391
714.842	325177
714.959	23225
715.076	10527
715.193	8164
715.310	7423
715.427	6913
715.544	5449
715.661	7027
715.778	6235
715.895	7135
716.011	6715
716.128	6448
716.245	5906
716.362	7510
716.479	8117
716.596	6074
716.713	6787
716.829	6152
716.946	5255
717.063	5087
717.180	5028
717.296	5260
717.413	5476
717.530	5231
717.646	5539
717.763	4922
717.880	4577
717.996	5565
718.113	5130
718.229	5205
718.346	4641
718.462	5519
718.579	6401
718.695	11744
718.812	8974
718.928	9678
719.045	6294
719.161	5113
719.277	4516
719.394	5134
719.510	5046
719.626	5205
719.743	6727
719.859	9532
719.975	18240
720.092	79052
720.208	195470
720.324	22947
720.440	7177
720.557	6573
720.673	11161
720.789	14501
720.905	32955
721.021	10718
721.137	4343
721.253	4960
721.369	4450
721.486	6448
721.602	9317
721.718	4708
721.834	3989
721.950	5729
722.066	3942
722.181	4656
722.297	4826
722.413	4303
722.529	4030
722.645	4518
722.761	4521
722.877	3612
722.993	3912
723.108	4810
723.224	4389
723.340	3673
723.456	3773
723.571	4522
723.687	3385
723.803	3756
723.918	3345
724.034	3558
724.150	3790
724.265	4929
724.381	10530
724.497	15701
724.612	3507
724.728	2794
724.843	3210
724.959	4842
725.074	10573
725.190	13309
725.305	3769
725.421	3331
725.536	3471
725.651	2826
725.767	3338
725.882	2804
725.997	2856
726.113	3142
726.228	3341
726.343	2224
726.459	2668
726.574	3288
726.689	2721
726.804	3223
726.920	2769
727.035	3694
727.150	3303
727.265	2513
727.380	3024
727.495	3442
727.610	2590
727.725	3012
727.841	2302
727.956	3847
728.071	4385
728.186	3340
728.301	1390
728.416	3522
728.531	2759
728.645	2557
728.760	3246
728.875	3689
728.990	3215
729.105	2464
729.220	3150
729.335	3382
729.449	2976
729.564	1726
729.679	1775
729.794	2667
729.908	2919
730.023	3232
730.138	2212
730.253	2779
730.367	2139
730.482	2284
730.596	2760
730.711	3069
730.826	4388
730.940	3780
731.055	3388
731.169	2210
731.284	2447
731.398	2441
731.513	3593
731.627	4013
731.742	3522
731.856	4572
731.970	3365
732.085	4917
732.199	6470
732.313	10508
732.428	30024
732.542	97284
732.656	60352
732.771	9531
732.885	4216
732.999	4509
733.113	4566
733.227	4235
733.342	2857
733.456	2781
733.570	2478
733.684	3029
733.798	2458
733.912	3160
734.026	2878
734.140	3091
734.254	2814
734.368	6546
734.482	9119
734.596	2796
734.710	2297
734.824	2446
734.938	2302
735.052	2647
735.166	3567
735.280	3436
735.393	2367
735.507	2790
735.621	3234
735.735	7200
735.849	3987
735.962	3256
736.076	2530
736.190	2915
736.303	4060
736.417	6125
736.531	2680
736.644	2602
736.758	1095
736.872	2201
736.985	2491
737.099	2629
737.212	1544
737.326	2690
737.439	2065
737.553	2283
737.666	2506
737.780	2445
737.893	2615
738.007	2470
738.120	2395
738.233	2790
738.347	2464
738.460	1919
738.573	1851
738.687	1717
738.800	2719
738.913	3398
739.026	1848
739.140	1891
739.253	1521
739.366	2016
739.479	2256
739.592	889
739.705	1688
739.818	2182
739.932	1535
740.045	2910
740.158	2443
740.271	3307
740.384	1899
740.497	1795
740.610	1605
740.723	2590
740.836	2051
740.949	2405
741.062	3368
741.174	2958
741.287	1921
741.400	1914
741.513	2716
741.626	3369
741.739	1330
741.851	1767
741.964	2002
742.077	1489
742.189	2243
742.302	2827
742.415	2979
742.527	2403
742.640	1916
742.753	2103
742.865	1210
742.978	2533
743.090	2195
743.203	836
743.316	1407
743.428	1903
743.541	1353
743.653	1862
743.766	1717
743.878	1993
743.990	2763
744.103	3265
744.215	859
744.327	1488
744.440	2344
744.552	4356
744.664	1795
744.777	1094
744.889	697
745.001	1503
745.113	530
745.226	995
745.338	2066
745.450	530
745.562	1443
745.674	1641
745.786	993
745.898	1697
746.010	1246
746.122	1398
746.234	1403
746.347	1459
746.459	1584
746.570	741
746.682	1121
746.794	1550
746.906	1472
747.018	1458
747.130	1070
747.242	1065
747.354	1486
747.466	1807
747.577	1507
747.689	2105
747.801	1748
747.913	1313
748.024	623
748.136	322
748.248	428
748.359	1915
748.471	1292
748.583	1604
748.694	921
748.806	1716
748.918	2235
749.029	1199
749.141	2043
749.252	1783
749.364	1084
749.475	3846
749.587	2563
749.698	1578
749.809	1365
749.921	800
750.032	1017
750.144	624
750.255	1434
750.366	889
750.478	201
750.589	1715
750.700	1080
750.811	1361
750.923	2833
751.034	4355
751.145	5099
751.256	1091
751.367	456
751.479	577
751.590	490
751.701	1003
751.812	974
751.923	1254
752.034	1715
752.145	1527
752.256	1004
752.367	622
752.478	1614
752.589	1892
752.700	1295
752.811	-11
752.922	586
753.032	1322
753.143	906
753.254	859
753.365	1305
753.476	954
753.586	485
753.697	749
753.808	486
753.919	393
754.029	766
754.140	1270
754.251	398
754.361	653
754.472	609
754.582	1312
754.693	1129
754.804	970
754.914	1052
755.025	1709
755.135	574
755.246	934
755.356	203
755.466	704
755.577	222
755.687	1342
755.798	1354
755.908	1025
756.018	563
756.129	609
756.239	911
756.349	1523
756.460	946
756.570	1271
756.680	510
756.790	1466
756.900	990
757.011	743
757.121	1073
757.231	766
757.341	423
757.451	275
757.561	289
757.671	255
757.781	143
757.891	965
758.001	239
758.111	1158
758.221	1555
758.331	1528
758.441	1522
758.551	1756
758.661	1427
758.771	1459
758.880	1560
758.990	751
759.100	410
759.210	605
759.320	1128
759.429	1584
759.539	998
759.649	1293
759.758	2061
759.868	1933
759.978	738
760.087	1661
760.197	1939
760.307	1717
760.416	965
760.526	1272
760.635	1873
760.745	1782
760.854	1993
760.964	1830
761.073	1832
761.182	1464
761.292	847
761.401	1817
761.511	596
761.620	898
761.729	1018
761.839	693
761.948	1252
762.057	1288
762.166	1904
762.276	576
762.385	1470
762.494	1613
762.603	1433
762.712	1312
762.822	1065
762.931	1434
763.040	285
763.149	-578
763.258	448
763.367	572
763.476	1201
763.585	920
763.694	1368
763.803	756
763.912	1979
764.021	1438
764.130	788
764.238	1542
764.347	865
764.456	1327
764.565	1580
764.674	1307
764.783	737
764.891	578
765.000	1628
765.109	1867
765.217	1593
765.326	2428
765.435	2598
765.543	2732
765.652	1273
765.761	2658
765.869	4440
765.978	7381
766.086	13193
766.195	27410
766.303	78526
766.412	258823
766.520	214933
766.629	42852
766.737	13478
766.846	8208
766.954	4893
767.062	6029
767.171	3291
767.279	3383
767.387	1522
767.496	2511
767.604	1870
767.712	1339
767.820	1372
767.928	1442
768.037	950
768.145	1293
768.253	2321
768.361	873
768.469	1088
768.577	1855
768.685	2030
768.793	659
768.901	1060
769.009	1273
769.117	1702
769.225	1792
769.333	2236
769.441	5754
769.549	10374
769.657	25757
769.765	96906
769.873	220067
769.981	63646
770.088	10902
770.196	5544
770.304	4193
770.412	2770
770.519	2398
770.627	1600
770.735	1150
770.842	2090
770.950	1251
771.058	1474
771.165	974
771.273	1492
771.380	2048
771.488	1606
771.595	869
771.703	1124
771.810	1003
771.918	1113
772.025	1782
772.133	1383
772.240	1642
772.348	720
772.455	1195
772.562	2064
772.670	936
772.777	1069
772.884	1067
772.991	1230
773.099	1065
773.206	371
773.313	1290
773.420	1319
773.528	549
773.635	608
773.742	945
773.849	1477
773.956	1088
774.063	1239
774.170	1364
774.277	2033
774.384	1531
774.491	595
774.598	1742
774.705	477
774.812	1393
774.919	1235
775.026	1301
775.133	1879
775.239	1148
775.346	1125
775.453	889
775.560	1241
775.667	1195
775.773	67
775.880	1675
775.987	735
776.093	1483
776.200	819
776.307	93
776.413	1203
776.520	756
776.627	1402
776.733	1517
776.840	-474
776.946	2746
777.053	1133
777.159	2487
777.266	302
777.372	2591
777.478	1525
777.585	864
777.691	1367
777.798	1461
777.904	1302
778.010	2567
778.117	977
778.223	719
778.329	375
778.435	1683
778.542	481
778.648	471
778.754	253
778.860	78
778.966	36
779.072	853
779.178	355
779.284	1087
779.391	247
779.497	-154
779.603	1163
779.708	-579
779.815	1237
779.920	3431
780.026	4755
780.132	1107
780.238	269
780.344	917
780.450	1015
780.556	728
780.661	171
780.767	785
780.873	979
780.979	933
781.085	273
781.190	858
781.296	360
781.402	233
781.507	258
781.613	368
781.719	-397
781.824	-104
781.930	483
782.035	285
782.141	1456
782.246	367
782.352	-267
782.457	681
782.563	1161
782.668	443
782.773	183
782.879	242
782.984	1115
783.090	1329
783.195	1662
783.300	941
783.405	973
783.511	1172
783.616	992
783.721	727
783.826	161
783.932	1163
784.037	1245
784.142	1403
784.247	554
784.352	459
784.457	517
784.562	961
784.667	623
784.772	112
784.877	227
784.982	385
785.087	457
785.192	1422
785.297	887
785.402	263
785.507	485
785.611	1521
785.716	295
785.821	85
785.926	388
786.031	109
786.135	352
786.240	782
786.345	-643
786.450	885
786.554	130
786.659	383
786.763	-177
786.868	30
786.973	1081
787.077	-586
787.182	-241
787.286	613
787.391	436
787.495	344
787.600	65
787.704	-205
787.809	236
787.913	187
788.017	-219
788.122	919
788.226	102
788.330	33
788.435	648
788.539	619
788.643	-97
788.747	-274
788.852	-209
788.956	-507
789.060	515
789.164	325
789.268	-153
789.372	758
789.476	-314
789.580	29
789.684	-111
789.788	612
789.892	-1363
789.996	1398
790.100	373
790.204	359
790.308	13
790.412	-928
790.516	746
790.620	-263
790.724	52
790.828	590
790.931	-1187
791.035	1433
791.139	-257
791.242	165
791.346	176
791.450	-87
791.554	-1
791.657	-876
791.761	1778
791.864	871
791.968	164
792.072	235
792.175	221
792.279	-824
792.382	744
792.486	277
792.589	-42
792.693	650
792.796	-276
792.899	-265
793.003	-105
793.106	-831
793.209	-215
793.313	1374
793.416	-850
793.519	1849
793.623	1132
793.726	1743
793.829	241
793.932	-105
794.035	-896
794.138	549
794.242	583
794.345	-136
794.448	1005
794.551	1255
794.654	1894
794.757	2827
794.860	823
794.963	713
795.066	-76
795.169	828
795.272	-836
795.375	304
795.477	-653
795.580	930
795.683	-1460
795.786	575
795.889	-1109
795.991	970
796.094	617
796.197	-760
796.300	512
796.402	-55
796.505	-265
796.608	-501
796.710	499
796.813	463
796.915	-285
797.018	-37
797.120	249
797.223	-964
797.326	462
797.428	-1104
797.530	116
797.633	45
797.735	1596
797.838	1209
797.940	2093
798.042	-687
798.145	-232
798.247	1181
798.349	-937
798.452	-118
798.554	-553
798.656	-557
798.758	1380
798.860	34
798.962	-569
799.065	295
799.167	-1083
799.269	1241
799.371	403
799.473	1074
799.575	20
799.677	1092
799.779	2265
799.881	-418
799.983	643
800.085	106
800.187	349
800.289	-416
800.390	578
800.492	237
800.594	999
800.696	-315
800.798	-187
800.899	-631
801.001	-239
801.103	-300
801.205	-179
801.306	-340
801.408	-176
801.509	-359
801.611	63
801.713	614
801.814	-862
801.916	-554
802.017	-806
802.119	-683
802.220	-516
802.322	-1334
802.423	2314
802.525	-354
802.626	-133
802.727	-105
802.829	484
802.930	-1178
803.031	1541
803.133	-179
803.234	-1231
803.335	6
803.436	-1031
803.538	-114
803.639	-1181
803.740	199
803.841	110
803.942	171
804.043	-190
804.144	-788
804.245	-261
804.346	-618
804.447	173
804.548	359
804.649	1008
804.750	-43
804.851	-362
804.952	-604
805.053	273
805.154	-1022
805.255	447
805.355	530
805.456	-652
805.557	-684
805.658	-615
805.758	352
805.859	-596
805.960	-253
806.061	-977
806.161	-139
806.262	-72
806.362	-323
806.463	-477
806.564	481
806.664	-176
806.765	171
806.865	359
806.966	105
807.066	-344
807.166	-127
807.267	95
807.367	153
807.468	244
807.568	-852
807.668	409
807.769	520
807.869	-506
807.969	-71
808.069	225
808.170	-245
808.270	-302
808.370	-124
808.470	606
808.570	-595
808.670	-443
808.770	18
808.870	-1646
808.970	327
809.070	-1291
809.170	-358
809.271	-220
809.370	-177
809.470	85
809.570	-1302
809.670	-904
809.770	-228
809.870	595
809.970	-123
810.070	121
810.169	555
810.269	-1578
810.369	724
810.469	-418
810.568	80
810.668	-590
810.768	-560
810.867	-564
810.967	-641
811.066	-1314
811.166	-1239
811.265	-106
811.365	13
811.464	-608
811.564	-181
811.663	194
811.763	-1323
811.862	-90
811.962	266
812.061	-432
812.160	-862
812.260	-392
812.359	-429
812.458	-426
812.557	1432
812.657	1288
812.756	419
812.855	-387
812.954	-821
813.053	279
813.153	-1326
813.252	-1115
813.351	-538
813.450	-808
813.549	-744
813.648	298
813.747	-222
813.846	376
813.945	-642
814.044	-1024
814.143	153
814.242	-656
814.341	-489
814.439	-127
814.538	-126
814.637	-651
814.736	-239
814.835	810
814.933	-904
815.032	-446
815.131	-242
815.229	345
815.328	-404
815.427	119
815.525	970
815.624	453
815.722	26
815.821	713
815.919	-471
816.018	-885
816.116	879
816.215	381
816.313	4
816.412	941
816.510	750
816.609	1795
816.707	1727
816.805	745
816.904	1043
817.002	673
817.100	1566
817.198	2042
817.296	1271
817.395	1114
817.493	3099
817.591	2638
817.689	5650
817.787	6948
817.885	11878
817.983	22378
818.081	47397
818.179	112892
818.277	278071
818.375	252537
818.473	69466
818.571	25389
818.669	16498
818.767	14494
818.865	13349
818.963	16126
819.061	24315
819.158	43649
819.256	91880
819.354	205976
819.452	427059
819.549	303709
819.647	91470
819.745	36266
819.842	21431
819.940	14176
820.038	9763
820.135	7861
820.233	6980
820.330	3835
820.428	3214
820.525	4261
820.623	3005
820.720	2207
820.818	1790
820.915	2113
821.012	2109
821.110	745
821.207	1792
821.304	661
821.402	669
821.499	2028
821.596	1749
821.693	1018
821.791	1811
821.888	1134
821.985	3511
822.082	1383
822.179	1950
822.276	369
822.373	889
822.470	655
822.567	102
822.664	-180
822.761	1041
822.858	-556
822.955	1044
823.052	863
823.149	787
823.246	604
823.343	-480
823.440	353
823.536	-729
823.633	-877
823.730	131
823.827	-174
823.923	688
824.020	860
824.117	-786
824.213	-471
824.310	-273
824.407	-331
824.503	-187
824.600	-286
824.696	444
824.793	286
824.889	-619
824.986	1
825.082	-349
825.179	-257
825.275	-36
825.371	-265
825.468	-472
825.564	-849
825.660	-452
825.757	-500
825.853	449
825.949	-1256
826.045	364
826.142	-718
826.238	-589
826.334	-488
826.430	-892
826.526	22
826.622	-1083
826.718	-828
826.814	-350
826.910	-706
827.006	-1046
827.102	-626
827.198	-146
827.294	-879
827.390	-2
827.486	-347
827.582	-716
827.678	-1322
827.774	680
827.869	-985
827.965	545
828.061	-1099
828.157	-269
828.252	-370
828.348	-738
828.444	-211
828.539	-369
828.635	-1028
828.731	-114
828.826	-725
828.922	169
829.017	-890
829.113	137
829.208	-1167
829.304	-1301
829.399	406
829.495	-799
829.590	124
829.685	-1198
829.781	193
829.876	-840
829.971	-916
830.066	-650
830.162	-312
830.257	-735
830.352	-916
830.447	210
830.543	137
830.638	-1124
830.733	55
830.828	-978
830.923	659
831.018	-374
831.113	-417
831.208	-1611
831.303	-199
831.398	-834
831.493	-166
831.588	307
831.683	-1802
831.778	-379
831.873	423
831.967	223
832.062	-1227
832.157	-1782
832.252	271
832.346	-762
832.441	219
832.536	211
832.631	1651
832.725	1063
832.820	-292
832.914	-528
833.009	-1024
833.104	-26
833.198	-290
833.293	-703
833.387	-738
833.482	-362
833.576	-1240
833.670	555
833.765	-951
833.859	-394
833.954	281
834.048	-370
834.142	-571
834.237	-666
834.331	-365
834.425	-420
834.519	-1458
834.613	-365
834.708	-1492
834.802	-517
834.896	-1062
834.990	-282
835.084	-246
835.178	-1279
835.272	145
835.366	-1260
835.460	103
835.554	-819
835.648	-1084
835.742	-1026
835.836	-478
835.930	-1117
836.024	-39
836.117	148
836.211	-908
836.305	330
836.399	686
836.493	-1446
836.586	-199
836.680	-707
836.774	-817
836.867	532
836.961	-1822
837.055	-677
837.148	-688
837.242	184
837.335	-830
837.429	-865
837.522	-715
837.616	-675
837.709	1193
837.803	146
837.896	-438
837.989	-464
838.083	934
838.176	1321
838.269	632
838.363	-208
838.456	-331
838.549	-33
838.642	22
838.735	1544
838.829	-144
838.922	-1432
839.015	-720
839.108	-917
839.201	-543
839.294	141
839.387	-156
839.480	-1122
839.573	-366
839.666	-146
839.759	-903
839.852	-890
839.945	-408
840.038	-674
840.131	-91
840.223	-742
840.316	-401
840.409	-1665
840.502	-1363
840.594	188
840.687	-1185
840.780	-808
840.873	-1028
840.965	137
841.058	-19
841.150	1434
841.243	-414
841.336	18
841.428	-84
841.521	-1006
841.613	-1374
841.706	-607
841.798	-180
841.890	-813
841.983	-1679
842.075	-770
842.167	-1244
842.260	-1257
842.352	-136
842.444	225
842.537	1404
842.629	2550
842.721	-637
842.813	-142
842.905	-701
842.997	-241
843.090	-498
843.182	321
843.274	958
843.366	4732
843.458	9307
843.550	6289
843.642	307
843.734	-476
843.826	-555
843.918	570
844.009	181
844.101	-1105
844.193	-1640
844.285	-85
844.377	-457
844.469	-764
844.560	-900
844.652	-649
844.744	-91
844.835	-555
844.927	-1266
845.019	-151
845.110	-1377
845.202	-537
845.293	-392
845.385	-1287
845.476	-1643
845.568	470
845.659	-890
845.751	98
845.842	-1123
845.934	-1148
846.025	-1102
846.116	-589
846.208	-859
846.299	-835
846.390	-607
846.482	-385
846.573	-38
846.664	215
846.755	-482
846.846	458
846.937	-2054
847.029	-51
847.120	-1037
847.211	-536
847.302	538
847.393	-1739
847.484	-185
847.575	-787
847.666	-1366
847.757	-512
847.847	-1634
847.938	-879
848.029	-1155
848.120	-699
848.211	-1238
848.302	-998
848.392	-795
848.483	37
848.574	-1576
848.664	-717
848.755	-1174
848.846	-483
848.936	-1210
849.027	-682
849.118	-1162
849.208	-235
849.299	-82
849.389	1733
849.480	3776
849.570	8708
849.661	18784
849.751	33948
849.841	11776
849.932	386
850.022	-192
850.112	-214
850.203	-1020
850.293	-914
850.383	-1171
850.474	-1330
850.564	-623
850.654	37
850.744	-1142
850.834	-342
850.924	-990
851.014	-357
851.104	-1600
851.194	-204
851.284	-633
851.374	248
851.464	-872
851.554	-383
851.644	-438
851.734	-405
851.824	-67
851.914	-1633
852.004	-793
852.094	-1297
852.183	-715
852.273	-711
852.363	-182
852.452	-627
852.542	-648
852.632	-937
852.721	-595
852.811	-458
852.901	-590
852.990	-490
853.080	-265
853.169	-1267
853.259	-743
853.348	-457
853.438	285
853.527	1117
853.617	1869
853.706	6192
853.795	12309
853.885	30826
853.974	57383
854.063	108499
854.152	176411
854.242	67843
854.331	9816
854.420	2383
854.509	2012
854.598	1564
854.687	307
854.777	61
854.866	-562
854.955	382
855.044	-860
855.133	-776
855.222	-146
855.311	-1139
855.400	215
855.488	-559
855.577	-677
855.666	-664
855.755	-179
855.844	-772
855.933	-1278
856.021	-249
856.110	-336
856.199	-1553
856.288	-1622
856.376	-453
856.465	-1278
856.554	-939
856.642	-601
856.731	-422
856.819	-851
856.908	-952
856.996	-822
857.085	-1255
857.173	-1435
857.262	-1058
857.350	-374
857.438	-568
857.527	-1027
857.615	-760
857.703	-943
857.792	-1300
857.880	-1225
857.968	-1189
858.056	-1479
858.145	-1362
858.233	-668
858.321	-1140
858.409	-56
858.497	-1542
858.585	-1601
858.673	29
858.761	-1011
858.849	-1044
858.937	-681
859.025	-745
859.113	-640
859.201	-1233
859.289	-568
859.377	-1408
859.465	320
859.552	-247
859.640	-1106
859.728	-426
859.816	-1102
859.903	-649
859.991	-1322
860.079	-714
860.166	-1242
860.254	-898
860.342	-1143
860.429	-1307
860.517	-1062
860.604	-476
860.692	-1020
860.779	-1214
860.867	-427
860.954	-1039
861.042	-1169
861.129	-1151
861.216	-1134
861.304	-677
861.391	-1308
861.478	-854
861.565	-605
861.653	-223
861.740	-1096
861.827	-722
861.914	-429
862.001	-1605
862.089	-1092
862.176	-1263
862.263	-698
862.350	-1230
862.437	-1547
862.524	-1186
862.611	-1032
862.698	-997
862.785	-764
862.871	-310
862.958	-1028
863.045	-903
863.132	-1538
863.219	-641
863.306	-1454
863.392	-653
863.479	-531
863.566	-848
863.652	-1033
863.739	-1436
863.826	-243
863.912	-630
863.999	-1155
864.086	-427
864.172	-1062
864.259	-577
864.345	-1159
864.432	-1565
864.518	-1363
864.604	-1163
864.691	-1531
864.777	-463
864.863	-346
864.950	-568
865.036	-1483
865.122	-444
865.209	368
865.295	-98
865.381	775
865.467	235
865.553	1287
865.639	2612
865.726	5776
865.812	13408
865.898	30540
865.984	44793
866.070	84383
866.156	95505
866.242	23979
866.328	4272
866.414	511
866.499	689
866.585	1103
866.671	661
866.757	452
866.843	172
866.928	303
867.014	-615
867.100	-117
867.186	-548
867.271	-268
867.357	392
867.442	-60
867.528	-200
867.614	-108
867.699	-300
867.785	451
867.870	-340
867.956	-134
868.041	1442
868.127	-95
868.212	38
868.297	-91
868.383	-111
868.468	-460
868.553	1063
868.639	102
868.724	1770
868.809	2193
868.894	-452
868.979	-870
869.065	172
869.150	-1080
869.235	-560
869.320	-411
869.405	-719
869.490	-381
869.575	-565
869.660	-1304
869.745	-567
869.830	-1157
869.915	-436
870.000	-1156
870.085	-831
870.169	-1308
870.254	-369
870.339	-801
870.424	-941
870.509	-110
870.593	-985
870.678	-797
870.763	-723
870.847	-367
870.932	-1608
871.016	-861
871.101	-923
871.186	-750
871.270	-382
871.355	-1198
871.439	-759
871.523	-1242
871.608	-123
871.692	-699
871.777	-475
871.861	-396
871.945	-701
872.030	-911
872.114	-1230
872.198	-741
872.282	-464
872.367	-526
872.451	-1687
872.535	-739
872.619	-816
872.703	-1395
872.787	-630
872.871	-647
872.955	-917
873.039	-1951
873.123	-770
873.207	-778
873.291	-1152
873.375	-1377
873.459	-756
873.543	-1303
873.627	-588
873.711	-1454
873.794	-847
873.878	-1857
873.962	-1229
874.045	-971
874.129	-758
874.137	-765
874.213	-834
874.245	-845
874.296	-862
874.352	-1291
874.380	-1506
874.460	-1631
874.464	-1637
874.547	-686
874.568	-746
874.631	-930
874.676	-1133
874.714	-1313
874.784	-417
874.798	-233
874.881	-142
874.892	-267
874.965	-1135
874.999	-796
875.048	-345
875.107	-636
875.131	-736
875.215	-528
875.215	-528
875.298	-1358
875.323	-1163
875.381	-638
875.430	-229
875.465	31
875.538	-543
875.548	-615
875.631	-708
875.646	-763
875.714	-1109
875.753	-1032
875.798	-858
875.861	-625
875.881	-573
875.964	-311
875.968	-327
876.047	-641
876.076	-576
876.130	-440
876.183	-679
876.213	-761
876.291	-414
876.296	-402
876.379	-1061
876.398	-894
876.462	-295
876.506	-978
876.545	-1579
876.613	-1045
876.628	-932
876.711	122
876.721	42
876.794	-615
876.828	-785
876.877	-969
876.935	-415
876.960	-178
877.043	-587
877.043	-583
877.125	272
877.150	222
877.208	97
877.258	-88
877.291	-145
877.365	-141
877.374	-160
877.456	256
877.472	127
877.539	-217
877.579	-26
877.622	79
877.687	-155
877.704	-231
877.787	-443
877.794	-481
877.869	-850
877.901	-790
877.952	-686
878.008	-268
878.034	-22
878.115	-874
878.117	-892
878.199	-430
878.222	-463
878.282	-599
878.329	-468
878.364	-289
878.437	-388
878.447	-428
878.529	-752
878.544	-813
878.611	-921
878.651	-366
878.694	28
878.758	-481
878.776	-492
878.858	-228
878.865	-206
878.941	-389
878.972	-431
879.023	-486
879.078	-846
879.105	-854
879.185	-258
879.187	-250
879.269	-315
879.292	-491
879.351	-982
879.399	-1003
879.433	-1034
879.506	-783
879.516	-728
879.598	-321
879.613	-326
879.680	-538
879.720	-600
879.762	-446
879.827	-238
879.844	-281
879.926	-1202
879.933	-1124
880.007	-92
880.040	-84
880.089	-68
880.147	-422
880.171	-554
880.253	1400
880.254	1402
880.335	1668
880.360	1794
880.417	3042
880.467	5370
880.499	7063
880.574	9714
880.580	9537
880.662	3026
880.680	1965
880.744	65
880.787	-517
880.825	-746
880.893	-319
880.907	-183
880.989	-84
881.000	-126
881.070	-507
881.106	-480
881.152	-569
881.213	-661
881.233	-543
881.315	-130
881.319	-122
881.396	-221
881.426	-315
881.478	-766
881.532	-688
881.559	-369
881.639	-321
881.641	-329
881.722	-406
881.745	-562
881.803	-886
881.852	-536
881.885	-365
881.958	-705
881.966	-704
882.047	-298
882.064	-302
882.129	-257
882.171	-43
882.210	207
882.277	557
882.291	502
882.372	-45
882.383	-119
882.454	-277
882.489	-386
882.535	-437
882.596	-332
882.616	-339
882.697	-718
882.702	-729
882.778	-936
882.808	-968
882.859	-597
882.914	-70
882.940	-14
883.020	-700
883.021	-701
883.102	-343
883.127	-401
883.183	-659
883.233	-680
883.264	-580
883.339	-231
883.345	-191
883.426	-488
883.445	-414
883.507	-364
883.551	-410
883.587	-450
883.657	-310
883.668	-250
883.749	-0
883.763	15
883.830	-363
883.869	-652
883.910	-690
883.975	-303
883.991	-251
884.072	-485
884.081	-506
884.152	-241
884.187	-97
884.233	-183
884.292	-197
884.314	-190
884.394	-335
884.398	-346
884.475	-314
884.504	-310
884.555	-488
884.610	-764
884.636	-745
884.716	-484
884.716	-478
884.797	-344
884.821	-266
884.877	-386
884.927	-662
884.958	-655
885.033	-682
885.038	-682
885.118	-561
885.139	-573
885.199	-290
885.244	38
885.279	-33
885.350	-223
885.359	-185
885.439	-4
885.456	18
885.520	-356
885.561	-446
885.600	-337
885.667	-497
885.680	-534
885.760	-607
885.773	-589
885.840	-224
885.878	-148
885.920	-64
885.984	79
886.000	2
886.080	-404
886.089	-428
886.160	127
886.195	265
886.240	209
886.300	251
886.320	176
886.400	-326
886.406	-352
886.480	-599
886.511	-644
886.560	-330
886.616	-244
886.640	-195
886.720	194
886.722	194
886.800	-573
886.827	-712
886.879	-399
886.932	-301
886.959	-185
887.038	241
887.039	240
887.119	-307
887.143	-405
887.198	-129
887.248	-79
887.278	-129
887.354	-180
887.358	-166
887.437	131
887.459	184
887.517	349
887.564	429
887.596	190
887.669	-256
887.676	-232
887.755	-13
887.774	14
887.835	3
887.880	28
887.914	190
887.985	561
887.994	469
888.073	-538
888.090	-736
888.153	-304
888.195	-76
888.232	-118
888.300	-64
888.311	-69
888.391	-178
888.405	-218
888.470	-532
888.510	-691
888.549	-362
888.615	219
888.628	121
888.708	-581
888.720	-682
888.787	203
888.825	684
888.866	222
888.930	-523
888.945	-423
889.024	166
889.035	241
889.103	247
889.140	205
889.182	69
889.245	-67
889.261	-34
889.340	56
889.349	69
889.419	-42
889.454	-109
889.498	-147
889.559	-208
889.577	-78
889.656	500
889.664	556
889.735	718
889.768	794
889.814	535
889.873	189
889.978	-81
890.083	340
890.187	-156
890.292	451
890.397	-265
890.501	149
890.606	238
890.710	582
890.815	-416
890.919	60
891.024	-71
891.128	-137
891.233	-400
891.337	211
891.442	-166
891.546	-599
891.650	-378
891.755	-398
891.859	1736
891.963	554
892.068	637
892.172	1277
892.276	190
892.380	506
892.484	-228
892.589	548
892.693	494
892.797	-211
892.901	4
893.005	-677
893.109	370
893.213	568
893.317	192
893.421	403
893.525	-739
893.629	-198
893.733	298
893.837	-185
893.941	-502
894.045	696
894.148	-298
894.252	468
894.356	630
894.460	-27
894.564	-345
894.667	-139
894.771	-202
894.875	-134
894.978	-317
895.082	125
895.186	-163
895.289	273
895.393	84
895.496	248
895.600	-540
895.703	281
895.807	-304
895.910	470
896.014	-680
896.117	-40
896.221	-47
896.324	-56
896.427	-114
896.531	-34
896.634	-765
896.737	833
896.840	308
896.944	-341
897.047	142
897.150	-59
897.253	-375
897.356	243
897.460	380
897.563	294
897.666	240
897.769	-73
897.872	-516
897.975	37
898.078	-283
898.181	-504
898.284	-136
898.387	592
898.490	442
898.593	234
898.695	-685
898.798	-385
898.901	152
899.004	-175
899.107	-207
899.209	-32
899.312	390
899.415	-583
899.518	-75
899.620	-209
899.723	-22
899.826	-57
899.928	1018
900.031	79
900.133	63
900.236	-219
900.338	327
900.441	456
900.543	-360
900.646	297
900.748	-715
900.851	-156
900.953	114
901.055	-211
901.158	247
901.260	-196
901.362	-317
901.465	-1100
901.567	130
901.669	870
901.771	162
901.873	-183
901.976	-510
902.078	-118
902.180	-162
902.282	-255
902.384	-3
902.486	95
902.588	31
902.690	645
902.792	24
902.894	-256
902.996	-196
903.098	-582
903.200	-568
903.302	-114
903.404	-220
903.505	-198
903.607	897
903.709	919
903.811	-19
903.913	447
904.014	-489
904.116	-369
904.218	-53
904.319	442
904.421	622
904.523	-187
904.624	96
904.726	657
904.827	-345
904.929	-224
905.030	-196
905.132	307
905.233	-566
905.335	-326
905.436	-621
905.537	-154
905.639	-259
905.740	-456
905.841	134
905.943	63
906.044	-662
906.145	260
906.247	-61
906.348	674
906.449	-171
906.550	-221
906.651	50
906.752	-176
906.854	-505
906.955	-433
907.056	-915
907.157	-932
907.258	-406
907.359	-440
907.460	27
907.561	-330
907.662	-621
907.762	-120
907.863	252
907.964	-169
908.065	-243
908.166	-2
908.267	-567
908.367	-522
908.468	-221
908.569	-864
908.670	-446
908.770	512
908.871	447
908.971	95
909.072	-231
909.173	-777
909.273	-526
909.374	187
909.474	-70
909.575	61
909.675	24
909.776	120
909.876	-382
909.977	449
910.077	691
910.177	-462
910.278	-724
910.378	-480
910.478	-339
910.579	-751
910.679	-472
910.779	421
910.879	29
910.980	-453
911.080	-570
911.180	-9
911.280	-446
911.380	24
911.480	38
911.580	-502
911.680	-170
911.780	89
911.880	20
911.980	190
912.080	-76
912.180	-511
912.280	-762
912.380	-260
912.480	-452
912.580	-399
912.679	-542
912.779	-451
912.879	11
912.979	-378
913.078	-123
913.178	323
913.278	-264
913.377	-216
913.477	-344
913.577	-680
913.676	-18
913.776	-396
913.875	-395
913.975	-15
914.074	-803
914.174	-902
914.273	-534
914.373	617
914.472	71
914.572	-464
914.671	-202
914.770	-1043
914.870	-229
914.969	-873
915.068	-661
915.167	-226
915.267	-217
915.366	-880
915.465	-313
915.564	-617
915.663	-904
915.763	108
915.862	489
915.961	78
916.060	-244
916.159	-991
916.258	-620
916.357	-481
916.456	-372
916.555	-558
916.654	-1136
916.752	-142
916.851	48
916.950	-86
917.049	10
917.148	131
917.247	-373
917.345	-151
917.444	-307
917.543	-237
917.642	-14
917.740	-588
917.839	-875
917.937	-595
918.036	-925
918.135	-460
918.233	-3
918.332	-764
918.430	-621
918.529	-575
918.627	-272
918.726	266
918.824	-136
918.923	-566
919.021	-647
919.119	-322
919.218	-901
919.316	-357
919.414	-812
919.512	-201
919.611	-209
919.709	-64
919.807	-868
919.905	29
920.003	-983
920.102	-467
920.200	74
920.298	117
920.396	357
920.494	67
920.592	-476
920.690	-258
920.788	-83
920.886	-159
920.984	-966
921.082	-1306
921.180	278
921.277	206
921.375	34
921.473	-240
921.571	-1009
921.669	48
921.766	-379
921.864	122
921.962	-148
922.060	256
922.157	26
922.255	-59
922.352	82
922.450	-412
922.548	251
922.645	453
922.743	-450
922.840	1087
922.938	1171
923.035	585
923.133	861
923.230	-71
923.327	418
923.425	1228
923.522	957
923.619	1100
923.717	284
923.814	618
923.911	-110
924.008	1047
924.106	521
924.203	97
924.300	-515
924.397	831
924.494	315
924.591	652
924.688	35
924.786	-245
924.883	293
924.979	864
925.077	1041
925.173	745
925.270	311
925.367	534
925.464	1702
925.561	739
925.658	991
925.755	956
925.852	169
925.948	1109
926.045	383
926.142	-57
926.239	738
926.335	7
926.432	747
926.529	694
926.625	1081
926.722	423
926.818	-487
926.915	602
927.011	190
927.108	-17
927.204	277
927.301	238
927.397	390
927.494	153
927.590	-90
927.687	458
927.783	266
927.879	-276
927.976	-713
928.072	-358
928.168	670
928.264	930
928.361	-268
928.457	778
928.553	167
928.649	-166
928.745	-467
928.841	184
928.937	-44
929.033	555
929.129	-576
929.225	486
929.321	958
929.417	-110
929.513	240
929.609	-134
929.705	-755
929.801	-184
929.897	-402
929.993	-320
930.089	-22
930.184	-818
930.280	277
930.376	541
930.471	-349
930.567	-212
930.663	-156
930.758	-222
930.854	-242
930.950	185
931.045	117
931.141	-258
931.236	847
931.332	216
931.427	-838
931.523	-234
931.618	169
931.714	-594
931.809	-44
931.905	-526
932.000	-381
932.095	-603
932.191	175
932.286	444
932.381	-88
932.476	-11
932.572	-654
932.667	-377
932.762	-362
932.857	-145
932.952	1193
933.047	-91
933.142	-1026
933.237	-62
933.332	-275
933.427	399
933.522	-667
933.617	-579
933.712	144
933.807	562
933.902	345
933.997	11
934.092	-832
934.187	-317
934.282	-320
934.376	389
934.471	-244
934.566	-478
934.661	-887
934.755	-615
934.850	-148
934.945	-445
935.039	151
935.134	-57
935.228	-74
935.323	503
935.417	149
935.512	369
935.606	-352
935.701	524
935.795	-30
935.890	49
935.984	-657
936.079	-771
936.173	-159
936.267	-752
936.362	-498
936.456	255
936.550	-12
936.644	-978
936.738	-385
936.833	-531
936.927	-63
937.021	-20
937.115	-577
937.209	-469
937.303	370
937.397	-674
937.491	-567
937.585	-925
937.679	-218
937.773	-765
937.867	-388
937.961	63
938.055	-268
938.149	927
938.243	-1285
938.337	-495
938.430	-242
938.524	-362
938.618	-275
938.712	0
938.805	-499
938.899	-641
938.993	-408
939.086	-291
939.180	399
939.274	4
939.367	-859
939.461	185
939.554	-195
939.648	-831
939.741	-323
939.835	-574
939.928	260
940.022	-441
940.115	-1072
940.208	355
940.302	-243
940.395	231
940.488	-370
940.582	-165
940.675	-617
940.768	392
940.861	-600
940.954	34
941.048	-491
941.141	154
941.234	-209
941.327	368
941.420	551
941.513	230
941.606	70
941.699	-256
941.792	-147
941.885	-127
941.978	-652
942.071	-432
942.164	185
942.257	-583
942.349	-657
942.442	-83
942.535	-404
942.628	-430
942.721	-1015
942.813	-494
942.906	-118
942.999	-589
943.091	-510
943.184	-370
943.277	-536
943.369	167
943.462	-1164
943.554	-1083
943.647	-455
943.739	333
943.832	-464
943.924	-1415
944.017	67
944.109	-47
944.201	-861
944.294	105
944.386	-524
944.478	-520
944.571	-642
944.663	-185
944.755	-499
944.847	-310
944.940	-47
945.032	-772
945.124	-759
945.216	300
945.308	-332
945.400	-143
945.492	483
945.584	-425
945.676	-925
945.768	-75
945.860	-508
945.952	-936
946.044	-999
946.136	-751
946.228	-893
946.320	-198
946.412	-872
946.503	163
946.595	28
946.687	-353
946.779	-1158
946.870	-634
946.962	-873
947.054	187
947.145	-860
947.237	-1025
947.329	-617
947.420	-894
947.512	-696
947.603	-1295
947.695	-295
947.786	-2088
947.878	-1176
947.969	-649
948.061	-1423
948.152	-793
948.243	-678
948.335	-573
948.426	-946
948.517	-250
948.609	-81
948.700	-727
948.791	-1152
948.882	-962
948.973	-473
949.065	-521
949.156	-555
949.247	-940
949.338	-953
949.429	-838
949.520	-606
949.611	-1010
949.702	-426
949.793	-258
949.884	-914
949.975	-638
950.066	-1290
950.157	-1255
950.247	-564
950.338	-1428
950.429	-970
950.520	-254
950.611	-715
950.701	-239
950.792	-133
950.883	-407
950.973	-1421
951.064	-251
951.155	-1220
951.245	-207
951.336	-1015
951.427	-727
951.517	-951
951.608	-871
951.698	-1117
951.788	-648
951.879	-549
951.969	-1226
952.060	-1129
952.150	-851
952.240	-951
952.331	-1986
952.421	212
952.511	-1222
952.602	-834
952.692	-719
952.782	-742
952.872	-218
952.962	-621
953.052	-1782
953.143	-1044
953.233	-342
953.323	-559
953.413	-633
953.503	-423
953.593	-340
953.683	-389
953.773	-1029
953.863	-611
953.953	-825
954.042	-54
954.132	-1240
954.222	-600
954.312	127
954.402	-1036
954.492	-1061
954.581	155
954.671	-147
954.761	-1633
954.850	-386
954.940	-1311
955.030	-608
955.119	-1841
955.209	-801
955.298	-1502
955.388	-3
955.477	-252
955.567	-899
955.656	-237
955.746	-360
955.835	-1378
955.925	-4
956.014	300
956.103	-581
956.193	-548
956.282	-359
956.371	-1109
956.461	-853
956.550	-817
956.639	-575
956.728	-1471
956.817	-1111
956.906	-507
956.995	-659
957.085	-1310
957.174	-330
957.263	-1151
957.352	-658
957.441	-1502
957.530	-1539
957.619	-1171
957.708	-484
957.796	-1496
957.885	-735
957.974	-1145
958.063	-821
958.152	-1513
958.241	-977
958.329	-1163
958.418	-1969
958.507	-1783
958.596	-504
958.684	-1625
958.773	-576
958.861	-785
958.950	-556
959.039	-1324
959.127	-1265
959.216	-503
959.304	-480
959.393	-455
959.481	-756
959.570	-1062
959.658	-976
959.746	-696
959.835	-412
959.923	-388
960.011	-385
960.100	-427
960.188	-228
960.276	-1171
960.365	-1672
960.453	-1447
960.541	-1493
960.629	-509
960.717	-387
960.805	-1602
960.893	-443
960.981	-1493
961.069	-778
961.158	-748
961.245	-70
961.333	-933
961.421	-1105
961.509	-1145
961.597	-1037
961.685	-919
961.773	-1198
961.861	-1215
961.949	-713
962.036	-1780
962.124	-1132
962.212	-1873
962.299	-1507
962.387	-1314
962.475	-540
962.562	-1332
962.650	-928
962.738	-976
962.825	-1868
962.913	-1095
963.000	-1382
963.088	-514
963.175	-665
963.263	-902
963.350	-527
963.438	-534
963.525	-752
963.612	-463
963.700	719
963.787	6289
963.874	2594
963.962	-609
964.049	-1211
964.136	-963
964.223	-981
964.310	-795
964.398	-853
964.485	-876
964.572	-532
964.659	-565
964.746	-522
964.833	-666
964.920	-1200
965.007	-879
965.094	-766
965.181	-865
965.268	-363
965.355	-514
965.441	-734
965.528	-1733
965.615	-745
965.702	-1416
965.789	-1415
965.875	-1035
965.962	-796
966.049	-1760
966.136	-806
966.222	-1243
966.309	-850
966.395	-1528
966.482	-745
966.569	-541
966.655	-904
966.742	-1075
966.828	-455
966.915	-1372
967.001	-764
967.087	-1044
967.174	-2108
967.260	-47
967.347	-457
967.433	-29
967.519	4113
967.605	915
967.692	-986
967.778	-1191
967.864	-996
967.950	-1518
968.036	-1927
968.123	-638
968.209	-1234
968.295	-1463
968.381	650
968.467	-924
968.553	-1524
968.639	91
968.725	-1494
968.811	87
968.897	-127
968.983	-1426
969.069	-1748
969.154	-832
969.240	-7
969.326	-1596
969.412	-1416
969.497	-1481
969.583	-1389
969.669	-491
969.755	-699
969.840	-1281
969.926	-1124
970.012	-945
970.097	900
970.183	313
970.268	-846
970.354	-281
970.439	-665
970.525	2812
970.610	-336
970.696	172
970.781	-340
970.866	-1377
970.952	-1
971.037	-1334
971.122	-591
971.208	-687
971.293	-766
971.378	-1853
971.463	-1285
971.549	-970
971.634	-648
971.719	-729
971.804	247
971.889	69
971.974	-413
972.059	-574
972.144	-1417
972.229	-1536
972.314	-1250
972.399	-685
972.484	-499
972.569	-804
972.654	-1552
972.739	954
972.824	493
972.908	-297
972.993	-814
973.078	-775
973.163	-598
973.247	-615
973.332	-2098
973.417	293
973.501	-1853
973.586	-1121
973.671	-999
973.755	-494
973.840	52
973.924	-670
974.009	-1634
974.093	-630
974.178	-134
974.262	-301
974.346	-109
974.431	-319
974.515	-731
974.600	-800
974.684	-1011
974.768	-1546
974.852	192
974.937	-1023
975.021	-437
975.105	-1246
975.189	-861
975.273	-310
975.358	-490
975.442	-1690
975.526	-524
975.610	-1388
975.694	-1503
975.778	62
975.862	-686
975.946	-2435
976.030	134
976.114	-2178
976.198	-229
976.281	-472
976.365	-456
976.449	-1488
976.533	-1020
976.617	-2060
976.700	-710
976.784	-799
976.868	-897
976.951	-627
977.035	-390
977.119	-1156
977.202	-1096
977.286	-586
977.369	-956
977.453	-507
977.536	-791
977.620	-1645
977.703	-648
977.787	-1285
977.870	-448
977.953	-287
978.037	-1654
978.120	165
978.203	-960
978.287	740
978.370	-760
978.453	-949
978.536	-662
978.620	-396
978.703	-941
978.786	-226
978.869	-1333
978.952	-1704
979.035	589
979.118	-327
979.201	-1574
979.284	-602
979.367	-1257
979.450	20
979.533	-981
979.616	-1105
979.699	-699
979.782	-876
979.865	-593
979.948	-1028
980.030	-821
980.113	-1647
980.196	-809
980.279	-56
980.361	-1178
980.444	-1615
980.526	-272
980.609	-305
980.692	-107
980.774	-974
980.857	-1899
980.939	67
981.022	-1720
981.104	-1610
981.187	-1282
981.269	-531
981.352	-1385
981.434	-1809
981.516	-1881
981.599	-446
981.681	-816
981.763	-1048
981.846	-395
981.928	-1425
982.010	-917
982.092	-1236
982.174	-741
982.256	-983
982.339	-1220
982.421	-1622
982.503	-1246
982.585	-2253
982.667	-752
982.749	-769
982.831	-454
982.913	-2740
982.995	-473
983.077	-1260
983.158	257
983.240	-1644
983.322	-424
983.404	-144
983.486	-1297
983.568	-18
983.649	-1339
983.731	-1000
983.813	-885
983.894	-1006
983.976	-1068
984.058	-1359
984.139	-56
984.221	-2232
984.302	-89
984.384	-1450
984.465	-1688
984.547	-918
984.628	-1181
984.710	-797
984.791	-1430
984.872	-731
984.954	-1149
985.035	-1084
985.116	-744
985.198	-1334
985.279	-605
985.360	-1053
985.441	-1681
985.522	-272
985.604	-1533
985.685	-2842
985.766	-108
985.847	-473
985.928	-804
986.009	-1243
986.090	-1550
986.171	-359
986.252	-1470
986.333	-742
986.414	-1161
986.495	-1012
986.576	-938
986.656	-1719
986.737	-960
986.818	-1063
986.899	-1275
986.980	-1390
987.060	-1013
987.141	-1490
987.222	-795
987.302	-930
987.383	-1390
987.464	-704
987.544	-1128
987.625	-1629
987.705	-694
987.786	-480
987.866	-1249
987.947	-914
988.027	-1373
988.108	-1507
988.188	-740
988.268	-1341
988.349	-1824
988.429	-1157
988.509	-986
988.589	-850
988.670	-2390
988.750	333
988.830	-1438
988.910	-1330
988.990	-1517
989.070	-908
989.151	-1250
989.231	-1058
989.311	-1034
989.391	-960
989.471	-1520
989.551	-867
989.631	-2056
989.711	-445
989.791	-1177
989.870	-2269
989.950	-114
990.030	-2157
990.110	-1007
990.190	-1378
990.269	-1189
990.349	-1179
990.429	-2291
990.509	-852
990.588	-1376
990.668	-949
990.747	-984
990.827	-1119
990.907	-746
990.986	-1092
991.066	-1608
991.145	-2311
991.225	-582
991.304	-1576
991.383	-986
991.463	-844
991.542	-1662
991.622	-1418
991.701	-1443
991.780	-1985
991.859	-440
991.939	-1585
992.018	-750
992.097	-1151
992.176	-1023
992.256	-978
992.335	-1659
992.414	-925
992.493	-1328
992.572	-1528
992.651	-1705
992.730	-1307
992.809	-885
992.888	-1700
992.967	-1818
993.046	-1239
993.125	-2567
993.203	-1365
993.282	-632
993.361	-1643
993.440	-1345
993.519	-1866
993.597	-1350
993.676	-1469
993.755	-341
993.834	-1118
993.912	-1404
993.991	-1091
994.069	-1968
994.148	-747
994.226	-1364
994.305	-884
994.384	-2026
994.462	-682
994.540	-1817
994.619	-1612
994.697	-413
994.776	-1815
994.854	-605
994.932	-2288
995.011	-725
995.089	-1937
995.167	-1466
995.245	-1603
995.324	-2253
995.402	-1701
995.480	-1783
995.558	-1239
995.636	-2759
995.714	-1179
995.792	-978
995.870	-1962
995.948	-289
996.026	-1147
996.104	-1927
996.182	-203
996.260	-1341
996.338	-1405
996.416	-1029
996.494	-1429
996.572	-769
996.649	-2416
996.727	-2450
996.805	-1149
996.883	-1682
996.960	-1975
997.038	-728
997.116	-928
997.193	-2240
997.271	-1479
997.348	-2262
997.426	-1409
997.504	-2073
997.581	-978
997.658	-2258
997.736	-2402
997.813	-1313
997.891	-541
997.968	-1764
998.046	-1217
998.123	-1128
998.200	-1141
998.277	-2316
998.355	-1060
998.432	-2157
998.509	-1621
998.586	-886
998.663	-1800
998.741	-1811
998.818	-1977
998.895	-1555
998.972	-1168
999.049	-2074
999.126	-2004
999.203	-1042
999.280	-1531
999.357	-1267
999.434	-2158
999.511	-1483
999.587	-1174
999.664	-1750
999.741	-1347
999.818	-493
999.895	-2140
999.971	-1573
1000.048	-1281
1000.125	-2088
1000.202	-1832
1000.278	-1570
1000.355	-1630
1000.431	-2022
1000.508	-2278
1000.584	-1417
1000.661	-982
1000.738	-2355
1000.814	-1536
1000.890	-700
1000.967	-2118
1001.043	-1363
1001.120	-2893
1001.196	-784
1001.272	-2106
1001.349	-1616
1001.425	-507
1001.501	-999
1001.577	-2647
1001.654	-1570
1001.730	-1879
1001.806	-1666
1001.882	-2704
1001.958	-861
1002.034	-1719
1002.110	-1428
1002.186	-2329
1002.262	-1885
1002.338	-2105
1002.414	-1509
1002.490	-1796
1002.566	-2216
1002.642	-2246
1002.718	-1657
1002.794	-1008
1002.870	-1404
1002.945	-1538
1003.021	-469
1003.097	-1390
1003.173	-1011
1003.248	-2212
1003.324	-1051
1003.400	-2091
1003.475	-2185
1003.551	-2553
1003.626	-1572
1003.702	-2302
1003.777	-1022
1003.853	-1927
1003.928	-1882
1004.004	-1982
1004.079	-1496
1004.155	-1790
1004.230	-1817
1004.305	-1120
1004.381	-2101
1004.456	-1569
1004.531	-1822
1004.607	-2254
1004.682	-2167
1004.757	-1967
1004.832	-1223
1004.907	-2844
1004.982	-2077
1005.057	-2085
1005.133	-1501
1005.208	-2001
1005.283	-2083
1005.358	-1802
1005.433	-1227
1005.508	-1440
1005.583	-2322
1005.657	-2119
1005.732	-551
1005.807	-2559
1005.882	-2093
1005.957	-1299
1006.032	-867
1006.106	-1215
1006.181	-1860
1006.256	-1726
1006.331	-2044
1006.405	-2548
1006.480	-1627
1006.554	-1620
1006.629	-1446
1006.704	-2403
1006.778	-1737
1006.853	-1085
1006.927	-2188
1007.002	-2660
1007.076	-1718
1007.150	-1946
1007.225	-2288
1007.299	-1651
1007.373	-1595
1007.448	-1760
1007.522	-914
1007.596	-1799
1007.671	-2604
1007.745	-1019
1007.819	-2255
1007.893	-2360
1007.967	-1367
1008.041	-2355
1008.115	-693
1008.190	-2175
1008.264	-1794
1008.338	-2269
1008.412	-1787
1008.486	-1358
1008.560	-1237
1008.633	-2446
1008.707	-2053
1008.781	-699
1008.855	-2156
1008.929	-1932
1009.003	-2349
1009.076	-2003
1009.150	-1999
1009.224	-1669
1009.298	-908
1009.371	-2330
1009.445	-830
1009.519	-1407
1009.592	-2176
1009.666	-1549
1009.739	-1869
1009.813	-3055
1009.886	-835
1009.960	-2593
1010.033	-1158
1010.107	-1233
1010.180	-2192
1010.253	-1694
1010.327	-2661
1010.400	-1711
1010.473	-2256
1010.547	-1614
1010.620	-1296
1010.693	-1282
1010.766	-2493
1010.840	-979
1010.913	-1775
1010.986	-2544
1011.059	-1385
1011.132	-2464
1011.205	-1524
1011.278	-2112
1011.351	-2076
1011.424	-1458
1011.497	-1112
1011.570	-2585
1011.643	-1175
1011.716	-2351
1011.789	-1377
1011.862	-1005
1011.934	-1090
1012.007	-2486
1012.080	-1754
1012.153	-2226
1012.225	-697
1012.298	-2575
1012.371	-1381
1012.443	-1478
1012.516	-1817
1012.588	-1878
1012.661	-1240
1012.733	-1960
1012.806	-1464
1012.879	-2214
1012.951	-1122
1013.023	-2207
1013.096	-1840
1013.168	-2446
1013.241	-525
1013.313	-1846
1013.385	-2586
1013.458	-1169
1013.530	-435
1013.602	-1828
1013.674	-1219
1013.746	-2251
1013.819	-1927
1013.891	-1892
1013.963	-2145
1014.035	-2264
1014.107	-1650
1014.179	-1716
1014.251	-2428
1014.323	-1666
1014.395	-1106
1014.467	-1037
1014.539	-994
1014.611	-1254
1014.683	-1460
1014.754	-1729
1014.826	-1930
1014.898	-1237
1014.970	-2594
1015.042	-1369
1015.113	-1251
1015.185	-1199
1015.257	-2238
1015.328	-2015
1015.400	-2281
1015.471	-2506
1015.543	-2790
1015.615	-1722
1015.686	-1718
1015.757	-1916
1015.829	-1896
1015.901	-2421
1015.972	-1572
1016.043	-2248
1016.115	-1084
1016.186	-2015
1016.257	-2483
1016.328	-2276
1016.400	-678
1016.471	-1680
1016.542	-2101
1016.613	-1282
1016.685	-2028
1016.756	-1756
1016.827	-2209
1016.898	-2435
1016.969	-1168
1017.040	-1481
1017.111	-2247
1017.182	-1846
1017.253	-1966
1017.324	-2059
1017.395	-1472
1017.466	-1828
1017.537	-1690
1017.608	-1575
1017.678	-1719
1017.749	-2708
1017.820	-2049
1017.891	-2421
1017.961	-2175
1018.032	-2018
1018.103	-1911
1018.173	-2035
1018.244	-2054
1018.315	-2232
1018.385	-1623
1018.456	-1952
1018.526	-2126
1018.597	-2613
1018.667	-1262
1018.738	-1959
1018.808	-2683
1018.878	-2123
1018.949	-1840
1019.019	-1309
1019.089	-1701
1019.160	-1368
1019.230	-2839
1019.300	-1963
1019.371	-2356
1019.441	-1737
1019.511	-1973
1019.581	-1904
1019.651	-1262
1019.721	-2037
1019.791	-2366
1019.861	-1756
1019.931	-1302
1020.001	-1937
1020.071	-1744
1020.141	-1883
1020.211	-1562
1020.281	-2338
1020.351	-2358
1020.421	-2162
1020.491	-1313
1020.560	-2421
1020.630	-1792
1020.700	-2157
1020.770	-1786
1020.839	-2187
1020.909	-1612
1020.979	-1923
1021.048	-2518
1021.118	-1793
1021.187	-1075
1021.257	-1537
1021.326	-1776
1021.396	-2443
1021.465	-2369
1021.535	-2408
1021.604	-1764
1021.674	-2580
1021.743	-1203
1021.812	-2563
1021.882	-2061
1021.951	-1939
1022.020	-1785
1022.089	-1812
1022.159	-2082
1022.228	-2715
1022.297	-2087
1022.366	-2274
1022.435	-2085
1022.504	-2236
1022.573	-2287
1022.642	-2474
1022.711	-2184
1022.781	-2172
1022.849	-2145
1022.918	-2333
1022.987	-2334
1023.056	-2149
1023.125	-2087
1023.194	-1754
1023.263	-1543
1023.331	-1936
1023.400	-2097
1023.469	-2193
1023.538	-1252
1023.606	-2032
1023.675	-2321
1023.744	-2877
1023.812	-2461
1023.881	-2631
1023.949	-2570
1024.018	-2084
1024.086	-2521
1024.155	-2270
1024.223	-2478
1024.292	-2290
1024.360	-2337
1024.429	-1292
1024.497	-2640
1024.565	-2199
1024.634	-1932
1024.702	-3253
1024.770	-1884
1024.838	-1994
1024.907	-1887
1024.975	-1959
1025.043	-2140
1025.111	-2486
1025.179	-1856
1025.247	-636
1025.315	-1971
1025.383	-2147
1025.451	-2037
1025.519	-2186
1025.587	-2212
1025.655	-1995
1025.723	-2358
1025.791	-2572
1025.859	-1681
1025.927	-1473
1025.995	-2556
1026.062	-1293
1026.130	-1934
1026.198	-2032
1026.266	-2947
1026.333	-1405
1026.401	-1610
1026.469	-2372
1026.536	-1790
1026.604	-1732
1026.671	-1391
1026.739	-2195
1026.806	-1955
1026.874	-2412
1026.941	-2801
1027.009	-2300
1027.076	-2559
1027.144	-1421
1027.211	-2480
1027.278	-2085
1027.345	-2500
1027.413	-3018
1027.480	-2300
1027.547	-2443
1027.614	-1447
1027.682	-2595
1027.749	-1954
1027.816	-1904
1027.883	-2022
1027.950	-2104
1028.017	-3207
1028.084	-2095
1028.151	-2053
1028.218	-1984
1028.285	-2457
1028.352	-2660
1028.419	-2646
1028.486	-1928
1028.553	-2205
1028.619	-2659
1028.686	-1778
1028.753	-2559
1028.820	-1927
1028.886	-1897
1028.953	-705
1029.020	-2310
1029.086	-2035
1029.153	-2126
1029.220	-2285
1029.286	-2878
1029.353	-2197
1029.419	-2327
1029.486	-1967
1029.552	-2068
1029.619	-2171
1029.685	-1868
1029.751	-2632
1029.818	-1514
1029.884	-2502
1029.951	-2320
1030.017	-1941
1030.083	-2042
1030.149	-1910
1030.216	-2653
1030.282	-1742
1030.348	-2598
1030.414	-1482
1030.480	-2116
1030.546	-1950
1030.612	-2516
1030.678	-2597
1030.744	-1990
1030.810	-2449
1030.876	-2397
1030.942	-2525
1031.008	-2502
1031.074	-1990
1031.140	-2436
1031.206	-1294
1031.272	-2256
1031.337	-1556
1031.403	-977
1031.469	-2365
1031.534	-2129
1031.600	-1648
1031.666	-2123
1031.731	-1654
1031.797	-1861
1031.863	-2399
1031.928	-1599
1031.994	-2696
1032.059	-2117
1032.125	-1467
1032.190	-2051
1032.256	-2603
1032.321	-2077
1032.386	-1787
1032.452	-2752
1032.517	-2107
1032.582	-2156
1032.647	-1872
1032.713	-2413
1032.778	-1834
1032.843	-2360
1032.908	-1941
1032.974	-2198
1033.039	-2565
1033.104	-2219
1033.169	-2281
1033.234	-2078
1033.299	-2090
1033.364	-2170
1033.429	-2029
1033.494	-2281
1033.559	-1604
1033.624	-2010
1033.688	-2448
1033.753	-2031
1033.818	-2190
1033.883	-2954
1033.948	-1896
1034.013	-1660
1034.077	-1006
1034.142	-1239
1034.207	-1996
1034.271	-1133
1034.336	-780
1034.400	-1385
1034.465	-1225
1034.530	-1753
1034.594	-1923
1034.658	-2750
1034.723	-2363
1034.787	-2304
1034.852	-2067
1034.916	-1556
1034.981	-2504
1035.045	-1832
1035.109	-2427
1035.173	-1510
1035.238	-2316
1035.302	-2113
1035.366	-1819
1035.430	-3061
1035.495	-2698
1035.559	-2626
1035.623	-2244
1035.687	-2130
1035.751	-2235
1035.815	-2874
1035.879	-2490
1035.943	-2064
1036.007	-1750
1036.071	-1978
1036.135	-2386
1036.198	-2142
1036.262	-2407
1036.326	-2122
1036.390	-1654
1036.454	-2342
1036.517	-2169
1036.581	-721
1036.645	-414
1036.709	-1731
1036.772	-1831
1036.836	-1792
1036.900	-2513
1036.963	-1972
1037.026	-2589
1037.090	-2389
1037.154	-2837
1037.217	-2551
1037.280	-1952
1037.344	-2120
1037.407	-1894
1037.471	-2329
1037.534	-2738
1037.597	-1453
1037.661	-1857
1037.724	-2407
1037.787	-2640
1037.850	-2604
1037.913	-2635
1037.977	-1508
1038.040	-1960
1038.103	-3045
1038.166	-2330
1038.229	-1987
1038.292	-2654
1038.355	-2286
1038.418	-2265
1038.481	-1977
1038.544	-2361
1038.607	-1795
1038.670	-2027
1038.732	-2218
1038.795	-3293
1038.858	-2640
1038.921	-1910
1038.984	-1616
1039.046	-2758
1039.109	-2584
1039.172	-1759
1039.234	-2234
1039.297	-2378
1039.360	-2163
1039.422	-1986
1039.485	-1689
1039.547	-2788
1039.610	-2872
1039.672	-3173
1039.734	-2451
1039.797	-2322
1039.859	-2068
1039.922	-1505
1039.984	-2245
1040.046	-2372
1040.109	-2754
1040.171	-2616
1040.233	-1250
1040.295	-2204
1040.358	-2202
1040.420	-2654
1040.482	-2537
1040.544	-2747
1040.606	-2587
1040.668	-1874
1040.730	-2755
1040.792	-2580
1040.854	-2140
1040.916	-2385
1040.978	-2353
1041.040	-1352
1041.102	-2422
1041.164	-2474
1041.225	-2674
1041.287	-2062
1041.349	-2790
1041.411	-2344
1041.472	-2562
1041.534	-2413
1041.596	-3053
1041.657	-2244
1041.719	-2601
1041.781	-2296
1041.842	-2742
1041.904	-2695
1041.965	-3046
1042.027	-2967
1042.088	-2283
1042.150	-1945
1042.211	-2777
1042.272	-1704
1042.334	-2012
1042.395	-2146
1042.456	-2106
1042.518	-2971
1042.579	-2107
1042.640	-3230
1042.701	-2417
1042.763	-2136
1042.824	-3633
1042.885	-2419
1042.946	-2926
1043.007	-2280
1043.068	-2017
1043.129	-1439
1043.190	-3291
1043.251	-1544
1043.312	-2349
1043.373	-2713
1043.434	-1997
1043.495	-1613
1043.556	-2287
1043.616	-1223
1043.677	-2958
1043.738	-2381
1043.799	-2601
1043.859	-2233
1043.920	-2728
1043.981	-2008
1044.041	-2259
1044.102	-1829
1044.162	-2238
1044.223	-1878
1044.284	-2101
1044.344	-1735
1044.405	-2657
1044.465	-2231
1044.525	-3436
1044.586	-1695
1044.646	-2099
1044.707	-1360
1044.767	-2330
1044.827	-2608
1044.887	-2903
1044.948	-1550
1045.008	-2790
1045.068	-2648
1045.128	-2619
1045.188	-2279
1045.249	-2464
1045.309	-2033
1045.369	-3001
1045.429	-2159
1045.489	-2419
1045.549	-2205
1045.609	-2057
1045.669	-2943
1045.729	-2682
1045.789	-2306
1045.848	-2120
1045.908	-2118
1045.968	-2329
1046.028	-2090
1046.088	-2048
1046.147	-1675
1046.207	-1434
1046.267	-2012
1046.326	-1645
1046.386	-2149
1046.446	-1360
1046.505	-1825
1046.565	-1553
1046.624	-1374
1046.684	-1753
1046.743	-1923
1046.803	-1171
1046.862	-294
1046.922	0
