'Start Wavelength	183.907
'End Wavelength	1046.922
'Gate Delay	5.000
'Gate Width (ms)	1.050
'Laser Output Level	0.000
'X Position	0.000
'Y Position	0.000
'Z Position	0.000
'Grid Point Number	1.000
'Shot Number	100.000
183.907	725.000
183.977	205.000
184.047	494
184.116	414
184.186	447
184.256	-700
184.325	-9
184.395	-523
184.465	-113
184.534	603
184.604	41
184.674	61
184.743	-553
184.813	217
184.883	36
184.952	803
185.022	308
185.092	-340
185.161	411
185.231	652
185.301	-448
185.370	809
185.440	452
185.509	22
185.579	270
185.649	767
185.718	82
185.788	1258
185.857	-167
185.927	326
185.996	575
186.066	-672
186.136	-184
186.205	850
186.275	196
186.344	778
186.414	609
186.483	-58
186.553	1323
186.622	1228
186.692	848
186.761	-62
186.831	644
186.900	432
186.970	696
187.039	618
187.109	1717
187.178	-371
187.248	174
187.317	988
187.387	-82
187.456	684
187.526	921
187.595	515
187.664	900
187.734	867
187.803	1272
187.873	584
187.942	603
188.012	1038
188.081	333
188.150	607
188.220	1028
188.289	1961
188.358	1284
188.428	1210
188.497	672
188.567	890
188.636	69
188.705	19
188.775	350
188.844	743
188.913	1561
188.983	-8
189.052	383
189.121	185
189.191	276
189.260	1312
189.329	169
189.399	578
189.468	798
189.537	1006
189.606	507
189.676	360
189.745	616
189.814	944
189.883	639
189.953	448
190.022	669
190.091	1940
190.161	3479
190.230	1699
190.299	428
190.368	-328
190.437	632
190.507	596
190.576	530
190.645	600
190.714	418
190.783	667
190.853	1028
190.922	1588
190.991	536
191.060	953
191.129	409
191.198	740
191.268	1218
191.337	113
191.406	457
191.475	534
191.544	887
191.613	1195
191.682	193
191.752	1194
191.821	540
191.890	893
191.959	1143
192.028	508
192.097	156
192.166	500
192.235	132
192.304	579
192.373	870
192.442	670
192.511	-345
192.580	-101
192.650	565
192.719	1182
192.788	891
192.857	822
192.926	479
192.995	696
193.064	1822
193.133	1808
193.202	2507
193.271	2093
193.340	1979
193.409	1212
193.478	2271
193.547	2526
193.615	2707
193.684	4101
193.753	2260
193.822	1585
193.891	1284
193.960	1378
194.029	1012
194.098	1201
194.167	1277
194.236	1061
194.305	226
194.374	1025
194.443	309
194.512	1357
194.580	1160
194.649	1577
194.718	1961
194.787	807
194.856	943
194.925	1529
194.994	1532
195.062	1105
195.131	1943
195.200	1754
195.269	2212
195.338	960
195.407	1393
195.475	866
195.544	1791
195.613	2333
195.682	789
195.751	2531
195.819	1823
195.888	1006
195.957	2070
196.026	2319
196.094	1791
196.163	2066
196.232	2294
196.301	2381
196.369	1752
196.438	1088
196.507	847
196.576	560
196.644	1386
196.713	1230
196.782	623
196.850	911
196.919	1059
196.988	754
197.056	781
197.125	1240
197.194	1753
197.262	928
197.331	1162
197.400	881
197.468	687
197.537	264
197.606	2167
197.674	2300
197.743	2949
197.812	1338
197.880	2336
197.949	3422
198.017	3312
198.086	2942
198.155	1116
198.223	1653
198.292	4069
198.360	2059
198.429	973
198.497	1819
198.566	2956
198.635	3687
198.703	1795
198.772	2227
198.840	3738
198.909	4084
198.977	1271
199.046	1244
199.114	1694
199.183	2047
199.251	1155
199.320	821
199.388	798
199.457	2533
199.525	962
199.594	1976
199.662	1186
199.731	1703
199.799	959
199.867	1473
199.936	672
200.004	1848
200.073	1525
200.141	1694
200.210	1424
200.278	891
200.346	1427
200.415	2747
200.483	2686
200.552	1892
200.620	1006
200.688	1938
200.757	1443
200.825	1253
200.893	1579
200.962	1522
201.030	1453
201.098	1868
201.167	1821
201.235	1785
201.303	1287
201.372	2193
201.440	1607
201.508	2563
201.577	1958
201.645	2254
201.713	1594
201.781	2022
201.850	2383
201.918	1525
201.986	1775
202.055	2509
202.123	1753
202.191	1250
202.259	2065
202.327	1571
202.396	1587
202.464	1711
202.532	2444
202.600	7153
202.669	3797
202.737	1854
202.805	1977
202.873	1436
202.941	1724
203.009	1942
203.078	1781
203.146	1551
203.214	1481
203.282	1554
203.350	2209
203.418	2023
203.487	1195
203.555	1828
203.623	1352
203.691	2371
203.759	1282
203.827	2080
203.895	2089
203.963	1686
204.031	1571
204.099	1122
204.168	1440
204.236	2480
204.304	1594
204.372	1269
204.440	1574
204.508	2027
204.576	1557
204.644	2151
204.712	959
204.780	1799
204.848	1814
204.916	1216
204.984	1731
205.052	2265
205.120	1081
205.188	928
205.256	1154
205.324	1376
205.392	1236
205.460	2172
205.528	2099
205.596	1985
205.664	2214
205.732	1335
205.799	4506
205.867	7261
205.935	2508
206.003	2725
206.071	1842
206.139	2015
206.207	2082
206.275	1966
206.343	1637
206.411	1979
206.478	1694
206.546	2555
206.614	805
206.682	1969
206.750	1207
206.818	2821
206.885	2476
206.953	1216
207.021	2201
207.089	1691
207.157	1852
207.225	2208
207.292	859
207.360	1897
207.428	2065
207.496	1159
207.563	2033
207.631	2057
207.699	1513
207.767	1532
207.834	1954
207.902	2605
207.970	2154
208.038	2342
208.105	2168
208.173	2127
208.241	3604
208.309	3076
208.376	3649
208.444	5411
208.512	3118
208.579	1795
208.647	2870
208.715	2911
208.782	1794
208.850	2531
208.918	2185
208.985	2810
209.053	2558
209.120	2744
209.188	1986
209.256	2097
209.323	1201
209.391	3462
209.459	3256
209.526	2438
209.594	1909
209.661	2839
209.729	2706
209.796	2416
209.864	2700
209.932	1321
209.999	3602
210.067	2908
210.134	3067
210.202	2839
210.269	4753
210.337	4835
210.404	2818
210.472	2244
210.539	1925
210.607	2675
210.674	3524
210.742	3047
210.809	3059
210.877	3290
210.944	3707
211.012	3113
211.079	4077
211.146	3359
211.214	2786
211.281	3555
211.349	3807
211.416	3703
211.484	3176
211.551	2512
211.618	2862
211.686	3307
211.753	2679
211.821	3716
211.888	3155
211.955	3485
212.023	2096
212.090	2859
212.157	3114
212.225	3128
212.292	5728
212.359	9368
212.427	21460
212.494	10006
212.561	4597
212.629	4548
212.696	3131
212.763	3636
212.831	2540
212.898	3481
212.965	2963
213.032	3305
213.100	3731
213.167	3339
213.234	3773
213.301	3646
213.369	2800
213.436	3262
213.503	2486
213.570	2908
213.638	4017
213.705	2424
213.772	2181
213.839	5128
213.906	4610
213.973	3666
214.041	2681
214.108	3284
214.175	4031
214.242	3141
214.309	3496
214.376	3390
214.444	4101
214.511	3327
214.578	3888
214.645	4418
214.712	4110
214.779	3901
214.846	4137
214.913	5025
214.980	4890
215.048	5100
215.115	5647
215.182	5644
215.249	3557
215.316	3711
215.383	3016
215.450	3679
215.517	3651
215.584	3648
215.651	2445
215.718	2776
215.785	4078
215.852	4451
215.919	5418
215.986	5313
216.053	2926
216.120	2467
216.187	3797
216.254	4469
216.321	3619
216.388	3509
216.455	4993
216.522	3721
216.589	5176
216.656	8894
216.722	8147
216.789	5516
216.856	6288
216.923	4166
216.990	4732
217.057	4992
217.124	6570
217.191	6239
217.258	7296
217.324	8070
217.391	7826
217.458	6213
217.525	4835
217.592	5027
217.659	4396
217.725	5511
217.792	6628
217.859	6666
217.926	3958
217.993	3100
218.059	3011
218.126	2789
218.193	3290
218.260	1906
218.327	2838
218.393	3011
218.460	2986
218.527	2604
218.594	3190
218.660	6773
218.727	7002
218.794	3768
218.860	2877
218.927	1417
218.994	2513
219.061	2493
219.127	4055
219.194	6204
219.261	3205
219.327	2144
219.394	2619
219.461	1864
219.527	2151
219.594	4695
219.661	3158
219.727	1399
219.794	3043
219.860	1629
219.927	3074
219.994	4990
220.060	7837
220.127	6445
220.193	5232
220.260	4018
220.326	5532
220.393	9801
220.460	12997
220.526	7622
220.593	5556
220.659	6541
220.726	5332
220.792	12691
220.859	11681
220.925	15491
220.992	19065
221.058	18770
221.125	16522
221.191	13764
221.258	6668
221.324	4385
221.391	4205
221.457	3537
221.524	3848
221.590	4921
221.657	14244
221.723	9755
221.789	9301
221.856	8833
221.922	4209
221.989	3242
222.055	3681
222.121	2582
222.188	5316
222.254	4001
222.321	3110
222.387	2179
222.453	2266
222.520	2875
222.586	2067
222.652	2661
222.719	2340
222.785	2867
222.851	2501
222.918	3171
222.984	2293
223.050	3772
223.116	1551
223.183	3167
223.249	1394
223.315	1545
223.382	1714
223.448	2461
223.514	1658
223.580	2331
223.647	1752
223.713	1200
223.779	2358
223.845	2025
223.911	3207
223.978	1269
224.044	3168
224.110	2897
224.176	2067
224.242	2232
224.309	1864
224.375	2033
224.441	1648
224.507	2003
224.573	1864
224.639	2206
224.705	1644
224.772	2808
224.838	1923
224.904	3599
224.970	1809
225.036	2957
225.102	2111
225.168	2996
225.234	2157
225.300	2693
225.366	2449
225.432	2929
225.499	3219
225.565	3690
225.631	3040
225.697	3160
225.763	3235
225.829	4710
225.895	4018
225.961	7027
226.027	5975
226.093	5476
226.159	6577
226.225	8838
226.291	19743
226.357	29697
226.423	18009
226.489	11100
226.554	7572
226.620	6291
226.686	8588
226.752	14106
226.818	19441
226.884	37188
226.950	32686
227.016	14779
227.082	9459
227.148	7403
227.214	8005
227.279	7142
227.345	5788
227.411	5126
227.477	5563
227.543	10416
227.609	11462
227.674	8123
227.740	5911
227.806	5346
227.872	3139
227.938	4513
228.003	7889
228.069	3660
228.135	2544
228.201	3468
228.267	3138
228.332	5266
228.398	4908
228.464	4520
228.530	2059
228.595	3181
228.661	2524
228.727	6149
228.792	4749
228.858	3395
228.924	3263
228.990	5582
229.055	4028
229.121	5312
229.187	3095
229.252	3600
229.318	2956
229.384	3476
229.449	5005
229.515	1977
229.581	905
229.646	4363
229.712	3924
229.777	9008
229.843	9656
229.909	7544
229.974	7231
230.040	6647
230.105	4878
230.171	5662
230.236	5554
230.302	8799
230.368	8218
230.433	4247
230.499	5177
230.564	5797
230.630	3449
230.695	2726
230.761	3654
230.826	2151
230.892	6313
230.957	3185
231.023	3117
231.088	3238
231.154	3449
231.219	4105
231.284	5609
231.350	5610
231.415	3519
231.481	2709
231.546	2640
231.612	3299
231.677	3133
231.742	1721
231.808	3912
231.873	2207
231.939	2280
232.004	7635
232.069	6800
232.135	4279
232.200	2579
232.265	3338
232.331	2521
232.396	2549
232.461	2018
232.527	2205
232.592	2202
232.657	3574
232.723	6781
232.788	5539
232.853	4126
232.918	2716
232.984	2512
233.049	2306
233.114	6364
233.179	6225
233.245	8943
233.310	11554
233.375	2915
233.440	4313
233.506	3411
233.571	2021
233.636	2998
233.701	3074
233.766	7678
233.832	10192
233.897	4220
233.962	4192
234.027	6575
234.092	5132
234.157	4890
234.222	4457
234.288	6522
234.353	21803
234.418	21249
234.483	12086
234.548	8428
234.613	6529
234.678	6521
234.743	6196
234.808	23814
234.873	15726
234.938	7451
235.004	4812
235.069	4957
235.134	4525
235.199	4535
235.264	4244
235.329	3054
235.394	4958
235.459	6761
235.524	5892
235.589	4832
235.654	4208
235.719	2914
235.784	4349
235.849	5338
235.913	12786
235.978	14247
236.043	16366
236.108	6367
236.173	6962
236.238	6889
236.303	4633
236.368	4385
236.433	8244
236.498	15019
236.563	8726
236.627	15185
236.692	47445
236.757	39649
236.822	19773
236.887	16357
236.952	11940
237.017	9282
237.081	10543
237.146	12750
237.211	22883
237.276	46420
237.341	73610
237.405	41236
237.470	18536
237.535	15619
237.600	8143
237.664	7537
237.729	5962
237.794	8045
237.859	16445
237.923	13154
237.988	8411
238.053	11105
238.118	11768
238.182	27929
238.247	24402
238.312	14546
238.376	10329
238.441	7281
238.506	7840
238.570	3724
238.635	5743
238.700	3421
238.764	4694
238.829	12117
238.893	16614
238.958	8735
239.023	8185
239.087	4737
239.152	6605
239.216	3912
239.281	4714
239.346	4188
239.410	4430
239.475	5032
239.539	27642
239.604	20886
239.668	7401
239.733	3736
239.797	7204
239.862	17461
239.926	25820
239.991	10571
240.055	5326
240.120	4431
240.184	5176
240.249	5114
240.313	4321
240.378	4807
240.442	17412
240.507	26499
240.571	8670
240.635	13585
240.700	17735
240.764	7417
240.829	5190
240.893	3522
240.957	4778
241.022	15350
241.086	28711
241.151	14162
241.215	5622
241.279	8396
241.344	16032
241.408	8173
241.472	5203
241.537	6313
241.601	6195
241.665	4488
241.730	4636
241.794	6517
241.858	5218
241.922	6464
241.987	6587
242.051	4235
242.115	4288
242.179	5121
242.244	4193
242.308	5015
242.372	5497
242.436	7732
242.501	6645
242.565	4628
242.629	4146
242.693	4393
242.757	3158
242.822	4759
242.886	5611
242.950	5593
243.014	6428
243.078	7355
243.142	7691
243.206	5940
243.271	7264
243.335	5574
243.399	7956
243.463	26229
243.527	66294
243.591	24076
243.655	10940
243.719	7023
243.783	8274
243.847	12267
243.911	15298
243.975	20593
244.040	16182
244.104	8260
244.168	6250
244.232	11707
244.296	14912
244.360	14435
244.424	9841
244.488	7334
244.552	7784
244.615	4402
244.679	6253
244.743	8389
244.807	8314
244.871	5139
244.935	5314
244.999	3826
245.063	5443
245.127	7423
245.191	10276
245.255	10119
245.319	9465
245.383	8733
245.446	7983
245.510	5048
245.574	7687
245.638	7135
245.702	6984
245.766	16001
245.829	10646
245.893	8530
245.957	6521
246.021	7491
246.085	8017
246.149	10017
246.212	22422
246.276	33204
246.340	16231
246.404	11010
246.467	11406
246.531	15815
246.595	10924
246.659	10296
246.722	10030
246.786	13577
246.850	12632
246.913	15155
246.977	6986
247.041	7884
247.104	9326
247.168	8066
247.232	21319
247.295	43092
247.359	23294
247.423	10615
247.486	20125
247.550	12796
247.614	10759
247.677	14453
247.741	10102
247.804	8060
247.868	9708
247.932	20250
247.995	42144
248.059	18104
248.122	9053
248.186	11679
248.249	20310
248.313	63877
248.376	67999
248.440	47144
248.503	17709
248.567	14696
248.630	21435
248.694	29492
248.757	36972
248.821	68786
248.884	45645
248.948	40812
249.011	54892
249.075	80152
249.138	69082
249.202	29939
249.265	19643
249.328	24552
249.392	18482
249.455	14042
249.519	10695
249.582	15005
249.645	22346
249.709	16900
249.772	12282
249.835	11838
249.899	14140
249.962	11515
250.025	10149
250.089	26755
250.152	38072
250.215	20685
250.279	15119
250.342	14514
250.405	13086
250.468	11529
250.532	15024
250.595	20717
250.658	64531
250.721	101726
250.785	42965
250.848	22741
250.911	14435
250.974	13585
251.038	19456
251.101	41611
251.164	23855
251.227	23906
251.290	18774
251.354	24135
251.417	88703
251.480	86535
251.543	59385
251.606	153068
251.669	116220
251.732	51208
251.795	53595
251.859	51456
251.922	101978
251.985	63319
252.048	26872
252.111	20894
252.174	21538
252.237	40542
252.300	80377
252.363	80576
252.426	132727
252.489	64622
252.552	37390
252.615	25852
252.678	26549
252.741	59442
252.804	69131
252.867	133439
252.930	95316
252.993	55433
253.056	33123
253.119	25363
253.182	19211
253.245	29132
253.308	25240
253.371	29340
253.434	26668
253.497	25000
253.559	42695
253.622	31076
253.685	44955
253.748	44964
253.811	20073
253.874	27545
253.937	24750
254.000	19163
254.062	30013
254.125	44724
254.188	41915
254.251	36652
254.314	18180
254.376	33836
254.439	37962
254.502	34865
254.565	32720
254.628	53975
254.690	38107
254.753	20789
254.816	17900
254.878	18956
254.941	33931
255.004	33268
255.067	17569
255.129	18941
255.192	10505
255.255	9742
255.317	12988
255.380	9260
255.443	6482
255.505	7814
255.568	7210
255.631	7887
255.693	9624
255.756	6407
255.819	6774
255.881	6609
255.944	6726
256.006	5903
256.069	7544
256.132	5937
256.194	11219
256.257	28061
256.319	20860
256.382	19208
256.444	10741
256.507	8136
256.569	6817
256.632	7359
256.694	14833
256.757	29003
256.819	75328
256.882	33396
256.944	15998
257.007	13507
257.069	15316
257.132	10523
257.194	8645
257.257	8655
257.319	8383
257.381	8989
257.444	21765
257.506	85393
257.569	101588
257.631	58681
257.693	32281
257.756	16101
257.818	15972
257.880	8796
257.943	8597
258.005	8590
258.067	7871
258.130	8776
258.192	11089
258.254	25823
258.317	15229
258.379	9161
258.441	22860
258.503	21155
258.566	29406
258.628	37601
258.690	10682
258.753	9798
258.815	23192
258.877	12652
258.939	8015
259.001	7474
259.064	6654
259.126	11403
259.188	14929
259.250	9249
259.312	11258
259.375	30782
259.437	20667
259.499	8625
259.561	8073
259.623	8004
259.685	7909
259.747	8760
259.809	27817
259.872	49926
259.934	75227
259.996	66827
260.058	20589
260.120	9358
260.182	7433
260.244	6390
260.306	6265
260.368	6980
260.430	7158
260.492	15568
260.554	29171
260.616	22403
260.678	39873
260.740	55129
260.802	15436
260.864	12347
260.926	10623
260.988	10147
261.050	9820
261.112	21589
261.174	56031
261.236	43167
261.298	15147
261.359	25804
261.421	36883
261.483	11493
261.545	9706
261.607	5853
261.669	7681
261.731	17051
261.793	41486
261.854	19231
261.916	13025
261.978	9961
262.040	11381
262.102	8902
262.164	17777
262.225	13926
262.287	8360
262.349	21717
262.411	17003
262.472	8944
262.534	16830
262.596	37953
262.658	12672
262.719	8111
262.781	11404
262.843	36436
262.904	16512
262.966	10646
263.028	12032
263.090	54669
263.151	131157
263.213	47054
263.275	27816
263.336	12487
263.398	9376
263.459	5911
263.521	7358
263.583	20647
263.644	15844
263.706	7368
263.767	5141
263.829	6052
263.891	4517
263.952	4242
264.014	4406
264.075	9453
264.137	23953
264.198	13556
264.260	5399
264.321	5472
264.383	16230
264.444	35797
264.506	12517
264.567	8220
264.629	13683
264.690	28252
264.752	12418
264.813	8515
264.875	6165
264.936	7781
264.998	5413
265.059	4554
265.120	5482
265.182	8990
265.243	42891
265.305	42535
265.366	12154
265.427	7346
265.489	7437
265.550	4134
265.611	8276
265.673	8303
265.734	6322
265.795	5496
265.857	4725
265.918	5594
265.979	10912
266.040	65451
266.102	55486
266.163	18682
266.224	17157
266.286	10019
266.347	6444
266.408	6611
266.469	8927
266.530	6721
266.592	5201
266.653	14571
266.714	25414
266.775	9603
266.836	7166
266.898	4786
266.959	11394
267.020	8084
267.081	6348
267.142	5172
267.203	5574
267.264	4288
267.326	8354
267.387	5572
267.448	4604
267.509	5618
267.570	5544
267.631	4867
267.692	3812
267.753	4244
267.814	4856
267.875	12683
267.936	28212
267.997	15028
268.058	12425
268.119	7700
268.180	8639
268.241	6108
268.302	5317
268.363	5442
268.424	7166
268.485	7304
268.546	5144
268.607	3804
268.668	4910
268.729	3894
268.790	5456
268.851	5870
268.912	18240
268.972	22985
269.033	14674
269.094	6554
269.155	5319
269.216	4981
269.277	6688
269.338	4876
269.398	5128
269.459	7596
269.520	10129
269.581	15239
269.642	18065
269.702	12009
269.763	9860
269.824	6401
269.885	10116
269.945	15464
270.006	6528
270.067	4444
270.128	4482
270.188	5120
270.249	5852
270.310	4593
270.370	5148
270.431	5724
270.492	4760
270.553	5603
270.613	16492
270.674	30233
270.734	13989
270.795	6930
270.856	12077
270.916	9831
270.977	6737
271.038	8382
271.098	8603
271.159	15618
271.219	14945
271.280	5792
271.340	5455
271.401	7844
271.462	24160
271.522	12096
271.583	8220
271.643	8365
271.704	7668
271.764	8984
271.825	20079
271.885	66811
271.946	88570
272.006	32669
272.066	41634
272.127	67530
272.187	23156
272.248	12438
272.308	12291
272.369	45361
272.429	25676
272.489	23097
272.550	24373
272.610	23963
272.671	18589
272.731	16169
272.791	31116
272.852	17935
272.912	15590
272.972	8297
273.033	8652
273.093	15994
273.153	15336
273.214	9451
273.274	9708
273.334	34512
273.394	66897
273.455	32298
273.515	27615
273.575	59454
273.635	26399
273.696	36103
273.756	66622
273.816	28996
273.876	16700
273.936	36291
273.997	62448
274.057	17450
274.117	13185
274.177	18344
274.237	81759
274.297	70299
274.358	55789
274.418	53986
274.478	43795
274.538	17543
274.598	13974
274.658	52544
274.718	68712
274.778	27572
274.838	13279
274.898	29595
274.958	95649
275.018	72728
275.078	45748
275.138	21317
275.198	12143
275.258	9381
275.318	12532
275.378	25104
275.438	27044
275.498	16436
275.558	41361
275.618	79626
275.678	48189
275.738	32557
275.798	24790
275.858	13096
275.918	7776
275.978	10927
276.038	11119
276.098	7542
276.157	17857
276.217	53039
276.277	25429
276.337	18951
276.397	11087
276.457	13850
276.517	9601
276.576	7003
276.636	6739
276.696	13979
276.756	32377
276.815	24306
276.875	12229
276.935	14446
276.995	12307
277.055	7498
277.114	7690
277.174	11641
277.234	40131
277.293	19321
277.353	11659
277.413	8084
277.472	9976
277.532	10158
277.592	9565
277.651	33950
277.711	62230
277.771	21261
277.830	74546
277.890	59352
277.950	40749
278.009	109666
278.069	41924
278.128	44295
278.188	64096
278.248	28105
278.307	70343
278.367	42375
278.426	15866
278.486	10382
278.545	8207
278.605	7757
278.664	6910
278.724	9179
278.783	24693
278.843	63835
278.902	20985
278.962	14200
279.021	15868
279.081	22106
279.140	21630
279.199	17190
279.259	14326
279.318	15276
279.378	19050
279.437	31452
279.496	110340
279.556	312409
279.615	251600
279.675	77331
279.734	41963
279.793	65069
279.853	90074
279.912	33231
279.971	20074
280.031	18110
280.090	32500
280.149	52951
280.208	47284
280.268	214289
280.327	216893
280.386	62005
280.445	44860
280.505	38890
280.564	19120
280.623	15524
280.682	22898
280.742	35022
280.801	13346
280.860	10555
280.919	10048
280.978	9179
281.037	9728
281.097	7335
281.156	8455
281.215	8108
281.274	9883
281.333	42080
281.392	31889
281.451	9413
281.510	8156
281.569	6675
281.628	7134
281.688	6477
281.747	8465
281.806	8613
281.865	6145
281.924	6436
281.983	7730
282.042	5300
282.101	5250
282.160	5675
282.219	4908
282.278	6917
282.337	27715
282.396	17929
282.454	8022
282.513	10070
282.572	41524
282.631	24203
282.690	9331
282.749	7246
282.808	11278
282.867	10786
282.926	11245
282.985	6599
283.043	6150
283.102	6405
283.161	8546
283.220	19547
283.279	42875
283.338	15121
283.396	9222
283.455	8689
283.514	10136
283.573	16905
283.631	13254
283.690	9763
283.749	8357
283.808	20059
283.866	23095
283.925	9807
283.984	9629
284.043	14238
284.101	15891
284.160	9943
284.219	13599
284.277	11145
284.336	17668
284.395	57390
284.453	46631
284.512	18811
284.570	27036
284.629	23909
284.688	21363
284.746	24012
284.805	28211
284.863	37415
284.922	45299
284.981	51577
285.039	71078
285.098	118353
285.156	236302
285.215	320396
285.273	321020
285.332	255215
285.390	152298
285.449	96016
285.507	66017
285.566	47472
285.624	36661
285.683	28631
285.741	24566
285.799	21555
285.858	20834
285.916	17936
285.975	15434
286.033	12686
286.091	11446
286.150	10268
286.208	10989
286.267	11902
286.325	13253
286.383	21470
286.442	17759
286.500	9704
286.558	8259
286.616	7973
286.675	13718
286.733	11522
286.791	10728
286.850	11376
286.908	15221
286.966	25812
287.024	12666
287.083	8676
287.141	7149
287.199	6712
287.257	14071
287.315	9008
287.374	10678
287.432	26490
287.490	17155
287.548	11912
287.606	8063
287.664	7773
287.723	12851
287.781	17001
287.839	8617
287.897	10710
287.955	11898
288.013	14397
288.071	31027
288.129	134124
288.187	357321
288.245	167754
288.303	56924
288.361	31011
288.419	22829
288.477	16164
288.535	11757
288.593	8497
288.651	8946
288.709	6425
288.767	6721
288.825	8596
288.883	6873
288.941	5952
288.999	6461
289.057	6294
289.115	7206
289.173	7511
289.231	7803
289.289	8658
289.346	7659
289.404	9050
289.462	16576
289.520	16995
289.578	8334
289.636	5430
289.694	4915
289.751	3410
289.809	4240
289.867	5496
289.925	8692
289.983	10728
290.040	5410
290.098	5322
290.156	8912
290.214	9639
290.271	6361
290.329	4459
290.387	4390
290.444	4948
290.502	3201
290.560	4208
290.617	5272
290.675	6375
290.733	6208
290.790	7454
290.848	4520
290.906	8302
290.963	8158
291.021	6714
291.078	6696
291.136	6667
291.194	21848
291.251	46248
291.309	14484
291.366	6178
291.424	6266
291.481	7139
291.539	7483
291.596	6943
291.654	3787
291.711	4323
291.769	6750
291.826	18904
291.884	11880
291.941	6004
291.999	5438
292.056	8514
292.114	8993
292.171	6240
292.228	6544
292.286	9090
292.343	19880
292.401	26187
292.458	16930
292.515	11194
292.573	11635
292.630	11766
292.687	11574
292.745	7691
292.802	10217
292.859	28317
292.917	52596
292.974	31012
293.031	12479
293.089	7973
293.146	6349
293.203	5328
293.260	5344
293.318	7732
293.375	13063
293.432	6922
293.489	6370
293.546	5303
293.604	9184
293.661	32011
293.718	79060
293.775	41638
293.832	21776
293.889	17072
293.947	15870
294.004	11166
294.061	10715
294.118	22615
294.175	48003
294.232	54737
294.289	22874
294.346	13335
294.403	12399
294.460	12265
294.517	10411
294.574	7327
294.631	8059
294.688	6828
294.745	23002
294.802	85444
294.859	87890
294.916	37003
294.973	21379
295.030	20788
295.087	16481
295.144	10340
295.201	8532
295.258	7390
295.315	9355
295.372	34577
295.429	62393
295.486	27696
295.542	15367
295.599	35356
295.656	56660
295.713	41935
295.770	57194
295.827	22272
295.883	11822
295.940	12313
295.997	22889
296.054	21813
296.111	10928
296.167	7893
296.224	5969
296.281	6916
296.338	6430
296.394	6521
296.451	8918
296.508	27373
296.564	49149
296.621	32805
296.678	71823
296.734	99339
296.791	38448
296.848	19457
296.904	20444
296.961	48034
297.018	69610
297.074	49836
297.131	20067
297.187	13543
297.244	18793
297.301	67153
297.357	111253
297.414	40892
297.470	17902
297.527	12332
297.583	10083
297.640	12100
297.696	9314
297.753	7995
297.809	7258
297.866	6397
297.922	6438
297.979	6062
298.035	8111
298.092	13306
298.148	39775
298.204	38032
298.261	17791
298.317	32784
298.374	84445
298.430	50749
298.486	28023
298.543	19490
298.599	14080
298.656	14633
298.712	27575
298.768	64499
298.824	42757
298.881	16994
298.937	10244
298.993	8940
299.050	15106
299.106	11559
299.162	10969
299.218	10752
299.275	8206
299.331	8094
299.387	19079
299.443	75375
299.500	78875
299.556	33769
299.612	16473
299.668	14956
299.724	19249
299.780	19517
299.837	11659
299.893	16908
299.949	65753
300.005	72221
300.061	66586
300.117	102129
300.173	50735
300.229	25309
300.285	32370
300.341	36145
300.397	19065
300.453	11832
300.510	10217
300.566	9961
300.622	12157
300.678	38163
300.734	71819
300.790	64876
300.845	72812
300.901	49395
300.957	71912
301.013	52862
301.069	22739
301.125	16381
301.181	18142
301.237	12806
301.293	9572
301.349	7852
301.405	7732
301.461	7529
301.516	7989
301.572	11574
301.628	24138
301.684	19610
301.740	28966
301.796	43244
301.851	30817
301.907	51212
301.963	46152
302.019	75227
302.074	198745
302.130	193326
302.186	89936
302.242	39280
302.297	23624
302.353	22561
302.409	43602
302.464	35125
302.520	31559
302.576	80318
302.631	89194
302.687	54831
302.743	23613
302.798	14172
302.854	10333
302.910	10685
302.965	15512
303.021	29562
303.076	26841
303.132	37902
303.187	44636
303.243	21656
303.299	12085
303.354	10008
303.410	9571
303.465	8273
303.521	7968
303.576	8359
303.632	9698
303.687	21707
303.743	66594
303.798	55436
303.853	25107
303.909	14632
303.964	12525
304.020	20492
304.075	30580
304.130	27364
304.186	54218
304.241	53693
304.297	42324
304.352	24222
304.358	23207
304.407	14987
304.449	13850
304.463	13477
304.518	14892
304.539	13670
304.573	11715
304.629	11172
304.630	11290
304.684	17276
304.720	41256
304.739	53263
304.794	75007
304.811	64450
304.850	39161
304.902	19750
304.905	18521
304.960	13077
304.992	12961
305.015	12916
305.071	13193
305.083	12534
305.126	10008
305.173	7629
305.181	7268
305.236	7134
305.264	8148
305.292	9254
305.347	12927
305.354	13116
305.402	14100
305.445	13649
305.457	13564
305.512	16927
305.535	17103
305.567	17341
305.622	17124
305.626	17651
305.678	29860
305.716	60708
305.733	71935
305.788	76581
305.807	66963
305.843	50842
305.897	67006
305.898	67165
305.953	62646
305.988	44557
306.008	34918
306.063	24552
306.078	22049
306.118	15826
306.168	11074
306.173	10694
306.228	9247
306.259	8184
306.283	7414
306.338	6629
306.349	6996
306.393	8644
306.440	9778
306.448	9954
306.503	9786
306.530	10901
306.558	14665
306.613	36082
306.620	38830
306.668	55632
306.711	72035
306.723	73776
306.778	55015
306.801	42846
306.833	29456
306.888	15567
306.892	15042
306.943	10881
306.982	9329
306.997	8876
307.052	8623
307.072	8711
307.107	9454
307.162	12338
307.163	12412
307.217	20299
307.253	24843
307.272	26025
307.327	27715
307.343	25419
307.381	20429
307.434	17245
307.436	17608
307.491	37653
307.524	56765
307.546	63163
307.600	60528
307.614	54269
307.655	33495
307.704	17758
307.710	17082
307.765	18634
307.795	24161
307.819	29431
307.874	47260
307.885	46653
307.929	35059
307.975	24747
307.984	24654
308.038	29403
308.065	35416
308.093	57909
308.148	127925
308.156	145142
308.202	236559
308.246	280666
308.257	273936
308.312	159996
308.336	118670
308.366	93841
308.421	61263
308.426	58433
308.475	36772
308.517	25292
308.530	23164
308.585	19306
308.607	18260
308.639	18245
308.694	20224
308.697	20651
308.748	37727
308.787	56471
308.803	57444
308.857	43128
308.877	36520
308.912	30771
308.967	28369
308.967	28400
309.021	39039
309.058	48719
309.076	60259
309.130	105540
309.148	123551
309.185	196611
309.238	330170
309.239	331260
309.293	369335
309.328	345903
309.348	302938
309.402	160832
309.418	125174
309.457	89499
309.508	56839
309.511	55928
309.566	52792
309.598	55042
309.620	64818
309.674	98086
309.688	106634
309.729	104635
309.778	87809
309.783	85678
309.837	58986
309.868	46376
309.892	52192
309.946	74616
309.959	82507
310.001	107088
310.049	125277
310.055	121018
310.109	69918
310.139	42273
310.163	33928
310.218	22124
310.229	20229
310.272	16136
310.319	12782
310.326	12386
310.381	10375
310.409	9571
310.435	9105
310.489	8334
310.499	8274
310.543	8787
310.589	9540
310.598	9601
310.652	10083
310.679	10076
310.706	9059
310.760	7004
310.769	6719
310.814	6392
310.859	6096
310.868	6161
310.923	6742
310.948	7132
310.977	8372
311.031	10845
311.038	11214
311.085	9949
311.128	8027
311.139	7940
311.193	7979
311.218	7941
311.247	7083
311.301	5542
311.308	5367
311.356	6233
311.398	7147
311.410	6865
311.464	5345
311.488	4712
311.518	5442
311.572	6803
311.578	6986
311.626	10703
311.668	13973
311.680	13718
311.734	12245
311.758	11614
311.788	11365
311.842	10980
311.847	10946
311.896	13760
311.937	16337
311.950	16057
312.004	14739
312.027	14143
312.058	12042
312.112	8356
312.117	8002
312.165	7337
312.207	6807
312.297	10959
312.386	7998
312.476	10137
312.566	23455
312.656	10112
312.745	5692
312.835	6773
312.925	8324
313.015	7480
313.104	6992
313.194	6527
313.284	6391
313.374	11093
313.463	10153
313.553	6282
313.643	5826
313.732	6182
313.822	4731
313.912	6928
314.001	8132
314.091	8834
314.180	12930
314.270	12570
314.360	13168
314.449	12048
314.539	6392
314.628	6360
314.718	8297
314.808	10038
314.897	6150
314.987	7162
315.076	10413
315.166	14031
315.255	12093
315.345	12865
315.434	11132
315.524	10363
315.613	12871
315.703	17917
315.792	25945
315.881	66264
315.971	24324
316.060	25117
316.150	31800
316.239	31580
316.328	11110
316.418	6750
316.507	7006
316.597	12702
316.686	10791
316.775	15624
316.865	31666
316.954	8315
317.043	4823
317.133	8005
317.222	6659
317.311	7424
317.400	6061
317.490	12254
317.579	13844
317.668	8863
317.757	16750
317.847	40865
317.936	118351
318.025	53498
318.114	28922
318.203	19510
318.293	29311
318.382	62450
318.471	43026
318.560	52396
318.649	72299
318.738	15420
318.828	13072
318.917	14570
319.006	15797
319.095	43567
319.184	96450
319.273	60639
319.362	34224
319.451	10993
319.540	10966
319.629	31036
319.718	48924
319.807	16329
319.896	39610
319.985	118722
320.074	44899
320.163	13313
320.252	21189
320.341	16140
320.430	15802
320.519	26907
320.608	14125
320.697	10630
320.786	11418
320.875	15173
320.964	21139
321.053	35677
321.142	53442
321.230	51266
321.319	38891
321.408	90097
321.497	32381
321.586	34660
321.675	36739
321.764	33633
321.852	22384
321.941	52070
322.030	30098
322.119	35781
322.207	93527
322.296	50343
322.385	24705
322.474	35614
322.562	113997
322.651	50300
322.740	39357
322.829	53680
322.917	47297
323.006	31037
323.095	26933
323.183	16355
323.272	26508
323.361	50995
323.449	127439
323.538	40923
323.626	95076
323.715	49664
323.804	22028
323.892	89241
323.981	49647
324.069	13283
324.158	46473
324.246	39513
324.335	18666
324.424	33113
324.512	10362
324.601	14507
324.689	21083
324.778	36399
324.866	33917
324.954	10110
325.043	9259
325.131	22174
325.220	34939
325.308	39606
325.397	30376
325.485	19177
325.574	7083
325.662	6917
325.750	9453
325.839	7029
325.927	6173
326.015	10133
326.104	14576
326.192	21856
326.280	6351
326.369	7934
326.457	13927
326.545	28835
326.634	10452
326.722	5665
326.810	6686
326.898	6423
326.987	8474
327.075	25635
327.163	23365
327.251	8883
327.340	10734
327.428	14940
327.516	6945
327.604	8127
327.692	8052
327.781	8536
327.869	16288
327.957	11238
328.045	11157
328.133	5705
328.221	8488
328.309	7954
328.397	6637
328.485	9702
328.574	15244
328.662	60180
328.750	28667
328.838	10075
328.926	6031
329.014	5891
329.102	11234
329.190	31129
329.278	20557
329.366	5291
329.454	4560
329.542	4899
329.630	4476
329.718	5607
329.806	9145
329.893	7910
329.981	6035
330.069	8143
330.157	31362
330.245	95535
330.333	47252
330.421	8704
330.509	15056
330.597	74915
330.684	43231
330.772	12309
330.860	16127
330.948	21072
331.036	9453
331.123	4530
331.211	3792
331.299	6777
331.387	17971
331.475	35168
331.562	10359
331.650	5393
331.738	7696
331.825	10064
331.913	4500
332.001	4758
332.089	8722
332.176	17280
332.264	44921
332.352	33818
332.439	11917
332.527	8533
332.614	7227
332.702	8963
332.790	5988
332.877	22245
332.965	43268
333.052	12485
333.140	15278
333.228	38270
333.315	10249
333.403	7926
333.490	26046
333.578	24870
333.665	47340
333.753	22143
333.840	6733
333.928	9052
334.015	26360
334.103	38318
334.190	119969
334.278	30028
334.365	15031
334.452	11860
334.540	7963
334.627	10710
334.715	13515
334.802	27546
334.889	151389
334.977	141599
335.064	20159
335.151	10986
335.239	9478
335.326	12062
335.413	56438
335.501	76541
335.588	12490
335.675	9101
335.762	10911
335.850	19728
335.937	13515
336.024	39021
336.111	161003
336.199	66776
336.286	14933
336.373	8915
336.460	5973
336.547	6701
336.635	9347
336.722	8859
336.809	6989
336.896	12198
336.983	37013
337.070	87859
337.157	117731
337.245	96653
337.332	65708
337.419	9025
337.506	5638
337.593	7363
337.680	26640
337.767	84394
337.854	25380
337.941	29672
338.028	37913
338.115	12537
338.202	12772
338.289	27092
338.376	99343
338.463	29508
338.550	48054
338.637	50360
338.724	19166
338.811	30885
338.898	7096
338.984	6440
339.071	8187
339.158	10586
339.245	34287
339.332	20288
339.419	22187
339.506	20601
339.593	4697
339.679	7012
339.766	6143
339.853	10776
339.940	25637
340.027	8161
340.113	8218
340.200	13069
340.287	8422
340.374	11522
340.460	23694
340.547	8209
340.634	16028
340.720	66563
340.807	37024
340.894	6424
340.980	7034
341.067	7150
341.154	7923
341.240	14757
341.327	34661
341.414	10742
341.500	13131
341.587	8437
341.674	6360
341.760	23193
341.847	28123
341.933	8858
342.020	2584
342.106	3996
342.193	8003
342.279	18162
342.366	12119
342.452	24071
342.539	10764
342.625	29227
342.712	74271
342.798	29834
342.885	10979
342.971	3682
343.058	3399
343.144	5213
343.230	4953
343.317	6957
343.403	5080
343.490	4058
343.576	3700
343.662	5702
343.749	7264
343.835	9820
343.921	15665
344.008	102049
344.094	230421
344.180	51068
344.267	19893
344.353	65354
344.439	71142
344.525	34684
344.612	14102
344.698	11670
344.784	7974
344.870	4209
344.957	6285
345.043	12184
345.129	9009
345.215	22950
345.301	11735
345.387	7755
345.474	2829
345.560	4262
345.646	6372
345.732	6402
345.818	8793
345.904	8135
345.990	9029
346.076	8649
346.162	16348
346.249	7881
346.335	5804
346.421	6213
346.507	24934
346.593	91998
346.679	22118
346.765	7379
346.851	7139
346.937	7804
347.023	5176
347.108	9409
347.194	6741
347.280	5808
347.366	7805
347.452	26103
347.538	111809
347.624	81469
347.710	69331
347.796	10723
347.882	6637
347.967	5134
348.053	8259
348.139	6988
348.225	5213
348.311	6251
348.397	4507
348.482	9016
348.568	9977
348.654	4837
348.740	7049
348.825	8766
348.911	13147
348.997	50762
349.083	101399
349.168	16674
349.254	6788
349.340	8054
349.425	4199
349.511	9696
349.597	10180
349.682	22266
349.768	70244
349.854	33673
349.939	5940
350.025	5177
350.110	5015
350.196	4942
350.282	3933
350.367	3985
350.453	10808
350.538	11198
350.624	10585
350.709	9833
350.795	5106
350.880	6355
350.966	7369
351.051	11465
351.137	8320
351.222	6755
351.308	21863
351.393	67654
351.479	17588
351.564	6873
351.649	6508
351.735	4621
351.820	3500
351.906	5715
351.991	8188
352.076	40126
352.162	63070
352.247	13270
352.332	8998
352.418	20697
352.503	22784
352.588	94591
352.673	85156
352.759	18446
352.844	9112
352.929	10813
353.014	14597
353.100	9222
353.185	14930
353.270	27392
353.355	28177
353.441	7666
353.526	8046
353.611	23873
353.696	29407
353.781	15869
353.866	7623
353.952	8876
354.037	23593
354.122	57642
354.207	50768
354.292	19349
354.377	7556
354.462	6757
354.547	11067
354.632	9238
354.717	12451
354.802	18325
354.887	7509
354.972	4826
355.057	3533
355.142	4983
355.227	7963
355.312	14984
355.397	35746
355.482	88284
355.567	42923
355.652	29081
355.737	30154
355.822	76891
355.907	67428
355.991	10985
356.076	6118
356.161	5966
356.246	4754
356.331	7033
356.416	16372
356.501	113996
356.585	125440
356.670	20452
356.755	13039
356.840	18847
356.924	85022
357.009	298370
357.094	122021
357.179	29607
357.263	18705
357.348	18805
357.433	19275
357.517	17803
357.602	12892
357.687	9578
357.771	11875
357.856	19275
357.941	17195
358.025	62666
358.110	268531
358.195	137777
358.279	22712
358.364	16342
358.448	59279
358.533	160970
358.617	120209
358.702	108933
358.787	44200
358.871	25407
358.956	22424
359.040	7337
359.125	5153
359.209	5914
359.294	8886
359.378	15142
359.462	19265
359.547	11837
359.631	7646
359.716	6331
359.800	7133
359.885	11797
359.969	8074
360.053	7364
360.138	6936
360.222	13417
360.306	25970
360.391	19616
360.475	22167
360.559	52836
360.644	62092
360.728	47510
360.812	64151
360.896	176339
360.981	82964
361.065	48412
361.149	13175
361.233	13545
361.318	10323
361.402	11297
361.486	10702
361.570	8812
361.654	11244
361.739	31543
361.823	117035
361.907	180221
361.991	35399
362.075	21763
362.159	52398
362.243	37578
362.327	32938
362.411	37640
362.495	21394
362.580	11923
362.664	7479
362.748	8835
362.832	11558
362.916	18957
363.000	57212
363.084	157627
363.168	215801
363.252	57804
363.336	21029
363.420	27239
363.503	77311
363.587	94441
363.671	20883
363.755	16675
363.839	24674
363.923	12204
364.007	26257
364.091	30991
364.175	32875
364.258	124476
364.342	105346
364.426	119989
364.510	69617
364.594	33689
364.677	37293
364.761	147448
364.845	114531
364.929	44319
365.013	38502
365.096	29520
365.180	36546
365.264	33682
365.347	116473
365.431	54676
365.515	15928
365.598	10346
365.682	9035
365.766	14427
365.849	19058
365.933	11211
366.017	14623
366.100	10259
366.184	4815
366.267	7574
366.351	6765
366.435	6861
366.518	5164
366.602	5535
366.685	6160
366.769	9036
366.852	13392
366.936	29127
367.019	17495
367.103	12014
367.186	20283
367.270	8408
367.353	5108
367.436	7417
367.520	5483
367.603	10203
367.687	15994
367.770	31954
367.853	17472
367.937	46381
368.020	80630
368.104	22003
368.187	22306
368.270	33706
368.353	29092
368.437	35114
368.520	66589
368.603	47120
368.687	56237
368.770	111279
368.853	30669
368.936	27284
369.020	26144
369.103	12411
369.186	7718
369.269	10178
369.352	18969
369.436	30887
369.519	18675
369.602	10101
369.685	9553
369.768	11729
369.851	8088
369.934	6737
370.018	10233
370.101	25116
370.184	19671
370.267	13854
370.350	27279
370.433	40506
370.516	83067
370.599	107066
370.682	39175
370.765	65479
370.848	75613
370.931	124332
371.014	50790
371.097	11726
371.180	10000
371.263	6223
371.346	3391
371.429	6348
371.511	6574
371.594	16424
371.677	24073
371.760	24002
371.843	22482
371.926	96198
372.009	222706
372.091	79027
372.174	51053
372.257	109685
372.340	47571
372.423	34375
372.505	39619
372.588	18232
372.671	40763
372.754	127349
372.836	68337
372.919	38053
373.002	75562
373.085	29235
373.167	23843
373.250	57652
373.332	116431
373.415	149897
373.498	297539
373.580	126448
373.663	145028
373.746	204717
373.828	53550
373.911	22649
373.993	22387
374.076	68543
374.159	72118
374.241	36602
374.324	107784
374.406	79293
374.489	84666
374.571	237518
374.654	110061
374.736	50586
374.819	143569
374.901	210890
374.983	221290
375.066	44838
375.148	16294
375.231	54352
375.313	110387
375.395	48299
375.478	11881
375.560	8824
375.643	14292
375.725	46775
375.807	180042
375.890	154493
375.972	66509
376.054	37693
376.136	52819
376.219	26465
376.301	51292
376.383	157580
376.465	68562
376.548	47042
376.630	54079
376.712	134505
376.794	70478
376.877	9735
376.959	5652
377.041	9458
377.123	15097
377.205	20051
377.287	4583
377.369	5923
377.452	6797
377.534	6588
377.616	6552
377.698	7529
377.780	5422
377.862	8305
377.944	7554
378.026	4322
378.108	5349
378.190	5893
378.272	5103
378.354	3590
378.436	3395
378.518	10869
378.600	37590
378.682	37372
378.764	74521
378.846	66494
378.928	18662
379.010	28657
379.091	15689
379.173	7760
379.255	5990
379.337	11219
379.419	37457
379.501	107442
379.583	47394
379.664	12857
379.746	30755
379.828	77916
379.910	106554
379.991	93857
380.073	18039
380.155	10715
380.237	8632
380.318	6782
380.400	8598
380.482	18907
380.564	32824
380.645	30066
380.727	29916
380.809	17518
380.890	12689
380.972	8788
381.053	8333
381.135	11072
381.217	26211
381.298	81532
381.380	46937
381.461	34536
381.543	132761
381.624	177116
381.706	38127
381.787	19026
381.869	22643
381.951	62393
382.032	217693
382.113	158371
382.195	39327
382.276	25411
382.358	49198
382.439	127830
382.521	140775
382.602	211004
382.684	109743
382.765	182548
382.846	235225
382.928	337525
383.009	204651
383.090	138641
383.172	428221
383.253	646061
383.334	250339
383.416	203961
383.497	119585
383.578	65297
383.659	121215
383.741	376508
383.822	842539
383.903	496186
383.984	179204
384.066	253580
384.147	170195
384.228	40507
384.309	29614
384.390	23888
384.471	16695
384.553	17787
384.634	24633
384.715	27614
384.796	14611
384.877	18816
384.958	67342
385.039	91966
385.120	36656
385.201	16394
385.282	19648
385.363	19774
385.444	17944
385.525	34511
385.606	98990
385.687	90355
385.768	23222
385.849	29173
385.930	104715
386.011	182381
386.092	56014
386.173	14987
386.254	11374
386.335	12357
386.416	14921
386.496	48013
386.577	80648
386.658	29987
386.739	18546
386.820	16771
386.901	12098
386.981	12788
387.062	10126
387.143	19384
387.224	73326
387.304	76503
387.385	27554
387.466	18325
387.547	22189
387.627	17191
387.708	29750
387.789	122239
387.869	158277
387.950	46464
388.031	8605
388.111	8177
388.192	20642
388.273	31977
388.353	21313
388.434	12918
388.514	27117
388.595	106079
388.676	153347
388.756	83094
388.837	74897
388.917	53484
388.998	11728
389.078	10137
389.159	9272
389.239	9129
389.320	15998
389.400	14447
389.480	26949
389.561	75330
389.641	42412
389.722	15376
389.802	26892
389.883	34360
389.963	84256
390.043	60944
390.124	19660
390.204	31042
390.284	89790
390.365	63730
390.445	53247
390.525	122701
390.605	118284
390.686	46881
390.766	16150
390.846	9562
390.927	6340
391.007	9365
391.087	9357
391.167	9311
391.247	7000
391.328	13902
391.408	19309
391.488	14661
391.568	5952
391.648	12896
391.728	19744
391.808	17996
391.888	19314
391.969	40440
392.049	71186
392.129	31902
392.209	34009
392.289	82893
392.369	50678
392.449	35412
392.529	27093
392.609	23032
392.689	29231
392.769	80881
392.849	77941
392.929	52547
393.009	115993
393.089	103957
393.169	90646
393.248	256131
393.328	740046
393.408	818967
393.488	293179
393.568	90428
393.648	45474
393.728	29066
393.807	19948
393.887	18616
393.967	16133
394.047	18535
394.127	21654
394.206	31527
394.286	95660
394.366	363214
394.446	426003
394.525	114030
394.605	30191
394.685	25216
394.764	48018
394.844	80894
394.924	62983
395.003	22636
395.083	16021
395.163	14177
395.242	12740
395.322	14226
395.402	9379
395.481	13571
395.561	33922
395.640	95694
395.720	83839
395.799	94027
395.879	78676
395.958	44752
396.038	136643
396.117	476184
396.197	560630
396.276	191810
396.356	64421
396.435	46575
396.515	34794
396.594	45323
396.673	82991
396.753	253602
396.832	680747
396.912	582666
396.991	178086
397.070	49205
397.150	27174
397.229	20113
397.308	23454
397.388	41255
397.467	23270
397.546	11125
397.625	7670
397.705	14199
397.784	15680
397.863	9550
397.942	5484
398.022	7179
398.101	25683
398.180	76369
398.259	44346
398.338	13552
398.417	9592
398.497	7056
398.576	7698
398.655	6349
398.734	4402
398.813	5868
398.892	24892
398.971	80579
399.050	45945
399.129	6617
399.208	3959
399.287	5539
399.366	3853
399.445	4841
399.524	5231
399.603	4848
399.682	13311
399.761	34143
399.840	86429
399.919	72207
399.998	11397
400.077	4139
400.156	3639
400.235	7248
400.313	4202
400.392	8143
400.471	40678
400.550	72340
400.629	21735
400.708	9111
400.786	6883
400.865	18657
400.944	23748
401.023	12954
401.102	2774
401.180	3616
401.259	3594
401.338	5457
401.416	9014
401.495	8270
401.574	5575
401.652	5326
401.731	8490
401.810	6928
401.888	3544
401.967	3367
402.046	3577
402.124	7362
402.203	11260
402.281	6772
402.360	7430
402.438	25305
402.517	19149
402.596	6328
402.674	4865
402.753	4355
402.831	3675
402.910	6232
402.988	23012
403.066	80651
403.145	51780
403.223	26380
403.302	65548
403.380	52434
403.459	48262
403.537	21983
403.615	7806
403.694	1773
403.772	3059
403.850	2886
403.929	2445
404.007	3501
404.085	10476
404.164	12615
404.242	4491
404.320	7252
404.398	15792
404.477	40162
404.555	159267
404.633	157091
404.711	27275
404.789	8370
404.868	6026
404.946	3808
405.024	2589
405.102	2794
405.180	2314
405.258	2701
405.336	4058
405.415	4181
405.493	9572
405.571	10778
405.649	3082
405.727	2744
405.805	7326
405.883	7502
405.961	6764
406.039	7980
406.117	3523
406.195	9517
406.273	40325
406.351	145297
406.429	98727
406.507	15829
406.585	5463
406.663	6677
406.740	9345
406.818	9984
406.896	4330
406.974	5198
407.052	14608
407.130	84861
407.208	130423
407.285	29178
407.363	5013
407.441	5424
407.519	3608
407.596	6328
407.674	14404
407.752	35456
407.830	37867
407.907	18237
407.985	6649
408.063	4044
408.141	2682
408.218	6878
408.296	7776
408.373	6120
408.451	8096
408.529	7787
408.606	2869
408.684	2505
408.762	2066
408.839	1331
408.917	1231
408.994	2998
409.072	3074
409.149	4227
409.227	7226
409.304	10343
409.382	6124
409.459	7032
409.537	11487
409.614	11199
409.692	7349
409.769	6839
409.846	10401
409.924	16303
410.001	13766
410.079	8626
410.156	6618
410.233	6307
410.311	4101
410.388	4105
410.465	7313
410.543	8174
410.620	5124
410.697	4866
410.775	8083
410.852	3292
410.929	7672
411.006	12013
411.083	6355
411.161	18130
411.238	18960
411.315	7637
411.392	4669
411.469	9372
411.547	11706
411.624	5754
411.701	5155
411.778	6353
411.855	15777
411.932	10039
412.009	3787
412.086	4203
412.163	4732
412.240	5677
412.317	8207
412.394	7857
412.471	3195
412.548	2768
412.625	3374
412.702	6218
412.779	12955
412.856	9118
412.933	2475
413.010	3218
413.087	7341
413.164	39964
413.241	63911
413.318	17885
413.395	9721
413.471	15535
413.548	6619
413.625	4002
413.702	5632
413.779	4862
413.855	1505
413.932	1894
414.009	850
414.086	2487
414.162	2224
414.239	7529
414.316	36997
414.393	88573
414.469	35605
414.546	3442
414.623	1609
414.699	2859
414.776	4749
414.853	3375
414.929	3995
415.006	4194
415.082	3655
415.159	3328
415.236	3008
415.312	4349
415.389	10003
415.465	15031
415.542	8203
415.618	4682
415.695	9414
415.771	5898
415.848	4766
415.924	4927
416.000	4022
416.077	3061
416.153	440
416.230	1067
416.306	522
416.383	2068
416.459	2069
416.535	1324
416.612	1634
416.688	1923
416.764	2956
416.841	2253
416.917	2380
416.993	3254
417.069	4403
417.146	7045
417.222	9864
417.298	6379
417.374	2935
417.451	4369
417.527	6146
417.603	7985
417.679	5198
417.755	3983
417.831	1791
417.908	2341
417.984	1985
418.060	2090
418.136	11230
418.212	17160
418.288	6360
418.364	3392
418.440	2720
418.516	7579
418.592	8705
418.668	18226
418.744	32270
418.820	24221
418.896	5710
418.972	2276
419.048	3098
419.124	13259
419.200	11743
419.276	2754
419.352	1157
419.428	2205
419.504	3732
419.579	7151
419.655	3900
419.731	5089
419.807	18517
419.883	37471
419.959	26164
420.034	8082
420.110	13594
420.186	52341
420.262	46181
420.337	8494
420.413	6467
420.489	3246
420.565	3614
420.640	3046
420.716	3109
420.792	1853
420.867	4387
420.943	2502
421.019	9714
421.094	7168
421.170	3186
421.245	2218
421.321	3729
421.397	4757
421.472	7392
421.548	18803
421.623	17697
421.699	8687
421.774	8071
421.850	7027
421.925	12907
422.001	12798
422.076	8794
422.152	12449
422.227	19264
422.302	22653
422.378	31385
422.453	56543
422.529	125653
422.604	301435
422.679	428773
422.755	338423
422.830	154544
422.905	61698
422.981	34131
423.056	22747
423.131	16422
423.207	12976
423.282	12866
423.357	23035
423.432	17342
423.508	14034
423.583	31252
423.658	26847
423.733	8625
423.808	9288
423.883	10724
423.959	10667
424.034	7384
424.109	6681
424.184	3884
424.259	3494
424.334	2950
424.409	2152
424.484	2931
424.559	4125
424.634	3446
424.709	6743
424.784	8892
424.859	5679
424.934	9151
425.009	39293
425.084	67458
425.159	27212
425.234	4695
425.309	1707
425.384	3361
425.459	3756
425.534	2883
425.609	2730
425.683	2082
425.758	2627
425.833	3055
425.908	6024
425.983	23365
426.058	71566
426.132	34595
426.207	6035
426.282	6650
426.357	6434
426.431	2247
426.506	2561
426.581	1972
426.655	3221
426.730	2643
426.805	3065
426.879	4400
426.954	4969
427.029	10773
427.103	57375
427.178	135188
427.253	65817
427.327	7832
427.402	6032
427.476	11093
427.551	6194
427.625	3842
427.700	4091
427.774	2245
427.849	4146
427.923	1642
427.998	2865
428.072	2864
428.147	10235
428.221	40168
428.296	112650
428.370	65476
428.444	9701
428.519	9243
428.593	18682
428.667	15832
428.742	19169
428.816	20757
428.890	65814
428.965	108881
429.039	36570
429.113	21810
429.188	10122
429.262	3746
429.336	8686
429.410	31327
429.485	22040
429.559	15069
429.633	13698
429.707	4666
429.781	15371
429.855	77717
429.930	130862
430.004	66857
430.078	83109
430.152	81341
430.226	130674
430.300	144363
430.374	26796
430.448	9185
430.522	26550
430.596	77926
430.670	57665
430.744	122336
430.818	195355
430.892	45026
430.966	8288
431.040	3435
431.114	1670
431.188	1331
431.262	2283
431.336	2152
431.410	8830
431.484	25151
431.557	20662
431.631	3426
431.705	3468
431.779	20561
431.853	89893
431.927	74016
432.000	9571
432.074	2513
432.148	3135
432.222	3018
432.295	1460
432.369	1804
432.443	7037
432.516	46809
432.590	128204
432.664	53926
432.737	6430
432.811	1407
432.885	468
432.958	1570
433.032	1493
433.106	78
433.179	410
433.253	542
433.326	1869
433.400	357
433.473	1273
433.547	128
433.620	1848
433.694	6742
433.767	7511
433.841	2641
433.914	1243
433.988	309
434.061	1453
434.134	1321
434.208	1456
434.281	375
434.355	1157
434.428	1063
434.501	682
434.575	-70
434.648	1872
434.721	968
434.795	616
434.868	57
434.941	387
435.014	207
435.088	1617
435.161	2313
435.234	6995
435.307	10661
435.381	5071
435.454	2607
435.527	4615
435.600	5734
435.673	4760
435.746	2444
435.819	2495
435.892	2180
435.966	1176
436.039	1937
436.112	2233
436.185	287
436.258	247
436.331	608
436.404	18
436.477	355
436.550	149
436.623	133
436.696	818
436.769	1910
436.842	1730
436.915	1558
436.987	4224
437.060	1744
437.133	792
437.206	-605
437.279	1227
437.352	1217
437.425	697
437.498	2078
437.570	8082
437.643	9388
437.716	2297
437.789	1335
437.861	9122
437.934	27431
438.007	13745
438.080	2202
438.152	3305
438.225	8279
438.298	61509
438.370	174497
438.443	84795
438.516	26136
438.588	6016
438.661	1048
438.734	2792
438.806	2467
438.879	4937
438.951	7091
439.024	15234
439.096	5511
439.169	1623
439.241	-33
439.314	1111
439.386	2725
439.459	7468
439.531	13366
439.604	6510
439.676	1426
439.749	920
439.821	158
439.893	119
439.966	1222
440.038	3706
440.110	5265
440.183	1953
440.255	1333
440.327	4930
440.400	26565
440.472	113159
440.544	82997
440.617	11761
440.689	10372
440.761	14246
440.833	23613
440.905	16880
440.978	2420
441.050	899
441.122	1355
441.194	411
441.266	1214
441.338	1638
441.411	5384
441.483	38219
441.555	64402
441.627	15868
441.699	5974
441.771	5975
441.843	1391
441.915	1127
441.987	1146
442.059	1222
442.131	3899
442.203	5968
442.275	7425
442.347	7083
442.419	9866
442.491	48456
442.563	126846
442.635	63964
442.706	29255
442.778	24407
442.850	5171
442.922	3443
442.994	3467
443.066	7389
443.137	6000
443.209	5082
443.281	7455
443.353	17835
443.425	62241
443.496	213335
443.568	227679
443.640	91897
443.711	18130
443.783	7434
443.855	4423
443.926	2844
443.998	2574
444.070	4765
444.141	4237
444.213	9398
444.285	11305
444.356	8849
444.428	6461
444.499	3032
444.571	1522
444.642	2288
444.714	3775
444.785	8441
444.857	8468
444.928	17137
445.000	10281
445.071	11740
445.143	15356
445.214	11054
445.285	15933
445.357	46279
445.428	140332
445.500	318252
445.571	224894
445.642	121254
445.714	45375
445.785	34036
445.856	11678
445.928	11646
445.999	11945
446.070	10139
446.141	7801
446.213	11141
446.284	5827
446.355	4589
446.426	2670
446.497	3172
446.569	5062
446.640	11108
446.711	9657
446.782	2849
446.853	3773
446.924	5431
446.995	3942
447.066	4431
447.138	5345
447.209	3212
447.280	413
447.351	544
447.422	382
447.493	3005
447.564	5029
447.635	8945
447.706	3241
447.777	1518
447.847	-200
447.918	730
447.989	2415
448.060	4845
448.131	10745
448.202	12068
448.273	9671
448.344	3701
448.414	1741
448.485	2536
448.556	915
448.627	678
448.698	1586
448.768	972
448.839	1650
448.910	5927
448.981	6160
449.051	2486
449.122	909
449.193	467
449.263	992
449.334	1237
449.405	3509
449.475	11647
449.546	7849
449.616	6877
449.687	5231
449.758	2127
449.828	1612
449.899	1300
449.969	1069
450.040	1103
450.110	2212
450.181	3205
450.251	1384
450.322	1135
450.392	1614
450.463	1429
450.533	670
450.604	1228
450.674	790
450.744	1681
450.815	554
450.885	1266
450.955	1294
451.026	1611
451.096	1066
451.166	3064
451.237	6622
451.307	18262
451.377	7717
451.447	1669
451.518	1510
451.588	775
451.658	1866
451.728	3630
451.799	17815
451.869	21119
451.939	4571
452.009	1691
452.079	1869
452.149	2600
452.219	4995
452.289	21595
452.360	16708
452.430	4068
452.500	3435
452.570	5385
452.640	7762
452.710	18980
452.780	29739
452.850	24212
452.920	24557
452.990	8217
453.060	3922
453.129	6472
453.199	6609
453.269	22848
453.339	51947
453.409	81091
453.479	72157
453.549	112932
453.619	118638
453.688	48223
453.758	7046
453.828	2216
453.898	1878
453.968	2539
454.037	2104
454.087	2433
454.107	2545
454.168	1344
454.177	1140
454.247	1339
454.249	1390
454.316	1752
454.330	2098
454.386	3046
454.411	5856
454.456	9935
454.492	12869
454.525	15474
454.574	9097
454.595	6440
454.655	3285
454.665	2786
454.734	4103
454.736	4324
454.804	8014
454.817	10662
454.873	19329
454.898	21328
454.943	24567
454.979	16395
455.013	9478
455.060	6558
455.082	5582
455.141	6756
455.152	6796
455.221	17584
455.222	17975
455.291	30544
455.303	29012
455.360	21662
455.384	24878
455.430	27231
455.465	23539
455.499	20797
455.546	21026
455.569	20366
455.627	14358
455.638	13566
455.707	4419
455.708	4440
455.777	2586
455.789	2671
455.846	2979
455.869	3039
455.916	3023
455.950	3153
455.985	3218
456.031	3825
456.054	4045
456.112	3545
456.124	3497
456.193	2534
456.193	2495
456.262	3216
456.274	3747
456.332	5975
456.355	6258
456.401	5808
456.436	4668
456.470	3819
456.516	2804
456.540	2356
456.597	2799
456.609	2852
456.678	2382
456.678	2358
456.747	2887
456.759	2805
456.817	2490
456.840	2419
456.886	2239
456.920	2521
456.955	3063
457.001	3654
457.024	4196
457.082	6326
457.093	6660
457.162	9388
457.163	9453
457.232	8462
457.243	7819
457.301	4985
457.324	4119
457.370	3464
457.405	3601
457.439	3789
457.485	4281
457.508	4685
457.566	5497
457.577	5771
457.646	7926
457.647	8008
457.715	15611
457.727	16902
457.784	24190
457.808	29370
457.853	33491
457.889	36909
457.922	36877
457.969	28655
457.991	30139
458.050	37380
458.060	38588
458.129	58281
458.130	58948
458.198	49064
458.211	43297
458.267	27142
458.292	20351
458.336	16460
458.372	16475
458.405	21889
458.453	32277
458.474	39427
458.533	64268
458.543	65030
458.611	86670
458.614	87182
458.680	53567
458.694	41617
458.749	21363
458.775	15623
458.818	9716
458.855	8096
458.887	7152
458.936	6891
458.955	6730
459.016	6285
459.024	6308
459.093	6900
459.097	6972
459.162	7648
459.177	7756
459.230	9276
459.257	10698
459.299	11294
459.338	10973
459.368	11316
459.418	12851
459.437	12174
459.499	8692
459.505	8634
459.574	6921
459.579	6928
459.643	6601
459.659	6419
459.711	6728
459.740	7247
459.780	7700
459.820	8097
459.849	8378
459.900	8904
459.917	8685
459.981	7937
459.986	7944
460.054	8134
460.061	8113
460.123	9534
460.141	10216
460.191	12635
460.222	14092
460.260	14774
460.302	16342
460.328	15064
460.382	10770
460.397	10735
460.462	9947
460.465	10166
460.534	16931
460.543	17817
460.602	35097
460.623	41773
460.671	62459
460.703	79894
460.739	64847
460.783	43413
460.808	38299
460.864	13610
460.876	11519
460.944	7807
460.945	7764
461.013	8443
461.024	8508
461.081	9870
461.104	10851
461.150	9980
461.184	8523
461.218	8207
461.264	7806
461.286	7709
461.345	7751
461.355	7773
461.423	8135
461.425	8141
461.491	9653
461.505	10087
461.559	19221
461.585	23280
461.628	33915
461.665	44542
461.696	45048
461.745	48694
461.764	42691
461.825	15102
461.832	14791
461.901	11302
461.905	11329
461.969	9786
461.985	9307
462.037	9410
462.065	9611
462.105	11657
462.145	13734
462.173	17590
462.225	24896
462.241	26919
462.305	36845
462.310	35729
462.378	17824
462.385	15278
462.446	11257
462.465	10740
462.514	9755
462.545	9513
462.582	9529
462.625	9292
462.650	9067
462.705	8351
462.718	8695
462.785	11075
462.786	11156
462.854	15393
462.865	16187
462.922	18182
462.945	18981
462.990	14046
463.025	9555
463.058	9248
463.104	8677
463.126	8344
463.184	8420
463.194	8621
463.262	9497
463.264	9539
463.330	10140
463.344	10155
463.398	10830
463.424	11120
463.466	11124
463.504	11507
463.533	11987
463.583	12202
463.601	12695
463.663	14537
463.669	15056
463.737	21311
463.743	21873
463.805	30842
463.823	33392
463.873	47299
463.903	55833
463.940	53137
463.982	51432
464.008	41242
464.062	16133
464.076	15202
464.142	10117
464.144	10084
464.211	10356
464.221	10434
464.279	11553
464.301	12046
464.347	13523
464.381	14587
464.414	15489
464.461	16580
464.482	16593
464.540	16953
464.550	16700
464.617	14101
464.620	14003
464.685	17784
464.699	18605
464.753	19151
464.779	19467
464.820	20089
464.859	20413
464.888	19920
464.938	19176
464.956	19341
465.018	19617
465.023	19356
465.091	15686
465.098	15268
465.158	15097
465.177	15088
465.226	15394
465.257	15503
465.293	17186
465.336	19257
465.361	21851
465.416	27337
465.428	28708
465.495	36468
465.496	36636
465.563	53570
465.575	56508
465.631	59380
465.654	60805
465.698	38186
465.734	18236
465.765	16622
465.813	14214
465.833	14016
465.893	14158
465.900	14196
465.968	14284
465.972	14277
466.035	14789
466.052	14867
466.102	15291
466.131	15542
466.170	15640
466.210	15673
466.237	16204
466.290	17138
466.304	17245
466.369	17591
466.372	17652
466.439	18591
466.449	18683
466.506	22225
466.528	23571
466.573	35622
466.607	44546
466.641	61153
466.687	84151
466.708	88339
466.766	99622
466.775	92042
466.842	33671
466.845	30826
466.909	24542
466.925	23143
466.977	22228
467.004	21731
467.044	22070
467.083	22382
467.111	24624
467.163	28690
467.178	29079
467.242	30454
467.245	30433
467.312	28800
467.321	28533
467.379	27625
467.400	27211
467.446	29002
467.480	30202
467.559	24343
467.638	23080
467.717	24956
467.796	29923
467.875	34772
467.955	29074
468.034	48785
468.113	93298
468.192	117855
468.271	30202
468.350	29004
468.429	33473
468.508	33886
468.588	25795
468.667	24677
468.746	26255
468.825	24802
468.904	21977
468.983	27915
469.062	40700
469.141	43973
469.220	20770
469.299	20760
469.378	22346
469.456	26904
469.535	23309
469.614	22742
469.693	26085
469.772	32856
469.851	43909
469.930	28519
470.009	24480
470.088	26198
470.166	35359
470.245	53042
470.324	61900
470.403	39508
470.482	29004
470.560	25959
470.639	27669
470.718	33766
470.797	24743
470.875	29720
470.954	39446
471.033	37324
471.111	17420
471.190	16282
471.269	17052
471.347	18036
471.426	20376
471.505	22033
471.583	22438
471.662	21386
471.740	18899
471.819	18847
471.898	18005
471.976	18484
472.055	19783
472.133	23377
472.212	28567
472.290	27597
472.369	19066
472.447	17896
472.526	17149
472.604	19737
472.683	22171
472.761	23477
472.839	21119
472.918	20318
472.996	20139
473.075	23264
473.153	20577
473.231	19135
473.310	23829
473.388	22742
473.466	21721
473.545	27661
473.623	39934
473.701	34259
473.780	19843
473.858	19978
473.936	21722
474.014	19956
474.093	24362
474.171	34645
474.249	44507
474.327	24421
474.405	17882
474.484	19972
474.562	19575
474.640	18895
474.718	20117
474.796	18953
474.874	17420
474.952	16928
475.030	16894
475.108	17839
475.187	20653
475.265	23146
475.343	32883
475.421	33346
475.499	18023
475.577	19744
475.655	29844
475.733	56827
475.811	89187
475.889	79339
475.966	40844
476.044	19909
476.122	26444
476.200	33559
476.278	22977
476.356	17471
476.434	19726
476.512	24446
476.590	34120
476.667	24971
476.745	16184
476.823	19823
476.901	18330
476.979	17702
477.056	17889
477.134	18579
477.212	20886
477.290	19083
477.367	15923
477.445	16006
477.523	15826
477.601	16487
477.678	18076
477.756	21420
477.834	22138
477.911	16525
477.989	16145
478.066	15653
478.144	20836
478.222	25543
478.299	41070
478.377	30111
478.454	15513
478.532	16039
478.609	19148
478.687	19792
478.764	15973
478.842	19345
478.919	22283
478.997	18372
479.074	15875
479.152	19632
479.229	24474
479.307	14810
479.384	13657
479.461	14106
479.539	14854
479.616	19447
479.694	15956
479.771	19417
479.848	19904
479.926	27732
480.003	26542
480.080	15489
480.157	15353
480.235	14433
480.312	14994
480.389	19257
480.467	32009
480.544	35167
480.621	19240
480.698	19627
480.775	21641
480.853	20307
480.930	15581
481.007	17571
481.084	20752
481.161	21522
481.238	18215
481.315	14144
481.392	14119
481.470	16353
481.547	15804
481.624	14380
481.701	15014
481.778	16027
481.855	18612
481.932	30155
482.009	48658
482.086	26976
482.163	20105
482.240	32143
482.317	52044
482.393	31460
482.470	16939
482.547	18009
482.624	16561
482.701	18926
482.778	16708
482.855	13319
482.932	14331
483.009	15264
483.085	19664
483.162	24938
483.239	22513
483.316	17057
483.393	16782
483.469	16265
483.546	19449
483.623	19807
483.699	16168
483.776	17382
483.853	20517
483.930	34415
484.006	78465
484.083	115505
484.160	54337
484.236	73491
484.313	54908
484.389	43019
484.466	39072
484.543	39806
484.619	40742
484.696	44846
484.772	43660
484.849	43393
484.925	35170
485.002	37079
485.078	40779
485.155	41276
485.231	32863
485.308	33689
485.384	35948
485.461	50211
485.537	80859
485.614	79227
485.690	34858
485.766	34176
485.843	43873
485.919	67776
485.995	62606
486.072	31304
486.148	30280
486.224	31220
486.301	35082
486.377	43266
486.453	46177
486.530	37917
486.606	47593
486.682	52687
486.758	67331
486.835	74890
486.911	66807
486.987	116696
487.063	144877
487.139	186220
487.215	111527
487.292	43241
487.368	37362
487.444	48657
487.520	64809
487.596	63494
487.672	112563
487.748	277301
487.824	344845
487.900	95340
487.976	50741
488.052	51730
488.128	63896
488.204	44431
488.280	35932
488.356	49086
488.432	98565
488.508	127941
488.584	42711
488.660	34589
488.736	34140
488.812	39839
488.888	54040
488.964	91044
489.039	216191
489.115	288078
489.191	122331
489.267	35486
489.343	30597
489.418	25644
489.494	26670
489.570	24665
489.646	27179
489.722	27281
489.797	31609
489.873	53606
489.949	104053
490.024	68278
490.100	26943
490.176	29309
490.251	43240
490.327	56108
490.403	27556
490.478	24402
490.554	21882
490.629	23262
490.705	23185
490.781	26730
490.856	25658
490.932	32865
491.007	33956
491.083	29597
491.158	26781
491.234	40970
491.309	79878
491.385	66559
491.460	26477
491.536	29499
491.611	26757
491.686	33839
491.762	58160
491.837	136416
491.913	212581
491.988	304937
492.063	315028
492.139	63960
492.214	34385
492.289	22390
492.365	25610
492.440	28374
492.515	27769
492.590	25912
492.666	21779
492.741	34845
492.816	44301
492.891	22722
492.967	20406
493.042	19714
493.117	19942
493.192	25069
493.267	47165
493.342	113624
493.418	111162
493.493	22269
493.568	17283
493.643	19989
493.718	29637
493.793	49905
493.868	53259
493.943	30798
494.018	21053
494.093	18743
494.168	19616
494.243	17938
494.318	16192
494.393	17470
494.468	17448
494.543	19933
494.618	24560
494.693	19471
494.768	19115
494.842	19257
494.917	17014
494.992	19454
495.067	17058
495.142	17220
495.217	20526
495.292	19637
495.366	24515
495.441	29400
495.516	42543
495.591	93499
495.665	323327
495.740	620932
495.815	158665
495.890	29041
495.964	22546
496.039	23878
496.114	22579
496.188	24815
496.263	24059
496.338	21835
496.412	26853
496.487	30487
496.561	36908
496.636	34647
496.710	25374
496.785	29958
496.860	31089
496.934	25221
497.009	26862
497.083	24276
497.158	24565
497.232	32236
497.307	37252
497.381	29871
497.455	36609
497.530	44864
497.604	31247
497.679	34553
497.753	55755
497.827	66629
497.902	58248
497.976	82398
498.050	238307
498.125	722746
498.199	527930
498.273	99242
498.348	78042
498.422	60222
498.496	62457
498.570	50083
498.645	33601
498.719	34985
498.793	44637
498.867	72464
498.941	112709
499.016	332598
499.090	694854
499.164	152604
499.238	26149
499.312	28572
499.386	38082
499.460	31146
499.534	27704
499.609	36033
499.683	50637
499.757	57572
499.831	161233
499.905	505361
499.979	331755
500.053	63700
500.127	71618
500.201	57163
500.275	30274
500.349	28806
500.422	36811
500.496	71857
500.570	166505
500.644	317987
500.718	441025
500.792	65949
500.866	28126
500.940	33646
501.013	27179
501.087	35067
501.161	67621
501.235	84339
501.309	186268
501.382	441702
501.456	283883
501.530	85906
501.603	124946
501.677	37315
501.751	22834
501.825	34674
501.898	68629
501.972	167226
502.046	75153
502.119	36061
502.193	92940
502.266	176934
502.340	67961
502.413	87938
502.487	144452
502.561	74749
502.634	28431
502.708	28823
502.781	23950
502.855	18368
502.928	14930
503.002	15983
503.075	14173
503.149	17026
503.222	15729
503.295	18858
503.369	24699
503.442	46502
503.516	152617
503.589	309178
503.662	158352
503.736	66448
503.809	149947
503.882	110213
503.956	180489
504.029	149398
504.102	165273
504.175	176326
504.249	54520
504.322	33793
504.395	26602
504.468	18875
504.542	18132
504.615	13925
504.688	14010
504.761	15582
504.834	22503
504.907	35577
504.980	50380
505.053	23713
505.127	33734
505.200	30917
505.273	26583
505.346	15307
505.419	14222
505.492	12555
505.565	10580
505.638	11303
505.711	12017
505.784	10891
505.857	11169
505.930	12624
506.003	13035
506.076	15525
506.149	20070
506.221	23459
506.294	29132
506.367	83504
506.440	221873
506.513	86253
506.586	24839
506.659	16074
506.731	16526
506.804	24649
506.877	33267
506.950	17559
507.022	13560
507.095	20562
507.168	23010
507.241	16215
507.313	13943
507.386	20349
507.459	30507
507.531	16067
507.604	13507
507.677	13126
507.749	11949
507.822	22598
507.894	44492
507.967	37234
508.040	19265
508.112	17347
508.185	16412
508.257	20715
508.330	29980
508.402	17150
508.475	16108
508.547	17261
508.620	19502
508.692	28991
508.765	16910
508.837	13427
508.909	13734
508.982	14773
509.054	20493
509.127	14914
509.199	12925
509.271	12437
509.344	12275
509.416	13351
509.488	13933
509.560	15309
509.633	18592
509.705	20513
509.777	20615
509.849	31448
509.922	16708
509.994	12548
510.066	13490
510.138	16503
510.210	28869
510.283	25617
510.355	20492
510.427	18187
510.499	17882
510.571	18641
510.643	21267
510.715	38994
510.787	28615
510.859	20660
510.931	27108
511.003	36296
511.076	27083
511.148	15754
511.219	17632
511.291	30192
511.363	29045
511.435	14748
511.507	14632
511.579	15589
511.651	15657
511.723	14555
511.795	14402
511.867	15529
511.939	22762
512.010	44768
512.082	28910
512.154	17839
512.226	17767
512.298	30082
512.369	37761
512.441	32071
512.513	34077
512.585	24067
512.656	25338
512.728	26530
512.800	19283
512.871	19431
512.943	19232
513.015	16440
513.086	21133
513.158	24148
513.230	27470
513.301	46983
513.373	45924
513.444	22886
513.516	17862
513.588	19820
513.659	23758
513.731	32765
513.802	32580
513.874	79446
513.945	112497
514.016	27214
514.088	19488
514.159	24706
514.231	35482
514.302	36193
514.374	24487
514.445	26681
514.516	49657
514.588	30647
514.659	25853
514.730	44076
514.802	34081
514.873	25350
514.944	23505
515.016	24242
515.087	29384
515.158	37256
515.229	38893
515.301	24499
515.372	27387
515.443	20184
515.514	18227
515.585	17006
515.656	19133
515.728	18053
515.799	17571
515.870	20531
515.941	21032
516.012	21737
516.083	28863
516.154	36126
516.225	49807
516.296	41183
516.367	35313
516.438	44167
516.509	64790
516.580	122595
516.651	401037
516.722	1042577
516.793	296302
516.864	68891
516.935	65560
517.006	84541
517.077	153507
517.148	411879
517.219	1329322
517.289	1395028
517.360	303350
517.431	77020
517.502	36416
517.573	34000
517.643	33717
517.714	35142
517.785	38277
517.856	39564
517.926	47238
517.997	56456
518.068	78386
518.138	123738
518.209	268563
518.280	983527
518.350	2356513
518.421	620240
518.492	82316
518.562	54629
518.633	54137
518.703	60097
518.774	112872
518.845	239283
518.915	176350
518.986	62656
519.056	59199
519.127	113314
519.197	161102
519.268	262052
519.338	111484
519.408	43755
519.479	63253
519.549	39841
519.620	24345
519.690	18888
519.760	20222
519.831	23469
519.901	20383
519.971	17581
520.042	20680
520.112	24677
520.182	31750
520.253	30597
520.323	19424
520.393	22144
520.463	26428
520.534	21858
520.604	33187
520.674	21854
520.744	26529
520.814	46443
520.885	49409
520.955	99209
521.025	263862
521.095	67299
521.165	19223
521.235	18485
521.305	16920
521.375	17370
521.445	22862
521.515	34261
521.585	39126
521.655	31924
521.725	28768
521.795	21833
521.865	14850
521.935	28074
522.005	20192
522.075	15074
522.145	18534
522.215	21984
522.285	30596
522.355	45278
522.424	77952
522.494	59094
522.564	44944
522.634	119198
522.704	264711
522.774	65579
522.843	20174
522.913	22863
522.983	31500
523.053	22211
523.122	26825
523.192	54012
523.262	177986
523.331	113289
523.401	22013
523.471	15406
523.540	17876
523.610	12548
523.680	13055
523.749	14246
523.819	19463
523.888	17698
523.958	13353
524.027	14866
524.097	16389
524.166	15646
524.236	20170
524.305	17295
524.375	13911
524.444	13298
524.514	15564
524.583	15955
524.653	20485
524.722	21066
524.791	13900
524.861	15714
524.930	14332
524.999	18746
525.069	25788
525.138	19483
525.207	21188
525.277	15698
525.346	17072
525.415	15963
525.484	18140
525.554	21547
525.623	19320
525.692	19737
525.761	20409
525.830	22818
525.900	29722
525.969	49716
526.038	85314
526.107	196540
526.176	449718
526.245	286444
526.314	124284
526.383	265991
526.452	307273
526.522	564822
526.591	405933
526.660	142055
526.729	70793
526.797	100722
526.867	260978
526.935	868225
527.004	1191413
527.073	429107
527.142	42478
527.211	26235
527.280	31767
527.349	27884
527.418	15228
527.487	16313
527.555	13465
527.624	12420
527.693	11269
527.762	14710
527.831	12483
527.899	12897
527.968	14258
528.037	15206
528.106	24237
528.174	44776
528.243	30194
528.312	53675
528.380	56974
528.449	15548
528.518	13126
528.586	10109
528.655	11116
528.723	9976
528.792	10129
528.861	12886
528.929	9900
528.998	11468
529.066	10610
529.135	9680
529.203	9851
529.272	9543
529.340	11022
529.409	12998
529.477	11203
529.545	14267
529.614	16955
529.682	18784
529.751	19639
529.819	20748
529.887	14187
529.956	11936
530.024	12622
530.092	11809
530.161	20057
530.229	32464
530.297	14391
530.365	11840
530.434	9993
530.502	9897
530.570	10891
530.638	8946
530.707	13716
530.775	14203
530.843	10849
530.911	10475
530.979	10783
531.047	10947
531.115	10930
531.183	11035
531.252	11293
531.320	11347
531.388	9994
531.456	12159
531.524	10089
531.592	13122
531.660	13496
531.728	11348
531.796	10913
531.864	11421
531.932	12618
532.000	12186
532.067	13138
532.135	15151
532.203	20262
532.271	23556
532.339	51268
532.407	123761
532.475	49785
532.542	24594
532.610	33070
532.678	63034
532.746	251587
532.814	416897
532.881	75736
532.949	16670
533.017	14965
533.084	12752
533.152	12246
533.220	14229
533.287	16462
533.355	13021
533.423	12277
533.490	11539
533.558	12452
533.625	12935
533.693	14811
533.761	14600
533.828	16392
533.896	19217
533.963	42850
534.031	46576
534.098	60520
534.166	21713
534.233	13166
534.300	15713
534.368	15523
534.435	14883
534.503	14423
534.570	16194
534.637	17329
534.705	20632
534.772	30627
534.840	63743
534.907	236829
534.974	192835
535.041	25316
535.109	20118
535.176	13783
535.243	14540
535.310	16802
535.378	12818
535.445	12825
535.512	12042
535.579	13004
535.646	12847
535.714	14427
535.781	16855
535.848	16089
535.915	15813
535.982	13815
536.049	13625
536.116	16067
536.183	15091
536.250	17310
536.317	18924
536.384	24886
536.451	38736
536.518	34140
536.585	24175
536.652	32675
536.719	49756
536.786	35335
536.853	27681
536.920	47304
536.987	76346
537.053	81523
537.120	267934
537.187	145382
537.254	19063
537.321	15987
537.388	17434
537.454	13601
537.521	14092
537.588	14037
537.654	17228
537.721	18544
537.788	18789
537.855	15182
537.921	16898
537.988	17567
538.055	17735
538.121	18460
538.188	23858
538.254	43067
538.321	78348
538.388	35095
538.454	18349
538.521	16461
538.587	14882
538.654	14599
538.720	14510
538.787	15582
538.853	18274
538.920	24003
538.986	21165
539.053	17700
539.119	20209
539.185	19843
539.252	26450
539.318	40043
539.385	24668
539.451	22207
539.517	25151
539.583	35091
539.650	90293
539.716	161907
539.782	35980
539.849	18896
539.915	19152
539.981	21980
540.047	25291
540.114	22365
540.180	23389
540.246	25279
540.312	41435
540.378	82780
540.444	69615
540.510	94401
540.576	188438
540.643	41055
540.709	16642
540.775	18005
540.841	18513
540.907	26668
540.973	33956
541.039	40016
541.105	38620
541.171	19959
541.237	19265
541.303	22328
541.369	26819
541.435	41229
541.500	66851
541.566	33778
541.632	17089
541.698	16217
541.764	16984
541.830	17400
541.896	15718
541.961	17067
542.027	17318
542.093	18253
542.159	21253
542.224	26188
542.290	40102
542.356	70649
542.421	66421
542.487	27060
542.553	19590
542.618	21452
542.684	19103
542.750	22351
542.815	30854
542.881	59899
542.947	187361
543.012	90232
543.078	17364
543.143	17171
543.209	20148
543.274	22000
543.340	30625
543.405	76498
543.471	88828
543.536	20470
543.602	17550
543.667	15081
543.732	17017
543.798	15153
543.863	16851
543.928	15559
543.994	14475
544.059	16792
544.124	16185
544.190	16936
544.255	17582
544.320	18053
544.386	22644
544.451	33533
544.516	38907
544.581	44893
544.646	129022
544.712	138717
544.777	25378
544.842	20481
544.907	21972
544.972	18462
545.037	19666
545.102	20966
545.168	20269
545.233	23426
545.298	25958
545.363	31043
545.428	39710
545.493	79218
545.558	137648
545.623	41416
545.688	21672
545.753	21187
545.818	21372
545.883	21702
545.947	21226
546.012	24072
546.077	24527
546.142	25063
546.207	27921
546.272	38784
546.337	35721
546.401	27541
546.466	25159
546.531	24693
546.596	28805
546.661	28183
546.725	26908
546.790	25679
546.855	27806
546.919	27415
546.984	31337
547.049	34967
547.113	41100
547.178	38310
547.243	46410
547.307	52173
547.372	60103
547.436	58897
547.501	55453
547.565	58720
547.630	66477
547.695	59242
547.759	59648
547.823	53007
547.888	51571
547.952	53103
548.017	56512
548.081	64375
548.146	68905
548.210	61613
548.274	59147
548.339	57044
548.403	52638
548.468	49468
548.532	50107
548.596	51566
548.660	53715
548.725	60542
548.789	68459
548.853	63464
548.917	58344
548.982	65388
549.046	57284
549.110	46602
549.174	48900
549.238	54237
549.303	57165
549.367	59072
549.431	55261
549.495	54685
549.559	54588
549.623	64860
549.687	73710
549.751	84390
549.815	80777
549.879	76192
549.943	73279
550.007	78347
550.071	78795
550.135	80408
550.199	70005
550.263	66714
550.327	69122
550.391	75512
550.455	72616
550.519	76353
550.582	83394
550.646	104996
550.710	98769
550.774	87375
550.838	89070
550.901	90461
550.965	97268
551.029	104026
551.093	114909
551.156	136631
551.220	187883
551.284	189425
551.347	129337
551.411	158275
551.475	139545
551.538	93950
551.602	84684
551.666	82166
551.729	76310
551.793	77030
551.856	75484
551.920	74284
551.983	74012
552.047	72713
552.110	74768
552.174	74954
552.237	75362
552.301	70247
552.364	68667
552.428	66617
552.491	70670
552.554	72644
552.618	74549
552.681	77587
552.745	83532
552.808	117309
552.871	133492
552.934	89040
552.998	74333
553.061	72236
553.124	67036
553.187	67565
553.251	70460
553.314	70833
553.377	72954
553.440	84932
553.503	119720
553.567	120547
553.630	76505
553.693	71974
553.756	73279
553.819	70506
553.882	69619
553.945	70002
554.008	69338
554.071	69142
554.134	69522
554.197	66349
554.260	66083
554.323	69981
554.386	70512
554.449	70595
554.512	70092
554.575	66849
554.638	69386
554.701	67344
554.764	65421
554.827	62877
554.889	60395
554.952	58110
555.015	57697
555.078	58265
555.141	57808
555.203	57684
555.266	57817
555.329	58532
555.391	57164
555.454	59236
555.517	56330
555.580	51038
555.642	49791
555.705	49328
555.768	50175
555.830	48801
555.893	46167
555.955	45602
556.018	46177
556.080	45969
556.143	46868
556.206	46672
556.268	48411
556.330	48588
556.393	46854
556.455	47071
556.518	56598
556.580	51436
556.643	40866
556.705	40355
556.767	39750
556.830	41948
556.892	47364
556.955	66753
557.017	46767
557.079	39981
557.142	42273
557.204	50277
557.266	85209
557.328	57320
557.391	34096
557.453	33187
557.515	35398
557.577	43792
557.639	41042
557.701	33639
557.764	33170
557.826	33773
557.888	38422
557.950	40265
558.012	49113
558.074	69148
558.136	155780
558.198	275773
558.260	76745
558.322	41662
558.384	43241
558.446	48124
558.508	57920
558.570	78887
558.632	136626
558.694	190752
558.756	246313
558.818	682155
558.880	1161764
558.942	304535
559.003	293057
559.065	104822
559.127	55908
559.189	61634
559.251	85325
559.312	138706
559.374	337196
559.436	842697
559.498	269699
559.559	60295
559.621	61367
559.683	87543
559.744	158516
559.806	471744
559.868	483758
559.929	82247
559.991	72530
560.052	125935
560.114	296088
560.176	151284
560.237	195048
560.299	231141
560.360	44644
560.422	27123
560.483	25809
560.545	24390
560.606	24125
560.667	22665
560.729	21648
560.790	20923
560.852	22707
560.913	20746
560.974	21274
561.036	21663
561.097	22023
561.158	22728
561.220	23875
561.281	23816
561.342	25714
561.403	33514
561.465	46521
561.526	108243
561.587	106231
561.648	28330
561.709	21724
561.771	21626
561.832	20502
561.893	20783
561.954	21182
562.015	20933
562.076	20750
562.137	20813
562.198	21312
562.259	21803
562.320	23845
562.381	28343
562.442	38367
562.503	27721
562.564	21788
562.625	21266
562.686	21378
562.747	25148
562.808	21357
562.869	21306
562.930	23885
562.991	21920
563.051	21525
563.112	20088
563.173	19228
563.234	19364
563.294	20262
563.355	20846
563.416	21599
563.477	19680
563.537	21949
563.598	22062
563.659	20712
563.720	20734
563.780	22250
563.841	22203
563.901	20013
563.962	20308
564.023	20393
564.083	20629
564.144	21039
564.204	21451
564.265	21389
564.325	25926
564.386	44133
564.446	31806
564.507	20016
564.567	19592
564.628	19292
564.688	20095
564.749	20163
564.809	23317
564.869	24689
564.930	20968
564.990	20176
565.050	18936
565.111	19896
565.171	19012
565.231	19973
565.292	19615
565.352	19422
565.412	20873
565.472	21713
565.532	22637
565.593	21146
565.653	20400
565.713	22670
565.773	24000
565.833	30312
565.893	34628
565.953	21964
566.013	21568
566.074	22241
566.134	27948
566.194	42056
566.254	40198
566.314	25785
566.374	21516
566.434	21452
566.494	21379
566.554	21315
566.614	21700
566.673	22626
566.733	23863
566.793	23884
566.853	24206
566.913	23473
566.973	24572
567.033	26593
567.092	27639
567.152	24328
567.212	24269
567.272	25480
567.331	26547
567.391	26081
567.451	29007
567.511	34900
567.570	32432
567.630	24445
567.690	24609
567.749	23754
567.809	26421
567.868	28471
567.928	29845
567.988	32985
568.047	36587
568.107	42898
568.166	55173
568.226	83110
568.285	99873
568.345	79043
568.404	64015
568.464	54506
568.523	51975
568.582	56779
568.642	64952
568.701	81680
568.761	118010
568.820	174711
568.879	148830
568.939	108630
568.998	78640
569.057	60112
569.116	48431
569.176	41762
569.235	36542
569.294	33566
569.353	30453
569.413	29585
569.472	27629
569.531	26327
569.590	25476
569.649	23122
569.708	24262
569.767	25795
569.827	32757
569.886	25400
569.945	21235
570.004	21919
570.063	21992
570.122	24633
570.181	25305
570.240	26484
570.299	27472
570.358	30390
570.417	21286
570.475	20558
570.534	22597
570.593	24423
570.652	26230
570.711	24811
570.770	22240
570.829	24672
570.887	23992
570.946	26579
571.005	20340
571.064	21575
571.122	23960
571.181	23610
571.240	19803
571.299	18932
571.357	20945
571.416	20788
571.475	24063
571.533	23474
571.592	21156
571.650	20469
571.709	19821
571.768	21214
571.826	18826
571.885	18189
571.943	17445
572.002	17948
572.060	18788
572.119	18198
572.177	16806
572.236	16781
572.294	17611
572.352	17675
572.411	17620
572.469	17284
572.528	18983
572.586	19670
572.644	24538
572.703	30103
572.761	20468
572.819	18153
572.877	15801
572.936	16516
572.994	16150
573.052	17506
573.110	19520
573.169	17826
573.227	17174
573.285	16538
573.343	17554
573.401	17897
573.459	16437
573.517	17393
573.576	16362
573.634	18015
573.692	20032
573.750	18413
573.808	16557
573.866	17970
573.924	21659
573.982	20882
574.040	17115
574.098	16809
574.155	16463
574.213	16478
574.271	17032
574.329	17593
574.387	16555
574.445	15808
574.503	15301
574.560	15398
574.618	14577
574.676	15157
574.734	15616
574.792	16061
574.849	14594
574.907	14650
574.965	14116
575.022	14303
575.080	13653
575.138	15202
575.195	15755
575.253	16941
575.311	17304
575.368	15686
575.426	14636
575.483	14305
575.541	14590
575.598	14854
575.656	15956
575.713	14366
575.771	13797
575.828	14633
575.886	14634
575.943	14466
576.001	15575
576.058	16194
576.115	17184
576.173	19638
576.230	21940
576.287	25337
576.345	18698
576.402	16174
576.459	16795
576.517	16428
576.574	17651
576.631	17923
576.688	15992
576.746	16387
576.803	15839
576.860	14274
576.917	15518
576.974	15442
577.031	15152
577.089	15667
577.146	15911
577.203	16745
577.260	17441
577.317	17654
577.374	18847
577.431	18113
577.488	16305
577.545	14647
577.602	14941
577.659	14890
577.716	14983
577.773	15802
577.830	14578
577.886	15892
577.943	14039
578.000	15008
578.057	16215
578.114	15502
578.171	15118
578.227	16007
578.284	14931
578.341	15173
578.398	16330
578.454	17957
578.511	18719
578.568	20479
578.625	17691
578.681	14994
578.738	14942
578.794	16184
578.851	15413
578.908	16379
578.964	18469
579.021	17461
579.077	16575
579.134	16073
579.190	15698
579.247	16146
579.303	16586
579.360	14995
579.416	15637
579.473	14090
579.529	14526
579.586	15505
579.642	15808
579.698	15166
579.755	17013
579.811	16855
579.867	15619
579.924	15433
579.980	15378
580.036	16421
580.093	16494
580.149	16671
580.205	16732
580.261	17276
580.317	17145
580.374	18788
580.430	20408
580.486	18927
580.542	15966
580.598	17317
580.619	17485
580.654	17795
580.692	17639
580.710	17590
580.765	17085
580.767	17086
580.823	17132
580.838	17150
580.879	17241
580.911	16937
580.935	16753
580.984	15776
580.991	15658
581.047	17332
581.057	17335
581.103	17380
581.130	16978
581.159	16593
581.203	17578
581.215	17855
581.270	16484
581.276	16492
581.326	16633
581.349	16663
581.382	16734
581.422	17047
581.438	17205
581.494	17872
581.494	17850
581.550	16487
581.567	17064
581.606	18352
581.640	18180
581.661	18048
581.713	18358
581.717	18392
581.773	16991
581.786	16951
581.829	17018
581.859	17140
581.885	17196
581.932	18059
581.940	18229
581.996	18032
582.004	17884
582.052	17024
582.077	16977
582.107	16957
582.150	17114
582.163	17168
582.219	17312
582.223	17358
582.274	18087
582.296	18016
582.330	17861
582.368	18384
582.386	18617
582.441	17427
582.441	17428
582.497	17703
582.514	17663
582.552	17807
582.587	18658
582.608	19086
582.659	18261
582.663	18201
582.719	18304
582.732	18153
582.774	17876
582.805	18703
582.830	19263
582.877	18546
582.885	18442
582.941	18298
582.950	18347
582.996	18642
583.023	19047
583.052	19510
583.095	19418
583.107	19378
583.162	19670
583.168	19622
583.218	19217
583.240	19393
583.273	19521
583.313	19189
583.328	19128
583.384	18891
583.385	18853
583.439	17793
583.458	18147
583.494	18675
583.531	18566
583.549	18520
583.603	19290
583.605	19319
583.660	18844
583.676	19006
583.715	19378
583.748	19463
583.770	19586
583.820	19973
583.825	19994
583.881	20124
583.893	19953
583.936	19299
583.965	18954
583.991	18639
584.038	19146
584.046	19287
584.101	20046
584.110	20048
584.156	19811
584.183	19810
584.211	19779
584.255	19961
584.266	20035
584.321	19104
584.328	19186
584.376	20361
584.400	20711
584.431	20717
584.472	19986
584.486	19788
584.541	21489
584.545	21446
584.596	20589
584.617	20615
584.651	21144
584.689	22304
584.706	22583
584.761	22399
584.762	22396
584.816	22817
584.834	23332
584.871	24053
584.906	24062
584.926	24043
584.978	23900
584.980	23921
585.035	25279
585.051	25727
585.090	26760
585.123	27607
585.145	28205
585.195	28821
585.200	28938
585.254	31111
585.267	31983
585.309	34723
585.340	37012
585.364	38683
585.412	42451
585.419	43114
585.473	50625
585.484	53120
585.528	65903
585.556	77508
585.583	96091
585.628	137466
585.637	152750
585.692	311411
585.700	331629
585.747	407208
585.772	340241
585.801	201468
585.845	81501
585.856	67917
585.910	44298
585.917	41853
585.965	37098
585.989	35329
586.019	34233
586.061	33834
586.074	33923
586.128	33867
586.133	33925
586.183	35539
586.205	35857
586.237	35611
586.277	35056
586.292	34852
586.346	33990
586.349	34016
586.401	35532
586.421	35900
586.455	36509
586.493	37656
586.509	39259
586.564	46330
586.565	46620
586.618	63703
586.637	64076
586.672	54646
586.709	45779
586.727	43690
586.781	43447
586.781	43466
586.835	40293
586.853	39584
586.889	39166
586.925	39336
586.944	39584
586.996	40185
586.998	40240
587.052	41559
587.068	41917
587.106	42709
587.140	43011
587.161	43330
587.212	45004
587.215	45125
587.269	46490
587.284	46959
587.323	48167
587.356	48957
587.377	49692
587.427	51722
587.431	51809
587.485	52242
587.499	52335
587.539	54180
587.571	55807
587.593	57193
587.643	60701
587.648	61022
587.702	63560
587.715	64195
587.755	67292
587.786	69953
587.810	71634
587.858	74489
587.864	75041
587.917	80986
587.930	82332
587.971	88181
588.001	92427
588.025	95534
588.073	101940
588.079	103103
588.133	113575
588.145	115835
588.187	126382
588.217	134426
588.241	142032
588.288	157891
588.295	160643
588.348	185345
588.360	190659
588.402	214093
588.431	231717
588.456	248828
588.503	285786
588.510	292744
588.564	353395
588.575	367859
588.617	438819
588.646	493038
588.671	558899
588.718	698716
588.725	732147
588.778	1013820
588.789	1076934
588.832	1441747
588.861	1703236
588.886	1877821
588.932	2104986
588.939	2098899
588.993	1954669
589.004	1942625
589.047	1923062
589.075	1814153
589.100	1555006
589.147	1087360
589.154	1048185
589.207	789365
589.218	741645
589.261	683441
589.290	655700
589.314	679201
589.361	740572
589.368	768406
589.421	1021608
589.433	1082275
589.475	1460837
589.504	1724844
589.528	1837812
589.576	1943095
589.582	1921650
589.635	1711020
589.647	1640685
589.689	1162071
589.718	845360
589.742	704434
589.790	455543
589.795	442862
589.849	334033
589.861	310301
589.902	269551
589.932	239058
589.955	219590
590.004	180105
590.009	178041
590.062	156364
590.075	150912
590.115	139233
590.146	130303
590.168	125831
590.218	116072
590.222	115615
590.275	108033
590.289	105949
590.328	101266
590.360	97205
590.381	94869
590.431	89328
590.435	89186
590.488	85093
590.503	83855
590.541	82572
590.574	81125
590.594	79661
590.645	75881
590.647	75884
590.700	73218
590.716	72300
590.753	70713
590.787	69172
590.806	68594
590.859	66898
590.859	66974
590.912	66036
590.930	65777
590.965	64740
591.001	63377
591.018	63151
591.071	62150
591.072	62052
591.124	62488
591.143	62401
591.177	61841
591.214	61303
591.230	61789
591.283	62916
591.285	62862
591.336	62207
591.356	61900
591.389	62097
591.427	61732
591.442	60847
591.495	57553
591.498	57213
591.547	56271
591.569	55772
591.600	55455
591.640	54851
591.653	54966
591.706	55125
591.711	55056
591.759	55375
591.782	55525
591.811	56748
591.853	58226
591.864	57842
591.917	55141
591.924	54715
591.969	54548
591.995	54272
592.022	54741
592.066	55303
592.075	55736
592.127	57936
592.137	58265
592.180	61078
592.208	62634
592.233	60031
592.279	54812
592.285	54780
592.338	53853
592.350	53569
592.390	53593
592.421	53455
592.443	53164
592.491	52284
592.495	52368
592.548	52476
592.562	52428
592.600	52998
592.633	53341
592.653	52811
592.704	50919
592.705	51218
592.775	51596
592.846	53769
592.916	54978
592.987	57444
593.058	54685
593.128	50672
593.199	50778
593.270	50525
593.341	51501
593.411	51170
593.482	52429
593.553	52169
593.623	50680
593.694	51444
593.764	53670
593.835	52535
593.906	50903
593.976	51280
594.047	53578
594.117	58519
594.188	58154
594.258	53374
594.329	51580
594.399	53064
594.470	53103
594.540	53848
594.611	53428
594.681	55234
594.751	54732
594.822	57628
594.892	57009
594.963	58292
595.033	57302
595.103	59976
595.174	63088
595.244	72317
595.314	80299
595.384	61891
595.455	60787
595.525	62970
595.595	63347
595.665	65362
595.736	62664
595.806	62684
595.876	62993
595.946	62598
596.016	64297
596.087	65698
596.157	67280
596.227	65219
596.297	69828
596.367	72006
596.437	75649
596.507	82656
596.577	90414
596.647	76531
596.717	75122
596.787	77303
596.857	76991
596.927	77335
596.997	77322
597.067	78287
597.137	80796
597.207	80389
597.277	80330
597.347	79099
597.417	77229
597.487	78702
597.557	81321
597.626	80431
597.696	83938
597.766	86346
597.836	92316
597.906	77186
597.975	71718
598.045	73840
598.115	76200
598.185	79312
598.254	85764
598.324	91289
598.394	94416
598.464	93563
598.533	90103
598.603	84592
598.672	84215
598.742	84301
598.812	83291
598.881	85563
598.951	83888
599.020	84358
599.090	86366
599.159	88848
599.229	84698
599.299	83131
599.368	87049
599.437	84270
599.507	80414
599.576	78622
599.646	77632
599.715	78680
599.785	77382
599.854	77321
599.924	77910
599.993	76415
600.062	75156
600.132	76416
600.201	81106
600.270	91416
600.340	93683
600.409	91312
600.478	91567
600.547	91841
600.617	86907
600.686	75822
600.755	70336
600.824	71721
600.894	67703
600.963	66534
601.032	63825
601.101	63675
601.170	63360
601.239	62230
601.308	64334
601.378	63637
601.447	62616
601.516	62967
601.585	65445
601.654	68442
601.723	64337
601.792	65508
601.861	67157
601.930	72810
601.999	74521
602.068	71328
602.137	73681
602.206	74683
602.275	73111
602.343	79000
602.412	79561
602.481	72428
602.550	71648
602.619	73616
602.688	75070
602.756	75393
602.825	73897
602.894	74923
602.963	75524
603.032	76711
603.100	75844
603.169	77300
603.238	78054
603.307	76243
603.375	77273
603.444	79561
603.513	79159
603.581	78961
603.650	80049
603.719	78732
603.787	78761
603.856	82237
603.924	84202
603.993	86661
604.061	86718
604.130	90347
604.198	91286
604.267	92293
604.335	93831
604.404	93771
604.472	94767
604.541	95000
604.609	96235
604.678	96768
604.746	98191
604.815	100581
604.883	100727
604.951	100821
605.020	100574
605.088	104104
605.156	103868
605.225	105215
605.293	103040
605.361	104382
605.429	106048
605.498	108408
605.566	111707
605.634	115653
605.702	118277
605.771	121661
605.839	120508
605.907	117695
605.975	115000
606.043	112395
606.111	112280
606.180	113329
606.248	112283
606.316	111858
606.384	113105
606.452	116284
606.520	125955
606.588	119617
606.656	113733
606.724	111917
606.792	105360
606.860	95296
606.928	89731
606.996	85416
607.064	83485
607.132	86993
607.200	90769
607.267	93138
607.335	96605
607.403	97398
607.471	95179
607.539	92863
607.607	94029
607.674	84183
607.742	85114
607.810	86970
607.878	85154
607.946	85447
608.013	88455
608.081	92714
608.149	93921
608.216	93200
608.284	95229
608.352	94529
608.419	96018
608.487	101960
608.555	94663
608.622	93748
608.690	99461
608.757	107159
608.825	110470
608.893	110511
608.960	112343
609.028	112778
609.095	108353
609.163	99878
609.230	90821
609.298	83783
609.365	86835
609.432	93431
609.500	101055
609.567	115334
609.635	128248
609.702	134141
609.769	128913
609.837	107678
609.904	96014
609.971	98485
610.039	113172
610.106	152370
610.173	288397
610.241	661794
610.308	516254
610.375	245154
610.442	121674
610.509	100924
610.577	97564
610.644	96965
610.711	98835
610.778	101440
610.845	103127
610.912	108746
610.980	113402
611.047	116321
611.114	112897
611.181	107866
611.248	105017
611.315	111406
611.382	113195
611.449	116320
611.516	119300
611.583	118712
611.650	119580
611.717	121924
611.784	123980
611.851	130597
611.918	148496
611.984	172056
612.051	242980
612.118	488685
612.185	1188627
612.252	802332
612.319	208946
612.386	160293
612.452	145784
612.519	137692
612.586	141621
612.653	136664
612.719	138464
612.786	131535
612.853	123425
612.919	120283
612.986	124204
613.053	115795
613.120	111114
613.186	106706
613.253	107540
613.319	107413
613.386	108252
613.453	112012
613.519	118205
613.586	124483
613.652	143897
613.719	131388
613.785	126153
613.852	111756
613.918	110294
613.985	113880
614.051	120530
614.118	132696
614.184	126766
614.250	111812
614.317	111423
614.383	111801
614.449	113463
614.516	112148
614.582	113771
614.648	111670
614.715	111065
614.781	110699
614.847	107854
614.914	110672
614.980	108624
615.046	108537
615.112	107197
615.179	109947
615.245	115080
615.311	117269
615.377	130370
615.443	137685
615.509	121254
615.575	120840
615.642	118532
615.708	124420
615.774	129043
615.840	141341
615.906	158749
615.972	203385
616.038	323002
616.104	634841
616.170	1406041
616.236	1263552
616.302	316074
616.368	215905
616.434	160931
616.500	144929
616.565	159175
616.631	195117
616.697	164331
616.763	167256
616.829	238943
616.895	418557
616.961	409009
617.026	189424
617.092	129603
617.158	122048
617.224	117277
617.289	111113
617.355	106517
617.421	104432
617.487	105249
617.552	99590
617.618	98766
617.684	97778
617.749	99849
617.815	95854
617.880	93371
617.946	93911
618.012	96438
618.077	98092
618.143	94338
618.208	95713
618.274	101482
618.339	102992
618.405	87877
618.470	88473
618.536	89056
618.601	90681
618.667	85069
618.732	81682
618.798	81033
618.863	80229
618.928	80270
618.994	83775
619.059	86420
619.124	103681
619.190	89801
619.255	79298
619.320	78995
619.386	79986
619.451	78660
619.516	77185
619.581	77757
619.647	80023
619.712	80872
619.777	77528
619.842	79502
619.907	82925
619.972	81112
620.038	81788
620.103	78182
620.168	78062
620.233	79330
620.298	78114
620.363	79214
620.428	80442
620.493	82435
620.558	83953
620.623	83970
620.688	82448
620.753	82218
620.818	84511
620.883	83930
620.948	83970
621.013	84235
621.078	83487
621.143	83021
621.207	86753
621.272	86651
621.337	87923
621.402	86364
621.467	90730
621.532	91745
621.596	89558
621.661	86040
621.726	81028
621.791	83508
621.855	86576
621.920	87253
621.985	86481
622.049	90598
622.114	87423
622.179	86429
622.243	87857
622.308	88950
622.373	92100
622.437	92440
622.502	87161
622.566	86107
622.631	85024
622.695	87610
622.760	86236
622.824	86381
622.889	88127
622.953	93044
623.018	117670
623.082	115606
623.147	93565
623.211	90558
623.276	92256
623.340	85421
623.404	84477
623.469	82800
623.533	83320
623.597	81882
623.662	81403
623.726	77153
623.790	76025
623.854	74249
623.919	74355
623.983	76471
624.047	76688
624.111	76219
624.176	78643
624.240	84841
624.304	89181
624.368	77906
624.432	76707
624.496	79583
624.560	85021
624.625	90160
624.689	81978
624.753	83246
624.817	78709
624.881	76556
624.945	73165
625.009	71449
625.073	74643
625.137	78691
625.201	90825
625.265	88890
625.329	74958
625.393	78538
625.456	76283
625.520	77266
625.584	82228
625.648	86457
625.712	100182
625.776	149417
625.839	160164
625.903	90966
625.967	69371
626.031	85403
626.095	113303
626.158	77173
626.222	59839
626.286	57054
626.349	56365
626.413	53954
626.477	58359
626.540	55188
626.604	52142
626.668	52763
626.731	52331
626.795	52521
626.858	53739
626.922	50596
626.986	50758
627.049	50078
627.113	50932
627.176	49421
627.240	48855
627.303	49034
627.366	48222
627.430	50275
627.493	49563
627.557	47834
627.620	48520
627.684	49225
627.747	49620
627.810	46433
627.874	44753
627.937	41339
628.000	46018
628.064	45278
628.127	39531
628.190	40687
628.253	41644
628.317	38743
628.380	38233
628.443	37291
628.506	38900
628.569	35453
628.632	34645
628.696	34166
628.759	34013
628.822	34104
628.885	32325
628.948	33468
629.011	33637
629.074	32788
629.137	30814
629.200	32029
629.263	35320
629.326	31281
629.389	32361
629.452	31517
629.515	31572
629.578	31085
629.641	33360
629.704	31204
629.767	31834
629.830	29787
629.892	30581
629.955	29072
630.018	32854
630.081	33806
630.144	40318
630.207	32789
630.269	33183
630.332	31405
630.395	29175
630.458	27695
630.520	26790
630.583	27796
630.646	28416
630.708	27263
630.771	27332
630.834	29209
630.896	27295
630.959	27202
631.021	25945
631.084	27176
631.146	28827
631.209	31003
631.272	27261
631.334	27312
631.397	27351
631.459	27107
631.522	30630
631.584	29857
631.646	30513
631.709	33253
631.771	39288
631.834	31622
631.896	29151
631.958	27351
632.021	28651
632.083	27701
632.145	27662
632.208	26009
632.270	28274
632.332	25808
632.395	23982
632.457	26951
632.519	24859
632.581	26020
632.643	24601
632.706	25545
632.768	23654
632.830	24376
632.892	24526
632.954	25044
633.016	25792
633.078	24901
633.141	24849
633.203	24857
633.265	25244
633.327	24269
633.389	24721
633.451	27734
633.513	31607
633.575	30398
633.637	32023
633.698	29728
633.760	27059
633.822	27317
633.884	27263
633.946	26926
634.008	27864
634.070	27742
634.132	29908
634.193	30779
634.255	32517
634.317	32416
634.379	33560
634.441	30193
634.502	27787
634.564	26499
634.626	25027
634.687	24236
634.749	24616
634.811	24416
634.873	22846
634.934	23417
634.996	25057
635.057	23103
635.119	23565
635.181	23760
635.242	24125
635.304	22171
635.365	25753
635.427	24011
635.488	24644
635.550	23219
635.611	23835
635.673	23796
635.734	27235
635.796	26712
635.857	30647
635.918	28615
635.980	31924
636.041	32501
636.102	35015
636.164	33821
636.225	33338
636.286	28565
636.348	28995
636.409	25767
636.470	24994
636.531	23347
636.593	24664
636.654	24310
636.715	22333
636.776	22310
636.838	20535
636.899	22156
636.960	20676
637.021	20658
637.082	21148
637.143	21013
637.204	18905
637.265	19498
637.326	20848
637.387	20518
637.448	19350
637.509	20935
637.570	20379
637.631	21240
637.692	18694
637.753	17541
637.814	20017
637.875	19132
637.936	20521
637.997	18666
638.058	20266
638.119	20218
638.179	19937
638.240	19035
638.301	18614
638.362	18799
638.423	19104
638.483	18861
638.544	17277
638.605	18432
638.666	17687
638.726	17987
638.787	18000
638.848	17485
638.908	17917
638.969	17618
639.030	17873
639.090	16948
639.151	18547
639.211	19706
639.272	24270
639.332	36841
639.393	24864
639.453	18481
639.514	19285
639.574	19191
639.635	16638
639.695	18226
639.756	17523
639.816	18929
639.877	20964
639.937	32952
639.997	43176
640.058	20244
640.118	16684
640.178	16928
640.239	16890
640.299	16056
640.359	16288
640.420	17157
640.480	19155
640.540	20615
640.600	19916
640.661	19274
640.721	19496
640.781	23845
640.841	18988
640.901	17955
640.961	18091
641.021	20069
641.082	21778
641.142	28379
641.202	21162
641.262	14899
641.322	17539
641.382	16236
641.442	16588
641.502	15228
641.562	18160
641.622	15520
641.682	17824
641.742	18491
641.802	18355
641.861	18155
641.921	17989
641.981	19287
642.041	18867
642.101	22945
642.161	17666
642.221	13645
642.280	15246
642.340	14327
642.400	15665
642.460	15926
642.519	14923
642.579	15633
642.639	15828
642.698	13694
642.758	16725
642.818	15913
642.877	15736
642.937	17156
642.997	19572
643.056	26845
643.116	18369
643.175	17971
643.235	16604
643.294	16844
643.354	18240
643.414	18150
643.473	22961
643.532	25344
643.592	34339
643.651	52701
643.711	88346
643.770	168686
643.830	396930
643.889	868362
643.948	230978
644.008	43093
644.067	27812
644.126	21317
644.186	19844
644.245	18127
644.304	15925
644.363	17481
644.423	14931
644.482	16341
644.541	16821
644.600	15691
644.659	19929
644.719	23150
644.778	32917
644.837	52688
644.896	102923
644.955	238604
645.014	87948
645.073	23723
645.132	18535
645.191	18206
645.250	16128
645.309	18295
645.368	18590
645.427	21551
645.486	30949
645.545	50993
645.604	21184
645.663	15951
645.722	15576
645.781	17112
645.840	19712
645.898	23420
645.957	33108
646.016	45997
646.075	83794
646.134	158993
646.192	412809
646.251	648505
646.310	106724
646.369	30894
646.427	25227
646.486	19188
646.545	17499
646.603	15886
646.662	14912
646.721	14629
646.779	14020
646.838	14481
646.896	18739
646.955	23346
647.014	32853
647.072	56194
647.131	149907
647.189	79926
647.248	17340
647.306	15377
647.365	13512
647.423	11239
647.481	13272
647.540	10783
647.598	11973
647.657	11593
647.715	12016
647.773	10024
647.832	12849
647.890	9461
647.948	10630
648.007	11146
648.065	10116
648.123	10835
648.181	12518
648.240	11278
648.298	10546
648.356	11113
648.414	11031
648.472	10843
648.531	11208
648.589	11482
648.647	10638
648.705	10619
648.763	10893
648.821	10875
648.879	11828
648.937	13373
648.995	15227
649.053	18709
649.111	25344
649.169	40137
649.227	67056
649.285	136439
649.343	394151
649.401	209565
649.459	56872
649.516	35886
649.574	18169
649.632	22761
649.690	26255
649.748	21455
649.806	24185
649.863	44431
649.921	106407
649.979	76727
650.037	14957
650.094	10279
650.152	11767
650.210	9304
650.268	11104
650.325	9371
650.383	9505
650.440	8474
650.498	9935
650.556	8415
650.613	8448
650.671	8775
650.728	8719
650.786	9745
650.843	11384
650.901	8133
650.958	9387
651.016	8362
651.073	8742
651.131	7742
651.188	8150
651.246	8386
651.303	7844
651.360	8460
651.418	7864
651.475	7883
651.532	7181
651.590	8034
651.647	7135
651.704	7870
651.762	8222
651.819	8232
651.876	7060
651.933	7198
651.990	8174
652.048	5709
652.105	6995
652.162	8002
652.219	7072
652.276	7726
652.333	7749
652.390	7195
652.448	7264
652.505	7130
652.562	7650
652.619	7398
652.676	8816
652.733	8899
652.790	7083
652.847	6114
652.904	7854
652.961	6513
653.017	6800
653.074	7645
653.131	8848
653.188	6344
653.245	7302
653.302	6841
653.359	6667
653.415	6414
653.472	6227
653.529	6571
653.586	6285
653.642	5643
653.699	7316
653.756	6173
653.813	6475
653.869	7002
653.926	6594
653.983	6019
654.039	7755
654.096	7368
654.152	8311
654.209	6302
654.266	7324
654.322	7739
654.379	8331
654.435	7730
654.492	8683
654.548	10903
654.605	16709
654.661	9496
654.717	7514
654.774	7760
654.830	7389
654.887	7060
654.943	6757
655.000	7654
655.056	7634
655.112	7456
655.168	6797
655.225	7508
655.281	7661
655.337	9266
655.394	12630
655.450	10737
655.506	9322
655.562	12446
655.618	11417
655.675	5988
655.731	7080
655.787	6368
655.843	7483
655.899	6599
655.955	8251
656.011	7043
656.067	5367
656.123	6682
656.179	7289
656.235	8027
656.291	6318
656.347	8219
656.403	6967
656.459	7984
656.515	7873
656.571	8197
656.627	7756
656.683	6788
656.739	7882
656.795	7242
656.850	7912
656.906	8472
656.962	7898
657.018	6577
657.074	6241
657.129	7461
657.185	10159
657.241	16554
657.297	11914
657.352	7605
657.408	6164
657.464	7502
657.519	6966
657.575	5958
657.630	5982
657.686	6582
657.742	5778
657.797	6256
657.853	6040
657.908	6711
657.964	6165
658.019	6586
658.075	6444
658.130	5932
658.186	5602
658.241	6429
658.297	4959
658.352	6329
658.407	6968
658.463	5077
658.518	6267
658.573	6452
658.629	5612
658.684	5438
658.739	6125
658.795	5346
658.850	5892
658.905	5522
658.960	6300
659.016	6040
659.071	7280
659.126	6867
659.181	7549
659.236	12766
659.291	13833
659.346	8027
659.401	7474
659.457	6793
659.512	7117
659.567	6771
659.622	5937
659.677	6026
659.732	6012
659.787	6038
659.842	6637
659.897	8323
659.952	7561
660.007	6158
660.061	6490
660.116	5053
660.171	5408
660.226	6074
660.281	7472
660.336	5269
660.391	6735
660.445	5282
660.500	5766
660.555	6582
660.610	6220
660.664	6528
660.719	5470
660.774	6501
660.828	6318
660.883	6995
660.938	6169
660.992	5127
661.047	5973
661.101	5463
661.156	5653
661.211	5259
661.265	5381
661.320	4942
661.374	6616
661.429	5430
661.483	6567
661.538	5063
661.592	5497
661.647	5448
661.701	6309
661.755	5553
661.810	5904
661.864	4968
661.919	5488
661.973	5785
662.027	6328
662.081	4831
662.136	5316
662.190	5879
662.244	6628
662.299	5722
662.353	5774
662.407	5160
662.461	5772
662.515	6265
662.569	6677
662.624	6821
662.678	5867
662.732	5139
662.786	5783
662.840	5763
662.894	5766
662.948	4624
663.002	5688
663.056	5713
663.110	5765
663.164	6301
663.218	6558
663.272	5867
663.326	6173
663.380	6599
663.434	6503
663.488	5806
663.542	5745
663.595	5852
663.649	5988
663.703	6741
663.757	5621
663.811	4905
663.864	5354
663.918	5778
663.972	5898
664.026	6076
664.079	5117
664.133	5853
664.187	6209
664.240	5739
664.294	5523
664.348	5997
664.401	5759
664.455	5284
664.508	5330
664.562	5767
664.615	6218
664.669	5057
664.722	5682
664.776	5455
664.829	6066
664.883	5570
664.936	5343
664.990	5831
665.043	5995
665.097	5635
665.150	6407
665.203	5360
665.257	6617
665.310	5937
665.363	5901
665.417	6444
665.470	5776
665.523	5974
665.576	6154
665.630	6211
665.683	5929
665.736	6098
665.789	6120
665.842	6135
665.895	6925
665.949	6283
666.002	5637
666.055	5580
666.108	6206
666.161	6745
666.214	6135
666.267	6188
666.320	8012
666.373	6943
666.426	6072
666.479	5930
666.532	6677
666.585	7443
666.638	7619
666.691	6363
666.744	7582
666.796	6659
666.849	7061
666.902	6760
666.955	6153
667.008	5572
667.060	5671
667.113	5589
667.166	4744
667.219	5523
667.271	6079
667.324	5616
667.377	6329
667.430	6230
667.482	6871
667.535	6392
667.587	7544
667.640	7370
667.693	8298
667.745	12899
667.798	13717
667.850	7030
667.903	6171
667.955	6122
668.008	6164
668.060	6098
668.113	6234
668.165	6955
668.218	6717
668.270	6152
668.322	5946
668.375	5476
668.427	5938
668.479	6070
668.532	6764
668.584	6029
668.636	5955
668.689	6251
668.741	6274
668.793	6671
668.845	5870
668.898	6009
668.950	6445
669.002	6382
669.054	6266
669.106	5549
669.158	6950
669.211	6285
669.263	6482
669.315	6973
669.367	6977
669.419	6668
669.471	7529
669.523	7263
669.575	10022
669.627	8856
669.679	7216
669.731	7753
669.783	7527
669.835	6873
669.886	7671
669.938	7778
669.990	7689
670.042	7143
670.094	8212
670.146	8436
670.197	10227
670.249	11192
670.301	13628
670.353	18901
670.404	23857
670.456	34763
670.508	53182
670.560	84514
670.611	139514
670.663	241272
670.715	527122
670.766	810425
670.818	322149
670.869	67987
670.921	33903
670.972	22723
671.024	17348
671.075	14933
671.127	12056
671.178	11188
671.230	11020
671.281	9245
671.333	9510
671.384	9514
671.436	10162
671.487	11170
671.538	12817
671.590	17677
671.641	24723
671.692	37185
671.744	71463
671.795	52046
671.846	20558
671.897	12169
671.949	10601
672.000	8933
672.051	7912
672.102	7740
672.153	6023
672.204	6528
672.256	7815
672.307	7124
672.358	7069
672.409	6417
672.460	6952
672.511	5612
672.562	6457
672.613	5608
672.664	5911
672.715	5833
672.766	5809
672.817	6092
672.868	6260
672.919	5297
672.970	5915
673.021	5774
673.071	5455
673.122	5389
673.173	5427
673.224	5229
673.275	6722
673.326	5268
673.376	4615
673.427	4667
673.478	5619
673.528	5710
673.579	5004
673.630	5495
673.680	5356
673.731	5032
673.782	4355
673.832	4222
673.883	5943
673.934	4421
673.984	5869
674.035	4776
674.085	5601
674.136	6112
674.186	5206
674.237	6740
674.287	8231
674.338	6044
674.388	4731
674.438	4495
674.489	5626
674.539	5331
674.589	5593
674.640	5373
674.690	5301
674.740	5438
674.791	6616
674.841	5476
674.891	5478
674.942	4952
674.992	6071
675.042	4782
675.092	4507
675.142	4699
675.193	4846
675.243	5279
675.293	4876
675.343	4911
675.393	5253
675.443	4758
675.493	5335
675.543	4880
675.593	4490
675.643	5082
675.693	5044
675.743	5277
675.793	4230
675.843	4217
675.893	4443
675.943	4983
675.993	4520
676.043	3712
676.093	5155
676.142	4590
676.192	4275
676.242	4416
676.292	4610
676.341	4128
676.391	4601
676.441	3415
676.491	4544
676.540	4440
676.590	4606
676.640	5125
676.689	4220
676.739	3795
676.789	4356
676.838	3751
676.888	4340
676.937	3953
676.987	3978
677.037	3939
677.086	3479
677.136	3907
677.185	4292
677.235	4282
677.284	4433
677.333	3647
677.383	4008
677.432	3503
677.482	4295
677.531	4025
677.580	4254
677.630	3797
677.679	3551
677.728	3791
677.778	3540
677.827	3423
677.876	3831
677.925	3689
677.975	3643
678.024	4075
678.073	3605
678.122	4217
678.171	4608
678.220	4369
678.269	5719
678.319	5227
678.368	5284
678.417	4137
678.466	4374
678.515	4210
678.564	4558
678.613	3955
678.662	3899
678.711	4202
678.760	4056
678.809	3235
678.857	4005
678.906	4266
678.955	3928
679.004	3619
679.053	4768
679.102	3892
679.151	3728
679.199	4118
679.248	3979
679.297	4242
679.346	4538
679.394	3947
679.443	4541
679.492	3684
679.540	3847
679.589	4464
679.638	4457
679.686	3409
679.735	4037
679.784	3594
679.832	4411
679.881	4012
679.929	3569
679.978	3426
680.026	3693
680.075	3926
680.123	3630
680.172	3198
680.220	3297
680.268	3692
680.317	3373
680.365	3090
680.414	2868
680.462	4266
680.510	4087
680.559	2956
680.607	3826
680.655	3361
680.703	4359
680.752	3884
680.800	3919
680.848	3591
680.896	3374
680.945	3737
680.993	3671
681.041	3307
681.089	3693
681.137	2751
681.185	2994
681.233	3439
681.258	3587
681.281	3670
681.329	3969
681.377	3268
681.380	3357
681.425	3874
681.473	3769
681.502	3852
681.521	3800
681.569	4751
681.617	4168
681.624	4119
681.665	3389
681.713	4776
681.745	4905
681.761	4879
681.809	4216
681.857	5407
681.867	5321
681.904	4801
681.952	5097
681.989	5359
682.000	5371
682.048	5816
682.096	5439
682.111	5471
682.143	5327
682.191	5623
682.233	5918
682.239	5906
682.286	5384
682.334	5648
682.354	5711
682.382	5694
682.430	6662
682.476	5999
682.477	5933
682.525	6133
682.572	6724
682.598	6795
682.620	6784
682.667	6565
682.715	7418
682.720	7399
682.763	6698
682.810	7377
682.841	7902
682.857	8093
682.905	7017
682.952	7578
682.963	7556
683.000	7337
683.047	7554
683.085	8516
683.095	8695
683.142	7445
683.190	7723
683.206	7798
683.237	7867
683.284	8527
683.328	8667
683.332	8635
683.379	8656
683.426	8536
683.449	8623
683.473	8628
683.521	8596
683.568	8897
683.571	8957
683.615	9210
683.662	9836
683.693	9367
683.709	8980
683.757	9263
683.804	9440
683.814	9480
683.851	9560
683.898	9657
683.936	9971
683.945	10006
683.992	9895
684.039	10390
684.057	10474
684.086	10544
684.133	10377
684.179	11083
684.180	11067
684.227	10832
684.274	11229
684.300	11676
684.321	11933
684.368	10779
684.415	11174
684.422	11179
684.462	10999
684.509	11523
684.543	11605
684.556	11615
684.603	11561
684.649	11306
684.665	11480
684.696	11727
684.743	11621
684.786	12565
684.790	12624
684.837	12098
684.883	12949
684.908	13014
684.930	13067
684.977	13159
685.023	13606
685.029	13566
685.070	12706
685.117	12960
685.150	13399
685.164	13654
685.210	13521
685.257	14524
685.272	14518
685.303	14263
685.350	14116
685.393	14429
685.396	14442
685.443	14850
685.490	15505
685.514	15611
685.536	15542
685.583	14753
685.629	15239
685.636	15211
685.675	14934
685.722	14548
685.757	15122
685.768	15332
685.815	15416
685.861	15851
685.878	15822
685.908	15590
685.954	15376
686.000	15488
686.000	15484
686.047	15784
686.093	16859
686.121	16973
686.139	16791
686.185	16546
686.232	16287
686.242	16284
686.278	16255
686.324	16076
686.363	16007
686.370	16004
686.416	15417
686.463	16677
686.484	16394
686.509	15996
686.555	15969
686.601	15268
686.606	15350
686.647	16218
686.693	16036
686.727	16255
686.739	16332
686.785	16247
686.831	16114
686.848	16287
686.877	16508
686.923	16560
686.969	16988
686.969	16988
687.015	17097
687.061	17377
687.090	17780
687.107	17787
687.153	16818
687.199	17092
687.211	16951
687.245	17016
687.291	17631
687.332	18237
687.336	18286
687.382	18615
687.428	18011
687.453	18206
687.474	18136
687.520	18227
687.565	17866
687.574	17716
687.611	17598
687.657	18348
687.695	17873
687.702	17817
687.748	19276
687.794	19540
687.816	19763
687.839	19632
687.885	18741
687.931	18369
687.937	18356
687.976	18636
688.022	18722
688.058	18672
688.067	18737
688.113	19163
688.158	19702
688.179	19672
688.204	19489
688.249	19877
688.295	20451
688.300	20410
688.340	20312
688.386	20444
688.421	20229
688.431	20155
688.477	20243
688.522	20506
688.542	20227
688.567	19929
688.613	20847
688.658	20789
688.663	20767
688.703	20650
688.749	20710
688.784	20463
688.794	20457
688.839	21323
688.884	20998
688.905	21062
688.930	21076
688.975	21259
689.020	21094
689.026	21042
689.065	20833
689.110	20219
689.146	20741
689.155	20911
689.201	20793
689.246	20760
689.267	20973
689.291	21095
689.336	21148
689.381	20949
689.388	20801
689.426	20529
689.471	20654
689.509	21158
689.516	21243
689.561	21491
689.606	20891
689.630	20998
689.651	21205
689.696	21474
689.741	21635
689.750	21696
689.785	21934
689.830	21447
689.871	21709
689.875	21750
689.920	21843
689.965	21651
689.992	21464
690.010	21499
690.054	21484
690.099	22197
690.112	22206
690.144	22197
690.189	22116
690.233	21874
690.233	21901
690.278	21811
690.323	21896
690.354	21800
690.367	21828
690.412	22175
690.457	22325
690.474	22443
690.501	22686
690.546	22464
690.590	22870
690.595	22831
690.635	22699
690.680	22465
690.716	22414
690.724	22474
690.769	23038
690.813	23153
690.836	23067
690.857	23635
690.902	25345
690.946	26663
690.957	26938
690.991	29197
691.035	32475
691.077	35457
691.080	35483
691.124	34416
691.168	33768
691.198	33135
691.213	32294
691.257	29655
691.301	26777
691.318	25841
691.346	25754
691.390	25317
691.434	24925
691.439	24763
691.478	24360
691.522	24684
691.559	24476
691.567	24515
691.611	25375
691.655	25374
691.680	25553
691.699	25623
691.743	25494
691.787	25449
691.800	25419
691.831	25713
691.875	25873
691.919	26269
691.921	26228
691.964	26464
692.008	26631
692.041	26827
692.052	26862
692.096	26913
692.139	26794
692.162	26904
692.183	26956
692.227	26368
692.271	26030
692.282	25923
692.315	26171
692.359	25976
692.402	26557
692.403	26606
692.447	26017
692.490	25710
692.523	25501
692.534	25735
692.578	26169
692.622	26973
692.643	27086
692.666	26978
692.709	26825
692.753	26904
692.763	26759
692.797	26349
692.840	26306
692.884	26125
692.884	26178
692.928	26486
692.971	26685
693.004	26602
693.015	26587
693.059	26538
693.102	26489
693.124	26546
693.146	26818
693.189	26910
693.233	27187
693.245	27247
693.276	27775
693.320	28054
693.363	28288
693.365	28249
693.407	28572
693.450	28829
693.485	29047
693.493	29274
693.537	29972
693.580	30577
693.605	31030
693.624	31926
693.667	33648
693.710	35558
693.725	36118
693.753	41047
693.797	48681
693.840	56580
693.845	57391
693.883	54689
693.926	51246
693.966	48271
693.970	47797
694.013	41528
694.056	35670
694.086	31477
694.099	31369
694.142	30908
694.185	30213
694.206	29911
694.229	29959
694.272	29648
694.315	29709
694.326	29523
694.358	29505
694.401	30123
694.444	30313
694.446	30259
694.487	30515
694.530	30512
694.566	30649
694.573	30589
694.616	29550
694.659	28952
694.686	28351
694.702	28452
694.745	28419
694.787	28516
694.806	28494
694.830	28565
694.873	28548
694.916	28576
694.926	28512
694.959	28627
695.002	28796
695.044	28606
695.046	28549
695.087	29082
695.130	29422
695.166	29706
695.172	29780
695.215	29410
695.258	29612
695.286	29424
695.301	29481
695.343	29504
695.386	29637
695.406	29649
695.428	29781
695.471	29842
695.514	29785
695.526	29715
695.556	30281
695.599	31114
695.641	31869
695.646	31885
695.684	31685
695.726	31238
695.766	30812
695.769	30866
695.811	30542
695.854	30307
695.886	29938
695.896	30050
695.938	30312
695.981	30553
696.005	30727
696.023	30843
696.065	30608
696.108	30690
696.125	30556
696.150	30784
696.192	31185
696.235	31454
696.245	31486
696.277	31673
696.319	31652
696.361	31798
696.365	31720
696.404	31788
696.446	31989
696.485	31899
696.488	31978
696.530	32020
696.572	32037
696.604	32091
696.614	32202
696.656	32329
696.698	32214
696.724	32212
696.740	32233
696.783	32019
696.825	31815
696.844	31616
696.867	31795
696.909	32041
696.951	32218
696.964	32207
696.992	31933
697.034	31346
697.076	30897
697.083	30723
697.118	31356
697.160	32121
697.202	32796
697.203	32732
697.244	32527
697.286	32361
697.323	31973
697.327	32061
697.369	32203
697.411	32344
697.442	32395
697.453	32547
697.494	32833
697.536	33018
697.562	33112
697.578	33307
697.620	33523
697.661	33821
697.682	33847
697.703	34344
697.744	35164
697.786	36106
697.801	36322
697.828	36560
697.869	36745
697.911	36871
697.921	36857
697.952	36227
697.994	35149
698.035	34065
698.040	33843
698.077	34076
698.118	34250
698.160	34458
698.160	34369
698.201	34350
698.243	34297
698.279	34085
698.284	34232
698.325	34793
698.367	35343
698.399	35700
698.408	35676
698.449	35132
698.491	34601
698.518	34123
698.532	34360
698.573	34861
698.614	35332
698.638	35505
698.656	35597
698.697	35606
698.738	35611
698.757	35517
698.779	35576
698.820	35516
698.862	35463
698.877	35348
698.903	35602
698.944	35859
698.985	36119
698.996	36097
699.026	36005
699.067	35744
699.116	35339
699.235	35700
699.354	36256
699.474	35102
699.593	36870
699.713	35499
699.832	35311
699.951	36555
700.070	36145
700.190	33334
700.309	33715
700.428	35608
700.547	33235
700.667	32787
700.786	34566
700.905	33734
701.024	33525
701.143	33199
701.262	32134
701.381	32847
701.500	34266
701.619	34732
701.738	33874
701.857	31674
701.976	33062
702.095	31972
702.214	33941
702.333	33420
702.452	32872
702.571	32220
702.690	32073
702.809	31722
702.928	31033
703.047	31314
703.165	30634
703.284	29979
703.403	30257
703.522	31624
703.640	30893
703.759	34062
703.878	35507
703.997	31525
704.115	30054
704.234	29361
704.353	30092
704.471	30235
704.590	29845
704.708	28129
704.827	28894
704.946	29245
705.064	29499
705.183	29478
705.301	31542
705.420	39107
705.538	36138
705.656	33138
705.775	32151
705.893	37689
706.012	41524
706.130	32941
706.249	33245
706.367	32824
706.485	33590
706.604	31799
706.722	33421
706.840	36197
706.958	35580
707.077	32460
707.195	31191
707.313	31054
707.431	30004
707.549	29899
707.668	30639
707.786	30185
707.904	30210
708.022	30277
708.140	30031
708.258	29095
708.376	30857
708.494	29080
708.612	31991
708.730	38607
708.848	37177
708.966	36197
709.084	34124
709.202	33693
709.320	33400
709.438	32766
709.556	33846
709.674	33038
709.791	33335
709.909	32129
710.027	31987
710.145	32309
710.263	32022
710.380	31948
710.498	31358
710.616	30751
710.733	31039
710.851	31672
710.969	31829
711.086	30580
711.204	31143
711.322	29939
711.439	31542
711.557	30701
711.674	30732
711.792	29201
711.909	30756
712.027	29939
712.144	29308
712.262	28681
712.379	31086
712.497	39078
712.614	40006
712.732	36087
712.849	34260
712.966	35530
713.084	38912
713.201	36296
713.318	34462
713.436	33883
713.553	34967
713.670	33820
713.787	35386
713.905	35043
714.022	34131
714.139	34277
714.256	36532
714.373	41724
714.490	58112
714.608	112460
714.725	431320
714.842	494590
714.959	56596
715.076	35431
715.193	33116
715.310	33410
715.427	30301
715.544	30111
715.661	30616
715.778	30283
715.895	32447
716.011	31538
716.128	29618
716.245	30393
716.362	32558
716.479	32377
716.596	29274
716.713	29640
716.829	28296
716.946	28426
717.063	28426
717.180	28087
717.296	27729
717.413	26357
717.530	27387
717.646	26798
717.763	27639
717.880	24503
717.996	26281
718.113	26502
718.229	25425
718.346	25069
718.462	25393
718.579	28715
718.695	40900
718.812	32895
718.928	29337
719.045	26486
719.161	24950
719.277	24883
719.394	24676
719.510	25681
719.626	25457
719.743	30434
719.859	32754
719.975	46852
720.092	134051
720.208	308034
720.324	55051
720.440	26817
720.557	27728
720.673	35626
720.789	39051
720.905	57353
721.021	31614
721.137	24095
721.253	24048
721.369	24729
721.486	25003
721.602	28251
721.718	22712
721.834	22079
721.950	24009
722.066	22854
722.181	21723
722.297	23007
722.413	22228
722.529	21906
722.645	20734
722.761	21069
722.877	21936
722.993	21269
723.108	23587
723.224	21510
723.340	21577
723.456	20272
723.571	21939
723.687	19771
723.803	20668
723.918	20430
724.034	20495
724.150	20450
724.265	21050
724.381	28807
724.497	34401
724.612	20527
724.728	19165
724.843	19395
724.959	21683
725.074	28458
725.190	30656
725.305	19974
725.421	19387
725.536	17882
725.651	19667
725.767	19327
725.882	19261
725.997	18062
726.113	19182
726.228	18097
726.343	19771
726.459	17420
726.574	18411
726.689	18257
726.804	17287
726.920	18457
727.035	18056
727.150	18276
727.265	18229
727.380	17813
727.495	17949
727.610	17100
727.725	17532
727.841	17728
727.956	21110
728.071	20127
728.186	18018
728.301	16745
728.416	19018
728.531	18068
728.645	16772
728.760	17199
728.875	18824
728.990	17129
729.105	17859
729.220	17891
729.335	17792
729.449	17289
729.564	17098
729.679	14978
729.794	15609
729.908	16304
730.023	16992
730.138	15906
730.253	16308
730.367	15656
730.482	16055
730.596	16048
730.711	16831
730.826	16688
730.940	17170
731.055	16215
731.169	15676
731.284	15252
731.398	15799
731.513	16644
731.627	17493
731.742	16936
731.856	19438
731.970	18291
732.085	20034
732.199	22231
732.313	30315
732.428	60391
732.542	163147
732.656	108380
732.771	27653
732.885	19713
732.999	19504
733.113	19439
733.227	19100
733.342	17558
733.456	17647
733.570	16257
733.684	16661
733.798	16767
733.912	16505
734.026	17029
734.140	15896
734.254	17042
734.368	20683
734.482	23395
734.596	16911
734.710	16524
734.824	16511
734.938	15134
735.052	16807
735.166	17910
735.280	16447
735.393	15997
735.507	16649
735.621	18001
735.735	22034
735.849	16887
735.962	15517
736.076	16500
736.190	16206
736.303	17181
736.417	19991
736.531	14855
736.644	15046
736.758	14474
736.872	14307
736.985	14350
737.099	15522
737.212	13888
737.326	14599
737.439	14774
737.553	14930
737.666	14782
737.780	14512
737.893	13945
738.007	13454
738.120	14033
738.233	13726
738.347	13839
738.460	14257
738.573	14843
738.687	14782
738.800	15169
738.913	17408
739.026	14510
739.140	13766
739.253	14174
739.366	13061
739.479	13317
739.592	13749
739.705	13388
739.818	13816
739.932	13389
740.045	13025
740.158	13894
740.271	13357
740.384	13842
740.497	13683
740.610	13852
740.723	13306
740.836	14128
740.949	14091
741.062	16834
741.174	15572
741.287	13571
741.400	12824
741.513	13019
741.626	13500
741.739	13625
741.851	12842
741.964	12286
742.077	13084
742.189	12660
742.302	13454
742.415	13943
742.527	12752
742.640	12623
742.753	12279
742.865	12346
742.978	12286
743.090	12122
743.203	12731
743.316	12944
743.428	12388
743.541	12291
743.653	12025
743.766	11473
743.878	11775
743.990	12768
744.103	13690
744.215	13212
744.327	12518
744.440	14623
744.552	18076
744.664	13523
744.777	11405
744.889	11388
745.001	11959
745.113	11058
745.226	10435
745.338	11907
745.450	11864
745.562	11914
745.674	12190
745.786	11617
745.898	12091
746.010	10797
746.122	11352
746.234	11512
746.347	12391
746.459	10586
746.570	11714
746.682	12148
746.794	12993
746.906	10408
747.018	10945
747.130	11028
747.242	10723
747.354	10701
747.466	11433
747.577	10640
747.689	11004
747.801	10289
747.913	10935
748.024	10852
748.136	11016
748.248	9496
748.359	11010
748.471	11222
748.583	10598
748.694	10292
748.806	11925
748.918	11909
749.029	11939
749.141	11230
749.252	12088
749.364	11137
749.475	19486
749.587	13640
749.698	11038
749.809	9999
749.921	10206
750.032	9206
750.144	10164
750.255	9193
750.366	9658
750.478	9411
750.589	10368
750.700	10320
750.811	11619
750.923	12909
751.034	19805
751.145	19923
751.256	9858
751.367	9750
751.479	9946
751.590	9264
751.701	9172
751.812	9443
751.923	9717
752.034	10147
752.145	10474
752.256	9452
752.367	9371
752.478	9291
752.589	9950
752.700	9890
752.811	9237
752.922	9594
753.032	10638
753.143	11371
753.254	8541
753.365	9118
753.476	9832
753.586	9021
753.697	9888
753.808	9462
753.919	8924
754.029	9603
754.140	9385
754.251	9230
754.361	8472
754.472	9904
754.582	9052
754.693	8556
754.804	9937
754.914	8904
755.025	8179
755.135	9470
755.246	8153
755.356	9411
755.466	9365
755.577	9633
755.687	9934
755.798	8883
755.908	9394
756.018	7769
756.129	9119
756.239	8773
756.349	9148
756.460	8628
756.570	9092
756.680	8935
756.790	8882
756.900	10178
757.011	8281
757.121	8331
757.231	8452
757.341	9221
757.451	8120
757.561	7736
757.671	9000
757.781	8729
757.891	9412
758.001	9243
758.111	9198
758.221	10017
758.331	9610
758.441	9686
758.551	11507
758.661	10828
758.771	9374
758.880	9704
758.990	9766
759.100	9290
759.210	9359
759.320	8997
759.429	9163
759.539	9258
759.649	10661
759.758	10125
759.868	10290
759.978	9221
760.087	10250
760.197	10580
760.307	10433
760.416	10058
760.526	9314
760.635	10508
760.745	10202
760.854	9725
760.964	11233
761.073	10615
761.182	10481
761.292	10476
761.401	10419
761.511	9339
761.620	10350
761.729	9338
761.839	9144
761.948	10220
762.057	10443
762.166	9417
762.276	8529
762.385	10157
762.494	9940
762.603	10019
762.712	10585
762.822	9811
762.931	10729
763.040	9698
763.149	9553
763.258	9670
763.367	10850
763.476	10402
763.585	11431
763.694	10660
763.803	11281
763.912	11355
764.021	11963
764.130	10806
764.238	12784
764.347	11419
764.456	13052
764.565	12200
764.674	13098
764.783	12961
764.891	14462
765.000	14977
765.109	15923
765.217	17876
765.326	20721
765.435	23378
765.543	26475
765.652	29840
765.761	37641
765.869	49810
765.978	74268
766.086	122309
766.195	227738
766.303	496353
766.412	968538
766.520	864488
766.629	445794
766.737	187141
766.846	105007
766.954	69483
767.062	52508
767.171	40330
767.279	31975
767.387	26838
767.496	24641
767.604	21397
767.712	20055
767.820	18530
767.928	18054
768.037	16460
768.145	17216
768.253	16836
768.361	16219
768.469	15347
768.577	16155
768.685	16570
768.793	16878
768.901	17227
769.009	19906
769.117	21862
769.225	25712
769.333	35220
769.441	51686
769.549	89820
769.657	189293
769.765	496789
769.873	832056
769.981	469369
770.088	153264
770.196	72210
770.304	47504
770.412	33988
770.519	28003
770.627	22775
770.735	20126
770.842	17232
770.950	17538
771.058	15386
771.165	15494
771.273	14287
771.380	14173
771.488	13961
771.595	13780
771.703	13301
771.810	13123
771.918	12233
772.025	12414
772.133	11408
772.240	12473
772.348	13405
772.455	12442
772.562	11321
772.670	11328
772.777	11525
772.884	11970
772.991	11084
773.099	12147
773.206	9722
773.313	11140
773.420	11217
773.528	10081
773.635	10788
773.742	10608
773.849	10256
773.956	10190
774.063	9231
774.170	10779
774.277	10942
774.384	10562
774.491	10074
774.598	11019
774.705	9988
774.812	12213
774.919	10479
775.026	10940
775.133	10412
775.239	10236
775.346	9801
775.453	10071
775.560	8923
775.667	9795
775.773	8937
775.880	10126
775.987	9067
776.093	10336
776.200	9842
776.307	8063
776.413	8922
776.520	8986
776.627	10281
776.733	9310
776.840	7286
776.946	9986
777.053	9177
777.159	10728
777.266	8467
777.372	11681
777.478	9706
777.585	9512
777.691	8774
777.798	9262
777.904	9628
778.010	11661
778.117	10645
778.223	9092
778.329	8761
778.435	8800
778.542	9409
778.648	8937
778.754	7919
778.860	8325
778.966	9257
779.072	7111
779.178	7611
779.284	7762
779.391	7298
779.497	6887
779.603	10202
779.708	9091
779.815	12923
779.920	24606
780.026	55006
780.132	13527
780.238	8073
780.344	8378
780.450	8652
780.556	8535
780.661	6369
780.767	8572
780.873	7208
780.979	7633
781.085	7810
781.190	7677
781.296	6609
781.402	7117
781.507	6761
781.613	7584
781.719	6516
781.824	7401
781.930	7757
782.035	7336
782.141	7457
782.246	7353
782.352	7086
782.457	7243
782.563	7268
782.668	8059
782.773	7376
782.879	6985
782.984	7610
783.090	8063
783.195	10960
783.300	8815
783.405	7729
783.511	6874
783.616	6767
783.721	7876
783.826	6923
783.932	7394
784.037	7824
784.142	7121
784.247	6782
784.352	7683
784.457	6979
784.562	7369
784.667	7357
784.772	7015
784.877	6266
784.982	7242
785.087	6592
785.192	7492
785.297	6294
785.402	6876
785.507	6994
785.611	6822
785.716	6021
785.821	6441
785.926	6479
786.031	6592
786.135	6562
786.240	7146
786.345	5299
786.450	7099
786.554	6087
786.659	6592
786.763	5609
786.868	6880
786.973	6829
787.077	6433
787.182	6462
787.286	6686
787.391	6198
787.495	6719
787.600	4523
787.704	6215
787.809	6229
787.913	6117
788.017	6568
788.122	7504
788.226	5460
788.330	5246
788.435	6362
788.539	6934
788.643	5234
788.747	4950
788.852	6494
788.956	5764
789.060	6581
789.164	5636
789.268	5542
789.372	6287
789.476	5825
789.580	5686
789.684	4688
789.788	6262
789.892	5388
789.996	6522
790.100	5821
790.204	5665
790.308	5706
790.412	5988
790.516	6064
790.620	6241
790.724	5533
790.828	4961
790.931	5707
791.035	6855
791.139	5539
791.242	5251
791.346	5966
791.450	5863
791.554	5445
791.657	4765
791.761	6556
791.864	6249
791.968	5138
792.072	5392
792.175	5743
792.279	5917
792.382	5756
792.486	5376
792.589	4961
792.693	6396
792.796	4746
792.899	6804
793.003	5006
793.106	4840
793.209	5011
793.313	6513
793.416	4279
793.519	7001
793.623	8180
793.726	9551
793.829	5835
793.932	6050
794.035	4940
794.138	6995
794.242	6374
794.345	5717
794.448	6441
794.551	9960
794.654	16281
794.757	27460
794.860	9867
794.963	6439
795.066	4605
795.169	5276
795.272	4539
795.375	5877
795.477	5108
795.580	5172
795.683	3972
795.786	5151
795.889	3866
795.991	6183
796.094	5607
796.197	4671
796.300	6282
796.402	5321
796.505	4501
796.608	4180
796.710	5169
796.813	5491
796.915	3963
797.018	4692
797.120	4522
797.223	3947
797.326	6468
797.428	4360
797.530	3973
797.633	5159
797.735	5863
797.838	6444
797.940	5836
798.042	3928
798.145	4557
798.247	6052
798.349	3589
798.452	5108
798.554	4542
798.656	4717
798.758	5945
798.860	4291
798.962	5089
799.065	3879
799.167	3766
799.269	5586
799.371	4940
799.473	5693
799.575	5605
799.677	6167
799.779	6441
799.881	6496
799.983	5738
800.085	5054
800.187	5006
800.289	4558
800.390	4896
800.492	5113
800.594	5282
800.696	4348
800.798	3381
800.899	3697
801.001	4338
801.103	4694
801.205	3865
801.306	4101
801.408	3630
801.509	4674
801.611	3976
801.713	4472
801.814	3516
801.916	4364
802.017	3651
802.119	4226
802.220	4102
802.322	3322
802.423	5501
802.525	4305
802.626	4423
802.727	4340
802.829	4787
802.930	2389
803.031	5487
803.133	2612
803.234	4287
803.335	4772
803.436	4031
803.538	4418
803.639	1883
803.740	4758
803.841	3222
803.942	4061
804.043	4127
804.144	3695
804.245	4018
804.346	3901
804.447	3293
804.548	6210
804.649	6846
804.750	4244
804.851	3898
804.952	3626
805.053	3561
805.154	3617
805.255	3818
805.355	4296
805.456	3625
805.557	4176
805.658	2846
805.758	4124
805.859	3880
805.960	2936
806.061	3035
806.161	3867
806.262	3434
806.362	4614
806.463	3728
806.564	4019
806.664	3927
806.765	3799
806.865	3882
806.966	3966
807.066	3515
807.166	4611
807.267	4120
807.367	4240
807.468	3935
807.568	2786
807.668	4015
807.769	4515
807.869	3365
807.969	3768
808.069	3299
808.170	3207
808.270	4088
808.370	4184
808.470	4847
808.570	3254
808.670	3664
808.770	3510
808.870	2268
808.970	4614
809.070	2354
809.170	2572
809.271	3909
809.370	3162
809.470	4357
809.570	3670
809.670	2861
809.770	4373
809.870	3798
809.970	3569
810.070	3910
810.169	3432
810.269	2265
810.369	4415
810.469	2627
810.568	2928
810.668	3253
810.768	3963
810.867	3385
810.967	3590
811.066	2859
811.166	3771
811.265	4291
811.365	3059
811.464	3374
811.564	3441
811.663	4106
811.763	2706
811.862	3086
811.962	3539
812.061	3629
812.160	3707
812.260	4104
812.359	4585
812.458	6299
812.557	12772
812.657	17698
812.756	6988
812.855	4121
812.954	4009
813.053	3614
813.153	3342
813.252	2363
813.351	3123
813.450	4250
813.549	3427
813.648	3486
813.747	3447
813.846	4352
813.945	3311
814.044	3530
814.143	3812
814.242	4374
814.341	2700
814.439	4148
814.538	4819
814.637	3651
814.736	3583
814.835	3660
814.933	3496
815.032	5206
815.131	4342
815.229	4697
815.328	6384
815.427	5241
815.525	5732
815.624	4635
815.722	4581
815.821	4866
815.919	5896
816.018	4640
816.116	6494
816.215	5900
816.313	5513
816.412	5762
816.510	6165
816.609	6875
816.707	6662
816.805	6404
816.904	6148
817.002	7258
817.100	8078
817.198	7364
817.296	8011
817.395	8136
817.493	8843
817.591	8754
817.689	12386
817.787	14766
817.885	23373
817.983	37241
818.081	76142
818.179	170100
818.277	402533
818.375	374179
818.473	111644
818.571	42137
818.669	29680
818.767	25827
818.865	24801
818.963	29266
819.061	41760
819.158	68185
819.256	139045
819.354	303719
819.452	601566
819.549	434545
819.647	142878
819.745	58814
819.842	35727
819.940	25316
820.038	19240
820.135	15658
820.233	14537
820.330	11476
820.428	9825
820.525	9694
820.623	8161
820.720	6783
820.818	7694
820.915	7986
821.012	7365
821.110	5307
821.207	7270
821.304	5763
821.402	5116
821.499	5918
821.596	7840
821.693	5889
821.791	6650
821.888	6739
821.985	10973
822.082	8829
822.179	6761
822.276	4324
822.373	5642
822.470	3865
822.567	4624
822.664	4162
822.761	5316
822.858	3649
822.955	4171
823.052	5062
823.149	4835
823.246	4012
823.343	4093
823.440	4459
823.536	3398
823.633	3507
823.730	4250
823.827	4434
823.923	4391
824.020	4496
824.117	3973
824.213	3584
824.310	4755
824.407	3014
824.503	3992
824.600	4499
824.696	3825
824.793	5233
824.889	4372
824.986	3712
825.082	3624
825.179	4149
825.275	3981
825.371	3358
825.468	3654
825.564	1611
825.660	3959
825.757	3643
825.853	4172
825.949	3149
826.045	3867
826.142	3291
826.238	3478
826.334	4024
826.430	2864
826.526	4388
826.622	3309
826.718	3585
826.814	4226
826.910	4642
827.006	3198
827.102	2948
827.198	3968
827.294	3322
827.390	3884
827.486	3147
827.582	2012
827.678	1863
827.774	4296
827.869	2452
827.965	4668
828.061	2501
828.157	3301
828.252	3050
828.348	2834
828.444	3052
828.539	2636
828.635	2737
828.731	3874
828.826	2690
828.922	3541
829.017	2622
829.113	3796
829.208	2607
829.304	3119
829.399	4075
829.495	2739
829.590	3236
829.685	2597
829.781	2928
829.876	3802
829.971	2439
830.066	2790
830.162	2652
830.257	3674
830.352	2975
830.447	4220
830.543	3234
830.638	2401
830.733	4226
830.828	3045
830.923	4037
831.018	3277
831.113	3303
831.208	2929
831.303	2013
831.398	2826
831.493	2138
831.588	3791
831.683	1664
831.778	3581
831.873	2394
831.967	3923
832.062	2885
832.157	2707
832.252	4033
832.346	3000
832.441	2978
832.536	4935
832.631	8629
832.725	8327
832.820	2959
832.914	2504
833.009	2423
833.104	2968
833.198	3781
833.293	3021
833.387	3289
833.482	3350
833.576	2192
833.670	3373
833.765	2129
833.859	3188
833.954	3012
834.048	2524
834.142	1977
834.237	2254
834.331	2657
834.425	2930
834.519	2618
834.613	3847
834.708	2568
834.802	3560
834.896	3063
834.990	2848
835.084	2861
835.178	2908
835.272	2320
835.366	2657
835.460	2754
835.554	1944
835.648	2528
835.742	3207
835.836	2792
835.930	1805
836.024	3034
836.117	2624
836.211	2314
836.305	4051
836.399	3614
836.493	1960
836.586	3481
836.680	2425
836.774	1789
836.867	3207
836.961	1687
837.055	2369
837.148	2286
837.242	2640
837.335	1697
837.429	2939
837.522	2395
837.616	3159
837.709	4842
837.803	3730
837.896	3433
837.989	3378
838.083	2358
838.176	4909
838.269	3768
838.363	3794
838.456	2185
838.549	5211
838.642	5215
838.735	10486
838.829	5412
838.922	2529
839.015	2357
839.108	2243
839.201	2826
839.294	3342
839.387	3197
839.480	2552
839.573	2776
839.666	3505
839.759	2554
839.852	1306
839.945	2719
840.038	2421
840.131	1857
840.223	2669
840.316	3081
840.409	2589
840.502	2369
840.594	3206
840.687	1374
840.780	3152
840.873	1784
840.965	2827
841.058	3652
841.150	4540
841.243	3364
841.336	2746
841.428	1783
841.521	1565
841.613	1963
841.706	2445
841.798	1085
841.890	2883
841.983	1383
842.075	2796
842.167	2432
842.260	3329
842.352	3043
842.444	3127
842.537	3897
842.629	5700
842.721	2726
842.813	2690
842.905	1307
842.997	3028
843.090	1579
843.182	3115
843.274	4630
843.366	9189
843.458	14730
843.550	11012
843.642	3974
843.734	2859
843.826	2425
843.918	3121
844.009	3075
844.101	2354
844.193	1540
844.285	2975
844.377	2386
844.469	2766
844.560	2113
844.652	2616
844.744	2556
844.835	1972
844.927	2118
845.019	2593
845.110	2368
845.202	2545
845.293	1909
845.385	1933
845.476	1418
845.568	2905
845.659	1412
845.751	2876
845.842	1658
845.934	2174
846.025	1451
846.116	2798
846.208	1816
846.299	1651
846.390	3091
846.482	3285
846.573	2545
846.664	3339
846.755	3423
846.846	4150
846.937	1121
847.029	2422
847.120	1495
847.211	1254
847.302	2075
847.393	2020
847.484	2762
847.575	1647
847.666	1584
847.757	2713
847.847	1676
847.938	3079
848.029	2256
848.120	1705
848.211	2181
848.302	1471
848.392	1254
848.483	2086
848.574	975
848.664	2019
848.755	1873
848.846	2864
848.936	989
849.027	2068
849.118	2200
849.208	2036
849.299	3280
849.389	4358
849.480	6671
849.570	11351
849.661	19965
849.751	32934
849.841	13832
849.932	3086
850.022	2182
850.112	2076
850.203	1755
850.293	2006
850.383	1768
850.474	1432
850.564	2135
850.654	2150
850.744	2246
850.834	2280
850.924	1813
851.014	2868
851.104	2551
851.194	1912
851.284	2287
851.374	3453
851.464	2314
851.554	1582
851.644	1974
851.734	3976
851.824	2148
851.914	1854
852.004	2949
852.094	1321
852.183	1542
852.273	2271
852.363	1305
852.452	2542
852.542	2278
852.632	2025
852.721	2277
852.811	1640
852.901	2026
852.990	2359
853.080	1626
853.169	2804
853.259	1586
853.348	2665
853.438	2801
853.527	3568
853.617	4654
853.706	9065
853.795	14157
853.885	31221
853.974	58552
854.063	101180
854.152	164905
854.242	68821
854.331	12859
854.420	5969
854.509	4372
854.598	4601
854.687	4188
854.777	3213
854.866	2024
854.955	2713
855.044	1853
855.133	2249
855.222	1308
855.311	1992
855.400	2476
855.488	1981
855.577	1894
855.666	1813
855.755	2510
855.844	2006
855.933	1368
856.021	2542
856.110	2617
856.199	1504
856.288	1698
856.376	2009
856.465	788
856.554	2207
856.642	1774
856.731	2512
856.819	1600
856.908	1596
856.996	1173
857.085	882
857.173	1524
857.262	1990
857.350	2308
857.438	1866
857.527	2059
857.615	2628
857.703	1698
857.792	1645
857.880	1048
857.968	2053
858.056	2174
858.145	2445
858.233	1713
858.321	2457
858.409	2689
858.497	1646
858.585	1118
858.673	1685
858.761	1456
858.849	1881
858.937	584
859.025	1561
859.113	2121
859.201	788
859.289	1379
859.377	1369
859.465	2184
859.552	1635
859.640	1109
859.728	1979
859.816	1861
859.903	2758
859.991	900
860.079	1346
860.166	1935
860.254	2492
860.342	2101
860.429	1314
860.517	1532
860.604	2595
860.692	1503
860.779	1306
860.867	1152
860.954	1534
861.042	1623
861.129	3397
861.216	1825
861.304	1375
861.391	2397
861.478	1199
861.565	1311
861.653	2578
861.740	1011
861.827	1668
861.914	1682
862.001	1642
862.089	1594
862.176	581
862.263	1420
862.350	1446
862.437	1355
862.524	1389
862.611	1642
862.698	1711
862.785	2018
862.871	2164
862.958	1578
863.045	2350
863.132	1206
863.219	1389
863.306	811
863.392	1911
863.479	1293
863.566	1930
863.652	1517
863.739	1126
863.826	1593
863.912	1170
863.999	587
864.086	1976
864.172	1619
864.259	1113
864.345	1853
864.432	1876
864.518	1163
864.604	2199
864.691	2360
864.777	1985
864.863	2158
864.950	2503
865.036	1891
865.122	3712
865.209	3862
865.295	4434
865.381	3645
865.467	4360
865.553	5317
865.639	5922
865.726	9504
865.812	17630
865.898	31836
865.984	44018
866.070	80472
866.156	94169
866.242	27262
866.328	7804
866.414	4269
866.499	4633
866.585	3767
866.671	4051
866.757	3122
866.843	2910
866.928	3087
867.014	3165
867.100	4062
867.186	3188
867.271	3628
867.357	4961
867.442	4350
867.528	3634
867.614	2525
867.699	3700
867.785	3137
867.870	2443
867.956	2575
868.041	3810
868.127	2421
868.212	3673
868.297	3177
868.383	4362
868.468	4098
868.553	5779
868.639	6544
868.724	10990
868.809	11275
868.894	4260
868.979	3523
869.065	3710
869.150	1458
869.235	2304
869.320	1851
869.405	2387
869.490	2171
869.575	1473
869.660	2566
869.745	2379
869.830	2218
869.915	2572
870.000	2229
870.085	2495
870.169	2308
870.254	3002
870.339	2096
870.424	1931
870.509	1637
870.593	2893
870.678	1989
870.763	1985
870.847	2342
870.932	1800
871.016	2469
871.101	1654
871.186	2152
871.270	2502
871.355	1392
871.439	1575
871.523	1800
871.608	2077
871.692	1640
871.777	1869
871.861	1595
871.945	1486
872.030	1651
872.114	2590
872.198	1578
872.282	1934
872.367	1724
872.451	1632
872.535	1917
872.619	2163
872.703	1952
872.787	2760
872.871	1891
872.955	1485
873.039	1197
873.123	1672
873.207	1931
873.291	1764
873.375	2235
873.459	2290
873.543	1778
873.627	1916
873.711	627
873.794	2035
873.878	851
873.962	2100
874.045	1689
874.129	1370
874.137	1399
874.213	1685
874.245	1291
874.296	654
874.352	471
874.380	381
874.460	2027
874.464	2092
874.547	1162
874.568	1396
874.631	2109
874.676	1723
874.714	1399
874.784	2332
874.798	2516
874.881	2184
874.892	2069
874.965	1299
874.999	1594
875.048	1969
875.107	2046
875.131	2094
875.215	1557
875.215	1557
875.298	1671
875.323	1433
875.381	969
875.430	1804
875.465	2365
875.538	2281
875.548	2257
875.631	1731
875.646	1579
875.714	932
875.753	1175
875.798	1447
875.861	1566
875.881	1624
875.964	1581
875.968	1581
876.047	1403
876.076	1451
876.130	1600
876.183	1207
876.213	1001
876.291	2669
876.296	2783
876.379	787
876.398	977
876.462	1528
876.506	1438
876.545	1400
876.613	1483
876.628	1512
876.711	1771
876.721	1771
876.794	1648
876.828	1454
876.877	1190
876.935	1212
876.960	1236
877.043	1571
877.043	1575
877.125	2507
877.150	2301
877.208	1799
877.258	1844
877.291	1866
877.365	1850
877.374	1859
877.456	2554
877.472	2426
877.539	1748
877.579	1845
877.622	1977
877.687	1806
877.704	1756
877.787	1946
877.794	1936
877.869	1784
877.901	1887
877.952	2119
878.008	1696
878.034	1493
878.115	1131
878.117	1126
878.199	1428
878.222	1517
878.282	1778
878.329	1783
878.364	1627
878.437	1918
878.447	1989
878.529	520
878.544	715
878.611	1474
878.651	1162
878.694	979
878.758	1927
878.776	2149
878.858	1482
878.865	1492
878.941	1639
878.972	1496
879.023	1254
879.078	1245
879.105	1343
879.185	2358
879.187	2379
879.269	2241
879.292	2294
879.351	1871
879.399	1548
879.433	1525
879.506	915
879.516	856
879.598	1779
879.613	1752
879.680	1326
879.720	1282
879.762	1470
879.827	1642
879.844	1648
879.926	1718
879.933	1723
880.007	1832
880.040	1686
880.089	1380
880.147	1856
880.171	2164
880.253	3962
880.254	3974
880.335	5826
880.360	6112
880.417	7862
880.467	10490
880.499	12437
880.574	16886
880.580	16764
880.662	6793
880.680	5445
880.744	2470
880.787	1302
880.825	1048
880.893	1400
880.907	1414
880.989	824
881.000	828
881.070	1399
881.106	1484
881.152	1250
881.213	1222
881.233	1295
881.315	1077
881.319	1102
881.396	1707
881.426	1628
881.478	1195
881.532	1593
881.559	1763
881.639	757
881.641	747
881.722	1476
881.745	1533
881.803	1563
881.852	1659
881.885	1739
881.958	1893
881.966	1881
882.047	2087
882.064	1991
882.129	1819
882.171	2058
882.210	2520
882.277	3590
882.291	3649
882.372	2342
882.383	2250
882.454	2070
882.489	2169
882.535	2239
882.596	1759
882.616	1605
882.697	1781
882.702	1774
882.778	1693
882.808	1711
882.859	1585
882.914	1335
882.940	1310
883.020	953
883.021	951
883.102	935
883.127	908
883.183	1126
883.233	1479
883.264	1570
883.339	1112
883.345	1096
883.426	1463
883.445	1486
883.507	1219
883.551	932
883.587	867
883.657	1574
883.668	1721
883.749	2022
883.763	1999
883.830	1237
883.869	1088
883.910	1184
883.975	1257
883.991	1255
884.072	1072
884.081	1097
884.152	1538
884.187	1456
884.233	1447
884.292	1836
884.314	1823
884.394	1079
884.398	1070
884.475	865
884.504	855
884.555	1318
884.610	1474
884.636	1439
884.716	1182
884.716	1185
884.797	1555
884.821	1547
884.877	1469
884.927	1329
884.958	1245
885.033	1016
885.038	999
885.118	1060
885.139	972
885.199	1083
885.244	1327
885.279	1311
885.350	1392
885.359	1451
885.439	1570
885.456	1586
885.520	1601
885.561	1696
885.600	1600
885.667	1368
885.680	1334
885.760	1285
885.773	1229
885.840	1193
885.878	1340
885.920	1490
885.984	1377
886.000	1311
886.080	1245
886.089	1238
886.160	1414
886.195	1503
886.240	1528
886.300	1433
886.320	1395
886.400	1497
886.406	1479
886.480	1676
886.511	1916
886.560	2253
886.616	2409
886.640	2168
886.720	1362
886.722	1337
886.800	1182
886.827	1253
886.879	1753
886.932	2105
886.959	1926
887.038	1585
887.039	1587
887.119	1239
887.143	1291
887.198	1138
887.248	815
887.278	919
887.354	1123
887.358	1134
887.437	1511
887.459	1583
887.517	1720
887.564	1697
887.596	1532
887.669	1360
887.676	1369
887.755	1638
887.774	1584
887.835	964
887.880	706
887.914	1015
887.985	1520
887.994	1527
888.073	1585
888.090	1597
888.153	1851
888.195	1965
888.232	1919
888.300	2002
888.311	1923
888.391	1185
888.405	1066
888.470	909
888.510	718
888.549	684
888.615	879
888.628	1008
888.708	1619
888.720	1720
888.787	1726
888.825	1683
888.866	1441
888.930	1145
888.945	1156
889.024	1207
889.035	1208
889.103	1440
889.140	1568
889.182	1673
889.245	1849
889.261	1764
889.340	1264
889.349	1215
889.419	1693
889.454	1901
889.498	1778
889.559	1624
889.577	1734
889.656	2202
889.664	2246
889.735	2460
889.768	2554
889.814	1963
889.873	1171
889.978	1265
890.083	1973
890.187	1921
890.292	1139
890.397	1193
890.501	1164
890.606	1679
890.710	1019
890.815	2015
890.919	887
891.024	1116
891.128	2107
891.233	1670
891.337	1587
891.442	2391
891.546	1200
891.650	1406
891.755	1228
891.859	3362
891.963	2010
892.068	2207
892.172	1385
892.276	1073
892.380	1347
892.484	1188
892.589	1836
892.693	2216
892.797	891
892.901	1310
893.005	1774
893.109	1861
893.213	1426
893.317	1569
893.421	1786
893.525	503
893.629	1407
893.733	1462
893.837	1800
893.941	1349
894.045	1699
894.148	1360
894.252	1478
894.356	2079
894.460	2821
894.564	1317
894.667	958
894.771	615
894.875	811
894.978	997
895.082	1457
895.186	1344
895.289	1362
895.393	1978
895.496	1322
895.600	1591
895.703	561
895.807	2099
895.910	1326
896.014	1834
896.117	905
896.221	1960
896.324	1893
896.427	1334
896.531	733
896.634	1554
896.737	1121
896.840	565
896.944	553
897.047	1884
897.150	1576
897.253	1589
897.356	1938
897.460	1675
897.563	993
897.666	2327
897.769	2072
897.872	457
897.975	1259
898.078	1437
898.181	677
898.284	1315
898.387	1396
898.490	1280
898.593	1191
898.695	1477
898.798	915
898.901	1761
899.004	1341
899.107	1454
899.209	867
899.312	1445
899.415	981
899.518	1706
899.620	964
899.723	1283
899.826	1926
899.928	4041
900.031	1633
900.133	1350
900.236	1234
900.338	949
900.441	604
900.543	1322
900.646	1401
900.748	871
900.851	1934
900.953	1129
901.055	1671
901.158	1874
901.260	1124
901.362	1083
901.465	562
901.567	1232
901.669	1789
901.771	1021
901.873	1429
901.976	858
902.078	1490
902.180	867
902.282	498
902.384	840
902.486	1573
902.588	1060
902.690	1992
902.792	950
902.894	1566
902.996	1669
903.098	1194
903.200	664
903.302	686
903.404	1314
903.505	799
903.607	1050
903.709	1002
903.811	1512
903.913	1106
904.014	511
904.116	453
904.218	1297
904.319	783
904.421	1134
904.523	1570
904.624	1832
904.726	886
904.827	986
904.929	946
905.030	799
905.132	2136
905.233	1245
905.335	1070
905.436	1500
905.537	891
905.639	1752
905.740	1455
905.841	1446
905.943	882
906.044	1019
906.145	1048
906.247	1369
906.348	857
906.449	1107
906.550	840
906.651	1183
906.752	1083
906.854	859
906.955	1136
907.056	1742
907.157	782
907.258	449
907.359	342
907.460	2167
907.561	599
907.662	602
907.762	1828
907.863	164
907.964	923
908.065	2077
908.166	662
908.267	854
908.367	848
908.468	1423
908.569	1500
908.670	1621
908.770	1271
908.871	1578
908.971	960
909.072	1045
909.173	-9
909.273	1253
909.374	1417
909.474	1221
909.575	1040
909.675	1151
909.776	1462
909.876	304
909.977	667
910.077	1837
910.177	757
910.278	849
910.378	776
910.478	703
910.579	857
910.679	731
910.779	1172
910.879	1309
910.980	1336
911.080	1142
911.180	395
911.280	812
911.380	415
911.480	251
911.580	1018
911.680	1430
911.780	773
911.880	1776
911.980	731
912.080	2016
912.180	1762
912.280	1405
912.380	865
912.480	536
912.580	305
912.679	694
912.779	1350
912.879	887
912.979	1289
913.078	728
913.178	851
913.278	418
913.377	1192
913.477	1328
913.577	1191
913.676	1032
913.776	998
913.875	893
913.975	622
914.074	996
914.174	1931
914.273	549
914.373	886
914.472	1190
914.572	663
914.671	934
914.770	1304
914.870	1003
914.969	220
915.068	592
915.167	883
915.267	1394
915.366	866
915.465	1129
915.564	1340
915.663	595
915.763	721
915.862	1248
915.961	1000
916.060	970
916.159	908
916.258	458
916.357	270
916.456	1609
916.555	1126
916.654	1319
916.752	792
916.851	1498
916.950	834
917.049	1070
917.148	-94
917.247	850
917.345	992
917.444	444
917.543	490
917.642	898
917.740	630
917.839	1459
917.937	1092
918.036	1540
918.135	1089
918.233	749
918.332	854
918.430	510
918.529	1246
918.627	931
918.726	-130
918.824	1167
918.923	29
919.021	462
919.119	111
919.218	328
919.316	554
919.414	770
919.512	1768
919.611	1462
919.709	1484
919.807	1766
919.905	1144
920.003	1077
920.102	272
920.200	1010
920.298	1406
920.396	703
920.494	0
920.592	1035
920.690	469
920.788	973
920.886	612
920.984	791
921.082	1328
921.180	2302
921.277	1612
921.375	1787
921.473	1924
921.571	1395
921.669	1422
921.766	1750
921.864	2070
921.962	1942
922.060	246
922.157	1953
922.255	922
922.352	1130
922.450	975
922.548	957
922.645	1248
922.743	2465
922.840	2698
922.938	3555
923.035	4027
923.133	3480
923.230	2907
923.327	4504
923.425	4845
923.522	4077
923.619	3846
923.717	3887
923.814	2821
923.911	3274
924.008	2913
924.106	3164
924.203	2562
924.300	2185
924.397	2630
924.494	2762
924.591	3038
924.688	3009
924.786	2676
924.883	2830
924.979	3857
925.077	2777
925.173	2972
925.270	3048
925.367	2556
925.464	3085
925.561	2607
925.658	2884
925.755	3020
925.852	3468
925.948	3136
926.045	3778
926.142	3072
926.239	3019
926.335	3602
926.432	3790
926.529	3264
926.625	3970
926.722	2989
926.818	3875
926.915	2738
927.011	2666
927.108	2160
927.204	2481
927.301	2032
927.397	1467
927.494	3183
927.590	2391
927.687	2627
927.783	2864
927.879	2255
927.976	2437
928.072	2036
928.168	1920
928.264	2108
928.361	1511
928.457	2310
928.553	3012
928.649	2703
928.745	2594
928.841	1573
928.937	1933
929.033	1812
929.129	2475
929.225	2119
929.321	1275
929.417	2096
929.513	2941
929.609	1016
929.705	2193
929.801	2490
929.897	1555
929.993	2264
930.089	1948
930.184	1752
930.280	2611
930.376	2729
930.471	2625
930.567	2046
930.663	2126
930.758	1518
930.854	1746
930.950	1751
931.045	2298
931.141	1788
931.236	3824
931.332	2780
931.427	1871
931.523	2295
931.618	2936
931.714	1257
931.809	1305
931.905	2463
932.000	1313
932.095	1253
932.191	2378
932.286	2077
932.381	2677
932.476	1125
932.572	1439
932.667	1635
932.762	747
932.857	1199
932.952	1714
933.047	1785
933.142	1902
933.237	1534
933.332	1571
933.427	2428
933.522	1357
933.617	2123
933.712	1654
933.807	1364
933.902	1540
933.997	1679
934.092	996
934.187	1132
934.282	1531
934.376	1776
934.471	2010
934.566	2681
934.661	1514
934.755	1610
934.850	2156
934.945	1858
935.039	1493
935.134	1742
935.228	2081
935.323	2204
935.417	2072
935.512	1090
935.606	451
935.701	1594
935.795	1434
935.890	791
935.984	1555
936.079	821
936.173	2084
936.267	430
936.362	1720
936.456	1126
936.550	2088
936.644	1282
936.738	1470
936.833	1042
936.927	1065
937.021	1194
937.115	973
937.209	1796
937.303	1465
937.397	533
937.491	884
937.585	1517
937.679	2405
937.773	1262
937.867	1516
937.961	1130
938.055	1747
938.149	1631
938.243	1209
938.337	1033
938.430	911
938.524	1466
938.618	1634
938.712	2148
938.805	1966
938.899	858
938.993	1579
939.086	1720
939.180	733
939.274	2531
939.367	1445
939.461	1202
939.554	1342
939.648	928
939.741	578
939.835	890
939.928	1155
940.022	1341
940.115	649
940.208	1037
940.302	2131
940.395	1160
940.488	424
940.582	1829
940.675	1323
940.768	913
940.861	1322
940.954	1100
941.048	931
941.141	604
941.234	719
941.327	1580
941.420	2685
941.513	1987
941.606	1189
941.699	1691
941.792	1276
941.885	700
941.978	2149
942.071	1453
942.164	359
942.257	782
942.349	792
942.442	963
942.535	1223
942.628	1662
942.721	1279
942.813	-175
942.906	1753
942.999	467
943.091	1094
943.184	322
943.277	365
943.369	441
943.462	735
943.554	958
943.647	1175
943.739	1236
943.832	1415
943.924	-357
944.017	704
944.109	195
944.201	1455
944.294	665
944.386	693
944.478	316
944.571	161
944.663	496
944.755	706
944.847	1470
944.940	959
945.032	188
945.124	633
945.216	1579
945.308	1364
945.400	1087
945.492	1329
945.584	981
945.676	804
945.768	969
945.860	851
945.952	880
946.044	1042
946.136	520
946.228	166
946.320	623
946.412	1240
946.503	533
946.595	1972
946.687	1051
946.779	922
946.870	1059
946.962	173
947.054	942
947.145	745
947.237	1164
947.329	1176
947.420	214
947.512	446
947.603	271
947.695	1141
947.786	-336
947.878	-90
947.969	294
948.061	419
948.152	15
948.243	-144
948.335	-169
948.426	174
948.517	261
948.609	1029
948.700	309
948.791	689
948.882	467
948.973	164
949.065	-98
949.156	832
949.247	935
949.338	310
949.429	471
949.520	20
949.611	471
949.702	609
949.793	-86
949.884	511
949.975	385
950.066	197
950.157	221
950.247	768
950.338	-238
950.429	621
950.520	439
950.611	1490
950.701	335
950.792	1104
950.883	480
950.973	799
951.064	699
951.155	625
951.245	1177
951.336	660
951.427	-303
951.517	1467
951.608	779
951.698	-128
951.788	180
951.879	380
951.969	-438
952.060	1171
952.150	210
952.240	621
952.331	-777
952.421	1764
952.511	311
952.602	882
952.692	24
952.782	-59
952.872	348
952.962	224
953.052	579
953.143	243
953.233	400
953.323	897
953.413	-42
953.503	402
953.593	545
953.683	425
953.773	289
953.863	1477
953.953	342
954.042	479
954.132	-204
954.222	1497
954.312	-90
954.402	-236
954.492	610
954.581	1551
954.671	876
954.761	-170
954.850	494
954.940	424
955.030	-108
955.119	-789
955.209	-130
955.298	256
955.388	209
955.477	712
955.567	322
955.656	-377
955.746	47
955.835	434
955.925	-139
956.014	282
956.103	29
956.193	637
956.282	-141
956.371	770
956.461	-209
956.550	459
956.639	112
956.728	-652
956.817	441
956.906	100
956.995	604
957.085	263
957.174	206
957.263	-136
957.352	-28
957.441	518
957.530	-194
957.619	406
957.708	-61
957.796	252
957.885	-364
957.974	-275
958.063	393
958.152	-408
958.241	-445
958.329	189
958.418	-312
958.507	-72
958.596	988
958.684	-677
958.773	212
958.861	-18
958.950	-430
959.039	282
959.127	-198
959.216	1084
959.304	-73
959.393	882
959.481	332
959.570	50
959.658	289
959.746	-24
959.835	304
959.923	1214
960.011	649
960.100	972
960.188	132
960.276	-532
960.365	-466
960.453	-575
960.541	-759
960.629	443
960.717	574
960.805	68
960.893	553
960.981	180
961.069	904
961.158	198
961.245	125
961.333	18
961.421	114
961.509	91
961.597	353
961.685	-454
961.773	76
961.861	-335
961.949	-515
962.036	-932
962.124	116
962.212	-13
962.299	-920
962.387	-661
962.475	-1021
962.562	-427
962.650	243
962.738	29
962.825	-560
962.913	-312
963.000	-196
963.088	715
963.175	-221
963.263	82
963.350	-146
963.438	-546
963.525	-79
963.612	1290
963.700	2557
963.787	9046
963.874	4529
963.962	-70
964.049	-209
964.136	224
964.223	-310
964.310	307
964.398	-548
964.485	391
964.572	110
964.659	1130
964.746	233
964.833	387
964.920	-591
965.007	-165
965.094	1017
965.181	-148
965.268	259
965.355	501
965.441	63
965.528	-1224
965.615	603
965.702	145
965.789	-609
965.875	197
965.962	-867
966.049	35
966.136	266
966.222	-644
966.309	440
966.395	-219
966.482	171
966.569	130
966.655	-294
966.742	-247
966.828	-871
966.915	-414
967.001	-256
967.087	-1641
967.174	-272
967.260	1128
967.347	859
967.433	1453
967.519	5996
967.605	2464
967.692	-127
967.778	-880
967.864	-452
967.950	-258
968.036	-1291
968.123	489
968.209	-565
968.295	-599
968.381	501
968.467	928
968.553	-829
968.639	832
968.725	-735
968.811	532
968.897	615
968.983	-432
969.069	-850
969.154	-794
969.240	36
969.326	-857
969.412	-604
969.497	-675
969.583	-830
969.669	-68
969.755	316
969.840	-795
969.926	995
970.012	563
970.097	651
970.183	574
970.268	-888
970.354	855
970.439	806
970.525	3557
970.610	187
970.696	795
970.781	-585
970.866	-695
970.952	-554
971.037	-957
971.122	-468
971.208	-711
971.293	-842
971.378	-1495
971.463	-493
971.549	-162
971.634	-133
971.719	435
971.804	411
971.889	755
971.974	-820
972.059	-805
972.144	-925
972.229	-414
972.314	-1398
972.399	-125
972.484	-1126
972.569	91
972.654	-1474
972.739	1796
972.824	1927
972.908	134
972.993	-761
973.078	-597
973.163	-671
973.247	-369
973.332	-1912
973.417	756
973.501	-1204
973.586	-162
973.671	-109
973.755	82
973.840	617
973.924	-90
974.009	288
974.093	-474
974.178	1055
974.262	792
974.346	386
974.431	-157
974.515	-211
974.600	-1132
974.684	-510
974.768	-340
974.852	919
974.937	-966
975.021	543
975.105	-422
975.189	111
975.273	-95
975.358	-1433
975.442	-746
975.526	185
975.610	-1186
975.694	-221
975.778	295
975.862	-1320
975.946	-2209
976.030	341
976.114	-770
976.198	-200
976.281	-364
976.365	105
976.449	-1144
976.533	-311
976.617	-817
976.700	117
976.784	-144
976.868	-1065
976.951	819
977.035	-409
977.119	-128
977.202	-1145
977.286	-463
977.369	-274
977.453	419
977.536	-1155
977.620	-1018
977.703	-280
977.787	-1202
977.870	-12
977.953	506
978.037	-933
978.120	217
978.203	-237
978.287	1062
978.370	127
978.453	-568
978.536	-407
978.620	195
978.703	1004
978.786	666
978.869	-1035
978.952	-1341
979.035	224
979.118	-20
979.201	-892
979.284	-662
979.367	-500
979.450	-560
979.533	-211
979.616	-31
979.699	-734
979.782	348
979.865	-1059
979.948	-259
980.030	-935
980.113	353
980.196	-848
980.279	137
980.361	-1633
980.444	-480
980.526	66
980.609	-513
980.692	84
980.774	-293
980.857	-1394
980.939	669
981.022	-583
981.104	-710
981.187	-506
981.269	-418
981.352	-1183
981.434	-1515
981.516	-1202
981.599	-295
981.681	-1154
981.763	-535
981.846	-1313
981.928	-174
982.010	-293
982.092	-1464
982.174	-664
982.256	-730
982.339	-1341
982.421	-218
982.503	-406
982.585	-953
982.667	-575
982.749	-879
982.831	-726
982.913	-1408
982.995	5
983.077	-543
983.158	-1
983.240	-1723
983.322	-556
983.404	-252
983.486	-757
983.568	383
983.649	-416
983.731	-276
983.813	-1266
983.894	-219
983.976	-1198
984.058	373
984.139	375
984.221	-1176
984.302	-678
984.384	-356
984.465	-625
984.547	-855
984.628	-1423
984.710	-551
984.791	-1226
984.872	-125
984.954	-1067
985.035	118
985.116	-909
985.198	-321
985.279	114
985.360	-657
985.441	-852
985.522	49
985.604	-1161
985.685	-1731
985.766	-72
985.847	-195
985.928	-1086
986.009	-1204
986.090	-1015
986.171	531
986.252	-269
986.333	-561
986.414	-923
986.495	-1036
986.576	-683
986.656	-1118
986.737	-52
986.818	-308
986.899	-950
986.980	-1222
987.060	-16
987.141	-430
987.222	-85
987.302	485
987.383	-320
987.464	37
987.544	-223
987.625	-342
987.705	-839
987.786	-164
987.866	-672
987.947	-455
988.027	169
988.108	-1052
988.188	-30
988.268	-371
988.349	-308
988.429	-1089
988.509	-696
988.589	-249
988.670	-1588
988.750	450
988.830	-548
988.910	-424
988.990	-309
989.070	-369
989.151	-290
989.231	40
989.311	-404
989.391	-1152
989.471	-246
989.551	-989
989.631	-818
989.711	-8
989.791	-765
989.870	-1228
989.950	-167
990.030	-892
990.110	-430
990.190	-471
990.269	-409
990.349	-645
990.429	-119
990.509	228
990.588	-905
990.668	-80
990.747	-739
990.827	-367
990.907	-420
990.986	-1053
991.066	-937
991.145	-720
991.225	-532
991.304	-1123
991.383	-678
991.463	-524
991.542	-560
991.622	-1026
991.701	-661
991.780	-1299
991.859	-1178
991.939	-912
992.018	-399
992.097	-235
992.176	-892
992.256	-1001
992.335	-1536
992.414	-795
992.493	-983
992.572	-204
992.651	-98
992.730	-602
992.809	-462
992.888	-970
992.967	-227
993.046	-460
993.125	-1664
993.203	-490
993.282	-419
993.361	-150
993.440	-565
993.519	-943
993.597	-1018
993.676	-821
993.755	174
993.834	-321
993.912	-1998
993.991	316
994.069	-1233
994.148	-527
994.226	-1098
994.305	-1570
994.384	-1571
994.462	-389
994.540	-1636
994.619	-1238
994.697	-565
994.776	-1068
994.854	-376
994.932	-1723
995.011	-859
995.089	-378
995.167	-825
995.245	-744
995.324	-1402
995.402	542
995.480	-1177
995.558	-861
995.636	-1819
995.714	-1010
995.792	-208
995.870	-1109
995.948	-626
996.026	-445
996.104	-1564
996.182	273
996.260	-938
996.338	-689
996.416	-1642
996.494	-1384
996.572	100
996.649	-840
996.727	-1041
996.805	-790
996.883	-1030
996.960	-965
997.038	-630
997.116	-499
997.193	-425
997.271	-1413
997.348	-987
997.426	-871
997.504	-1381
997.581	-180
997.658	-1156
997.736	-1741
997.813	-917
997.891	-157
997.968	-657
998.046	-1211
998.123	-535
998.200	-202
998.277	-1867
998.355	-930
998.432	-1819
998.509	-1050
998.586	-454
998.663	-828
998.741	-840
998.818	-655
998.895	-1616
998.972	-303
999.049	-694
999.126	-1448
999.203	36
999.280	-999
999.357	-1367
999.434	-1136
999.511	-1763
999.587	-889
999.664	-408
999.741	-970
999.818	-522
999.895	-1475
999.971	-254
1000.048	-1755
1000.125	-689
1000.202	-1357
1000.278	-1014
1000.355	-1059
1000.431	-1310
1000.508	-1129
1000.584	-972
1000.661	-913
1000.738	-1539
1000.814	-736
1000.890	-969
1000.967	-855
1001.043	-467
1001.120	-2010
1001.196	-170
1001.272	-2266
1001.349	-640
1001.425	-871
1001.501	-727
1001.577	-1593
1001.654	-556
1001.730	-1181
1001.806	-1300
1001.882	-1911
1001.958	-1197
1002.034	-1112
1002.110	-915
1002.186	-2681
1002.262	-2591
1002.338	-2385
1002.414	-652
1002.490	-270
1002.566	-840
1002.642	-1402
1002.718	-791
1002.794	-1033
1002.870	-1461
1002.945	-1193
1003.021	-1822
1003.097	-1183
1003.173	-823
1003.248	-1179
1003.324	-565
1003.400	-940
1003.475	-1935
1003.551	-815
1003.626	-1180
1003.702	-2102
1003.777	-1890
1003.853	-1450
1003.928	-893
1004.004	-1006
1004.079	-1183
1004.155	-1185
1004.230	-1267
1004.305	-736
1004.381	-1541
1004.456	-1207
1004.531	-1419
1004.607	-1318
1004.682	-1499
1004.757	-48
1004.832	-1174
1004.907	-1189
1004.982	-1136
1005.057	-1279
1005.133	-1450
1005.208	-1126
1005.283	-1208
1005.358	-885
1005.433	-2049
1005.508	-1382
1005.583	-2409
1005.657	-1258
1005.732	-585
1005.807	-1430
1005.882	-929
1005.957	-1541
1006.032	-1044
1006.106	-1290
1006.181	-1451
1006.256	-697
1006.331	-2128
1006.405	-1129
1006.480	-902
1006.554	-1958
1006.629	-1474
1006.704	-1351
1006.778	-1439
1006.853	-340
1006.927	-1763
1007.002	-665
1007.076	-815
1007.150	-1612
1007.225	-1362
1007.299	-933
1007.373	-1999
1007.448	-967
1007.522	-1751
1007.596	-898
1007.671	-1790
1007.745	-505
1007.819	-1820
1007.893	-1249
1007.967	-628
1008.041	-1976
1008.115	-671
1008.190	-1068
1008.264	-1631
1008.338	-1957
1008.412	-1499
1008.486	-1000
1008.560	-1286
1008.633	-1694
1008.707	-635
1008.781	-923
1008.855	-1297
1008.929	-966
1009.003	-2021
1009.076	-2065
1009.150	-1570
1009.224	-783
1009.298	-1985
1009.371	-1810
1009.445	-466
1009.519	-1899
1009.592	-1721
1009.666	-1408
1009.739	-2122
1009.813	-1942
1009.886	-437
1009.960	-1488
1010.033	-1103
1010.107	-1183
1010.180	-2761
1010.253	-1543
1010.327	-2273
1010.400	-1525
1010.473	-1795
1010.547	-623
1010.620	-2480
1010.693	-1048
1010.766	-2548
1010.840	-1166
1010.913	-1424
1010.986	-2128
1011.059	-1333
1011.132	-1628
1011.205	-975
1011.278	-1318
1011.351	-1095
1011.424	-1841
1011.497	-1673
1011.570	-686
1011.643	-1171
1011.716	-1560
1011.789	-2547
1011.862	-1918
1011.934	-892
1012.007	-2456
1012.080	-2006
1012.153	-1662
1012.225	-1025
1012.298	-1189
1012.371	-2065
1012.443	-1710
1012.516	-2442
1012.588	-1112
1012.661	-1499
1012.733	-2034
1012.806	-1301
1012.879	-1811
1012.951	-1217
1013.023	-2082
1013.096	-1581
1013.168	-1281
1013.241	-1210
1013.313	-1587
1013.385	-1741
1013.458	-1993
1013.530	-1096
1013.602	-2079
1013.674	-1470
1013.746	-2436
1013.819	-1617
1013.891	-579
1013.963	-1847
1014.035	-1127
1014.107	-2145
1014.179	-1125
1014.251	-1493
1014.323	-1980
1014.395	-1571
1014.467	-1858
1014.539	-2049
1014.611	-1963
1014.683	-1116
1014.754	-1206
1014.826	-2714
1014.898	-1860
1014.970	-2152
1015.042	-1213
1015.113	-1935
1015.185	-1798
1015.257	-2419
1015.328	-1348
1015.400	-1926
1015.471	-1687
1015.543	-2009
1015.615	-964
1015.686	-2180
1015.757	-1534
1015.829	-2060
1015.901	-1845
1015.972	-2164
1016.043	-1671
1016.115	-1717
1016.186	-928
1016.257	-2494
1016.328	-1915
1016.400	-775
1016.471	-1544
1016.542	-1212
1016.613	-1347
1016.685	-1693
1016.756	-1496
1016.827	-2040
1016.898	-1899
1016.969	-1368
1017.040	-1542
1017.111	-1543
1017.182	-1928
1017.253	-1977
1017.324	-1471
1017.395	-1984
1017.466	-1655
1017.537	-1620
1017.608	-1547
1017.678	-1478
1017.749	-1610
1017.820	-1609
1017.891	-1916
1017.961	-2289
1018.032	-1974
1018.103	-1497
1018.173	-1368
1018.244	-2427
1018.315	-2040
1018.385	-683
1018.456	-1286
1018.526	-1954
1018.597	-1166
1018.667	-1794
1018.738	-1720
1018.808	-1487
1018.878	-2104
1018.949	-1854
1019.019	-1620
1019.089	-1159
1019.160	-1145
1019.230	-1853
1019.300	-662
1019.371	-2760
1019.441	-954
1019.511	-1157
1019.581	-1679
1019.651	-1251
1019.721	-1381
1019.791	-2031
1019.861	-1561
1019.931	-2249
1020.001	-1489
1020.071	-1604
1020.141	-2617
1020.211	-1752
1020.281	-2500
1020.351	-1725
1020.421	-1208
1020.491	-1368
1020.560	-1971
1020.630	-1725
1020.700	-1753
1020.770	-2287
1020.839	-1667
1020.909	-2035
1020.979	-1977
1021.048	-1731
1021.118	-2247
1021.187	-1621
1021.257	-1986
1021.326	-1844
1021.396	-2522
1021.465	-1922
1021.535	-1188
1021.604	-1911
1021.674	-2342
1021.743	-2025
1021.812	-2376
1021.882	-2680
1021.951	-2504
1022.020	-2264
1022.089	-1322
1022.159	-2761
1022.228	-861
1022.297	-2244
1022.366	-2434
1022.435	-2516
1022.504	-1780
1022.573	-1776
1022.642	-2112
1022.711	-2226
1022.781	-1389
1022.849	-1539
1022.918	-2227
1022.987	-1908
1023.056	-1656
1023.125	-1263
1023.194	-1984
1023.263	-1499
1023.331	-1137
1023.400	-2822
1023.469	-1869
1023.538	-870
1023.606	-3208
1023.675	-2093
1023.744	-2349
1023.812	-2736
1023.881	-1031
1023.949	-1761
1024.018	-2124
1024.086	-2504
1024.155	-1816
1024.223	-1426
1024.292	-1157
1024.360	-2565
1024.429	-2295
1024.497	-2483
1024.565	-1619
1024.634	-2422
1024.702	-1730
1024.770	-2431
1024.838	-1422
1024.907	-1884
1024.975	-2022
1025.043	-1919
1025.111	-2710
1025.179	-2134
1025.247	-1285
1025.315	-2092
1025.383	-1038
1025.451	-2554
1025.519	-2228
1025.587	-1879
1025.655	-1443
1025.723	-2460
1025.791	-2171
1025.859	-2073
1025.927	-1545
1025.995	-2350
1026.062	-2384
1026.130	-1475
1026.198	-1685
1026.266	-2514
1026.333	-1498
1026.401	-2590
1026.469	-2045
1026.536	-2185
1026.604	-2268
1026.671	-2346
1026.739	-2508
1026.806	-1976
1026.874	-2440
1026.941	-2753
1027.009	-2208
1027.076	-1975
1027.144	-2391
1027.211	-2372
1027.278	-2712
1027.345	-2626
1027.413	-2095
1027.480	-2495
1027.547	-2097
1027.614	-1424
1027.682	-2373
1027.749	-2288
1027.816	-2371
1027.883	-2483
1027.950	-1183
1028.017	-3543
1028.084	-892
1028.151	-2255
1028.218	-1801
1028.285	-1768
1028.352	-2086
1028.419	-2095
1028.486	-2264
1028.553	-1819
1028.619	-2460
1028.686	-2224
1028.753	-2107
1028.820	-2343
1028.886	-2825
1028.953	-1277
1029.020	-2449
1029.086	-2477
1029.153	-2918
1029.220	-2341
1029.286	-2159
1029.353	-1706
1029.419	-2327
1029.486	-2492
1029.552	-2535
1029.619	-2880
1029.685	-2648
1029.751	-2222
1029.818	-1653
1029.884	-2346
1029.951	-1732
1030.017	-2089
1030.083	-2197
1030.149	-2240
1030.216	-2262
1030.282	-2837
1030.348	-1925
1030.414	-2672
1030.480	-2128
1030.546	-2414
1030.612	-1717
1030.678	-2308
1030.744	-2234
1030.810	-2276
1030.876	-1982
1030.942	-2209
1031.008	-3001
1031.074	-2791
1031.140	-1684
1031.206	-1739
1031.272	-3495
1031.337	-1782
1031.403	-2392
1031.469	-2944
1031.534	-3073
1031.600	-1692
1031.666	-2575
1031.731	-1884
1031.797	-2045
1031.863	-2628
1031.928	-2341
1031.994	-2037
1032.059	-1733
1032.125	-2980
1032.190	-2586
1032.256	-2489
1032.321	-1754
1032.386	-2711
1032.452	-1997
1032.517	-2175
1032.582	-2913
1032.647	-1610
1032.713	-2330
1032.778	-2212
1032.843	-2515
1032.908	-2053
1032.974	-2165
1033.039	-1764
1033.104	-1657
1033.169	-2429
1033.234	-1999
1033.299	-1909
1033.364	-1143
1033.429	-1350
1033.494	-1611
1033.559	-3051
1033.624	-1629
1033.688	-2716
1033.753	-2390
1033.818	-2117
1033.883	-2462
1033.948	-2467
1034.013	-1528
1034.077	-1505
1034.142	-853
1034.207	-1621
1034.271	-1363
1034.336	-667
1034.400	-1015
1034.465	-773
1034.530	-658
1034.594	-1382
1034.658	-1945
1034.723	-2782
1034.787	-1984
1034.852	-2689
1034.916	-2052
1034.981	-2522
1035.045	-2193
1035.109	-2657
1035.173	-2171
1035.238	-2450
1035.302	-1494
1035.366	-1837
1035.430	-2069
1035.495	-3483
1035.559	-1756
1035.623	-2547
1035.687	-2130
1035.751	-1870
1035.815	-2926
1035.879	-2236
1035.943	-2085
1036.007	-1821
1036.071	-1948
1036.135	-1280
1036.198	-2376
1036.262	-2670
1036.326	-1672
1036.390	-1950
1036.454	-2088
1036.517	-2263
1036.581	-1773
1036.645	-1335
1036.709	-659
1036.772	-1876
1036.836	-1871
1036.900	-2267
1036.963	-2295
1037.026	-1762
1037.090	-1971
1037.154	-1744
1037.217	-1907
1037.280	-2344
1037.344	-2271
1037.407	-2899
1037.471	-2276
1037.534	-1799
1037.597	-2417
1037.661	-1966
1037.724	-2774
1037.787	-2614
1037.850	-1810
1037.913	-2669
1037.977	-2289
1038.040	-2769
1038.103	-2768
1038.166	-1793
1038.229	-1904
1038.292	-2286
1038.355	-2661
1038.418	-2257
1038.481	-1684
1038.544	-2313
1038.607	-1939
1038.670	-2261
1038.732	-1919
1038.795	-2628
1038.858	-2108
1038.921	-1792
1038.984	-2376
1039.046	-1782
1039.109	-2627
1039.172	-2831
1039.234	-2326
1039.297	-2303
1039.360	-1743
1039.422	-2751
1039.485	-2215
1039.547	-2496
1039.610	-2051
1039.672	-2146
1039.734	-2002
1039.797	-2599
1039.859	-1924
1039.922	-2334
1039.984	-2300
1040.046	-2075
1040.109	-2228
1040.171	-2473
1040.233	-1623
1040.295	-2749
1040.358	-2322
1040.420	-2616
1040.482	-2229
1040.544	-2625
1040.606	-1358
1040.668	-1628
1040.730	-2430
1040.792	-1535
1040.854	-2908
1040.916	-2765
1040.978	-1970
1041.040	-1307
1041.102	-1718
1041.164	-2024
1041.225	-2000
1041.287	-2520
1041.349	-1621
1041.411	-1973
1041.472	-1580
1041.534	-1763
1041.596	-2600
1041.657	-2151
1041.719	-2223
1041.781	-2243
1041.842	-2046
1041.904	-1947
1041.965	-1640
1042.027	-1337
1042.088	-1847
1042.150	-1865
1042.211	-2482
1042.272	-1459
1042.334	-2115
1042.395	-1551
1042.456	-2015
1042.518	-2428
1042.579	-1981
1042.640	-1890
1042.701	-1783
1042.763	-2229
1042.824	-1270
1042.885	-2612
1042.946	-1551
1043.007	-985
1043.068	-2402
1043.129	-2613
1043.190	-1953
1043.251	-2378
1043.312	-1871
1043.373	-1643
1043.434	-2338
1043.495	-1859
1043.556	-1849
1043.616	-1780
1043.677	-1266
1043.738	-2029
1043.799	-1492
1043.859	-1721
1043.920	-1854
1043.981	-2271
1044.041	-2065
1044.102	-2002
1044.162	-2062
1044.223	-1741
1044.284	-2576
1044.344	-1787
1044.405	-1858
1044.465	-1584
1044.525	-2200
1044.586	-2058
1044.646	-2282
1044.707	-1266
1044.767	-2032
1044.827	-1846
1044.887	-1748
1044.948	-2084
1045.008	-2449
1045.068	-2774
1045.128	-762
1045.188	-2001
1045.249	-1305
1045.309	-1081
1045.369	-990
1045.429	-1856
1045.489	-1063
1045.549	-1960
1045.609	-1528
1045.669	-1727
1045.729	-1977
1045.789	-1490
1045.848	-1073
1045.908	-1594
1045.968	-1438
1046.028	-1500
1046.088	-1308
1046.147	-524
1046.207	-1686
1046.267	-2006
1046.326	-1155
1046.386	-1420
1046.446	-312
1046.505	-626
1046.565	-1153
1046.624	-889
1046.684	-531
1046.743	-489
1046.803	-422
1046.862	78
1046.922	0
