'Start Wavelength	183.907
'End Wavelength	1046.922
'Gate Delay	5.000
'Gate Width (ms)	1.050
'Laser Output Level	0.000
'X Position	0.000
'Y Position	0.000
'Z Position	0.000
'Grid Point Number	1.000
'Shot Number	100.000
183.907	221.000
183.977	-26.000
184.047	499
184.116	-7
184.186	154
184.256	530
184.325	-257
184.395	-180
184.465	1030
184.534	298
184.604	-320
184.674	700
184.743	326
184.813	516
184.883	-347
184.952	94
185.022	664
185.092	265
185.161	804
185.231	533
185.301	148
185.370	439
185.440	402
185.509	-332
185.579	731
185.649	42
185.718	1123
185.788	261
185.857	297
185.927	-162
185.996	181
186.066	-17
186.136	175
186.205	374
186.275	1189
186.344	362
186.414	-154
186.483	592
186.553	1375
186.622	1498
186.692	1673
186.761	439
186.831	-184
186.900	-123
186.970	206
187.039	1350
187.109	1461
187.178	558
187.248	382
187.317	506
187.387	288
187.456	617
187.526	523
187.595	270
187.664	1130
187.734	1407
187.803	681
187.873	1245
187.942	1643
188.012	1261
188.081	270
188.150	232
188.220	1348
188.289	1432
188.358	569
188.428	734
188.497	30
188.567	978
188.636	283
188.705	360
188.775	603
188.844	-51
188.913	1237
188.983	483
189.052	472
189.121	738
189.191	1004
189.260	390
189.329	1810
189.399	1033
189.468	1713
189.537	-54
189.606	396
189.676	1527
189.745	788
189.814	1100
189.883	1060
189.953	1194
190.022	1315
190.091	3859
190.161	4472
190.230	2110
190.299	1454
190.368	912
190.437	242
190.507	982
190.576	612
190.645	817
190.714	476
190.783	-18
190.853	975
190.922	811
190.991	1582
191.060	1224
191.129	774
191.198	1004
191.268	1177
191.337	566
191.406	1072
191.475	814
191.544	700
191.613	915
191.682	353
191.752	1063
191.821	734
191.890	1034
191.959	789
192.028	1406
192.097	1081
192.166	951
192.235	131
192.304	1268
192.373	585
192.442	1153
192.511	981
192.580	455
192.650	376
192.719	900
192.788	1260
192.857	1362
192.926	489
192.995	1171
193.064	1745
193.133	2793
193.202	3652
193.271	2625
193.340	2956
193.409	2941
193.478	3225
193.547	3838
193.615	5488
193.684	4576
193.753	2456
193.822	2455
193.891	1251
193.960	1796
194.029	1370
194.098	1764
194.167	1542
194.236	2213
194.305	1444
194.374	1114
194.443	514
194.512	2273
194.580	1724
194.649	2550
194.718	1708
194.787	1106
194.856	928
194.925	1427
194.994	1467
195.062	2026
195.131	1614
195.200	3037
195.269	3083
195.338	2395
195.407	1540
195.475	1612
195.544	2536
195.613	1719
195.682	1557
195.751	3019
195.819	2961
195.888	1712
195.957	3048
196.026	3059
196.094	2655
196.163	3320
196.232	1630
196.301	2026
196.369	2337
196.438	1949
196.507	1304
196.576	1482
196.644	1698
196.713	1288
196.782	1160
196.850	1919
196.919	1510
196.988	1723
197.056	1272
197.125	1523
197.194	1258
197.262	1459
197.331	1289
197.400	1293
197.468	1024
197.537	1218
197.606	1322
197.674	2748
197.743	4568
197.812	1911
197.880	4854
197.949	3281
198.017	5275
198.086	3555
198.155	1926
198.223	2172
198.292	5471
198.360	2749
198.429	2063
198.497	1835
198.566	3410
198.635	5617
198.703	3622
198.772	2575
198.840	6591
198.909	6043
198.977	2734
199.046	2019
199.114	2154
199.183	2410
199.251	1959
199.320	1855
199.388	1433
199.457	1653
199.525	2067
199.594	2437
199.662	1846
199.731	1941
199.799	2315
199.867	1599
199.936	1964
200.004	2390
200.073	2034
200.141	1736
200.210	1950
200.278	1425
200.346	1983
200.415	2175
200.483	2848
200.552	2670
200.620	1696
200.688	1738
200.757	2203
200.825	1643
200.893	1798
200.962	1702
201.030	1669
201.098	1002
201.167	2366
201.235	2984
201.303	1737
201.372	2777
201.440	2482
201.508	3713
201.577	3080
201.645	3224
201.713	2335
201.781	2681
201.850	3704
201.918	2741
201.986	2136
202.055	2029
202.123	2472
202.191	2780
202.259	2730
202.327	2805
202.396	2719
202.464	2709
202.532	3703
202.600	8728
202.669	5509
202.737	3477
202.805	1818
202.873	2483
202.941	2459
203.009	2534
203.078	2056
203.146	2940
203.214	2689
203.282	2835
203.350	2957
203.418	2852
203.487	2088
203.555	2047
203.623	2516
203.691	2198
203.759	946
203.827	1963
203.895	2732
203.963	3131
204.031	1659
204.099	3073
204.168	1869
204.236	3420
204.304	2373
204.372	2568
204.440	2591
204.508	2528
204.576	1414
204.644	2589
204.712	1672
204.780	2951
204.848	2240
204.916	2009
204.984	2884
205.052	2432
205.120	3001
205.188	2692
205.256	2176
205.324	2509
205.392	2913
205.460	3143
205.528	3591
205.596	3101
205.664	2399
205.732	3237
205.799	7219
205.867	10237
205.935	3726
206.003	3395
206.071	2769
206.139	3382
206.207	3483
206.275	2389
206.343	3008
206.411	3053
206.478	2796
206.546	2948
206.614	2757
206.682	3230
206.750	2751
206.818	4172
206.885	4110
206.953	2863
207.021	3231
207.089	2700
207.157	2421
207.225	2510
207.292	2803
207.360	3276
207.428	3368
207.496	3302
207.563	1571
207.631	2856
207.699	1967
207.767	2864
207.834	3423
207.902	3728
207.970	3786
208.038	3450
208.105	3323
208.173	3542
208.241	5438
208.309	3827
208.376	4731
208.444	7652
208.512	4732
208.579	3232
208.647	5175
208.715	4567
208.782	3220
208.850	3577
208.918	3179
208.985	3859
209.053	3878
209.120	3802
209.188	2904
209.256	3585
209.323	3822
209.391	5911
209.459	4353
209.526	3515
209.594	3080
209.661	3242
209.729	4169
209.796	4064
209.864	3640
209.932	3316
209.999	5352
210.067	3913
210.134	4220
210.202	4251
210.269	5965
210.337	6202
210.404	4337
210.472	4015
210.539	3346
210.607	4529
210.674	4786
210.742	4249
210.809	4683
210.877	4971
210.944	5719
211.012	3709
211.079	6368
211.146	3233
211.214	4475
211.281	5622
211.349	5513
211.416	4359
211.484	5599
211.551	3813
211.618	4195
211.686	4807
211.753	3259
211.821	4776
211.888	4077
211.955	5066
212.023	3819
212.090	4994
212.157	5208
212.225	5857
212.292	9299
212.359	14755
212.427	25271
212.494	14656
212.561	7936
212.629	6010
212.696	5479
212.763	5538
212.831	4561
212.898	5290
212.965	4168
213.032	4956
213.100	5795
213.167	5444
213.234	6357
213.301	5361
213.369	4459
213.436	4859
213.503	4580
213.570	6067
213.638	5163
213.705	5108
213.772	3760
213.839	5879
213.906	6173
213.973	6113
214.041	4744
214.108	5489
214.175	5852
214.242	4910
214.309	4584
214.376	4857
214.444	5509
214.511	6517
214.578	5594
214.645	4980
214.712	6254
214.779	5246
214.846	5498
214.913	6622
214.980	5826
215.048	7680
215.115	8249
215.182	7172
215.249	5864
215.316	5750
215.383	5962
215.450	4975
215.517	5038
215.584	5078
215.651	4624
215.718	4566
215.785	6996
215.852	6049
215.919	6440
215.986	7237
216.053	4782
216.120	4911
216.187	6114
216.254	5924
216.321	5499
216.388	6698
216.455	6263
216.522	6288
216.589	7088
216.656	10032
216.722	11119
216.789	9335
216.856	7697
216.923	6657
216.990	7143
217.057	6452
217.124	8476
217.191	8150
217.258	9351
217.324	10669
217.391	10747
217.458	8611
217.525	6958
217.592	7757
217.659	5166
217.725	7398
217.792	8255
217.859	8348
217.926	4904
217.993	4823
218.059	5423
218.126	4945
218.193	4966
218.260	4851
218.327	3860
218.393	4918
218.460	4635
218.527	3967
218.594	5032
218.660	8143
218.727	8608
218.794	5223
218.860	4812
218.927	3974
218.994	4202
219.061	4920
219.127	5932
219.194	8678
219.261	5197
219.327	3904
219.394	4255
219.461	3306
219.527	3706
219.594	5549
219.661	4896
219.727	3348
219.794	4710
219.860	5002
219.927	5347
219.994	7319
220.060	11709
220.127	9534
220.193	6798
220.260	7471
220.326	9532
220.393	14040
220.460	16612
220.526	11310
220.593	8715
220.659	9398
220.726	10100
220.792	18090
220.859	17182
220.925	22063
220.992	25537
221.058	24044
221.125	22455
221.191	16862
221.258	10114
221.324	7066
221.391	6608
221.457	6057
221.524	5766
221.590	7961
221.657	19744
221.723	13666
221.789	12787
221.856	11566
221.922	8428
221.989	6598
222.055	4886
222.121	5614
222.188	7509
222.254	6595
222.321	4675
222.387	3779
222.453	3962
222.520	4258
222.586	4657
222.652	3931
222.719	4591
222.785	5115
222.851	4081
222.918	4025
222.984	4883
223.050	5693
223.116	3926
223.183	5490
223.249	3055
223.315	3230
223.382	3873
223.448	3969
223.514	2393
223.580	3720
223.647	3852
223.713	4003
223.779	4288
223.845	4134
223.911	4798
223.978	3011
224.044	3395
224.110	3485
224.176	3454
224.242	3384
224.309	2917
224.375	3824
224.441	3067
224.507	3998
224.573	3622
224.639	3833
224.705	3215
224.772	3852
224.838	3808
224.904	4486
224.970	3260
225.036	4175
225.102	4212
225.168	3778
225.234	4619
225.300	4094
225.366	4098
225.432	4101
225.499	3710
225.565	4795
225.631	4258
225.697	4383
225.763	6597
225.829	7046
225.895	6798
225.961	10381
226.027	9161
226.093	7754
226.159	10878
226.225	14350
226.291	28856
226.357	39215
226.423	24013
226.489	15557
226.554	10269
226.620	10676
226.686	12821
226.752	19584
226.818	28707
226.884	49570
226.950	43195
227.016	21623
227.082	14792
227.148	10737
227.214	10351
227.279	10098
227.345	7688
227.411	8150
227.477	8176
227.543	15274
227.609	15346
227.674	10973
227.740	7163
227.806	7519
227.872	6532
227.938	6023
228.003	9709
228.069	5789
228.135	4343
228.201	4939
228.267	4836
228.332	6253
228.398	7988
228.464	6102
228.530	4137
228.595	4022
228.661	4035
228.727	8782
228.792	7444
228.858	4579
228.924	6329
228.990	8004
229.055	6877
229.121	8367
229.187	4114
229.252	6419
229.318	3882
229.384	4930
229.449	6675
229.515	3135
229.581	3229
229.646	5990
229.712	5400
229.777	11620
229.843	11398
229.909	9946
229.974	9911
230.040	9220
230.105	7448
230.171	7853
230.236	10593
230.302	15196
230.368	12074
230.433	7820
230.499	7879
230.564	8332
230.630	6515
230.695	5630
230.761	5566
230.826	4914
230.892	9243
230.957	6089
231.023	5004
231.088	6179
231.154	5474
231.219	6473
231.284	7985
231.350	8292
231.415	6284
231.481	5750
231.546	4045
231.612	3964
231.677	4306
231.742	3898
231.808	5780
231.873	4165
231.939	3482
232.004	8958
232.069	9152
232.135	6417
232.200	5001
232.265	4127
232.331	4674
232.396	3935
232.461	3803
232.527	4434
232.592	4642
232.657	5107
232.723	8693
232.788	6132
232.853	4932
232.918	3891
232.984	4014
233.049	3598
233.114	7653
233.179	6007
233.245	10617
233.310	11155
233.375	4111
233.440	5204
233.506	3426
233.571	3667
233.636	3676
233.701	4379
233.766	8472
233.832	9824
233.897	6063
233.962	5212
234.027	6948
234.092	6554
234.157	6476
234.222	6482
234.288	8846
234.353	22044
234.418	19221
234.483	13540
234.548	9477
234.613	9213
234.678	7634
234.743	8410
234.808	23083
234.873	14925
234.938	9512
235.004	6964
235.069	6937
235.134	6227
235.199	6700
235.264	5522
235.329	5207
235.394	6034
235.459	8409
235.524	7033
235.589	5745
235.654	5774
235.719	5075
235.784	5870
235.849	6756
235.913	13254
235.978	14514
236.043	15534
236.108	8911
236.173	6853
236.238	7153
236.303	6351
236.368	5943
236.433	10125
236.498	15915
236.563	11765
236.627	23659
236.692	62237
236.757	53037
236.822	26352
236.887	18814
236.952	15078
237.017	12890
237.081	13553
237.146	18329
237.211	33559
237.276	63943
237.341	86689
237.405	50891
237.470	25238
237.535	17612
237.600	12231
237.664	9336
237.729	8174
237.794	11863
237.859	21154
237.923	16155
237.988	9824
238.053	12901
238.118	13006
238.182	28069
238.247	24655
238.312	14698
238.376	11139
238.441	9631
238.506	9113
238.570	5278
238.635	6245
238.700	6319
238.764	6070
238.829	13837
238.893	16283
238.958	10670
239.023	10336
239.087	6157
239.152	7562
239.216	5385
239.281	6132
239.346	5798
239.410	6289
239.475	7526
239.539	27549
239.604	20254
239.668	8428
239.733	6347
239.797	10700
239.862	25685
239.926	26723
239.991	12418
240.055	6456
240.120	6187
240.184	7546
240.249	5487
240.313	5608
240.378	6447
240.442	17595
240.507	24071
240.571	9818
240.635	13812
240.700	17519
240.764	7695
240.829	6430
240.893	4149
240.957	4791
241.022	16236
241.086	25260
241.151	14299
241.215	5656
241.279	9066
241.344	14660
241.408	9691
241.472	8353
241.537	9033
241.601	8628
241.665	6814
241.730	6589
241.794	8130
241.858	7644
241.922	7948
241.987	8041
242.051	7212
242.115	6708
242.179	6916
242.244	6518
242.308	7141
242.372	8034
242.436	8879
242.501	8423
242.565	6515
242.629	6558
242.693	6695
242.757	6191
242.822	6720
242.886	7809
242.950	6978
243.014	7525
243.078	9220
243.142	9536
243.206	7805
243.271	9318
243.335	9176
243.399	13435
243.463	44441
243.527	92014
243.591	34518
243.655	15844
243.719	9700
243.783	10792
243.847	18588
243.911	22456
243.975	26474
244.040	18233
244.104	11359
244.168	8016
244.232	14571
244.296	19816
244.360	20628
244.424	12857
244.488	9374
244.552	8842
244.615	6543
244.679	6214
244.743	9619
244.807	10358
244.871	6884
244.935	6280
244.999	5550
245.063	6917
245.127	8299
245.191	15236
245.255	13871
245.319	12882
245.383	10063
245.446	9185
245.510	6826
245.574	8312
245.638	8331
245.702	8551
245.766	19573
245.829	12570
245.893	9767
245.957	7574
246.021	9329
246.085	9942
246.149	11410
246.212	25571
246.276	34901
246.340	18641
246.404	13037
246.467	13501
246.531	19034
246.595	12352
246.659	11749
246.722	11083
246.786	13906
246.850	15228
246.913	18581
246.977	9097
247.041	8605
247.104	10447
247.168	9888
247.232	24633
247.295	45507
247.359	23293
247.423	12510
247.486	21993
247.550	13837
247.614	11748
247.677	15632
247.741	10853
247.804	9345
247.868	9928
247.932	23076
247.995	42813
248.059	18799
248.122	10629
248.186	12815
248.249	24109
248.313	67803
248.376	71247
248.440	47702
248.503	19314
248.567	15326
248.630	24612
248.694	33421
248.757	41235
248.821	72790
248.884	46412
248.948	44645
249.011	58406
249.075	82898
249.138	71314
249.202	32732
249.265	21378
249.328	24582
249.392	19182
249.455	16760
249.519	12375
249.582	17067
249.645	27668
249.709	20165
249.772	15192
249.835	14018
249.899	15081
249.962	14176
250.025	12450
250.089	30682
250.152	39051
250.215	21317
250.279	17061
250.342	16229
250.405	15568
250.468	15033
250.532	19763
250.595	30467
250.658	94020
250.721	131061
250.785	60802
250.848	31073
250.911	19557
250.974	17864
251.038	25378
251.101	45361
251.164	27345
251.227	28085
251.290	26544
251.354	38807
251.417	122514
251.480	117036
251.543	99435
251.606	192060
251.669	155605
251.732	75431
251.795	70469
251.859	71729
251.922	134460
251.985	84022
252.048	37763
252.111	27987
252.174	26417
252.237	48050
252.300	86406
252.363	104705
252.426	158037
252.489	80735
252.552	45165
252.615	29856
252.678	31159
252.741	67801
252.804	95633
252.867	168855
252.930	113096
252.993	63759
253.056	40271
253.119	30059
253.182	24943
253.245	43103
253.308	32283
253.371	31186
253.434	27436
253.497	26472
253.559	44541
253.622	32256
253.685	46711
253.748	45327
253.811	22639
253.874	26648
253.937	25972
254.000	20170
254.062	35114
254.125	45887
254.188	46649
254.251	38385
254.314	19995
254.376	37355
254.439	39518
254.502	34420
254.565	35660
254.628	55905
254.690	39424
254.753	22672
254.816	18393
254.878	20276
254.941	34433
255.004	32705
255.067	18297
255.129	18827
255.192	11015
255.255	10450
255.317	13945
255.380	10468
255.443	7782
255.505	8346
255.568	8053
255.631	9044
255.693	10240
255.756	7811
255.819	9575
255.881	7674
255.944	7931
256.006	8318
256.069	7458
256.132	7279
256.194	10898
256.257	26471
256.319	19423
256.382	18107
256.444	11921
256.507	10085
256.569	9036
256.632	9996
256.694	16658
256.757	40186
256.819	104286
256.882	47672
256.944	22035
257.007	16695
257.069	18534
257.132	12809
257.194	11687
257.257	10071
257.319	11052
257.381	12638
257.444	29544
257.506	117069
257.569	132772
257.631	73856
257.693	38982
257.756	18934
257.818	16766
257.880	10871
257.943	11433
258.005	9942
258.067	9721
258.130	9677
258.192	12878
258.254	27335
258.317	15409
258.379	10954
258.441	28980
258.503	23651
258.566	31588
258.628	36072
258.690	12441
258.753	12950
258.815	25027
258.877	14774
258.939	10534
259.001	8983
259.064	8915
259.126	12399
259.188	15904
259.250	11220
259.312	15427
259.375	36499
259.437	23582
259.499	10933
259.561	10386
259.623	10967
259.685	10532
259.747	10379
259.809	29881
259.872	48573
259.934	76826
259.996	66555
260.058	22146
260.120	11437
260.182	8969
260.244	8038
260.306	7814
260.368	9147
260.430	9093
260.492	20072
260.554	35679
260.616	25652
260.678	45166
260.740	51702
260.802	16664
260.864	13243
260.926	10827
260.988	10628
261.050	11113
261.112	25492
261.174	60252
261.236	39734
261.298	16173
261.359	25589
261.421	34029
261.483	12164
261.545	10980
261.607	7877
261.669	8717
261.731	17185
261.793	40453
261.854	20081
261.916	13540
261.978	11402
262.040	12604
262.102	10000
262.164	17970
262.225	13442
262.287	8959
262.349	25789
262.411	18954
262.472	9532
262.534	17532
262.596	35510
262.658	13251
262.719	8284
262.781	12321
262.843	34268
262.904	15287
262.966	12039
263.028	13955
263.090	69730
263.151	150696
263.213	53581
263.275	32185
263.336	15014
263.398	11035
263.459	7717
263.521	8886
263.583	24343
263.644	16783
263.706	8664
263.767	5746
263.829	6672
263.891	6055
263.952	5383
264.014	5627
264.075	12405
264.137	28799
264.198	15542
264.260	6793
264.321	6395
264.383	21433
264.444	44110
264.506	14875
264.567	10391
264.629	18657
264.690	35167
264.752	15558
264.813	9621
264.875	7898
264.936	8597
264.998	6826
265.059	7153
265.120	8237
265.182	12750
265.243	60339
265.305	57330
265.366	16549
265.427	9959
265.489	8604
265.550	5158
265.611	10578
265.673	9787
265.734	7767
265.795	6402
265.857	6072
265.918	7143
265.979	16831
266.040	94015
266.102	75689
266.163	26179
266.224	21107
266.286	11838
266.347	7131
266.408	9030
266.469	9566
266.530	7361
266.592	6788
266.653	17910
266.714	27237
266.775	10313
266.836	7564
266.898	7556
266.959	14301
267.020	9844
267.081	8499
267.142	7365
267.203	6991
267.264	6861
267.326	9359
267.387	6650
267.448	6474
267.509	7753
267.570	7748
267.631	6548
267.692	6312
267.753	7276
267.814	6590
267.875	15889
267.936	32382
267.997	17325
268.058	16192
268.119	10044
268.180	10102
268.241	7792
268.302	7536
268.363	6467
268.424	8371
268.485	8149
268.546	5711
268.607	4533
268.668	5610
268.729	5566
268.790	6477
268.851	7669
268.912	22638
268.972	24865
269.033	15183
269.094	7499
269.155	5790
269.216	6418
269.277	7364
269.338	6078
269.398	5785
269.459	9377
269.520	12997
269.581	17105
269.642	19022
269.702	13676
269.763	10069
269.824	7802
269.885	11982
269.945	17747
270.006	7779
270.067	5942
270.128	6706
270.188	6322
270.249	6446
270.310	5519
270.370	7072
270.431	5754
270.492	5231
270.553	7502
270.613	17985
270.674	33771
270.734	13569
270.795	8810
270.856	13973
270.916	11261
270.977	7685
271.038	10766
271.098	9894
271.159	17401
271.219	15156
271.280	8455
271.340	6823
271.401	9333
271.462	22047
271.522	13256
271.583	8568
271.643	8794
271.704	8062
271.764	9541
271.825	24032
271.885	73317
271.946	88259
272.006	32609
272.066	44627
272.127	67318
272.187	24394
272.248	14431
272.308	14617
272.369	46882
272.429	25105
272.489	24855
272.550	24026
272.610	26872
272.671	20064
272.731	18500
272.791	28188
272.852	17996
272.912	16165
272.972	9226
273.033	9266
273.093	15666
273.153	15796
273.214	10798
273.274	11490
273.334	41476
273.394	71710
273.455	32616
273.515	32379
273.575	66061
273.635	27427
273.696	38393
273.756	66144
273.816	27661
273.876	18356
273.936	36780
273.997	56067
274.057	17191
274.117	14620
274.177	20533
274.237	88409
274.297	67399
274.358	51126
274.418	55084
274.478	43344
274.538	17243
274.598	14064
274.658	48519
274.718	58382
274.778	23637
274.838	13273
274.898	28930
274.958	80837
275.018	68671
275.078	43099
275.138	20869
275.198	12129
275.258	8627
275.318	12652
275.378	25614
275.438	25774
275.498	15515
275.558	39266
275.618	73904
275.678	45311
275.738	34676
275.798	26543
275.858	14304
275.918	8714
275.978	12132
276.038	10961
276.098	8176
276.157	20038
276.217	54383
276.277	25276
276.337	19675
276.397	11255
276.457	14377
276.517	9022
276.576	7981
276.636	8031
276.696	15414
276.756	35043
276.815	23968
276.875	12506
276.935	15791
276.995	12630
277.055	8015
277.114	9007
277.174	14008
277.234	41684
277.293	18568
277.353	12739
277.413	8701
277.472	10260
277.532	9595
277.592	10594
277.651	44246
277.711	69920
277.771	24154
277.830	92289
277.890	63031
277.950	51630
278.009	124593
278.069	46864
278.128	57208
278.188	72450
278.248	33047
278.307	89044
278.367	45614
278.426	17570
278.486	11975
278.545	9625
278.605	8126
278.664	8125
278.724	9616
278.783	29552
278.843	64405
278.902	20657
278.962	16031
279.021	16187
279.081	21613
279.140	21275
279.199	18528
279.259	18164
279.318	18273
279.378	23427
279.437	39335
279.496	130179
279.556	336120
279.615	248692
279.675	83501
279.734	48625
279.793	69646
279.853	89777
279.912	35545
279.971	22116
280.031	20658
280.090	38054
280.149	59561
280.208	55909
280.268	238508
280.327	212482
280.386	64477
280.445	50658
280.505	40142
280.564	21077
280.623	15925
280.682	27387
280.742	37078
280.801	13852
280.860	10952
280.919	10851
280.978	11019
281.037	9511
281.097	8179
281.156	9874
281.215	9199
281.274	11176
281.333	46070
281.392	30411
281.451	9986
281.510	9319
281.569	8813
281.628	7843
281.688	6203
281.747	10196
281.806	9887
281.865	6996
281.924	7738
281.983	7157
282.042	6040
282.101	6219
282.160	6274
282.219	6341
282.278	8084
282.337	30043
282.396	18217
282.454	9033
282.513	12307
282.572	44759
282.631	23143
282.690	9834
282.749	8343
282.808	11135
282.867	11147
282.926	11419
282.985	6853
283.043	7045
283.102	7327
283.161	8121
283.220	23127
283.279	44190
283.338	14969
283.396	11565
283.455	9628
283.514	11247
283.573	18628
283.631	13309
283.690	9681
283.749	9233
283.808	22437
283.866	23794
283.925	10399
283.984	10217
284.043	15187
284.101	15286
284.160	11074
284.219	14894
284.277	13307
284.336	21382
284.395	61433
284.453	46144
284.512	22167
284.570	30265
284.629	26551
284.688	25900
284.746	28611
284.805	34118
284.863	44376
284.922	53751
284.981	65505
285.039	92151
285.098	158735
285.156	290263
285.215	278177
285.273	300052
285.332	286114
285.390	181065
285.449	117748
285.507	81195
285.566	58732
285.624	45450
285.683	34592
285.741	27873
285.799	24922
285.858	23150
285.916	21570
285.975	16859
286.033	15225
286.091	13071
286.150	11277
286.208	12474
286.267	13604
286.325	14563
286.383	22091
286.442	17314
286.500	10425
286.558	9521
286.616	8828
286.675	13612
286.733	11495
286.791	11749
286.850	12618
286.908	16134
286.966	24090
287.024	11349
287.083	8279
287.141	7674
287.199	9068
287.257	13693
287.315	9878
287.374	11639
287.432	27235
287.490	16647
287.548	12476
287.606	9928
287.664	9376
287.723	14282
287.781	16035
287.839	11000
287.897	13239
287.955	15539
288.013	21463
288.071	48449
288.129	194961
288.187	395245
288.245	197240
288.303	77285
288.361	44138
288.419	31556
288.477	21462
288.535	14552
288.593	11161
288.651	10097
288.709	8381
288.767	8657
288.825	8888
288.883	7017
288.941	7672
288.999	8016
289.057	6448
289.115	6900
289.173	8276
289.231	8238
289.289	8462
289.346	7574
289.404	9141
289.462	16972
289.520	16452
289.578	8088
289.636	5280
289.694	5432
289.751	5056
289.809	4466
289.867	5840
289.925	8063
289.983	10950
290.040	5680
290.098	5216
290.156	8202
290.214	9688
290.271	5882
290.329	4942
290.387	5322
290.444	4573
290.502	4326
290.560	4157
290.617	5910
290.675	6350
290.733	5984
290.790	7207
290.848	5303
290.906	7677
290.963	6440
291.021	5997
291.078	5390
291.136	5709
291.194	24551
291.251	44583
291.309	12496
291.366	6490
291.424	6802
291.481	7007
291.539	8656
291.596	7769
291.654	4078
291.711	4018
291.769	7296
291.826	18084
291.884	10427
291.941	6291
291.999	6539
292.056	7294
292.114	8107
292.171	5562
292.228	6989
292.286	8151
292.343	18891
292.401	21442
292.458	13192
292.515	8200
292.573	11447
292.630	10466
292.687	9379
292.745	6654
292.802	10906
292.859	29466
292.917	49577
292.974	25443
293.031	10623
293.089	7419
293.146	6345
293.203	6242
293.260	4791
293.318	9240
293.375	12124
293.432	6974
293.489	5925
293.546	5367
293.604	8693
293.661	30790
293.718	69215
293.775	32978
293.832	19825
293.889	18041
293.947	17725
294.004	10718
294.061	10358
294.118	23658
294.175	47885
294.232	54486
294.289	22371
294.346	13349
294.403	12662
294.460	10460
294.517	9034
294.574	6768
294.631	5420
294.688	7138
294.745	22527
294.802	81724
294.859	79799
294.916	33046
294.973	21250
295.030	18356
295.087	14177
295.144	9483
295.201	8309
295.258	6480
295.315	8509
295.372	32408
295.429	52827
295.486	21517
295.542	13851
295.599	39405
295.656	56998
295.713	43016
295.770	50931
295.827	19545
295.883	11596
295.940	11115
295.997	21457
296.054	18887
296.111	9703
296.167	7428
296.224	5546
296.281	6268
296.338	5175
296.394	5426
296.451	7295
296.508	26702
296.564	43956
296.621	28690
296.678	67511
296.734	82727
296.791	30073
296.848	16799
296.904	19187
296.961	43946
297.018	63274
297.074	41052
297.131	16128
297.187	12157
297.244	15970
297.301	62356
297.357	91278
297.414	30342
297.470	14549
297.527	10892
297.583	9737
297.640	9867
297.696	7469
297.753	6390
297.809	5734
297.866	5996
297.922	5375
297.979	5094
298.035	6889
298.092	12923
298.148	37592
298.204	30884
298.261	15383
298.317	30670
298.374	72838
298.430	35864
298.486	20882
298.543	15307
298.599	15725
298.656	17007
298.712	32305
298.768	78419
298.824	46787
298.881	17701
298.937	11091
298.993	10948
299.050	13677
299.106	10348
299.162	9747
299.218	9887
299.275	7493
299.331	7595
299.387	17992
299.443	67884
299.500	65326
299.556	27121
299.612	15280
299.668	14828
299.724	21384
299.780	19068
299.837	10497
299.893	16662
299.949	64958
300.005	62385
300.061	59928
300.117	89355
300.173	38806
300.229	21130
300.285	29386
300.341	30790
300.397	15745
300.453	10215
300.510	9603
300.566	9535
300.622	11265
300.678	42994
300.734	67025
300.790	56774
300.845	60604
300.901	42879
300.957	67653
301.013	43897
301.069	17319
301.125	14869
301.181	15992
301.237	11615
301.293	7894
301.349	7458
301.405	6857
301.461	9351
301.516	11735
301.572	11939
301.628	21981
301.684	16954
301.740	30405
301.796	40377
301.851	27046
301.907	46910
301.963	37812
302.019	68764
302.074	170984
302.130	152173
302.186	68007
302.242	31242
302.297	21152
302.353	20089
302.409	41013
302.464	29491
302.520	27493
302.576	71835
302.631	72550
302.687	41034
302.743	18493
302.798	12057
302.854	8566
302.910	9906
302.965	13916
303.021	26439
303.076	23156
303.132	33342
303.187	36599
303.243	16877
303.299	10196
303.354	8860
303.410	7337
303.465	7191
303.521	7311
303.576	7025
303.632	8103
303.687	21448
303.743	58090
303.798	41895
303.853	17819
303.909	11412
303.964	11104
304.020	18828
304.075	25698
304.130	23532
304.186	47517
304.241	44376
304.297	34962
304.352	18049
304.358	17426
304.407	12379
304.449	12045
304.463	11938
304.518	12089
304.539	11269
304.573	9996
304.629	8872
304.630	9016
304.684	15760
304.720	36573
304.739	47125
304.794	57417
304.811	48434
304.850	26974
304.902	14168
304.905	13361
304.960	11229
304.992	11373
305.015	11469
305.071	11641
305.083	11247
305.126	9757
305.173	6267
305.181	5705
305.236	5329
305.264	6316
305.292	7336
305.347	10610
305.354	10703
305.402	11279
305.445	12291
305.457	12562
305.512	14585
305.535	14254
305.567	13853
305.622	11808
305.626	12453
305.678	25205
305.716	53513
305.733	64275
305.788	59890
305.807	51604
305.843	37071
305.897	53571
305.898	53770
305.953	47482
305.988	32347
306.008	23976
306.063	16964
306.078	15422
306.118	11751
306.168	8523
306.173	8252
306.228	6718
306.259	6522
306.283	6381
306.338	6061
306.349	6237
306.393	7003
306.440	8298
306.448	8521
306.503	7687
306.530	8777
306.558	11290
306.613	27704
306.620	29636
306.668	41783
306.711	54803
306.723	56760
306.778	41413
306.801	31943
306.833	20783
306.888	11356
306.892	11073
306.943	9098
306.982	8381
306.997	8094
307.052	6476
307.072	6571
307.107	7399
307.162	10192
307.163	10250
307.217	15563
307.253	19087
307.272	20180
307.327	20682
307.343	18811
307.381	14712
307.434	13276
307.436	13522
307.491	28823
307.524	43828
307.546	49793
307.600	45692
307.614	40396
307.655	23426
307.704	12993
307.710	12481
307.765	14292
307.795	19183
307.819	23898
307.874	37713
307.885	36822
307.929	26724
307.975	19860
307.984	19966
308.038	25911
308.065	32836
308.093	52505
308.148	118339
308.156	133689
308.202	214314
308.246	241975
308.257	234663
308.312	132029
308.336	97612
308.366	77019
308.421	49968
308.426	47689
308.475	30291
308.517	21845
308.530	20146
308.585	16668
308.607	16102
308.639	15899
308.694	16831
308.697	17195
308.748	29849
308.787	43870
308.803	45183
308.857	33316
308.877	28786
308.912	24542
308.967	24228
308.967	24280
309.021	32231
309.058	40895
309.076	50059
309.130	87232
309.148	103063
309.185	166391
309.238	280333
309.239	281120
309.293	303971
309.328	282746
309.348	247273
309.402	129672
309.418	100811
309.457	72468
309.508	47911
309.511	47074
309.566	43796
309.598	45335
309.620	52554
309.674	80053
309.688	86623
309.729	83216
309.778	66513
309.783	64754
309.837	43737
309.868	34655
309.892	36733
309.946	50007
309.959	55196
310.001	71262
310.049	80281
310.055	77655
310.109	45167
310.139	28481
310.163	22283
310.218	14299
310.229	13063
310.272	10809
310.319	9095
310.326	8861
310.381	7990
310.409	7741
310.435	7191
310.489	6065
310.499	5941
310.543	6570
310.589	7549
310.598	7505
310.652	7245
310.679	6809
310.706	6106
310.760	5145
310.769	4988
310.814	4576
310.859	4438
310.868	4518
310.923	4932
310.948	5197
310.977	5369
311.031	5964
311.038	6053
311.085	5934
311.128	5429
311.139	5267
311.193	4875
311.218	4645
311.247	4428
311.301	3993
311.308	3971
311.356	4311
311.398	4604
311.410	4565
311.464	4413
311.488	4377
311.518	4336
311.572	4303
311.578	4328
311.626	6471
311.668	8347
311.680	8237
311.734	7579
311.758	7331
311.788	7076
311.842	6650
311.847	6626
311.896	8687
311.937	10651
311.950	10566
312.004	10126
312.027	9928
312.058	8068
312.112	4852
312.117	4552
312.165	4847
312.207	5147
312.297	7001
312.386	6029
312.476	5999
312.566	11812
312.656	5637
312.745	3380
312.835	4694
312.925	5596
313.015	4975
313.104	5547
313.194	4315
313.284	4433
313.374	6482
313.463	5449
313.553	4145
313.643	4243
313.732	3929
313.822	2959
313.912	4608
314.001	5917
314.091	5881
314.180	8448
314.270	7123
314.360	8548
314.449	7024
314.539	4953
314.628	4070
314.718	5643
314.808	6646
314.897	4231
314.987	5385
315.076	6075
315.166	8143
315.255	7976
315.345	8143
315.434	7170
315.524	6344
315.613	8639
315.703	10646
315.792	15846
315.881	42011
315.971	15650
316.060	14040
316.150	19950
316.239	19848
316.328	7469
316.418	4638
316.507	5096
316.597	7022
316.686	6809
316.775	10325
316.865	21215
316.954	5176
317.043	4327
317.133	4172
317.222	4093
317.311	4740
317.400	3479
317.490	6746
317.579	7934
317.668	5844
317.757	10148
317.847	25956
317.936	76142
318.025	29678
318.114	16889
318.203	10778
318.293	14229
318.382	25792
318.471	20742
318.560	30387
318.649	53249
318.738	11347
318.828	7619
318.917	7329
319.006	10378
319.095	29511
319.184	68635
319.273	36471
319.362	18149
319.451	6437
319.540	6606
319.629	15155
319.718	23848
319.807	9486
319.896	28788
319.985	83960
320.074	28241
320.163	8032
320.252	13047
320.341	10467
320.430	10044
320.519	12896
320.608	7183
320.697	6015
320.786	5984
320.875	8298
320.964	11581
321.053	17078
321.142	26510
321.230	24985
321.319	21420
321.408	45068
321.497	19991
321.586	18254
321.675	21697
321.764	18714
321.852	13255
321.941	25292
322.030	16015
322.119	19148
322.207	47213
322.296	31778
322.385	15104
322.474	21649
322.562	58074
322.651	27191
322.740	19910
322.829	29147
322.917	29062
323.006	17406
323.095	14438
323.183	10012
323.272	15648
323.361	31364
323.449	89332
323.538	27960
323.626	63749
323.715	36171
323.804	15391
323.892	57313
323.981	29493
324.069	8871
324.158	32209
324.246	27993
324.335	11276
324.424	16540
324.512	6376
324.601	9005
324.689	24405
324.778	42475
324.866	21997
324.954	6084
325.043	5689
325.131	12968
325.220	23368
325.308	25380
325.397	19472
325.485	11018
325.574	4043
325.662	4139
325.750	5009
325.839	3772
325.927	3746
326.015	6038
326.104	10718
326.192	13290
326.280	4267
326.369	4765
326.457	7793
326.545	13981
326.634	6183
326.722	2963
326.810	4744
326.898	3715
326.987	5474
327.075	12541
327.163	13330
327.251	6461
327.340	16948
327.428	22994
327.516	5107
327.604	4559
327.692	4707
327.781	5667
327.869	10243
327.957	6527
328.045	6312
328.133	3388
328.221	5449
328.309	4087
328.397	4261
328.485	5408
328.574	8722
328.662	30194
328.750	16693
328.838	6422
328.926	3997
329.014	3241
329.102	5971
329.190	17505
329.278	11169
329.366	3090
329.454	3716
329.542	3743
329.630	2973
329.718	4104
329.806	5446
329.893	4538
329.981	5321
330.069	7907
330.157	38880
330.245	115277
330.333	59309
330.421	8977
330.509	9587
330.597	35851
330.684	23203
330.772	7454
330.860	11265
330.948	14302
331.036	6431
331.123	2184
331.211	3536
331.299	4791
331.387	12005
331.475	21488
331.562	6105
331.650	3526
331.738	5179
331.825	6441
331.913	3733
332.001	2979
332.089	4944
332.176	11032
332.264	29290
332.352	21955
332.439	7090
332.527	4620
332.614	3890
332.702	6259
332.790	4714
332.877	12773
332.965	28525
333.052	7743
333.140	9572
333.228	24586
333.315	6863
333.403	5284
333.490	16766
333.578	16103
333.665	30893
333.753	12672
333.840	4635
333.928	5746
334.015	17037
334.103	28607
334.190	88101
334.278	22027
334.365	10694
334.452	8880
334.540	5571
334.627	6805
334.715	9298
334.802	19579
334.889	109228
334.977	108967
335.064	16955
335.151	7345
335.239	6934
335.326	9232
335.413	44912
335.501	59208
335.588	8793
335.675	6154
335.762	8780
335.850	13507
335.937	10787
336.024	29492
336.111	120109
336.199	53566
336.286	11605
336.373	6339
336.460	4446
336.547	4455
336.635	6760
336.722	5460
336.809	4617
336.896	7629
336.983	26366
337.070	62981
337.157	93123
337.245	69749
337.332	48415
337.419	6296
337.506	4099
337.593	5106
337.680	21634
337.767	60044
337.854	16719
337.941	18936
338.028	23944
338.115	7995
338.202	9165
338.289	18508
338.376	67948
338.463	20950
338.550	35899
338.637	37258
338.724	12528
338.811	18997
338.898	5140
338.984	3712
339.071	5442
339.158	5989
339.245	16654
339.332	11505
339.419	15342
339.506	13903
339.593	3152
339.679	3361
339.766	3483
339.853	5936
339.940	13344
340.027	4156
340.113	4633
340.200	6618
340.287	5323
340.374	6597
340.460	11875
340.547	5010
340.634	8988
340.720	34800
340.807	19924
340.894	3862
340.980	5021
341.067	3843
341.154	5092
341.240	7241
341.327	17659
341.414	6391
341.500	6947
341.587	4547
341.674	4624
341.760	11584
341.847	13369
341.933	4455
342.020	1579
342.106	2562
342.193	3977
342.279	8228
342.366	6661
342.452	10859
342.539	6093
342.625	14853
342.712	36820
342.798	14902
342.885	5659
342.971	2815
343.058	2058
343.144	2874
343.230	3742
343.317	3939
343.403	3574
343.490	2108
343.576	2193
343.662	3331
343.749	4730
343.835	5569
343.921	10103
344.008	62199
344.094	142502
344.180	31235
344.267	11547
344.353	41160
344.439	45131
344.525	17566
344.612	8035
344.698	7095
344.784	4328
344.870	3407
344.957	4114
345.043	6883
345.129	5491
345.215	10963
345.301	7012
345.387	3922
345.474	2942
345.560	2505
345.646	4120
345.732	3774
345.818	5132
345.904	3687
345.990	4721
346.076	4552
346.162	10330
346.249	4480
346.335	3164
346.421	3621
346.507	17183
346.593	60136
346.679	14894
346.765	4330
346.851	4471
346.937	3753
347.023	3816
347.108	5015
347.194	4103
347.280	3755
347.366	5513
347.452	17999
347.538	71180
347.624	51978
347.710	42095
347.796	6429
347.882	3713
347.967	3864
348.053	5561
348.139	4013
348.225	2916
348.311	3645
348.397	3289
348.482	4404
348.568	5405
348.654	2617
348.740	6681
348.825	6037
348.911	7634
348.997	32194
349.083	64822
349.168	10283
349.254	4958
349.340	4882
349.425	2471
349.511	4977
349.597	5978
349.682	12519
349.768	43021
349.854	20567
349.939	4710
350.025	2628
350.110	3644
350.196	3280
350.282	2104
350.367	2550
350.453	5770
350.538	6918
350.624	5427
350.709	5470
350.795	2585
350.880	3159
350.966	4645
351.051	6649
351.137	4988
351.222	4162
351.308	14366
351.393	37379
351.479	10394
351.564	3974
351.649	3208
351.735	2669
351.820	2945
351.906	3355
351.991	5781
352.076	23224
352.162	36212
352.247	7036
352.332	5238
352.418	9732
352.503	13219
352.588	51144
352.673	43771
352.759	8896
352.844	5153
352.929	5952
353.014	7733
353.100	4647
353.185	8961
353.270	13879
353.355	13842
353.441	3820
353.526	4277
353.611	11091
353.696	13973
353.781	8245
353.866	4092
353.952	4703
354.037	10625
354.122	26009
354.207	23442
354.292	9408
354.377	4887
354.462	4180
354.547	5977
354.632	5103
354.717	8253
354.802	11249
354.887	4653
354.972	2864
355.057	3027
355.142	3046
355.227	4185
355.312	7083
355.397	17052
355.482	41589
355.567	20825
355.652	14240
355.737	16621
355.822	48648
355.907	42452
355.991	6353
356.076	4001
356.161	3413
356.246	3528
356.331	4438
356.416	11421
356.501	76656
356.585	84785
356.670	11318
356.755	7540
356.840	10537
356.924	52942
357.009	184243
357.094	73965
357.179	14888
357.263	9696
357.348	9156
357.433	9892
357.517	9088
357.602	7702
357.687	5859
357.771	11404
357.856	37670
357.941	24411
358.025	39991
358.110	167807
358.195	83533
358.279	12228
358.364	9908
358.448	33117
358.533	90029
358.617	67696
358.702	65390
358.787	24978
358.871	12373
358.956	11448
359.040	4218
359.125	2647
359.209	4795
359.294	17654
359.378	31238
359.462	12204
359.547	6567
359.631	5076
359.716	3830
359.800	4630
359.885	7917
359.969	5663
360.053	4576
360.138	4093
360.222	6855
360.306	13034
360.391	9963
360.475	19820
360.559	44299
360.644	35919
360.728	26669
360.812	41710
360.896	117184
360.981	48916
361.065	25373
361.149	7628
361.233	6829
361.318	5919
361.402	6487
361.486	6262
361.570	4686
361.654	7573
361.739	17503
361.823	73495
361.907	118958
361.991	22406
362.075	11716
362.159	25912
362.243	20142
362.327	20641
362.411	28989
362.495	14066
362.580	7345
362.664	4589
362.748	5787
362.832	7211
362.916	13655
363.000	44514
363.084	115359
363.168	145700
363.252	35235
363.336	12435
363.420	16965
363.503	59522
363.587	72807
363.671	13861
363.755	8233
363.839	13555
363.923	7017
364.007	14276
364.091	17134
364.175	26157
364.258	101581
364.342	82090
364.426	98652
364.510	54724
364.594	22377
364.677	25426
364.761	98602
364.845	76619
364.929	22188
365.013	19299
365.096	15235
365.180	19606
365.264	26649
365.347	98553
365.431	44422
365.515	10654
365.598	4999
365.682	6410
365.766	9802
365.849	13257
365.933	6919
366.017	9028
366.100	6849
366.184	3602
366.267	4425
366.351	4531
366.435	3545
366.518	2490
366.602	2842
366.685	3246
366.769	4428
366.852	8533
366.936	15074
367.019	10042
367.103	7342
367.186	14676
367.270	4704
367.353	3133
367.436	4152
367.520	3784
367.603	5410
367.687	8986
367.770	15081
367.853	9398
367.937	29030
368.020	50803
368.104	13151
368.187	11542
368.270	15821
368.353	15481
368.437	19597
368.520	43343
368.603	28422
368.687	35169
368.770	68040
368.853	18068
368.936	15331
369.020	15932
369.103	5966
369.186	3857
369.269	4322
369.352	10376
369.436	14983
369.519	8930
369.602	3945
369.685	5502
369.768	5734
369.851	4358
369.934	3271
370.018	5434
370.101	12024
370.184	11900
370.267	7549
370.350	13656
370.433	19821
370.516	52380
370.599	70231
370.682	23168
370.765	35248
370.848	44718
370.931	82514
371.014	32816
371.097	6548
371.180	5828
371.263	3610
371.346	2788
371.429	4411
371.511	4083
371.594	8596
371.677	14887
371.760	15039
371.843	14498
371.926	59316
372.009	134879
372.091	47883
372.174	31616
372.257	73807
372.340	32339
372.423	20903
372.505	24971
372.588	12294
372.671	25595
372.754	81166
372.836	45494
372.919	29768
373.002	56848
373.085	19316
373.167	14954
373.250	33625
373.332	74711
373.415	95076
373.498	191152
373.580	78282
373.663	90334
373.746	128599
373.828	30956
373.911	13367
373.993	15900
374.076	54018
374.159	54576
374.241	24117
374.324	67082
374.406	49491
374.489	54720
374.571	155111
374.654	72118
374.736	32807
374.819	95900
374.901	137274
374.983	146576
375.066	28673
375.148	12813
375.231	44848
375.313	86949
375.395	31483
375.478	8370
375.560	6019
375.643	9202
375.725	31293
375.807	120927
375.890	104988
375.972	42621
376.054	23225
376.136	35268
376.219	18303
376.301	35829
376.383	108961
376.465	46743
376.548	25413
376.630	34461
376.712	91154
376.794	48263
376.877	6543
376.959	3549
377.041	5842
377.123	11064
377.205	13902
377.287	4014
377.369	3752
377.452	4575
377.534	4051
377.616	3680
377.698	3952
377.780	2976
377.862	3826
377.944	5068
378.026	2464
378.108	3080
378.190	2909
378.272	3742
378.354	2988
378.436	2310
378.518	7167
378.600	23628
378.682	22426
378.764	45367
378.846	39727
378.928	11495
379.010	14705
379.091	8730
379.173	4366
379.255	3673
379.337	7149
379.419	22752
379.501	66893
379.583	29613
379.664	6886
379.746	17396
379.828	45516
379.910	65148
379.991	57145
380.073	12196
380.155	6364
380.237	5235
380.318	2791
380.400	4468
380.482	9802
380.564	15982
380.645	15873
380.727	15199
380.809	8566
380.890	6727
380.972	5331
381.053	5008
381.135	6915
381.217	17020
381.298	48332
381.380	26686
381.461	21874
381.543	90063
381.624	120165
381.706	24452
381.787	11065
381.869	12582
381.951	40478
382.032	142898
382.113	100037
382.195	22386
382.276	16155
382.358	32127
382.439	82133
382.521	93809
382.602	143822
382.684	73852
382.765	122636
382.846	157064
382.928	239116
383.009	147191
383.090	92882
383.172	317149
383.253	505342
383.334	179909
383.416	141537
383.497	80598
383.578	41026
383.659	79181
383.741	276422
383.822	685801
383.903	388397
383.984	118470
384.066	165579
384.147	109474
384.228	25919
384.309	17536
384.390	13911
384.471	10677
384.553	11493
384.634	14146
384.715	15336
384.796	8775
384.877	11916
384.958	43021
385.039	55135
385.120	20403
385.201	9418
385.282	11190
385.363	12149
385.444	11454
385.525	19534
385.606	62623
385.687	59076
385.768	14834
385.849	18080
385.930	65043
386.011	114629
386.092	35329
386.173	8801
386.254	7312
386.335	7393
386.416	9695
386.496	27993
386.577	48922
386.658	19076
386.739	10527
386.820	9988
386.901	7471
386.981	8305
387.062	6767
387.143	12304
387.224	45110
387.304	46312
387.385	16242
387.466	11028
387.547	13374
387.627	10475
387.708	20077
387.789	80059
387.869	100715
387.950	29766
388.031	6177
388.111	4570
388.192	14792
388.273	20797
388.353	12545
388.434	8257
388.514	17190
388.595	71176
388.676	97779
388.756	49444
388.837	41497
388.917	28645
388.998	6145
389.078	6703
389.159	5340
389.239	5590
389.320	8722
389.400	8429
389.480	19693
389.561	48765
389.641	27784
389.722	8347
389.802	14256
389.883	21987
389.963	56280
390.043	39306
390.124	12969
390.204	17657
390.284	51703
390.365	38489
390.445	41488
390.525	106730
390.605	100807
390.686	31058
390.766	11421
390.846	6828
390.927	4197
391.007	4569
391.087	6487
391.167	6977
391.247	5151
391.328	10581
391.408	14743
391.488	10236
391.568	4159
391.648	6483
391.728	11073
391.808	10670
391.888	12484
391.969	27017
392.049	44851
392.129	21474
392.209	22561
392.289	55605
392.369	34268
392.449	24702
392.529	17455
392.609	13915
392.689	20485
392.769	54292
392.849	52385
392.929	37612
393.009	80672
393.089	70736
393.169	66746
393.248	200529
393.328	661692
393.408	763532
393.488	232493
393.568	62605
393.648	31095
393.728	19172
393.807	14397
393.887	13196
393.967	11902
394.047	13112
394.127	15622
394.206	25467
394.286	85120
394.366	325835
394.446	376931
394.525	95815
394.605	23620
394.685	17847
394.764	35710
394.844	60579
394.924	47270
395.003	15681
395.083	11000
395.163	8756
395.242	7854
395.322	8913
395.402	6327
395.481	10775
395.561	26602
395.640	67869
395.720	62126
395.799	75175
395.879	64988
395.958	40029
396.038	124016
396.117	429367
396.197	500356
396.276	158937
396.356	51365
396.435	36312
396.515	26349
396.594	31635
396.673	59917
396.753	208507
396.832	614521
396.912	502208
396.991	127719
397.070	34673
397.150	18567
397.229	14767
397.308	19325
397.388	33022
397.467	18201
397.546	8087
397.625	5657
397.705	8749
397.784	7967
397.863	5607
397.942	3615
398.022	6075
398.101	21536
398.180	59416
398.259	34068
398.338	8940
398.417	5939
398.497	4320
398.576	5270
398.655	2727
398.734	4136
398.813	5272
398.892	21561
398.971	67092
399.050	36342
399.129	4427
399.208	2732
399.287	3480
399.366	2045
399.445	2838
399.524	3844
399.603	2146
399.682	8138
399.761	22906
399.840	69133
399.919	58933
399.998	9057
400.077	2424
400.156	2473
400.235	5214
400.313	3268
400.392	4100
400.471	23676
400.550	39366
400.629	12258
400.708	4998
400.786	5560
400.865	13206
400.944	15192
401.023	8538
401.102	1936
401.180	2566
401.259	2794
401.338	3321
401.416	5022
401.495	3832
401.574	4287
401.652	2319
401.731	5051
401.810	3777
401.888	2590
401.967	1505
402.046	4008
402.124	4263
402.203	6528
402.281	4842
402.360	6670
402.438	17376
402.517	12468
402.596	4070
402.674	3872
402.753	2482
402.831	2306
402.910	4808
402.988	18436
403.066	60073
403.145	40524
403.223	20300
403.302	49568
403.380	40447
403.459	36953
403.537	15032
403.615	6177
403.694	760
403.772	2863
403.850	1055
403.929	549
404.007	2322
404.085	7177
404.164	8266
404.242	3312
404.320	5138
404.398	14904
404.477	31052
404.555	112612
404.633	109112
404.711	21586
404.789	6721
404.868	3822
404.946	2494
405.024	1991
405.102	831
405.180	961
405.258	584
405.336	2294
405.415	1045
405.493	6287
405.571	6648
405.649	2331
405.727	1659
405.805	4430
405.883	3393
405.961	4840
406.039	4183
406.117	2222
406.195	5818
406.273	27980
406.351	98210
406.429	66974
406.507	9059
406.585	3064
406.663	3792
406.740	4304
406.818	4151
406.896	2399
406.974	3461
407.052	9663
407.130	55814
407.208	87293
407.285	19386
407.363	3144
407.441	2630
407.519	2346
407.596	3580
407.674	13229
407.752	43845
407.830	43455
407.907	13196
407.985	3839
408.063	2022
408.141	2230
408.218	4671
408.296	5200
408.373	3608
408.451	4413
408.529	3169
408.606	1985
408.684	1511
408.762	1286
408.839	785
408.917	1054
408.994	1103
409.072	1452
409.149	1679
409.227	4152
409.304	5412
409.382	5119
409.459	5033
409.537	7897
409.614	7475
409.692	4514
409.769	4821
409.846	8832
409.924	11170
410.001	7178
410.079	4882
410.156	4018
410.233	3291
410.311	2747
410.388	2118
410.465	3125
410.543	3012
410.620	2887
410.697	2895
410.775	4129
410.852	1859
410.929	4079
411.006	5184
411.083	3416
411.161	6329
411.238	8571
411.315	3824
411.392	1763
411.469	4220
411.547	4277
411.624	1508
411.701	2117
411.778	1968
411.855	7454
411.932	4005
412.009	1633
412.086	1718
412.163	2672
412.240	2821
412.317	3999
412.394	2974
412.471	1913
412.548	494
412.625	1772
412.702	2485
412.779	5773
412.856	4624
412.933	1269
413.010	1644
413.087	4614
413.164	20815
413.241	33407
413.318	8419
413.395	5031
413.471	6895
413.548	3578
413.625	1696
413.702	2785
413.779	1894
413.855	1289
413.932	-172
414.009	-297
414.086	1052
414.162	1780
414.239	3441
414.316	20562
414.393	48748
414.469	19801
414.546	1374
414.623	1046
414.699	1347
414.776	1918
414.853	672
414.929	1549
415.006	1169
415.082	1872
415.159	1888
415.236	1655
415.312	1751
415.389	4522
415.465	6682
415.542	3579
415.618	1681
415.695	4229
415.771	2827
415.848	1616
415.924	2800
416.000	1702
416.077	812
416.153	-824
416.230	-246
416.306	20
416.383	836
416.459	2110
416.535	434
416.612	916
416.688	729
416.764	906
416.841	-5
416.917	962
416.993	895
417.069	2634
417.146	1889
417.222	4068
417.298	2509
417.374	517
417.451	1524
417.527	2441
417.603	3161
417.679	2803
417.755	1284
417.831	402
417.908	-118
417.984	74
418.060	918
418.136	5042
418.212	7584
418.288	2988
418.364	773
418.440	256
418.516	3603
418.592	5087
418.668	9891
418.744	14907
418.820	11625
418.896	2747
418.972	-15
419.048	1550
419.124	5402
419.200	4594
419.276	1490
419.352	483
419.428	1035
419.504	377
419.579	1939
419.655	2034
419.731	2386
419.807	9740
419.883	17380
419.959	13298
420.034	3697
420.110	7270
420.186	29709
420.262	25456
420.337	4523
420.413	3510
420.489	1850
420.565	1214
420.640	256
420.716	1909
420.792	519
420.867	2301
420.943	1116
421.019	4413
421.094	3543
421.170	1909
421.245	1238
421.321	2481
421.397	2265
421.472	8299
421.548	23858
421.623	18426
421.699	5637
421.774	5550
421.850	3805
421.925	7501
422.001	7341
422.076	7237
422.152	8170
422.227	13435
422.302	16196
422.378	24651
422.453	46009
422.529	114979
422.604	296469
422.679	448774
422.755	327700
422.830	130465
422.905	52141
422.981	27350
423.056	17546
423.131	12795
423.207	9465
423.282	8693
423.357	13030
423.432	9434
423.508	8653
423.583	16656
423.658	13831
423.733	5228
423.808	4959
423.883	6564
423.959	6051
424.034	4665
424.109	4748
424.184	1597
424.259	1792
424.334	1537
424.409	1445
424.484	1708
424.559	3113
424.634	1634
424.709	2909
424.784	3624
424.859	2421
424.934	4691
425.009	20045
425.084	36807
425.159	15092
425.234	2980
425.309	1723
425.384	9133
425.459	15915
425.534	5443
425.609	1455
425.683	1608
425.758	1006
425.833	1982
425.908	3089
425.983	12361
426.058	36600
426.132	17996
426.207	2942
426.282	4679
426.357	3473
426.431	1683
426.506	1371
426.581	1944
426.655	1517
426.730	918
426.805	1507
426.879	2295
426.954	1616
427.029	6639
427.103	33697
427.178	88822
427.253	44336
427.327	5847
427.402	5295
427.476	17499
427.551	10601
427.625	2767
427.700	2500
427.774	1223
427.849	2553
427.923	343
427.998	943
428.072	1829
428.147	7396
428.221	33691
428.296	97794
428.370	58123
428.444	7485
428.519	7258
428.593	12316
428.667	12370
428.742	13360
428.816	17456
428.890	60289
428.965	103768
429.039	35049
429.113	16487
429.188	6634
429.262	1654
429.336	4917
429.410	17022
429.485	12568
429.559	10837
429.633	9534
429.707	3460
429.781	12533
429.855	63128
429.930	102507
430.004	51823
430.078	63294
430.152	67512
430.226	121693
430.300	134759
430.374	23638
430.448	7614
430.522	21257
430.596	61950
430.670	46327
430.744	100380
430.818	155808
430.892	35597
430.966	4338
431.040	3130
431.114	1076
431.188	438
431.262	1170
431.336	1788
431.410	5672
431.484	16658
431.557	12271
431.631	2468
431.705	3372
431.779	19435
431.853	83524
431.927	67341
432.000	7558
432.074	2133
432.148	2480
432.222	1692
432.295	421
432.369	1159
432.443	4430
432.516	32112
432.590	87716
432.664	37218
432.737	3219
432.811	716
432.885	-302
432.958	1692
433.032	-104
433.106	-786
433.179	-261
433.253	-540
433.326	-380
433.400	90
433.473	-46
433.547	-625
433.620	-551
433.694	2917
433.767	4099
433.841	1020
433.914	368
433.988	151
434.061	932
434.134	467
434.208	-717
434.281	390
434.355	-499
434.428	-178
434.501	-120
434.575	-137
434.648	144
434.721	-168
434.795	-323
434.868	428
434.941	-750
435.014	-47
435.088	386
435.161	1857
435.234	3457
435.307	4961
435.381	1940
435.454	1727
435.527	3797
435.600	4226
435.673	3652
435.746	1425
435.819	400
435.892	1338
435.966	710
436.039	665
436.112	940
436.185	-268
436.258	-462
436.331	-1746
436.404	-234
436.477	20
436.550	-180
436.623	472
436.696	-594
436.769	-143
436.842	1106
436.915	1021
436.987	2341
437.060	788
437.133	48
437.206	-904
437.279	525
437.352	-174
437.425	-178
437.498	1346
437.570	3007
437.643	3797
437.716	584
437.789	224
437.861	3581
437.934	10884
438.007	4760
438.080	886
438.152	1180
438.225	5466
438.298	42466
438.370	124827
438.443	57308
438.516	11377
438.588	1882
438.661	146
438.734	41
438.806	913
438.879	1015
438.951	1846
439.024	4276
439.096	1703
439.169	15
439.241	303
439.314	172
439.386	1309
439.459	4210
439.531	5280
439.604	2110
439.676	449
439.749	-584
439.821	-200
439.893	-84
439.966	761
440.038	724
440.110	1731
440.183	1111
440.255	826
440.327	1576
440.400	16453
440.472	74369
440.544	56113
440.617	6433
440.689	4058
440.761	4855
440.833	8577
440.905	5721
440.978	298
441.050	3
441.122	-44
441.194	-213
441.266	379
441.338	622
441.411	2844
441.483	20381
441.555	36183
441.627	8598
441.699	3385
441.771	3084
441.843	628
441.915	541
441.987	356
442.059	155
442.131	757
442.203	3316
442.275	3985
442.347	3986
442.419	8032
442.491	40701
442.563	105731
442.635	51442
442.706	19949
442.778	14401
442.850	4134
442.922	1288
442.994	1733
443.066	2902
443.137	2889
443.209	3752
443.281	4608
443.353	11915
443.425	51816
443.496	187298
443.568	192710
443.640	71397
443.711	13392
443.783	4064
443.855	2310
443.926	833
443.998	1724
444.070	2970
444.141	2611
444.213	4356
444.285	5704
444.356	3450
444.428	3664
444.499	1479
444.571	-116
444.642	288
444.714	1535
444.785	2967
444.857	5278
444.928	10612
445.000	7768
445.071	7912
445.143	10527
445.214	7197
445.285	11608
445.357	33048
445.428	117835
445.500	282995
445.571	186372
445.642	97092
445.714	33476
445.785	23126
445.856	8040
445.928	5219
445.999	4512
446.070	3243
446.141	3420
446.213	5934
446.284	2666
446.355	2281
446.426	1568
446.497	1117
446.569	3017
446.640	5704
446.711	3705
446.782	397
446.853	2212
446.924	3335
446.995	1540
447.066	2075
447.138	3414
447.209	1627
447.280	57
447.351	790
447.422	258
447.493	653
447.564	1550
447.635	3575
447.706	1131
447.777	-408
447.847	-131
447.918	-777
447.989	1256
448.060	2489
448.131	6956
448.202	7104
448.273	5008
448.344	1480
448.414	348
448.485	558
448.556	-195
448.627	-595
448.698	583
448.768	-387
448.839	282
448.910	2516
448.981	3615
449.051	958
449.122	280
449.193	115
449.263	570
449.334	210
449.405	1414
449.475	5314
449.546	4306
449.616	4278
449.687	3513
449.758	894
449.828	761
449.899	174
449.969	382
450.040	352
450.110	1233
450.181	1693
450.251	547
450.322	176
450.392	641
450.463	309
450.533	-176
450.604	-474
450.674	-246
450.744	332
450.815	-460
450.885	592
450.955	431
451.026	204
451.096	422
451.166	598
451.237	4245
451.307	12272
451.377	6145
451.447	29
451.518	10
451.588	-129
451.658	835
451.728	2713
451.799	11509
451.869	14903
451.939	4118
452.009	886
452.079	182
452.149	695
452.219	3149
452.289	14196
452.360	12478
452.430	1646
452.500	1611
452.570	2076
452.640	4356
452.710	14417
452.780	21643
452.850	13932
452.920	11177
452.990	4242
453.060	1000
453.129	2726
453.199	3998
453.269	16655
453.339	40400
453.409	64196
453.479	56903
453.549	85935
453.619	91091
453.688	38925
453.758	5033
453.828	1742
453.898	863
453.968	1137
454.037	583
454.087	902
454.107	1014
454.168	686
454.177	618
454.247	-536
454.249	-475
454.316	317
454.330	606
454.386	1506
454.411	3281
454.456	5843
454.492	8700
454.525	11259
454.574	6749
454.595	4812
454.655	1527
454.665	1013
454.734	1925
454.736	2050
454.804	3946
454.817	6076
454.873	13745
454.898	15020
454.943	17052
454.979	11887
455.013	7548
455.060	4029
455.082	2603
455.141	3598
455.152	3697
455.221	10718
455.222	10977
455.291	20876
455.303	20179
455.360	16841
455.384	20507
455.430	25269
455.465	20511
455.499	16441
455.546	14832
455.569	13556
455.627	9341
455.638	8779
455.707	2346
455.708	2359
455.777	1083
455.789	1129
455.846	1243
455.869	1266
455.916	1195
455.950	1272
455.985	1390
456.031	1028
456.054	794
456.112	1154
456.124	1235
456.193	958
456.193	936
456.262	1303
456.274	1730
456.332	3428
456.355	3356
456.401	2760
456.436	2184
456.470	1832
456.516	1481
456.540	1254
456.597	814
456.609	737
456.678	932
456.678	917
456.747	711
456.759	735
456.817	969
456.840	1106
456.886	1251
456.920	1194
456.955	1202
457.001	1415
457.024	1697
457.082	2554
457.093	2587
457.162	3478
457.163	3508
457.232	3804
457.243	3559
457.301	2120
457.324	1644
457.370	1192
457.405	1440
457.439	1740
457.485	2043
457.508	2166
457.566	2807
457.577	3031
457.646	3981
457.647	4026
457.715	8120
457.727	8903
457.784	13499
457.808	16686
457.853	20005
457.889	23182
457.922	23362
457.969	17158
457.991	17586
458.050	20659
458.060	21254
458.129	33878
458.130	34315
458.198	32120
458.211	28577
458.267	17175
458.292	12012
458.336	7802
458.372	8161
458.405	11450
458.453	17189
458.474	21117
458.533	35781
458.543	36687
458.611	54973
458.614	55285
458.680	34091
458.694	26488
458.749	12557
458.775	9120
458.818	5231
458.855	4471
458.887	4143
458.936	3273
458.955	2942
459.016	3457
459.024	3534
459.093	3860
459.097	3869
459.162	3731
459.177	3841
459.230	4405
459.257	4552
459.299	4553
459.338	4783
459.368	5041
459.418	5669
459.437	5380
459.499	3740
459.505	3726
459.574	3697
459.579	3727
459.643	3389
459.659	3278
459.711	3328
459.740	3457
459.780	3615
459.820	3861
459.849	4151
459.900	4629
459.917	4607
459.981	5051
459.986	5084
460.054	4491
460.061	4512
460.123	4692
460.141	4622
460.191	5615
460.222	6538
460.260	6515
460.302	6738
460.328	6668
460.382	5954
460.397	6128
460.462	6462
460.465	6672
460.534	12292
460.543	13032
460.602	29293
460.623	35649
460.671	54808
460.703	73060
460.739	63318
460.783	45695
460.808	39989
460.864	11054
460.876	8284
460.944	4417
460.945	4373
461.013	4518
461.024	4568
461.081	4640
461.104	4635
461.150	4232
461.184	4277
461.218	4560
461.264	4051
461.286	3861
461.345	4059
461.355	4076
461.423	4489
461.425	4491
461.491	5397
461.505	5543
461.559	10489
461.585	13106
461.628	19526
461.665	25628
461.696	26427
461.745	29941
461.764	26465
461.825	9440
461.832	9199
461.901	5967
461.905	5945
461.969	4716
461.985	4520
462.037	5388
462.065	5593
462.105	5869
462.145	6579
462.173	9172
462.225	13729
462.241	14955
462.305	21606
462.310	20993
462.378	10725
462.385	9242
462.446	6456
462.465	5797
462.514	4984
462.545	5143
462.582	5488
462.625	5543
462.650	5352
462.705	5092
462.718	5296
462.785	6230
462.786	6271
462.854	8488
462.865	8924
462.922	11169
462.945	12234
462.990	9153
463.025	5932
463.058	5288
463.104	4536
463.126	4448
463.184	4631
463.194	4692
463.262	5158
463.264	5171
463.330	5336
463.344	5348
463.398	6065
463.424	6386
463.466	6353
463.504	6291
463.533	6228
463.583	6401
463.601	6742
463.663	7336
463.669	7593
463.737	11019
463.743	11318
463.805	16865
463.823	18472
463.873	26726
463.903	31973
463.940	31897
463.982	32358
464.008	25976
464.062	10511
464.076	9971
464.142	6110
464.144	6066
464.211	5910
464.221	5906
464.279	5818
464.301	5823
464.347	6783
464.381	7465
464.414	8556
464.461	10194
464.482	10481
464.540	11033
464.550	10743
464.617	8744
464.620	8650
464.685	9693
464.699	9975
464.753	11413
464.779	12049
464.820	13295
464.859	14593
464.888	13971
464.938	12646
464.956	12625
465.018	12471
465.023	12341
465.091	10409
465.098	10202
465.158	10924
465.177	11106
465.226	10662
465.257	10375
465.293	10867
465.336	11382
465.361	12278
465.416	14296
465.428	15530
465.495	22103
465.496	22207
465.563	32787
465.575	34615
465.631	39626
465.654	41892
465.698	26534
465.734	13000
465.765	11851
465.813	10023
465.833	9859
465.893	9829
465.900	9871
465.968	10189
465.972	10198
466.035	10149
466.052	10102
466.102	10535
466.131	10782
466.170	10955
466.210	11032
466.237	11307
466.290	11828
466.304	11844
466.369	11862
466.372	11926
466.439	13122
466.449	13283
466.506	15811
466.528	16726
466.573	23561
466.607	28649
466.641	38173
466.687	51310
466.708	54658
466.766	63865
466.775	59178
466.842	23003
466.845	21241
466.909	17189
466.925	16249
466.977	15636
467.004	15359
467.044	16103
467.083	16781
467.111	17637
467.163	19178
467.178	19612
467.242	21251
467.245	21194
467.312	19203
467.321	18904
467.379	18851
467.400	18780
467.446	19670
467.480	20248
467.559	17350
467.638	15004
467.717	16980
467.796	17287
467.875	19393
467.955	18562
468.034	30222
468.113	57239
468.192	78503
468.271	20942
468.350	18541
468.429	20683
468.508	21032
468.588	15106
468.667	16014
468.746	15661
468.825	14465
468.904	13494
468.983	17011
469.062	22564
469.141	26551
469.220	12602
469.299	13704
469.378	13966
469.456	17602
469.535	15458
469.614	15077
469.693	16605
469.772	21007
469.851	27069
469.930	17457
470.009	14397
470.088	15470
470.166	19227
470.245	28540
470.324	32674
470.403	23183
470.482	16120
470.560	14225
470.639	14331
470.718	17326
470.797	14810
470.875	18409
470.954	21764
471.033	23280
471.111	10868
471.190	10798
471.269	11417
471.347	11919
471.426	12258
471.505	14175
471.583	14469
471.662	14158
471.740	12467
471.819	12157
471.898	11765
471.976	12373
472.055	12113
472.133	13406
472.212	17361
472.290	18513
472.369	11769
472.447	12326
472.526	11132
472.604	12944
472.683	12841
472.761	13966
472.839	12164
472.918	12060
472.996	11958
473.075	14727
473.153	13431
473.231	12414
473.310	13465
473.388	13398
473.466	12639
473.545	14706
473.623	18734
473.701	17548
473.780	12363
473.858	11673
473.936	13325
474.014	12858
474.093	14674
474.171	21039
474.249	26714
474.327	17593
474.405	10964
474.484	11174
474.562	10937
474.640	11579
474.718	12485
474.796	12433
474.874	11426
474.952	10496
475.030	10251
475.108	11387
475.187	13610
475.265	15477
475.343	21031
475.421	21955
475.499	11318
475.577	13041
475.655	17564
475.733	33539
475.811	54264
475.889	46768
475.966	27829
476.044	11891
476.122	15382
476.200	20122
476.278	13939
476.356	11007
476.434	12018
476.512	14806
476.590	18788
476.667	15761
476.745	10073
476.823	12281
476.901	10937
476.979	11306
477.056	10783
477.134	11913
477.212	11952
477.290	11228
477.367	9418
477.445	10461
477.523	9154
477.601	10764
477.678	9981
477.756	13333
477.834	13301
477.911	10123
477.989	9731
478.066	9827
478.144	12851
478.222	14561
478.299	24026
478.377	20421
478.454	10544
478.532	9495
478.609	10209
478.687	11107
478.764	9751
478.842	10828
478.919	10425
478.997	9673
479.074	9466
479.152	11765
479.229	14711
479.307	9158
479.384	8159
479.461	8717
479.539	10616
479.616	11248
479.694	8893
479.771	10648
479.848	11309
479.926	15298
480.003	15702
480.080	9740
480.157	8734
480.235	8849
480.312	8589
480.389	12551
480.467	18233
480.544	21987
480.621	11483
480.698	10448
480.775	12467
480.853	12780
480.930	9539
481.007	11224
481.084	12869
481.161	15708
481.238	11149
481.315	9991
481.392	8985
481.470	9660
481.547	9884
481.624	8973
481.701	8531
481.778	9533
481.855	11371
481.932	18365
482.009	30440
482.086	17931
482.163	11555
482.240	18234
482.317	30115
482.393	20875
482.470	10387
482.547	10645
482.624	9196
482.701	10335
482.778	9074
482.855	8643
482.932	8942
483.009	9604
483.085	11402
483.162	14427
483.239	12524
483.316	10222
483.393	9886
483.469	9953
483.546	10865
483.623	12224
483.699	8718
483.776	9514
483.853	11877
483.930	20744
484.006	46691
484.083	76212
484.160	37692
484.236	53754
484.313	38688
484.389	29730
484.466	26088
484.543	27265
484.619	28006
484.696	29834
484.772	30624
484.849	31357
484.925	24845
485.002	24982
485.078	27554
485.155	28241
485.231	23432
485.308	23944
485.384	24874
485.461	31439
485.537	49710
485.614	54278
485.690	23016
485.766	21819
485.843	25207
485.919	33619
485.995	33105
486.072	21574
486.148	21041
486.224	20581
486.301	22927
486.377	26460
486.453	26064
486.530	25861
486.606	32838
486.682	37332
486.758	43440
486.835	48612
486.911	40077
486.987	64412
487.063	66030
487.139	79685
487.215	54241
487.292	28920
487.368	24692
487.444	29739
487.520	36594
487.596	39363
487.672	67839
487.748	160103
487.824	218771
487.900	67830
487.976	31772
488.052	31095
488.128	33172
488.204	27980
488.280	24191
488.356	30880
488.432	58856
488.508	81402
488.584	27526
488.660	19970
488.736	20585
488.812	23142
488.888	28722
488.964	40538
489.039	80520
489.115	113394
489.191	61267
489.267	21747
489.343	20555
489.418	18015
489.494	17925
489.570	15647
489.646	18916
489.722	18388
489.797	19781
489.873	33270
489.949	64321
490.024	48560
490.100	17433
490.176	18727
490.251	22433
490.327	29150
490.403	16598
490.478	16930
490.554	14629
490.629	16623
490.705	14783
490.781	16862
490.856	15750
490.932	19537
491.007	18348
491.083	17876
491.158	16985
491.234	24102
491.309	48398
491.385	45303
491.460	16409
491.536	17994
491.611	15004
491.686	18185
491.762	26706
491.837	52606
491.913	85756
491.988	115925
492.063	136046
492.139	37079
492.214	23650
492.289	13441
492.365	13290
492.440	17225
492.515	16676
492.590	16684
492.666	13263
492.741	20226
492.816	27425
492.891	15466
492.967	12873
493.042	10894
493.117	12702
493.192	15708
493.267	27176
493.342	68998
493.418	78573
493.493	16466
493.568	11048
493.643	11815
493.718	16691
493.793	24359
493.868	25326
493.943	16451
494.018	11582
494.093	11597
494.168	12434
494.243	11318
494.318	9817
494.393	10674
494.468	10750
494.543	11047
494.618	12532
494.693	12071
494.768	10835
494.842	11785
494.917	10491
494.992	11390
495.067	10542
495.142	9376
495.217	11337
495.292	12122
495.366	12838
495.441	16217
495.516	21120
495.591	37352
495.665	114996
495.740	239079
495.815	83598
495.890	16514
495.964	12431
496.039	16272
496.114	13939
496.188	17854
496.263	16957
496.338	13853
496.412	16461
496.487	20107
496.561	18939
496.636	19841
496.710	16482
496.785	18565
496.860	21134
496.934	15988
497.009	16243
497.083	16108
497.158	17237
497.232	22446
497.307	25870
497.381	22463
497.455	26747
497.530	32282
497.604	23667
497.679	27262
497.753	39698
497.827	52741
497.902	48536
497.976	62844
498.050	151268
498.125	452198
498.199	392837
498.273	71020
498.348	56952
498.422	47090
498.496	42256
498.570	37906
498.645	27223
498.719	26588
498.793	31648
498.867	48579
498.941	72427
499.016	202524
499.090	459370
499.164	129848
499.238	18751
499.312	17867
499.386	22983
499.460	19826
499.534	19209
499.609	24370
499.683	33370
499.757	36910
499.831	96366
499.905	317986
499.979	251869
500.053	39793
500.127	37407
500.201	27634
500.275	17214
500.349	17300
500.422	21079
500.496	36406
500.570	77940
500.644	187156
500.718	302388
500.792	55573
500.866	16314
500.940	22721
501.013	17116
501.087	19405
501.161	33675
501.235	49827
501.309	112977
501.382	282531
501.456	209847
501.530	51868
501.603	82738
501.677	29159
501.751	12392
501.825	19787
501.898	42052
501.972	107461
502.046	57132
502.119	21634
502.193	51763
502.266	115551
502.340	50713
502.413	53971
502.487	94399
502.561	50001
502.634	16896
502.708	14607
502.781	12101
502.855	10635
502.928	9117
503.002	9660
503.075	8837
503.149	10883
503.222	10014
503.295	12260
503.369	15579
503.442	29181
503.516	88780
503.589	199923
503.662	115642
503.736	42136
503.809	93001
503.882	76857
503.956	114418
504.029	101712
504.102	93397
504.175	114296
504.249	39358
504.322	21962
504.395	17449
504.468	11747
504.542	12473
504.615	8417
504.688	8547
504.761	9024
504.834	11861
504.907	15201
504.980	22443
505.053	12851
505.127	14733
505.200	19254
505.273	16824
505.346	10068
505.419	8219
505.492	8129
505.565	5811
505.638	7531
505.711	7435
505.784	6596
505.857	6351
505.930	9121
506.003	7058
506.076	9695
506.149	11204
506.221	14168
506.294	17749
506.367	49797
506.440	144479
506.513	65548
506.586	15296
506.659	8838
506.731	8265
506.804	11859
506.877	15020
506.950	10885
507.022	8450
507.095	11535
507.168	13740
507.241	9864
507.313	8233
507.386	8997
507.459	12891
507.531	8156
507.604	6897
507.677	7546
507.749	6434
507.822	12082
507.894	22417
507.967	24393
508.040	13540
508.112	13007
508.185	10768
508.257	11353
508.330	17304
508.402	11343
508.475	11329
508.547	12058
508.620	12420
508.692	19157
508.765	11618
508.837	9038
508.909	9363
508.982	9605
509.054	9974
509.127	9769
509.199	7557
509.271	7413
509.344	7697
509.416	8189
509.488	8090
509.560	9831
509.633	9591
509.705	11340
509.777	10768
509.849	15797
509.922	10416
509.994	8541
510.066	9679
510.138	11182
510.210	21166
510.283	18158
510.355	14337
510.427	12986
510.499	13061
510.571	12831
510.643	12981
510.715	20440
510.787	16027
510.859	14065
510.931	15193
511.003	19740
511.076	15982
511.148	12168
511.219	11921
511.291	19770
511.363	20482
511.435	10848
511.507	8845
511.579	10377
511.651	10521
511.723	10082
511.795	9568
511.867	10781
511.939	14472
512.010	28118
512.082	19522
512.154	10620
512.226	11344
512.298	17605
512.369	25425
512.441	19428
512.513	18436
512.585	14309
512.656	14942
512.728	16177
512.800	12170
512.871	11858
512.943	12329
513.015	11469
513.086	12540
513.158	14221
513.230	13826
513.301	20397
513.373	22560
513.444	12980
513.516	11329
513.588	12402
513.659	13184
513.731	15992
513.802	15513
513.874	32525
513.945	48486
514.016	17482
514.088	11720
514.159	13532
514.231	18635
514.302	23021
514.374	17196
514.445	16880
514.516	32017
514.588	22085
514.659	17391
514.730	29258
514.802	23206
514.873	19279
514.944	19076
515.016	16298
515.087	18783
515.158	23292
515.229	29257
515.301	21757
515.372	26842
515.443	17509
515.514	14187
515.585	11781
515.656	10780
515.728	11366
515.799	10718
515.870	12127
515.941	13489
516.012	13183
516.083	18565
516.154	19875
516.225	25034
516.296	22243
516.367	20060
516.438	24176
516.509	33955
516.580	62678
516.651	200979
516.722	564910
516.793	209538
516.864	38642
516.935	37907
517.006	46806
517.077	82405
517.148	212269
517.219	709646
517.289	932591
517.360	221918
517.431	59075
517.502	21290
517.573	21631
517.643	20683
517.714	22336
517.785	23188
517.856	24666
517.926	27658
517.997	33840
518.068	44289
518.138	71726
518.209	146816
518.280	516443
518.350	1435593
518.421	492943
518.492	53324
518.562	32922
518.633	33332
518.703	36738
518.774	68745
518.845	149848
518.915	128130
518.986	42979
519.056	33174
519.127	53371
519.197	80473
519.268	166404
519.338	90146
519.408	26157
519.479	29709
519.549	21644
519.620	15168
519.690	12092
519.760	12691
519.831	14320
519.901	13182
519.971	11479
520.042	12362
520.112	15839
520.182	16696
520.253	19122
520.323	14832
520.393	24216
520.463	33641
520.534	26582
520.604	49161
520.674	21675
520.744	25219
520.814	60700
520.885	48146
520.955	63198
521.025	182408
521.095	59602
521.165	12990
521.235	12637
521.305	11010
521.375	11346
521.445	11305
521.515	17052
521.585	19307
521.655	16575
521.725	14596
521.795	13624
521.865	9528
521.935	18300
522.005	13692
522.075	10154
522.145	12624
522.215	13212
522.285	19858
522.355	27375
522.424	48664
522.494	38449
522.564	23247
522.634	47548
522.704	110513
522.774	37797
522.843	11389
522.913	11688
522.983	15015
523.053	11386
523.122	13782
523.192	22014
523.262	65437
523.331	54633
523.401	11656
523.471	7740
523.540	10211
523.610	7360
523.680	8329
523.749	9860
523.819	11947
523.888	12129
523.958	7571
524.027	9045
524.097	10289
524.166	9328
524.236	9277
524.305	11872
524.375	8170
524.444	7893
524.514	9739
524.583	10939
524.653	12353
524.722	14855
524.791	9436
524.861	10205
524.930	8177
524.999	10145
525.069	13667
525.138	11634
525.207	14012
525.277	10909
525.346	10198
525.415	9730
525.484	11016
525.554	12586
525.623	11879
525.692	12463
525.761	12423
525.830	14475
525.900	18241
525.969	30212
526.038	54464
526.107	119145
526.176	293627
526.245	215978
526.314	77270
526.383	163284
526.452	211849
526.522	350895
526.591	302041
526.660	74397
526.729	40522
526.797	55180
526.867	128687
526.935	436030
527.004	744502
527.073	356418
527.142	30638
527.211	15543
527.280	15688
527.349	15402
527.418	7887
527.487	10341
527.555	8012
527.624	8190
527.693	6686
527.762	8454
527.831	6178
527.899	7935
527.968	7496
528.037	7041
528.106	11090
528.174	19976
528.243	16376
528.312	24399
528.380	28759
528.449	9464
528.518	7679
528.586	4565
528.655	6231
528.723	6255
528.792	5875
528.861	7388
528.929	5519
528.998	7119
529.066	5209
529.135	6187
529.203	5280
529.272	5268
529.340	6593
529.409	7825
529.477	6317
529.545	9477
529.614	11548
529.682	12912
529.751	13368
529.819	15045
529.887	9572
529.956	6764
530.024	8053
530.092	6138
530.161	9420
530.229	13990
530.297	7245
530.365	7091
530.434	5601
530.502	5860
530.570	6078
530.638	3914
530.707	7686
530.775	8647
530.843	6359
530.911	5985
530.979	6248
531.047	6396
531.115	7036
531.183	5919
531.252	6786
531.320	6751
531.388	5261
531.456	7596
531.524	4793
531.592	6664
531.660	8143
531.728	5785
531.796	5166
531.864	7079
531.932	7550
532.000	6701
532.067	6424
532.135	8613
532.203	10307
532.271	10889
532.339	20392
532.407	49001
532.475	25444
532.542	12727
532.610	16520
532.678	27957
532.746	102981
532.814	205691
532.881	45533
532.949	9904
533.017	8173
533.084	7801
533.152	7000
533.220	7562
533.287	8551
533.355	7234
533.423	6710
533.490	6683
533.558	7214
533.625	8801
533.693	8145
533.761	8273
533.828	8264
533.896	8572
533.963	19218
534.031	22991
534.098	28872
534.166	14059
534.233	7577
534.300	9823
534.368	9351
534.435	8905
534.503	9457
534.570	12624
534.637	10199
534.705	13065
534.772	19283
534.840	39042
534.907	142639
534.974	153314
535.041	18673
535.109	12759
535.176	7999
535.243	8257
535.310	9032
535.378	7679
535.445	8050
535.512	6475
535.579	8717
535.646	7887
535.714	8709
535.781	11411
535.848	9499
535.915	10260
535.982	8955
536.049	8679
536.116	10773
536.183	8908
536.250	8016
536.317	10383
536.384	12089
536.451	17683
536.518	16828
536.585	11328
536.652	16260
536.719	21904
536.786	16506
536.853	13914
536.920	22480
536.987	34235
537.053	35809
537.120	116055
537.187	83395
537.254	10780
537.321	8917
537.388	10541
537.454	7815
537.521	8516
537.588	9484
537.654	11211
537.721	11448
537.788	11684
537.855	9448
537.921	9333
537.988	10078
538.055	10923
538.121	8120
538.188	11326
538.254	17777
538.321	32504
538.388	18239
538.454	11589
538.521	9842
538.587	8543
538.654	8759
538.720	8913
538.787	9113
538.853	9852
538.920	12526
538.986	12351
539.053	10276
539.119	11816
539.185	9945
539.252	14426
539.318	18568
539.385	15031
539.451	12341
539.517	14085
539.583	17908
539.650	38814
539.716	79371
539.782	22110
539.849	9560
539.915	11498
539.981	11171
540.047	13384
540.114	12115
540.180	12607
540.246	12849
540.312	17773
540.378	32838
540.444	34584
540.510	40513
540.576	89720
540.643	26041
540.709	9576
540.775	10327
540.841	11084
540.907	15464
540.973	24309
541.039	19626
541.105	19245
541.171	11573
541.237	10874
541.303	12073
541.369	13733
541.435	17112
541.500	28212
541.566	15790
541.632	10722
541.698	8724
541.764	10298
541.830	9152
541.896	9127
541.961	9463
542.027	11546
542.093	11540
542.159	12363
542.224	11750
542.290	18703
542.356	28615
542.421	30954
542.487	14265
542.553	12373
542.618	12825
542.684	11738
542.750	12461
542.815	16662
542.881	28599
542.947	81929
543.012	52234
543.078	9820
543.143	9759
543.209	12632
543.274	11939
543.340	16537
543.405	33232
543.471	46766
543.536	13226
543.602	10944
543.667	8647
543.732	10995
543.798	9407
543.863	10340
543.928	8093
543.994	9358
544.059	9230
544.124	9623
544.190	9695
544.255	11297
544.320	11192
544.386	11676
544.451	16879
544.516	19711
544.581	21945
544.646	55420
544.712	72270
544.777	18026
544.842	13175
544.907	13037
544.972	12146
545.037	12398
545.102	13818
545.168	13603
545.233	15596
545.298	16143
545.363	17447
545.428	20983
545.493	34501
545.558	65872
545.623	26642
545.688	13917
545.753	13468
545.818	12341
545.883	14037
545.947	13747
546.012	16246
546.077	15749
546.142	15072
546.207	15739
546.272	20704
546.337	20145
546.401	17209
546.466	16195
546.531	16260
546.596	18529
546.661	17999
546.725	18071
546.790	16895
546.855	18153
546.919	18957
546.984	21503
547.049	23174
547.113	26462
547.178	26007
547.243	30225
547.307	34125
547.372	40329
547.436	40720
547.501	36384
547.565	39390
547.630	41063
547.695	39738
547.759	40765
547.823	37055
547.888	36421
547.952	36118
548.017	38744
548.081	44103
548.146	47791
548.210	43047
548.274	41128
548.339	39591
548.403	37722
548.468	32822
548.532	34263
548.596	34653
548.660	34899
548.725	40234
548.789	45650
548.853	43764
548.917	40415
548.982	43964
549.046	40527
549.110	32001
549.174	32997
549.238	35305
549.303	38923
549.367	40994
549.431	38449
549.495	36523
549.559	36713
549.623	43370
549.687	47923
549.751	53977
549.815	54607
549.879	53213
549.943	50438
550.007	53504
550.071	53665
550.135	53222
550.199	48355
550.263	45138
550.327	45541
550.391	51577
550.455	50595
550.519	50863
550.582	55633
550.646	66679
550.710	67532
550.774	58012
550.838	60352
550.901	61525
550.965	67195
551.029	70312
551.093	78876
551.156	90195
551.220	126233
551.284	135515
551.347	91617
551.411	106106
551.475	102446
551.538	67921
551.602	59247
551.666	55190
551.729	52463
551.793	52085
551.856	50871
551.920	51541
551.983	50744
552.047	49345
552.110	49197
552.174	51054
552.237	50909
552.301	46694
552.364	45823
552.428	44731
552.491	46203
552.554	47629
552.618	48529
552.681	52384
552.745	53736
552.808	72046
552.871	87543
552.934	60329
552.998	50785
553.061	47385
553.124	45422
553.187	44549
553.251	47491
553.314	48589
553.377	49515
553.440	58763
553.503	87536
553.567	103957
553.630	52504
553.693	48694
553.756	48635
553.819	46085
553.882	45409
553.945	44331
554.008	44526
554.071	44658
554.134	45811
554.197	42760
554.260	41867
554.323	45522
554.386	44989
554.449	44595
554.512	45491
554.575	42553
554.638	44468
554.701	41480
554.764	43102
554.827	40571
554.889	39113
554.952	36215
555.015	37461
555.078	36797
555.141	37720
555.203	34912
555.266	36795
555.329	36487
555.391	34337
555.454	36078
555.517	35712
555.580	32365
555.642	31449
555.705	31048
555.768	32797
555.830	31905
555.893	29357
555.955	28321
556.018	29653
556.080	28942
556.143	30021
556.206	28636
556.268	29865
556.330	29924
556.393	28904
556.455	28623
556.518	34727
556.580	33022
556.643	26260
556.705	25432
556.767	24791
556.830	26218
556.892	26507
556.955	34291
557.017	27321
557.079	24815
557.142	24972
557.204	27233
557.266	41301
557.328	33155
557.391	20904
557.453	20204
557.515	22256
557.577	24000
557.639	25805
557.701	20266
557.764	19966
557.826	21583
557.888	24657
557.950	25861
558.012	31749
558.074	44510
558.136	94879
558.198	204755
558.260	64665
558.322	25679
558.384	26677
558.446	29537
558.508	35189
558.570	47461
558.632	75496
558.694	115808
558.756	161391
558.818	432846
558.880	912145
558.942	267225
559.003	208549
559.065	90911
559.127	36916
559.189	40741
559.251	55801
559.312	92642
559.374	208284
559.436	609726
559.498	259096
559.559	42253
559.621	41487
559.683	58319
559.744	103910
559.806	300995
559.868	402342
559.929	70533
559.991	47461
560.052	77400
560.114	206822
560.176	123787
560.237	121037
560.299	179729
560.360	37143
560.422	16663
560.483	16959
560.545	15315
560.606	15272
560.667	14201
560.729	14503
560.790	13342
560.852	13630
560.913	14188
560.974	12901
561.036	13194
561.097	13683
561.158	13343
561.220	14023
561.281	13444
561.342	14394
561.403	17841
561.465	22197
561.526	44409
561.587	54125
561.648	16528
561.709	13794
561.771	12891
561.832	12700
561.893	12953
561.954	12559
562.015	12129
562.076	11282
562.137	11933
562.198	12369
562.259	13210
562.320	13495
562.381	14939
562.442	19689
562.503	15985
562.564	12843
562.625	12330
562.686	12803
562.747	14009
562.808	13199
562.869	12708
562.930	15470
562.991	13354
563.051	12615
563.112	12799
563.173	12616
563.234	11546
563.294	12654
563.355	11634
563.416	13323
563.477	11141
563.537	12346
563.598	13265
563.659	12738
563.720	12225
563.780	13267
563.841	13339
563.901	11996
563.962	12162
564.023	11558
564.083	12393
564.144	12393
564.204	12386
564.265	13725
564.325	15914
564.386	26863
564.446	23074
564.507	11918
564.567	12078
564.628	12153
564.688	12473
564.749	12293
564.809	14618
564.869	15370
564.930	12441
564.990	12549
565.050	11672
565.111	12176
565.171	11494
565.231	11759
565.292	12432
565.352	11705
565.412	12158
565.472	12967
565.532	13305
565.593	12536
565.653	11440
565.713	13417
565.773	13118
565.833	16086
565.893	19330
565.953	13829
566.013	13216
566.074	14187
566.134	18322
566.194	25639
566.254	25987
566.314	16659
566.374	12975
566.434	14009
566.494	14630
566.554	14341
566.614	14711
566.673	14837
566.733	16274
566.793	17021
566.853	16915
566.913	16880
566.973	18758
567.033	18738
567.092	17855
567.152	17666
567.212	17494
567.272	17853
567.331	19759
567.391	19737
567.451	20818
567.511	27685
567.570	24587
567.630	17883
567.690	17491
567.749	18520
567.809	19168
567.868	22654
567.928	24315
567.988	28429
568.047	34570
568.107	42748
568.166	60473
568.226	94310
568.285	127302
568.345	102407
568.404	76584
568.464	63256
568.523	59497
568.582	62976
568.642	73474
568.701	95795
568.761	142316
568.820	222414
568.879	202221
568.939	144051
568.998	98479
569.057	71795
569.116	55074
569.176	43651
569.235	35970
569.294	32327
569.353	28441
569.413	25043
569.472	22369
569.531	21078
569.590	19277
569.649	18848
569.708	17625
569.767	17500
569.827	19959
569.886	17430
569.945	14529
570.004	16066
570.063	14883
570.122	15040
570.181	15553
570.240	16453
570.299	16208
570.358	17614
570.417	13476
570.475	13086
570.534	13622
570.593	13895
570.652	13273
570.711	14287
570.770	13175
570.829	14969
570.887	13663
570.946	15175
571.005	11330
571.064	13263
571.122	14312
571.181	15335
571.240	11284
571.299	11677
571.357	12478
571.416	12575
571.475	13246
571.533	14434
571.592	12183
571.650	13219
571.709	10792
571.768	12168
571.826	11681
571.885	11079
571.943	10906
572.002	10937
572.060	10609
572.119	9732
572.177	10613
572.236	9638
572.294	9172
572.352	10184
572.411	9998
572.469	9085
572.528	10564
572.586	10517
572.644	11264
572.703	15591
572.761	11158
572.819	10242
572.877	9285
572.936	9257
572.994	9357
573.052	9693
573.110	10591
573.169	10353
573.227	8745
573.285	9960
573.343	9131
573.401	9354
573.459	9331
573.517	9067
573.576	8261
573.634	9365
573.692	10421
573.750	9117
573.808	9469
573.866	11877
573.924	11820
573.982	12437
574.040	9846
574.098	9634
574.155	8877
574.213	9339
574.271	8640
574.329	10370
574.387	8319
574.445	7598
574.503	8203
574.560	8255
574.618	8493
574.676	9569
574.734	8262
574.792	8514
574.849	7970
574.907	7354
574.965	8697
575.022	7652
575.080	7711
575.138	8082
575.195	8356
575.253	9154
575.311	8594
575.368	8562
575.426	7505
575.483	8169
575.541	7935
575.598	7643
575.656	7409
575.713	7896
575.771	8494
575.828	8318
575.886	8080
575.943	8704
576.001	8384
576.058	9389
576.115	9870
576.173	11066
576.230	11692
576.287	13396
576.345	10948
576.402	9679
576.459	9479
576.517	9717
576.574	9785
576.631	10080
576.688	9268
576.746	8729
576.803	8792
576.860	8610
576.917	8671
576.974	8669
577.031	8440
577.089	8989
577.146	8515
577.203	9276
577.260	9461
577.317	10063
577.374	10583
577.431	10148
577.488	9398
577.545	8998
577.602	8909
577.659	8479
577.716	8934
577.773	9059
577.830	7525
577.886	8303
577.943	8180
578.000	8494
578.057	8355
578.114	9276
578.171	8465
578.227	8959
578.284	8895
578.341	9774
578.398	9421
578.454	10244
578.511	10563
578.568	11528
578.625	9874
578.681	9075
578.738	7590
578.794	8807
578.851	9300
578.908	9949
578.964	9223
579.021	10112
579.077	8005
579.134	9251
579.190	8578
579.247	9421
579.303	8365
579.360	8386
579.416	8156
579.473	8358
579.529	7914
579.586	9107
579.642	8131
579.698	8687
579.755	9028
579.811	8365
579.867	8395
579.924	8696
579.980	8497
580.036	9829
580.093	10530
580.149	11201
580.205	11083
580.261	10426
580.317	10239
580.374	11290
580.430	11487
580.486	11408
580.542	9687
580.598	9880
580.619	9848
580.654	9798
580.692	9597
580.710	9513
580.765	9820
580.767	9838
580.823	10132
580.838	9774
580.879	8842
580.911	9258
580.935	9580
580.984	8425
580.991	8274
581.047	9579
581.057	9524
581.103	9312
581.130	9555
581.159	9801
581.203	10347
581.215	10502
581.270	10360
581.276	10258
581.326	9330
581.349	9511
581.382	9791
581.422	10371
581.438	10627
581.494	10540
581.494	10530
581.550	9923
581.567	9932
581.606	9892
581.640	9970
581.661	10046
581.713	10462
581.717	10499
581.773	9998
581.786	10205
581.829	10929
581.859	10335
581.885	9828
581.932	10253
581.940	10335
581.996	9833
582.004	9921
582.052	10298
582.077	9883
582.107	9528
582.150	9863
582.163	9930
582.219	10866
582.223	10837
582.274	10630
582.296	10576
582.330	10424
582.368	11042
582.386	11358
582.441	10108
582.441	10107
582.497	11128
582.514	11100
582.552	11099
582.587	11218
582.608	11267
582.659	10597
582.663	10546
582.719	11329
582.732	11133
582.774	10573
582.805	10754
582.830	10940
582.877	11091
582.885	11084
582.941	11276
582.950	11367
582.996	11929
583.023	12002
583.052	12141
583.095	12212
583.107	12235
583.162	12928
583.168	12888
583.218	12361
583.240	12349
583.273	12306
583.313	11833
583.328	11684
583.384	12297
583.385	12270
583.439	11390
583.458	11553
583.494	11791
583.531	11237
583.549	11106
583.603	12091
583.605	12111
583.660	11775
583.676	11816
583.715	12056
583.748	12044
583.770	12042
583.820	13486
583.825	13618
583.881	12733
583.893	12825
583.936	12965
583.965	12446
583.991	12125
584.038	12369
584.046	12415
584.101	12259
584.110	12355
584.156	12935
584.183	12957
584.211	12963
584.255	13431
584.266	13517
584.321	13170
584.328	13255
584.376	14079
584.400	14075
584.431	13956
584.472	14166
584.486	14334
584.541	14338
584.545	14376
584.596	14631
584.617	14473
584.651	14571
584.689	15461
584.706	15705
584.761	15607
584.762	15603
584.816	15549
584.834	15627
584.871	15829
584.906	16130
584.926	16366
584.978	16675
584.980	16685
585.035	17806
585.051	17808
585.090	18078
585.123	18921
585.145	19467
585.195	20187
585.200	20285
585.254	22014
585.267	22600
585.309	24781
585.340	26943
585.364	28498
585.412	30754
585.419	31082
585.473	36142
585.484	37725
585.528	45876
585.556	53551
585.583	65958
585.628	93174
585.637	103588
585.692	208239
585.700	226167
585.747	305010
585.772	260446
585.801	161210
585.845	63666
585.856	51138
585.910	32444
585.917	30650
585.965	27488
585.989	26272
586.019	25521
586.061	25025
586.074	25003
586.128	24972
586.133	25012
586.183	25685
586.205	25823
586.237	26264
586.277	26431
586.292	26439
586.346	26936
586.349	26958
586.401	27528
586.421	27899
586.455	29014
586.493	29969
586.509	30785
586.564	35294
586.565	35485
586.618	47307
586.637	47761
586.672	43159
586.709	38101
586.727	36295
586.781	35331
586.781	35351
586.835	33037
586.853	32950
586.889	33061
586.925	32497
586.944	32608
586.996	34220
586.998	34289
587.052	34984
587.068	35349
587.106	36789
587.140	37984
587.161	38485
587.212	39396
587.215	39504
587.269	41301
587.284	41868
587.323	43245
587.356	44083
587.377	44939
587.427	46862
587.431	47040
587.485	48955
587.499	49607
587.539	51942
587.571	53405
587.593	54547
587.643	57792
587.648	58240
587.702	62241
587.715	63372
587.755	67181
587.786	69248
587.810	71037
587.858	75783
587.864	76505
587.917	82980
587.930	84499
587.971	91338
588.001	96299
588.025	100407
588.073	109301
588.079	110872
588.133	123452
588.145	126493
588.187	138999
588.217	148335
588.241	158307
588.288	177857
588.295	181014
588.348	208419
588.360	214521
588.402	242799
588.431	263836
588.456	285844
588.503	331422
588.510	339692
588.564	411341
588.575	427584
588.617	512045
588.646	575607
588.671	654808
588.718	817713
588.725	857005
588.778	1177320
588.789	1246562
588.832	1629710
588.861	1887223
588.886	2036144
588.932	2187340
588.939	2163883
588.993	1905683
589.004	1891380
589.047	2072981
589.075	2102670
589.100	1884829
589.147	1413374
589.154	1366195
589.207	1022782
589.218	957763
589.261	866098
589.290	815579
589.314	836018
589.361	891548
589.368	922155
589.421	1192614
589.433	1255179
589.475	1635905
589.504	1882720
589.528	1962566
589.576	2004680
589.582	1989026
589.635	1911843
589.647	1867543
589.689	1441926
589.718	1125059
589.742	941443
589.790	603512
589.795	585933
589.849	431712
589.861	397842
589.902	337986
589.932	294369
589.955	271075
590.004	222701
590.009	219845
590.062	188680
590.075	180836
590.115	164399
590.146	152200
590.168	146016
590.218	131899
590.222	131291
590.275	121161
590.289	118439
590.328	111007
590.360	104445
590.381	101977
590.431	96519
590.435	96313
590.488	89952
590.503	88108
590.541	85090
590.574	82184
590.594	80595
590.645	76388
590.647	76377
590.700	72677
590.716	71410
590.753	69508
590.787	67505
590.806	66956
590.859	65542
590.859	65615
590.912	62513
590.930	61634
590.965	60369
591.001	58600
591.018	58338
591.071	57326
591.072	57213
591.124	55760
591.143	55191
591.177	55174
591.214	54809
591.230	54559
591.283	53540
591.285	53399
591.336	52031
591.356	51343
591.389	51541
591.427	51417
591.442	50890
591.495	48563
591.498	48303
591.547	47787
591.569	47554
591.600	46864
591.640	45434
591.653	45508
591.706	45638
591.711	45565
591.759	46105
591.782	46301
591.811	46592
591.853	46666
591.864	46551
591.917	45568
591.924	45316
591.969	44843
591.995	44535
592.022	44366
592.066	43700
592.075	44002
592.127	45477
592.137	45673
592.180	47172
592.208	47925
592.233	46375
592.279	43058
592.285	43034
592.338	42266
592.350	42001
592.390	41291
592.421	40630
592.443	40811
592.491	40941
592.495	40991
592.548	40571
592.562	40376
592.600	40621
592.633	40691
592.653	40580
592.704	39864
592.705	40101
592.775	40508
592.846	40391
592.916	40745
592.987	41440
593.058	40560
593.128	38877
593.199	39580
593.270	38738
593.341	38282
593.411	38534
593.482	38734
593.553	38303
593.623	36922
593.694	39776
593.764	40741
593.835	39232
593.906	38687
593.976	39095
594.047	40438
594.117	42906
594.188	42579
594.258	39609
594.329	40063
594.399	38802
594.470	39813
594.540	39594
594.611	41192
594.681	40774
594.751	40689
594.822	42244
594.892	42644
594.963	43918
595.033	43459
595.103	43525
595.174	44813
595.244	50896
595.314	57285
595.384	46550
595.455	45104
595.525	47682
595.595	47953
595.665	48441
595.736	46555
595.806	47949
595.876	47374
595.946	47127
596.016	47875
596.087	50503
596.157	49497
596.227	49727
596.297	52234
596.367	53952
596.437	57757
596.507	61255
596.577	65920
596.647	58085
596.717	58256
596.787	60309
596.857	60597
596.927	61533
596.997	59791
597.067	60097
597.137	62510
597.207	62885
597.277	62148
597.347	59738
597.417	58522
597.487	58506
597.557	60311
597.626	61549
597.696	62727
597.766	64332
597.836	66672
597.906	57609
597.975	55605
598.045	54917
598.115	56733
598.185	60356
598.254	65862
598.324	70943
598.394	72101
598.464	69741
598.533	68369
598.603	64060
598.672	62942
598.742	64056
598.812	63680
598.881	65508
598.951	64814
599.020	64236
599.090	67882
599.159	68621
599.229	65618
599.299	63649
599.368	65440
599.437	64896
599.507	61268
599.576	59283
599.646	58865
599.715	58637
599.785	57612
599.854	56194
599.924	58210
599.993	57149
600.062	56539
600.132	57023
600.201	59250
600.270	69551
600.340	72031
600.409	69444
600.478	68371
600.547	69360
600.617	66373
600.686	55461
600.755	50373
600.824	49455
600.894	47002
600.963	47442
601.032	46194
601.101	45459
601.170	44114
601.239	43243
601.308	44820
601.378	43787
601.447	42766
601.516	43147
601.585	45162
601.654	46411
601.723	45100
601.792	45780
601.861	47221
601.930	49828
601.999	50515
602.068	47791
602.137	50198
602.206	51552
602.275	49370
602.343	51594
602.412	52898
602.481	49805
602.550	49558
602.619	51021
602.688	52379
602.756	52673
602.825	52736
602.894	53555
602.963	53440
603.032	55511
603.100	54386
603.169	54749
603.238	56096
603.307	55080
603.375	55425
603.444	56538
603.513	56946
603.581	57718
603.650	58733
603.719	57127
603.787	57560
603.856	58828
603.924	59911
603.993	63883
604.061	63755
604.130	66277
604.198	69211
604.267	68201
604.335	69254
604.404	69302
604.472	71886
604.541	71899
604.609	72456
604.678	71939
604.746	72640
604.815	75478
604.883	75999
604.951	76834
605.020	77877
605.088	78365
605.156	80570
605.225	80803
605.293	82129
605.361	81359
605.429	81399
605.498	82953
605.566	85464
605.634	89498
605.702	92249
605.771	94894
605.839	95294
605.907	93075
605.975	89336
606.043	87455
606.111	87775
606.180	89117
606.248	89718
606.316	88998
606.384	86807
606.452	90000
606.520	92668
606.588	92728
606.656	90837
606.724	88416
606.792	85463
606.860	77103
606.928	69765
606.996	67158
607.064	66564
607.132	68031
607.200	70909
607.267	73790
607.335	74917
607.403	77092
607.471	74157
607.539	71305
607.607	73597
607.674	66689
607.742	63784
607.810	65431
607.878	64789
607.946	64646
608.013	68337
608.081	71015
608.149	70170
608.216	71572
608.284	75072
608.352	74102
608.419	75810
608.487	77367
608.555	73826
608.622	73360
608.690	76198
608.757	84078
608.825	87837
608.893	85713
608.960	83440
609.028	81976
609.095	82292
609.163	78910
609.230	70898
609.298	64934
609.365	66755
609.432	72064
609.500	77791
609.567	88078
609.635	99793
609.702	106373
609.769	105590
609.837	84012
609.904	71117
609.971	72975
610.039	82441
610.106	106040
610.173	196868
610.241	454626
610.308	351918
610.375	151847
610.442	86931
610.509	74857
610.577	72570
610.644	73690
610.711	74731
610.778	77298
610.845	81118
610.912	84042
610.980	87932
611.047	91077
611.114	89164
611.181	83480
611.248	81163
611.315	87461
611.382	88173
611.449	92139
611.516	93532
611.583	93131
611.650	94254
611.717	94461
611.784	97685
611.851	102675
611.918	109424
611.984	130925
612.051	183612
612.118	358925
612.185	895091
612.252	676432
612.319	165309
612.386	125531
612.452	114171
612.519	109801
612.586	110691
612.653	108646
612.719	109825
612.786	105609
612.853	98230
612.919	94944
612.986	98874
613.053	90898
613.120	87416
613.186	82393
613.253	83261
613.319	82977
613.386	84792
613.453	86418
613.519	87732
613.586	87703
613.652	97599
613.719	91974
613.785	91091
613.852	87848
613.918	85788
613.985	87216
614.051	93617
614.118	108019
614.184	107167
614.250	86146
614.317	88137
614.383	85739
614.449	88126
614.516	86754
614.582	88655
614.648	87381
614.715	85418
614.781	85895
614.847	84580
614.914	84825
614.980	84068
615.046	82867
615.112	83860
615.179	86452
615.245	89261
615.311	96007
615.377	116181
615.443	124927
615.509	99696
615.575	94859
615.642	93380
615.708	95269
615.774	101269
615.840	109314
615.906	127121
615.972	165925
616.038	273861
616.104	501125
616.170	1084637
616.236	1084018
616.302	247100
616.368	162703
616.434	123694
616.500	109993
616.565	118214
616.631	143270
616.697	123701
616.763	124027
616.829	168014
616.895	297020
616.961	304976
617.026	140940
617.092	97738
617.158	91709
617.224	89437
617.289	84710
617.355	79139
617.421	79662
617.487	79682
617.552	76028
617.618	75319
617.684	74053
617.749	75306
617.815	70930
617.880	69667
617.946	70449
618.012	72758
618.077	73312
618.143	69753
618.208	70743
618.274	76205
618.339	77663
618.405	65806
618.470	65326
618.536	65379
618.601	65763
618.667	61618
618.732	58226
618.798	57145
618.863	57821
618.928	57121
618.994	57607
619.059	58966
619.124	65497
619.190	60827
619.255	55553
619.320	57135
619.386	56205
619.451	56537
619.516	55249
619.581	55787
619.647	56795
619.712	57458
619.777	55464
619.842	54148
619.907	55413
619.972	57135
620.038	57443
620.103	55029
620.168	55275
620.233	55587
620.298	55939
620.363	56408
620.428	56612
620.493	58596
620.558	59322
620.623	59007
620.688	60609
620.753	59435
620.818	59676
620.883	61133
620.948	60448
621.013	60795
621.078	59392
621.143	59790
621.207	62407
621.272	60638
621.337	60223
621.402	59772
621.467	62325
621.532	64295
621.596	61698
621.661	58285
621.726	56972
621.791	57594
621.855	60239
621.920	58330
621.985	60636
622.049	63410
622.114	61649
622.179	61626
622.243	62231
622.308	63475
622.373	65965
622.437	66228
622.502	61827
622.566	61781
622.631	59760
622.695	61799
622.760	61459
622.824	61282
622.889	61379
622.953	62851
623.018	72574
623.082	73855
623.147	64073
623.211	62903
623.276	62166
623.340	61421
623.404	57514
623.469	57442
623.533	59171
623.597	57115
623.662	57643
623.726	53815
623.790	52489
623.854	50682
623.919	51802
623.983	51821
624.047	52252
624.111	52365
624.176	52732
624.240	54941
624.304	59288
624.368	53361
624.432	53230
624.496	54271
624.560	57358
624.625	60060
624.689	56819
624.753	58479
624.817	56769
624.881	55495
624.945	51372
625.009	49672
625.073	50899
625.137	53057
625.201	57958
625.265	57674
625.329	52263
625.393	53859
625.456	52356
625.520	54052
625.584	56289
625.648	59572
625.712	68355
625.776	95994
625.839	106785
625.903	64648
625.967	47653
626.031	56947
626.095	77628
626.158	55768
626.222	41839
626.286	39089
626.349	37881
626.413	36068
626.477	37708
626.540	35632
626.604	36488
626.668	35026
626.731	34404
626.795	34808
626.858	35114
626.922	34344
626.986	35098
627.049	31841
627.113	34719
627.176	33862
627.240	33061
627.303	33028
627.366	32069
627.430	33975
627.493	33064
627.557	32666
627.620	33204
627.684	34140
627.747	34435
627.810	31264
627.874	30503
627.937	27914
628.000	29852
628.064	29213
628.127	26002
628.190	26997
628.253	26252
628.317	25097
628.380	24562
628.443	23816
628.506	24039
628.569	23729
628.632	22764
628.696	22870
628.759	22811
628.822	20915
628.885	21644
628.948	21922
629.011	20993
629.074	21273
629.137	20381
629.200	19453
629.263	20991
629.326	19664
629.389	19080
629.452	19287
629.515	19046
629.578	18886
629.641	20683
629.704	19870
629.767	20255
629.830	19851
629.892	18756
629.955	18112
630.018	20270
630.081	19840
630.144	22806
630.207	17926
630.269	21320
630.332	19438
630.395	19420
630.458	18022
630.520	17025
630.583	17163
630.646	17406
630.708	17156
630.771	17413
630.834	18207
630.896	17640
630.959	17627
631.021	17350
631.084	17077
631.146	17797
631.209	19087
631.272	16780
631.334	16978
631.397	17273
631.459	16239
631.522	18412
631.584	18921
631.646	20024
631.709	19663
631.771	21914
631.834	21025
631.896	19079
631.958	16574
632.021	17158
632.083	16350
632.145	17264
632.208	16922
632.270	17744
632.332	16381
632.395	16167
632.457	16894
632.519	15652
632.581	16786
632.643	15979
632.706	15962
632.768	15462
632.830	16492
632.892	16024
632.954	15487
633.016	16927
633.078	15870
633.141	17241
633.203	16012
633.265	15684
633.327	15971
633.389	15483
633.451	16964
633.513	18278
633.575	17881
633.637	17986
633.698	18010
633.760	17941
633.822	16435
633.884	17367
633.946	17206
634.008	17619
634.070	17557
634.132	18766
634.193	19782
634.255	20780
634.317	21054
634.379	21393
634.441	19209
634.502	17926
634.564	16084
634.626	15720
634.687	15479
634.749	15857
634.811	16099
634.873	14121
634.934	15553
634.996	14948
635.057	14723
635.119	15060
635.181	14980
635.242	15683
635.304	13102
635.365	16838
635.427	15069
635.488	15736
635.550	14234
635.611	15477
635.673	13825
635.734	17171
635.796	16480
635.857	18124
635.918	17196
635.980	19645
636.041	20296
636.102	21821
636.164	21228
636.225	20766
636.286	18069
636.348	17049
636.409	15441
636.470	14327
636.531	14747
636.593	14806
636.654	14505
636.715	13420
636.776	13687
636.838	12912
636.899	14369
636.960	13354
637.021	12610
637.082	12809
637.143	12764
637.204	12741
637.265	11300
637.326	13155
637.387	12615
637.448	11657
637.509	11728
637.570	12472
637.631	12723
637.692	11489
637.753	10910
637.814	11356
637.875	11687
637.936	12225
637.997	11045
638.058	12103
638.119	12316
638.179	11209
638.240	10620
638.301	11115
638.362	11085
638.423	11010
638.483	12155
638.544	10325
638.605	12196
638.666	10657
638.726	10907
638.787	12299
638.848	10048
638.908	10543
638.969	10649
639.030	10085
639.090	9275
639.151	10423
639.211	10907
639.272	13353
639.332	17462
639.393	14314
639.453	10830
639.514	11390
639.574	11084
639.635	9627
639.695	11063
639.756	9140
639.816	11103
639.877	11034
639.937	15263
639.997	18674
640.058	10637
640.118	9267
640.178	10490
640.239	9740
640.299	10073
640.359	9735
640.420	10199
640.480	11482
640.540	12365
640.600	12450
640.661	11598
640.721	10169
640.781	14422
640.841	12158
640.901	10893
640.961	10339
641.021	11014
641.082	11298
641.142	13353
641.202	11239
641.262	8088
641.322	10351
641.382	9408
641.442	9376
641.502	10021
641.562	9731
641.622	9741
641.682	9327
641.742	10036
641.802	10747
641.861	10097
641.921	9931
641.981	11009
642.041	10050
642.101	10971
642.161	9956
642.221	9341
642.280	8731
642.340	8905
642.400	7743
642.460	9103
642.519	8779
642.579	8547
642.639	9576
642.698	8076
642.758	11060
642.818	8959
642.877	8839
642.937	9562
642.997	10052
643.056	11974
643.116	9902
643.175	11133
643.235	9599
643.294	8929
643.354	10671
643.414	11741
643.473	14325
643.532	17516
643.592	23120
643.651	36400
643.711	62916
643.770	121659
643.830	279642
643.889	702747
643.948	214581
644.008	30902
644.067	17829
644.126	13494
644.186	11865
644.245	11149
644.304	8325
644.363	10986
644.423	8886
644.482	9602
644.541	10517
644.600	9682
644.659	12766
644.719	14143
644.778	21048
644.837	33534
644.896	64793
644.955	163908
645.014	71604
645.073	16154
645.132	11206
645.191	10958
645.250	9502
645.309	11223
645.368	10148
645.427	13736
645.486	18255
645.545	34555
645.604	14453
645.663	9674
645.722	9391
645.781	10606
645.840	11853
645.898	15057
645.957	21896
646.016	31815
646.075	58812
646.134	113275
646.192	283226
646.251	525089
646.310	96224
646.369	21446
646.427	16374
646.486	12555
646.545	10652
646.603	9470
646.662	9326
646.721	9069
646.779	8106
646.838	9232
646.896	11469
646.955	13282
647.014	19872
647.072	35590
647.131	98653
647.189	62393
647.248	10790
647.306	8495
647.365	8597
647.423	5696
647.481	8505
647.540	5388
647.598	7305
647.657	6169
647.715	7871
647.773	6262
647.832	7076
647.890	4953
647.948	5761
648.007	7166
648.065	4486
648.123	5429
648.181	7150
648.240	6877
648.298	5904
648.356	5368
648.414	5823
648.472	6128
648.531	6116
648.589	6401
648.647	6150
648.705	5851
648.763	5582
648.821	6672
648.879	6519
648.937	7905
648.995	8733
649.053	10112
649.111	16163
649.169	26833
649.227	45879
649.285	88611
649.343	272653
649.401	174061
649.459	30288
649.516	18488
649.574	10977
649.632	16669
649.690	20894
649.748	14747
649.806	15958
649.863	29287
649.921	66756
649.979	57656
650.037	10063
650.094	4853
650.152	6134
650.210	5146
650.268	6325
650.325	5522
650.383	6006
650.440	5293
650.498	5783
650.556	4315
650.613	5044
650.671	4589
650.728	5011
650.786	6150
650.843	5678
650.901	3878
650.958	4378
651.016	3881
651.073	4511
651.131	4188
651.188	3749
651.246	4531
651.303	3048
651.360	5174
651.418	3864
651.475	4040
651.532	2674
651.590	4659
651.647	4166
651.704	3873
651.762	3747
651.819	4478
651.876	3627
651.933	3539
651.990	4910
652.048	2649
652.105	3183
652.162	4502
652.219	2804
652.276	4196
652.333	4103
652.390	2137
652.448	4382
652.505	4503
652.562	4594
652.619	4330
652.676	5389
652.733	6157
652.790	3676
652.847	2788
652.904	4754
652.961	3084
653.017	2790
653.074	4107
653.131	2960
653.188	2409
653.245	3454
653.302	3513
653.359	3410
653.415	3459
653.472	3079
653.529	3606
653.586	3119
653.642	3504
653.699	3020
653.756	2651
653.813	3179
653.869	3963
653.926	3062
653.983	2722
654.039	3258
654.096	2520
654.152	4169
654.209	2525
654.266	3352
654.322	3022
654.379	4108
654.435	3970
654.492	3421
654.548	4848
654.605	7445
654.661	5408
654.717	4726
654.774	3633
654.830	3752
654.887	3892
654.943	3184
655.000	4143
655.056	4087
655.112	3752
655.168	2791
655.225	3686
655.281	4751
655.337	3803
655.394	6147
655.450	5540
655.506	4266
655.562	5936
655.618	7045
655.675	2675
655.731	3531
655.787	2487
655.843	3987
655.899	2656
655.955	3384
656.011	2835
656.067	1924
656.123	3825
656.179	3983
656.235	4638
656.291	3127
656.347	4355
656.403	3076
656.459	2730
656.515	3417
656.571	3697
656.627	3383
656.683	3350
656.739	3527
656.795	2640
656.850	3331
656.906	3864
656.962	4021
657.018	3059
657.074	3186
657.129	4942
657.185	5279
657.241	9921
657.297	8258
657.352	3268
657.408	2744
657.464	4095
657.519	2648
657.575	2061
657.630	3192
657.686	2870
657.742	2180
657.797	2824
657.853	2591
657.908	4080
657.964	1680
658.019	2740
658.075	3115
658.130	3302
658.186	2813
658.241	3201
658.297	1714
658.352	2684
658.407	3228
658.463	2614
658.518	2896
658.573	2868
658.629	1599
658.684	2550
658.739	3124
658.795	1494
658.850	2547
658.905	2417
658.960	2907
659.016	2443
659.071	3009
659.126	3061
659.181	3172
659.236	4552
659.291	6493
659.346	4615
659.401	3213
659.457	4247
659.512	3834
659.567	3998
659.622	2897
659.677	2489
659.732	2386
659.787	2587
659.842	2791
659.897	3831
659.952	3738
660.007	3450
660.061	2063
660.116	1568
660.171	2417
660.226	2247
660.281	3182
660.336	1303
660.391	3229
660.445	2104
660.500	2300
660.555	3100
660.610	1553
660.664	2985
660.719	2321
660.774	3148
660.828	2888
660.883	2704
660.938	2824
660.992	1569
661.047	2788
661.101	2612
661.156	3163
661.211	1746
661.265	3002
661.320	2107
661.374	2745
661.429	2085
661.483	2522
661.538	2081
661.592	2974
661.647	3077
661.701	2939
661.755	2902
661.810	2599
661.864	2468
661.919	2607
661.973	2602
662.027	2567
662.081	2470
662.136	2670
662.190	2902
662.244	2728
662.299	2453
662.353	2886
662.407	2203
662.461	2244
662.515	2713
662.569	1797
662.624	3216
662.678	3169
662.732	2007
662.786	1943
662.840	2368
662.894	2674
662.948	2029
663.002	2328
663.056	2620
663.110	2623
663.164	2032
663.218	2023
663.272	3044
663.326	2902
663.380	2516
663.434	2126
663.488	1942
663.542	2690
663.595	2470
663.649	2041
663.703	3140
663.757	2668
663.811	2079
663.864	2228
663.918	2445
663.972	2427
664.026	2248
664.079	1459
664.133	2283
664.187	2226
664.240	2351
664.294	1764
664.348	2859
664.401	2067
664.455	2306
664.508	2106
664.562	2914
664.615	2952
664.669	1657
664.722	3208
664.776	2893
664.829	2567
664.883	2295
664.936	2496
664.990	3365
665.043	3030
665.097	2184
665.150	3794
665.203	2877
665.257	2264
665.310	3275
665.363	2660
665.417	2231
665.470	3169
665.523	2828
665.576	2206
665.630	1935
665.683	2439
665.736	2470
665.789	3070
665.842	2110
665.895	2964
665.949	3384
666.002	2398
666.055	2986
666.108	2971
666.161	2899
666.214	3359
666.267	3687
666.320	3111
666.373	3574
666.426	2158
666.479	2898
666.532	2763
666.585	3778
666.638	3782
666.691	3315
666.744	3233
666.796	3705
666.849	3047
666.902	3809
666.955	2431
667.008	1946
667.060	2672
667.113	2157
667.166	2392
667.219	2517
667.271	2475
667.324	1974
667.377	2683
667.430	2369
667.482	2616
667.535	3400
667.587	3503
667.640	3912
667.693	3417
667.745	4185
667.798	6296
667.850	3645
667.903	3357
667.955	2924
668.008	3322
668.060	4169
668.113	2962
668.165	2580
668.218	3817
668.270	3593
668.322	3090
668.375	3594
668.427	3858
668.479	2937
668.532	2664
668.584	3459
668.636	2710
668.689	3344
668.741	3330
668.793	2003
668.845	3087
668.898	3137
668.950	3126
669.002	2917
669.054	2896
669.106	2643
669.158	2967
669.211	3459
669.263	2998
669.315	4269
669.367	3620
669.419	3218
669.471	4120
669.523	4374
669.575	5019
669.627	4462
669.679	2874
669.731	3254
669.783	3475
669.835	3907
669.886	3967
669.938	2946
669.990	3545
670.042	3774
670.094	4075
670.146	5503
670.197	4601
670.249	6418
670.301	7764
670.353	10120
670.404	15051
670.456	21323
670.508	32867
670.560	56387
670.611	94953
670.663	165125
670.715	364157
670.766	693163
670.818	276624
670.869	42754
670.921	19305
670.972	13772
671.024	10383
671.075	8372
671.127	6496
671.178	5994
671.230	5321
671.281	4885
671.333	4143
671.384	4880
671.436	5157
671.487	5900
671.538	7909
671.590	10110
671.641	14435
671.692	23421
671.744	48820
671.795	38361
671.846	12508
671.897	6975
671.949	5305
672.000	5200
672.051	3164
672.102	4313
672.153	3323
672.204	3836
672.256	3624
672.307	4156
672.358	2691
672.409	3402
672.460	3009
672.511	3500
672.562	2388
672.613	2434
672.664	2205
672.715	3056
672.766	2561
672.817	2295
672.868	2808
672.919	1795
672.970	2365
673.021	3602
673.071	2058
673.122	2237
673.173	2305
673.224	1983
673.275	2469
673.326	3169
673.376	1985
673.427	2116
673.478	2113
673.528	2857
673.579	2365
673.630	2542
673.680	2242
673.731	2392
673.782	1877
673.832	2525
673.883	3003
673.934	1771
673.984	1690
674.035	2403
674.085	3072
674.136	2903
674.186	3095
674.237	3237
674.287	4311
674.338	3536
674.388	1562
674.438	2045
674.489	2750
674.539	2222
674.589	2548
674.640	2545
674.690	2765
674.740	2536
674.791	3521
674.841	2686
674.891	2647
674.942	2134
674.992	1667
675.042	1391
675.092	2367
675.142	1477
675.193	1237
675.243	1380
675.293	2812
675.343	2498
675.393	1896
675.443	2264
675.493	1583
675.543	1115
675.593	1762
675.643	2469
675.693	2033
675.743	1962
675.793	2961
675.843	2029
675.893	2236
675.943	2752
675.993	1969
676.043	1672
676.093	1273
676.142	1663
676.192	1555
676.242	1947
676.292	1348
676.341	2438
676.391	3191
676.441	1934
676.491	2076
676.540	1313
676.590	2149
676.640	1712
676.689	1398
676.739	1857
676.789	1566
676.838	1325
676.888	2138
676.937	1813
676.987	1930
677.037	1860
677.086	1032
677.136	1283
677.185	1641
677.235	2053
677.284	771
677.333	1063
677.383	1281
677.432	1366
677.482	782
677.531	857
677.580	998
677.630	1043
677.679	815
677.728	1533
677.778	2109
677.827	1573
677.876	870
677.925	1398
677.975	1159
678.024	1126
678.073	991
678.122	1843
678.171	1609
678.220	2136
678.269	2411
678.319	2336
678.368	1304
678.417	2215
678.466	2478
678.515	2076
678.564	1835
678.613	1605
678.662	1060
678.711	2078
678.760	1862
678.809	1816
678.857	1440
678.906	1641
678.955	2009
679.004	2404
679.053	1286
679.102	2605
679.151	1981
679.199	1507
679.248	1047
679.297	1446
679.346	1306
679.394	692
679.443	2092
679.492	1585
679.540	1240
679.589	2043
679.638	782
679.686	1770
679.735	1198
679.784	1218
679.832	1733
679.881	919
679.929	1202
679.978	1126
680.026	61
680.075	1623
680.123	1429
680.172	1331
680.220	1855
680.268	1578
680.317	1292
680.365	1256
680.414	1509
680.462	1310
680.510	1460
680.559	1026
680.607	402
680.655	586
680.703	831
680.752	919
680.800	409
680.848	669
680.896	1553
680.945	726
680.993	666
681.041	986
681.089	1050
681.137	1398
681.185	847
681.233	711
681.258	941
681.281	1124
681.329	1645
681.377	1246
681.380	1296
681.425	1665
681.473	2427
681.502	1845
681.521	1374
681.569	2186
681.617	1621
681.624	1675
681.665	1784
681.713	2247
681.745	2024
681.761	1873
681.809	1303
681.857	2455
681.867	2409
681.904	2124
681.952	2678
681.989	2695
682.000	2658
682.048	1178
682.096	1994
682.111	2183
682.143	2489
682.191	2115
682.233	2295
682.239	2287
682.286	1812
682.334	2102
682.354	1941
682.382	1683
682.430	3155
682.476	2775
682.477	2738
682.525	2680
682.572	2660
682.598	2510
682.620	2352
682.667	2789
682.715	3271
682.720	3361
682.763	3884
682.810	3118
682.841	3085
682.857	3041
682.905	3288
682.952	3314
682.963	3630
683.000	4588
683.047	2949
683.085	4066
683.095	4352
683.142	3194
683.190	4156
683.206	3885
683.237	3258
683.284	4221
683.328	3939
683.332	3897
683.379	3677
683.426	3978
683.449	3803
683.473	3612
683.521	3599
683.568	3781
683.571	3830
683.615	4053
683.662	4207
683.693	4096
683.709	4022
683.757	4258
683.804	4202
683.814	4292
683.851	4526
683.898	4876
683.936	4894
683.945	4866
683.992	4252
684.039	4698
684.057	4805
684.086	4975
684.133	5446
684.179	5014
684.180	4979
684.227	4832
684.274	4843
684.300	5341
684.321	5721
684.368	4325
684.415	5417
684.422	5375
684.462	4866
684.509	4521
684.543	4567
684.556	4616
684.603	4970
684.649	5183
684.665	5218
684.696	5221
684.743	5246
684.786	5299
684.790	5295
684.837	5255
684.883	6254
684.908	6268
684.930	6244
684.977	6299
685.023	6187
685.029	6175
685.070	5727
685.117	6164
685.150	6020
685.164	6040
685.210	6249
685.257	6755
685.272	7015
685.303	7429
685.350	6758
685.393	6648
685.396	6625
685.443	7243
685.490	7340
685.514	7469
685.536	7523
685.583	7168
685.629	7506
685.636	7446
685.675	7035
685.722	6908
685.757	7497
685.768	7709
685.815	7219
685.861	7772
685.878	7673
685.908	7386
685.954	7263
686.000	7739
686.000	7746
686.047	7685
686.093	8552
686.121	8890
686.139	8854
686.185	8709
686.232	8304
686.242	8252
686.278	8016
686.324	7895
686.363	7345
686.370	7281
686.416	7276
686.463	7777
686.484	7774
686.509	7847
686.555	7724
686.601	8124
686.606	8140
686.647	7913
686.693	8206
686.727	7859
686.739	7799
686.785	8162
686.831	8179
686.848	8239
686.877	8229
686.923	7764
686.969	8363
686.969	8367
687.015	7853
687.061	8361
687.090	8688
687.107	8733
687.153	8635
687.199	8327
687.211	8239
687.245	8220
687.291	8879
687.332	8444
687.336	8399
687.382	8710
687.428	9054
687.453	9137
687.474	9057
687.520	8359
687.565	8381
687.574	8208
687.611	7886
687.657	8951
687.695	8925
687.702	8972
687.748	9320
687.794	10725
687.816	10559
687.839	9932
687.885	9520
687.931	9280
687.937	9172
687.976	8844
688.022	9079
688.058	9175
688.067	9227
688.113	9644
688.158	8900
688.179	8982
688.204	9130
688.249	9334
688.295	9548
688.300	9513
688.340	9444
688.386	10294
688.421	10486
688.431	10457
688.477	9771
688.522	9483
688.542	9492
688.567	9614
688.613	10476
688.658	9424
688.663	9521
688.703	10396
688.749	10001
688.784	10149
688.794	10147
688.839	9945
688.884	10180
688.905	9911
688.930	9801
688.975	9705
689.020	10249
689.026	10240
689.065	10268
689.110	10374
689.146	10902
689.155	10996
689.201	10882
689.246	10242
689.267	10361
689.291	10471
689.336	10390
689.381	10113
689.388	10096
689.426	10393
689.471	10707
689.509	10931
689.516	10889
689.561	10173
689.606	9829
689.630	9691
689.651	9906
689.696	9664
689.741	10358
689.750	10466
689.785	10733
689.830	10425
689.871	10141
689.875	10122
689.920	10632
689.965	10279
689.992	10268
690.010	10301
690.054	10578
690.099	10832
690.112	10875
690.144	10978
690.189	10410
690.233	10392
690.233	10408
690.278	10541
690.323	10735
690.354	10754
690.367	10729
690.412	10695
690.457	10783
690.474	10628
690.501	10420
690.546	10336
690.590	10581
690.595	10540
690.635	10352
690.680	10231
690.716	10168
690.724	10275
690.769	11042
690.813	11705
690.836	11614
690.857	11684
690.902	12707
690.946	13938
690.957	14094
690.991	15964
691.035	18041
691.077	21169
691.080	21245
691.124	20519
691.168	20323
691.198	20328
691.213	19580
691.257	17130
691.301	14199
691.318	13355
691.346	13250
691.390	12636
691.434	11893
691.439	11802
691.478	11693
691.522	12024
691.559	11796
691.567	11835
691.611	12051
691.655	12217
691.680	12334
691.699	12284
691.743	12132
691.787	11913
691.800	11793
691.831	11810
691.875	12361
691.919	12638
691.921	12616
691.964	12513
692.008	12546
692.041	12536
692.052	12613
692.096	12843
692.139	13076
692.162	13062
692.183	12838
692.227	12532
692.271	12151
692.282	12034
692.315	12212
692.359	12720
692.402	13091
692.403	13116
692.447	12701
692.490	12656
692.523	12662
692.534	12804
692.578	13092
692.622	13226
692.643	13361
692.666	13268
692.709	12820
692.753	12444
692.763	12318
692.797	12399
692.840	12695
692.884	12800
692.884	12826
692.928	12710
692.971	12879
693.004	12483
693.015	12468
693.059	12712
693.102	12978
693.124	13032
693.146	13000
693.189	12623
693.233	13073
693.245	13038
693.276	13400
693.320	13779
693.363	14080
693.365	14056
693.407	13918
693.450	14049
693.485	14145
693.493	14326
693.537	14972
693.580	15791
693.605	16090
693.624	16623
693.667	18027
693.710	19253
693.725	19796
693.753	23949
693.797	30140
693.840	36648
693.845	37313
693.883	36767
693.926	35737
693.966	35006
693.970	34496
694.013	28181
694.056	22333
694.086	18160
694.099	17799
694.142	16316
694.185	15071
694.206	14450
694.229	14607
694.272	14813
694.315	15066
694.326	15037
694.358	14800
694.401	14565
694.444	14305
694.446	14262
694.487	14392
694.530	14559
694.566	14553
694.573	14532
694.616	13926
694.659	13801
694.686	13676
694.702	13667
694.745	13249
694.787	12796
694.806	12691
694.830	12788
694.873	12819
694.916	12752
694.926	12705
694.959	12919
695.002	13231
695.044	13494
695.046	13473
695.087	13557
695.130	13665
695.166	13715
695.172	13779
695.215	13785
695.258	13832
695.286	14005
695.301	14084
695.343	14013
695.386	13979
695.406	13890
695.428	13925
695.471	14116
695.514	14221
695.526	14173
695.556	14261
695.599	14514
695.641	14561
695.646	14557
695.684	14591
695.726	14435
695.766	14096
695.769	14129
695.811	14316
695.854	14486
695.886	14639
695.896	14744
695.938	14865
695.981	14898
696.005	14985
696.023	14925
696.065	14593
696.108	14311
696.125	14178
696.150	14536
696.192	15008
696.235	15574
696.245	15602
696.277	15179
696.319	14913
696.361	14353
696.365	14283
696.404	14619
696.446	14820
696.485	15101
696.488	15158
696.530	15324
696.572	15540
696.604	15616
696.614	15622
696.656	15388
696.698	15320
696.724	15172
696.740	15126
696.783	14846
696.825	14731
696.844	14560
696.867	14662
696.909	14957
696.951	15142
696.964	15175
696.992	15109
697.034	14861
697.076	14628
697.083	14563
697.118	15138
697.160	15729
697.202	16349
697.203	16322
697.244	15976
697.286	15553
697.323	15105
697.327	15160
697.369	15324
697.411	15511
697.442	15656
697.453	15746
697.494	15770
697.536	15966
697.562	15985
697.578	16052
697.620	16107
697.661	16182
697.682	16181
697.703	16400
697.744	16717
697.786	17066
697.801	17151
697.828	17310
697.869	17502
697.911	17574
697.921	17557
697.952	17018
697.994	16333
698.035	15579
698.040	15441
698.077	15699
698.118	15989
698.160	16220
698.160	16175
698.201	16016
698.243	15716
698.279	15471
698.284	15586
698.325	16209
698.367	16862
698.399	17303
698.408	17258
698.449	16834
698.491	16429
698.518	16121
698.532	16251
698.573	16491
698.614	16747
698.638	16817
698.656	16837
698.697	16823
698.738	16798
698.757	16742
698.779	16953
698.820	17257
698.862	17570
698.877	17636
698.903	17681
698.944	17678
698.985	17672
698.996	17625
699.026	17534
699.067	17343
699.116	17070
699.235	16457
699.354	17133
699.474	16255
699.593	18157
699.713	18137
699.832	16436
699.951	16877
700.070	17450
700.190	16051
700.309	16639
700.428	16801
700.547	15935
700.667	16259
700.786	17620
700.905	16324
701.024	15657
701.143	15961
701.262	14619
701.381	15185
701.500	16130
701.619	16708
701.738	15296
701.857	14483
701.976	15202
702.095	13882
702.214	15701
702.333	15747
702.452	15866
702.571	15171
702.690	14300
702.809	14514
702.928	14087
703.047	14038
703.165	14681
703.284	13761
703.403	14576
703.522	13976
703.640	15215
703.759	15366
703.878	19328
703.997	13903
704.115	13710
704.234	12924
704.353	13488
704.471	13510
704.590	13471
704.708	12351
704.827	12937
704.946	12548
705.064	13303
705.183	12895
705.301	15130
705.420	20805
705.538	19361
705.656	16287
705.775	16654
705.893	21601
706.012	29909
706.130	16674
706.249	16869
706.367	17273
706.485	17221
706.604	16605
706.722	17189
706.840	18651
706.958	21236
707.077	18623
707.195	15226
707.313	15438
707.431	14624
707.549	14424
707.668	14435
707.786	15457
707.904	15021
708.022	14235
708.140	14663
708.258	13684
708.376	14032
708.494	14691
708.612	16173
708.730	19925
708.848	21665
708.966	18589
709.084	17824
709.202	15981
709.320	17851
709.438	17449
709.556	17592
709.674	17487
709.791	18058
709.909	16029
710.027	17706
710.145	17011
710.263	17588
710.380	16472
710.498	17466
710.616	15547
710.733	16383
710.851	16136
710.969	16166
711.086	16229
711.204	16278
711.322	16030
711.439	15017
711.557	16471
711.674	15412
711.792	14635
711.909	15571
712.027	15948
712.144	15302
712.262	14627
712.379	15546
712.497	20480
712.614	24260
712.732	20126
712.849	17904
712.966	18303
713.084	22036
713.201	20270
713.318	19504
713.436	17611
713.553	19450
713.670	18837
713.787	20209
713.905	21309
714.022	19049
714.139	18532
714.256	20957
714.373	24317
714.490	35127
714.608	71887
714.725	299912
714.842	477023
714.959	46107
715.076	21541
715.193	18546
715.310	18187
715.427	17583
715.544	15382
715.661	17301
715.778	16771
715.895	17348
716.011	17214
716.128	17217
716.245	15464
716.362	17517
716.479	16974
716.596	14935
716.713	15832
716.829	15163
716.946	14471
717.063	14784
717.180	14001
717.296	14516
717.413	14235
717.530	15167
717.646	13692
717.763	14112
717.880	13587
717.996	13509
718.113	13199
718.229	13349
718.346	12581
718.462	13381
718.579	14498
718.695	19509
718.812	17595
718.928	16340
719.045	14050
719.161	12624
719.277	12906
719.394	12660
719.510	13545
719.626	12815
719.743	16723
719.859	19618
719.975	27742
720.092	84947
720.208	255085
720.324	49490
720.440	15867
720.557	14868
720.673	17296
720.789	22543
720.905	38895
721.021	22525
721.137	12028
721.253	12899
721.369	12543
721.486	13057
721.602	15362
721.718	12820
721.834	10645
721.950	12141
722.066	11358
722.181	11674
722.297	11362
722.413	11796
722.529	10788
722.645	10761
722.761	10084
722.877	10953
722.993	11055
723.108	12152
723.224	11009
723.340	11137
723.456	9706
723.571	10392
723.687	9328
723.803	10273
723.918	9065
724.034	10412
724.150	9898
724.265	10000
724.381	15443
724.497	24350
724.612	10247
724.728	9560
724.843	9402
724.959	10129
725.074	14391
725.190	21874
725.305	10525
725.421	9266
725.536	8245
725.651	9703
725.767	8769
725.882	7929
725.997	8099
726.113	9826
726.228	8108
726.343	8636
726.459	8002
726.574	9321
726.689	8112
726.804	8142
726.920	8414
727.035	8041
727.150	8600
727.265	8320
727.380	8523
727.495	7935
727.610	6720
727.725	9051
727.841	8199
727.956	12316
728.071	12548
728.186	8715
728.301	7086
728.416	9095
728.531	8117
728.645	7388
728.760	7344
728.875	8952
728.990	6987
729.105	7854
729.220	8083
729.335	8415
729.449	6112
729.564	7210
729.679	6511
729.794	7679
729.908	7401
730.023	8678
730.138	6885
730.253	7357
730.367	5817
730.482	7273
730.596	6308
730.711	8081
730.826	8119
730.940	8554
731.055	7163
731.169	7419
731.284	6884
731.398	7530
731.513	7098
731.627	8711
731.742	8454
731.856	9749
731.970	7747
732.085	10188
732.199	10979
732.313	17322
732.428	35938
732.542	114432
732.656	97797
732.771	18253
732.885	10788
732.999	9307
733.113	9224
733.227	9519
733.342	8579
733.456	8617
733.570	7439
733.684	7845
733.798	7261
733.912	8888
734.026	7174
734.140	8240
734.254	8363
734.368	10890
734.482	14575
734.596	8543
734.710	7151
734.824	8188
734.938	7081
735.052	7508
735.166	7722
735.280	8246
735.393	6921
735.507	7889
735.621	8858
735.735	13092
735.849	8209
735.962	7284
736.076	7469
736.190	7749
736.303	8755
736.417	11464
736.531	7488
736.644	7456
736.758	6498
736.872	6625
736.985	6838
737.099	6651
737.212	5556
737.326	7246
737.439	6959
737.553	6462
737.666	6839
737.780	5916
737.893	6192
738.007	6182
738.120	6361
738.233	5594
738.347	6309
738.460	6345
738.573	6358
738.687	6977
738.800	7014
738.913	7116
739.026	7284
739.140	6488
739.253	5907
739.366	6086
739.479	5923
739.592	5976
739.705	4588
739.818	6625
739.932	5803
740.045	7045
740.158	5488
740.271	6328
740.384	5417
740.497	5802
740.610	6464
740.723	6171
740.836	5956
740.949	6681
741.062	7109
741.174	7165
741.287	5160
741.400	5859
741.513	6248
741.626	6777
741.739	5312
741.851	5829
741.964	5036
742.077	5408
742.189	4799
742.302	7493
742.415	6260
742.527	5388
742.640	4974
742.753	5458
742.865	5187
742.978	5201
743.090	4895
743.203	5709
743.316	4871
743.428	5124
743.541	5127
743.653	5036
743.766	5268
743.878	6029
743.990	5532
744.103	6764
744.215	5250
744.327	5058
744.440	5404
744.552	7843
744.664	5045
744.777	5166
744.889	4599
745.001	5406
745.113	4892
745.226	5063
745.338	4062
745.450	5052
745.562	4608
745.674	3787
745.786	4063
745.898	5148
746.010	4645
746.122	4902
746.234	4609
746.347	5649
746.459	5051
746.570	4841
746.682	4558
746.794	4975
746.906	4423
747.018	4552
747.130	4444
747.242	4813
747.354	3851
747.466	6118
747.577	3187
747.689	5115
747.801	4817
747.913	4439
748.024	3766
748.136	4262
748.248	4052
748.359	4399
748.471	3759
748.583	3862
748.694	3986
748.806	5159
748.918	5118
749.029	4685
749.141	5642
749.252	4597
749.364	4421
749.475	7195
749.587	6604
749.698	4875
749.809	4610
749.921	4065
750.032	3613
750.144	4259
750.255	3282
750.366	4095
750.478	2674
750.589	3870
750.700	4140
750.811	5068
750.923	5054
751.034	6881
751.145	8236
751.256	4745
751.367	3337
751.479	3484
751.590	2862
751.701	3780
751.812	3715
751.923	4478
752.034	2740
752.145	3999
752.256	3544
752.367	3532
752.478	2683
752.589	3892
752.700	3628
752.811	3985
752.922	2994
753.032	3533
753.143	3834
753.254	3287
753.365	3351
753.476	4750
753.586	2967
753.697	3444
753.808	3631
753.919	3225
754.029	3466
754.140	4118
754.251	3488
754.361	4081
754.472	3363
754.582	3595
754.693	3179
754.804	3911
754.914	3215
755.025	2949
755.135	3461
755.246	3561
755.356	2729
755.466	3472
755.577	3580
755.687	3774
755.798	2661
755.908	4051
756.018	2895
756.129	3182
756.239	3738
756.349	3671
756.460	2657
756.570	4120
756.680	2954
756.790	3648
756.900	3666
757.011	3806
757.121	4003
757.231	3017
757.341	4127
757.451	3989
757.561	3099
757.671	3559
757.781	2253
757.891	3652
758.001	2828
758.111	3826
758.221	4332
758.331	4258
758.441	4498
758.551	5146
758.661	4152
758.771	3877
758.880	3672
758.990	4187
759.100	4172
759.210	3800
759.320	3933
759.429	4041
759.539	3466
759.649	4860
759.758	4268
759.868	4691
759.978	3557
760.087	4777
760.197	4375
760.307	4932
760.416	4208
760.526	4826
760.635	4481
760.745	6127
760.854	4523
760.964	5139
761.073	4413
761.182	4950
761.292	4301
761.401	5986
761.511	3830
761.620	5237
761.729	3973
761.839	4344
761.948	3685
762.057	5602
762.166	3766
762.276	4694
762.385	4300
762.494	5320
762.603	3797
762.712	5762
762.822	3924
762.931	4590
763.040	3732
763.149	4644
763.258	4324
763.367	5227
763.476	4601
763.585	5436
763.694	4831
763.803	5236
763.912	5435
764.021	5877
764.130	5184
764.238	5725
764.347	5457
764.456	5958
764.565	6435
764.674	5938
764.783	6787
764.891	7603
765.000	8630
765.109	9889
765.217	9081
765.326	11762
765.435	14025
765.543	16245
765.652	17763
765.761	23480
765.869	31644
765.978	49671
766.086	82653
766.195	158746
766.303	352242
766.412	762459
766.520	709675
766.629	375533
766.737	145583
766.846	78143
766.954	49683
767.062	35388
767.171	27810
767.279	22787
767.387	16569
767.496	14619
767.604	12367
767.712	12113
767.820	10697
767.928	11251
768.037	8658
768.145	9940
768.253	9092
768.361	9731
768.469	7750
768.577	8965
768.685	8938
768.793	9731
768.901	9356
769.009	11476
769.117	11603
769.225	15453
769.333	22487
769.441	33910
769.549	60860
769.657	132889
769.765	355164
769.873	672588
769.981	395503
770.088	122001
770.196	53015
770.304	33279
770.412	23064
770.519	18194
770.627	13932
770.735	11934
770.842	11347
770.950	9380
771.058	8800
771.165	8540
771.273	7318
771.380	8099
771.488	6901
771.595	7334
771.703	6456
771.810	6976
771.918	6514
772.025	6649
772.133	6531
772.240	6921
772.348	6721
772.455	8060
772.562	5684
772.670	6579
772.777	5736
772.884	5738
772.991	4630
773.099	5941
773.206	4932
773.313	6783
773.420	5921
773.528	5120
773.635	4399
773.742	6006
773.849	5558
773.956	5069
774.063	4760
774.170	5740
774.277	5241
774.384	5172
774.491	5274
774.598	5778
774.705	4155
774.812	5824
774.919	6232
775.026	6109
775.133	4901
775.239	5261
775.346	4872
775.453	5096
775.560	4175
775.667	4130
775.773	4385
775.880	6107
775.987	4283
776.093	4856
776.200	4799
776.307	4199
776.413	4201
776.520	4441
776.627	4769
776.733	5311
776.840	2879
776.946	5492
777.053	5092
777.159	5723
777.266	3403
777.372	5683
777.478	4724
777.585	6324
777.691	3970
777.798	4954
777.904	4093
778.010	6319
778.117	4792
778.223	4587
778.329	3252
778.435	4244
778.542	3077
778.648	3759
778.754	3746
778.860	4153
778.966	3947
779.072	3835
779.178	4435
779.284	4072
779.391	2682
779.497	4087
779.603	4886
779.708	4102
779.815	7396
779.920	16858
780.026	46814
780.132	12573
780.238	3750
780.344	3814
780.450	3405
780.556	3875
780.661	2734
780.767	3703
780.873	3455
780.979	3456
781.085	3227
781.190	3537
781.296	2927
781.402	3682
781.507	3435
781.613	4140
781.719	2964
781.824	3099
781.930	3283
782.035	3173
782.141	3306
782.246	3655
782.352	2891
782.457	3652
782.563	3403
782.668	4269
782.773	3275
782.879	3384
782.984	3023
783.090	3729
783.195	3891
783.300	4429
783.405	2675
783.511	3225
783.616	2846
783.721	3528
783.826	2945
783.932	4002
784.037	3275
784.142	3367
784.247	3114
784.352	3688
784.457	3156
784.562	3477
784.667	3575
784.772	2597
784.877	1951
784.982	4169
785.087	3010
785.192	3566
785.297	2289
785.402	3731
785.507	3736
785.611	3377
785.716	2217
785.821	3625
785.926	2262
786.031	3356
786.135	2959
786.240	3167
786.345	2036
786.450	3301
786.554	2573
786.659	2808
786.763	2060
786.868	3436
786.973	2602
787.077	2340
787.182	2083
787.286	3551
787.391	1960
787.495	2246
787.600	2507
787.704	2430
787.809	2697
787.913	3203
788.017	2447
788.122	2706
788.226	1896
788.330	1902
788.435	1839
788.539	2694
788.643	2261
788.747	1937
788.852	2909
788.956	2741
789.060	2136
789.164	2892
789.268	1671
789.372	2735
789.476	1538
789.580	2654
789.684	1821
789.788	2760
789.892	2177
789.996	2501
790.100	1384
790.204	2253
790.308	2354
790.412	2878
790.516	956
790.620	2884
790.724	2564
790.828	1837
790.931	1230
791.035	3099
791.139	2174
791.242	1233
791.346	2434
791.450	2714
791.554	2019
791.657	1646
791.761	2443
791.864	2710
791.968	1695
792.072	2745
792.175	1680
792.279	1779
792.382	1463
792.486	2759
792.589	2098
792.693	2431
792.796	1066
792.899	2921
793.003	2297
793.106	2090
793.209	1537
793.313	3074
793.416	1594
793.519	3432
793.623	2780
793.726	4021
793.829	2711
793.932	2367
794.035	1450
794.138	3704
794.242	3570
794.345	2521
794.448	2991
794.551	4381
794.654	10845
794.757	22820
794.860	6958
794.963	4045
795.066	1550
795.169	2470
795.272	1487
795.375	2059
795.477	1589
795.580	1990
795.683	527
795.786	2696
795.889	459
795.991	2656
796.094	2184
796.197	1998
796.300	2050
796.402	2196
796.505	1458
796.608	2130
796.710	1784
796.813	2042
796.915	1747
797.018	1832
797.120	1240
797.223	2399
797.326	2373
797.428	1297
797.530	1359
797.633	2210
797.735	2708
797.838	2604
797.940	3129
798.042	1512
798.145	956
798.247	1748
798.349	601
798.452	2454
798.554	1041
798.656	895
798.758	2115
798.860	2147
798.962	965
799.065	1431
799.167	1136
799.269	2933
799.371	1585
799.473	2647
799.575	1984
799.677	2384
799.779	3229
799.881	1764
799.983	2456
800.085	2034
800.187	860
800.289	735
800.390	821
800.492	2722
800.594	1684
800.696	1003
800.798	398
800.899	1537
801.001	1786
801.103	1611
801.205	881
801.306	1393
801.408	720
801.509	1817
801.611	1655
801.713	1796
801.814	500
801.916	1188
802.017	959
802.119	1017
802.220	1039
802.322	90
802.423	2003
802.525	1500
802.626	1822
802.727	1425
802.829	1356
802.930	197
803.031	2157
803.133	988
803.234	1156
803.335	1540
803.436	473
803.538	1260
803.639	996
803.740	1515
803.841	703
803.942	1817
804.043	1486
804.144	520
804.245	1016
804.346	1502
804.447	602
804.548	1992
804.649	2425
804.750	2016
804.851	665
804.952	1063
805.053	657
805.154	260
805.255	1325
805.355	1359
805.456	406
805.557	572
805.658	60
805.758	2251
805.859	509
805.960	1169
806.061	-408
806.161	1610
806.262	1476
806.362	958
806.463	560
806.564	2161
806.664	1789
806.765	1299
806.865	1364
806.966	1101
807.066	548
807.166	1333
807.267	1650
807.367	1212
807.468	1903
807.568	759
807.668	779
807.769	1846
807.869	934
807.969	1054
808.069	1672
808.170	1408
808.270	892
808.370	2232
808.470	958
808.570	1273
808.670	121
808.770	1704
808.870	376
808.970	1652
809.070	546
809.170	1223
809.271	1034
809.370	1722
809.470	864
809.570	1913
809.670	199
809.770	986
809.870	1148
809.970	1626
810.070	1192
810.169	1896
810.269	197
810.369	1987
810.469	531
810.568	1697
810.668	435
810.768	1528
810.867	492
810.967	645
811.066	854
811.166	1670
811.265	1497
811.365	894
811.464	105
811.564	2055
811.663	1248
811.763	552
811.862	706
811.962	1977
812.061	788
812.160	818
812.260	915
812.359	2173
812.458	1818
812.557	4984
812.657	5998
812.756	3767
812.855	577
812.954	1602
813.053	1144
813.153	1705
813.252	427
813.351	1293
813.450	641
813.549	1213
813.648	750
813.747	1073
813.846	931
813.945	1328
814.044	778
814.143	1846
814.242	1407
814.341	1441
814.439	1961
814.538	1922
814.637	135
814.736	2136
814.835	1926
814.933	1814
815.032	1720
815.131	1991
815.229	1566
815.328	3779
815.427	2568
815.525	2594
815.624	2947
815.722	2601
815.821	1964
815.919	3029
816.018	3055
816.116	3027
816.215	2856
816.313	3444
816.412	3024
816.510	3538
816.609	4970
816.707	3624
816.805	3531
816.904	4124
817.002	4305
817.100	5208
817.198	5305
817.296	5774
817.395	6109
817.493	7318
817.591	7070
817.689	11319
817.787	13951
817.885	22482
817.983	37221
818.081	74957
818.179	170047
818.277	402314
818.375	442952
818.473	148006
818.571	52044
818.669	31485
818.767	26095
818.865	26995
818.963	30536
819.061	42547
819.158	69492
819.256	139094
819.354	299288
819.452	605354
819.549	508832
819.647	186332
819.745	71625
819.842	40937
819.940	28194
820.038	20931
820.135	15833
820.233	13177
820.330	9520
820.428	8696
820.525	8638
820.623	7516
820.720	5519
820.818	6512
820.915	5294
821.012	5826
821.110	3720
821.207	5437
821.304	3616
821.402	3755
821.499	3302
821.596	4553
821.693	3611
821.791	4727
821.888	3318
821.985	5388
822.082	4625
822.179	3771
822.276	2873
822.373	3218
822.470	2344
822.567	3382
822.664	1360
822.761	2737
822.858	1128
822.955	2561
823.052	2081
823.149	2346
823.246	2479
823.343	2474
823.440	2571
823.536	2020
823.633	2296
823.730	1934
823.827	1737
823.923	2412
824.020	1600
824.117	1878
824.213	1335
824.310	2676
824.407	1316
824.503	2228
824.600	1682
824.696	1806
824.793	1989
824.889	2098
824.986	1209
825.082	1792
825.179	1643
825.275	1259
825.371	1735
825.468	1724
825.564	500
825.660	2398
825.757	1851
825.853	1734
825.949	748
826.045	2221
826.142	943
826.238	2334
826.334	1830
826.430	1335
826.526	1423
826.622	1778
826.718	959
826.814	1799
826.910	1562
827.006	1223
827.102	118
827.198	2240
827.294	888
827.390	2545
827.486	2294
827.582	1020
827.678	1176
827.774	2484
827.869	602
827.965	3111
828.061	167
828.157	1399
828.252	1370
828.348	1385
828.444	1670
828.539	411
828.635	330
828.731	2181
828.826	777
828.922	1629
829.017	645
829.113	2817
829.208	210
829.304	445
829.399	1666
829.495	2034
829.590	721
829.685	893
829.781	1512
829.876	2379
829.971	419
830.066	1224
830.162	928
830.257	936
830.352	1190
830.447	1445
830.543	1626
830.638	1022
830.733	1444
830.828	1570
830.923	1767
831.018	1246
831.113	401
831.208	383
831.303	788
831.398	1237
831.493	34
831.588	1741
831.683	243
831.778	1446
831.873	453
831.967	1633
832.062	507
832.157	747
832.252	1864
832.346	1268
832.441	945
832.536	2954
832.631	3905
832.725	4203
832.820	1112
832.914	1429
833.009	522
833.104	1235
833.198	1430
833.293	1543
833.387	1489
833.482	1453
833.576	322
833.670	1766
833.765	575
833.859	1345
833.954	1837
834.048	1243
834.142	436
834.237	537
834.331	550
834.425	1504
834.519	197
834.613	1483
834.708	586
834.802	1061
834.896	1117
834.990	1329
835.084	522
835.178	590
835.272	84
835.366	1150
835.460	1279
835.554	1198
835.648	602
835.742	-20
835.836	439
835.930	426
836.024	772
836.117	2265
836.211	320
836.305	2233
836.399	1740
836.493	595
836.586	1087
836.680	678
836.774	423
836.867	2073
836.961	-331
837.055	708
837.148	770
837.242	1094
837.335	484
837.429	1455
837.522	272
837.616	1245
837.709	1915
837.803	2038
837.896	1208
837.989	1517
838.083	1519
838.176	2769
838.269	2659
838.363	1788
838.456	638
838.549	2486
838.642	1961
838.735	4351
838.829	2499
838.922	895
839.015	10
839.108	614
839.201	508
839.294	1072
839.387	981
839.480	668
839.573	655
839.666	1818
839.759	631
839.852	287
839.945	10
840.038	729
840.131	286
840.223	1098
840.316	1583
840.409	32
840.502	360
840.594	1728
840.687	-228
840.780	1324
840.873	-138
840.965	543
841.058	1480
841.150	2892
841.243	1044
841.336	1469
841.428	366
841.521	1125
841.613	-154
841.706	730
841.798	656
841.890	1679
841.983	-373
842.075	1649
842.167	92
842.260	1877
842.352	1945
842.444	1529
842.537	2873
842.629	4984
842.721	1453
842.813	1453
842.905	-717
842.997	544
843.090	1123
843.182	1791
843.274	2364
843.366	6832
843.458	11149
843.550	10476
843.642	2338
843.734	1189
843.826	410
843.918	968
844.009	468
844.101	380
844.193	380
844.285	893
844.377	197
844.469	1548
844.560	149
844.652	1024
844.744	693
844.835	1293
844.927	344
845.019	946
845.110	659
845.202	1181
845.293	39
845.385	-808
845.476	405
845.568	417
845.659	655
845.751	1163
845.842	-601
845.934	491
846.025	-178
846.116	679
846.208	-301
846.299	100
846.390	-796
846.482	1093
846.573	743
846.664	1400
846.755	1266
846.846	2065
846.937	-477
847.029	1234
847.120	-757
847.211	646
847.302	1096
847.393	556
847.484	797
847.575	679
847.666	246
847.757	523
847.847	539
847.938	1339
848.029	60
848.120	781
848.211	783
848.302	157
848.392	-582
848.483	605
848.574	-672
848.664	663
848.755	522
848.846	857
848.936	-402
849.027	-299
849.118	871
849.208	442
849.299	1033
849.389	1596
849.480	3542
849.570	7238
849.661	11483
849.751	24007
849.841	11709
849.932	2254
850.022	286
850.112	1317
850.203	439
850.293	-220
850.383	-364
850.474	-23
850.564	270
850.654	198
850.744	-26
850.834	38
850.924	-18
851.014	1454
851.104	-595
851.194	459
851.284	439
851.374	688
851.464	211
851.554	482
851.644	-264
851.734	1288
851.824	712
851.914	776
852.004	796
852.094	661
852.183	130
852.273	535
852.363	868
852.452	363
852.542	119
852.632	879
852.721	204
852.811	-139
852.901	893
852.990	227
853.080	444
853.169	654
853.259	502
853.348	856
853.438	973
853.527	1604
853.617	1839
853.706	5584
853.795	9201
853.885	22639
853.974	41839
854.063	71678
854.152	135755
854.242	68468
854.331	9440
854.420	3232
854.509	1751
854.598	2268
854.687	1632
854.777	1649
854.866	421
854.955	1578
855.044	458
855.133	296
855.222	136
855.311	-331
855.400	786
855.488	463
855.577	-242
855.666	858
855.755	962
855.844	1111
855.933	414
856.021	818
856.110	555
856.199	188
856.288	-119
856.376	246
856.465	-360
856.554	667
856.642	-209
856.731	753
856.819	378
856.908	295
856.996	-54
857.085	524
857.173	-35
857.262	860
857.350	-389
857.438	294
857.527	166
857.615	-197
857.703	406
857.792	354
857.880	-159
857.968	63
858.056	-253
858.145	-15
858.233	10
858.321	378
858.409	507
858.497	587
858.585	-172
858.673	-190
858.761	-950
858.849	441
858.937	32
859.025	819
859.113	131
859.201	-149
859.289	1282
859.377	102
859.465	11
859.552	243
859.640	-743
859.728	163
859.816	-255
859.903	840
859.991	-20
860.079	5
860.166	768
860.254	844
860.342	-339
860.429	-222
860.517	-163
860.604	472
860.692	-286
860.779	234
860.867	729
860.954	538
861.042	5
861.129	1000
861.216	-586
861.304	364
861.391	631
861.478	226
861.565	576
861.653	1051
861.740	-147
861.827	142
861.914	160
862.001	841
862.089	-385
862.176	547
862.263	15
862.350	369
862.437	152
862.524	14
862.611	-511
862.698	188
862.785	-96
862.871	1237
862.958	-564
863.045	536
863.132	-81
863.219	464
863.306	-56
863.392	1025
863.479	-197
863.566	487
863.652	154
863.739	231
863.826	438
863.912	693
863.999	-410
864.086	642
864.172	-349
864.259	235
864.345	-292
864.432	1008
864.518	463
864.604	659
864.691	-29
864.777	619
864.863	921
864.950	909
865.036	1025
865.122	3223
865.209	2841
865.295	2653
865.381	1354
865.467	2988
865.553	2362
865.639	3877
865.726	5514
865.812	11212
865.898	21890
865.984	33191
866.070	55285
866.156	80834
866.242	25505
866.328	5736
866.414	2573
866.499	2346
866.585	586
866.671	2171
866.757	1849
866.843	2015
866.928	973
867.014	1357
867.100	1849
867.186	1543
867.271	1772
867.357	2246
867.442	2566
867.528	2138
867.614	1175
867.699	1363
867.785	1604
867.870	1592
867.956	1090
868.041	1943
868.127	519
868.212	2216
868.297	1090
868.383	1842
868.468	1405
868.553	3485
868.639	3126
868.724	5222
868.809	5587
868.894	2709
868.979	889
869.065	1567
869.150	746
869.235	1566
869.320	788
869.405	895
869.490	108
869.575	588
869.660	265
869.745	1368
869.830	728
869.915	176
870.000	918
870.085	791
870.169	726
870.254	1142
870.339	60
870.424	1428
870.509	775
870.593	444
870.678	969
870.763	564
870.847	866
870.932	491
871.016	1210
871.101	442
871.186	686
871.270	1456
871.355	895
871.439	603
871.523	803
871.608	273
871.692	409
871.777	1352
871.861	571
871.945	740
872.030	1151
872.114	483
872.198	1220
872.282	439
872.367	356
872.451	919
872.535	940
872.619	1258
872.703	-687
872.787	1099
872.871	111
872.955	885
873.039	-196
873.123	903
873.207	1550
873.291	78
873.375	-6
873.459	1951
873.543	283
873.627	974
873.711	-363
873.794	1014
873.878	412
873.962	751
874.045	781
874.129	567
874.137	518
874.213	31
874.245	418
874.296	1047
874.352	-200
874.380	-816
874.460	562
874.464	617
874.547	566
874.568	762
874.631	1340
874.676	1072
874.714	868
874.784	872
874.798	863
874.881	2175
874.892	1880
874.965	-95
874.999	321
875.048	845
875.107	1057
875.131	1143
875.215	35
875.215	36
875.298	631
875.323	487
875.381	128
875.430	613
875.465	952
875.538	-157
875.548	-319
875.631	335
875.646	252
875.714	-65
875.753	222
875.798	572
875.861	654
875.881	663
875.964	765
875.968	720
876.047	-157
876.076	346
876.130	1398
876.183	718
876.213	340
876.291	1255
876.296	1303
876.379	135
876.398	367
876.462	1274
876.506	1003
876.545	760
876.613	864
876.628	889
876.711	258
876.721	369
876.794	1228
876.828	1061
876.877	734
876.935	866
876.960	939
877.043	8
877.043	13
877.125	1183
877.150	1169
877.208	1044
877.258	1201
877.291	1357
877.365	468
877.374	364
877.456	973
877.472	1090
877.539	1522
877.579	1600
877.622	1634
877.687	1338
877.704	1279
877.787	1041
877.794	995
877.869	486
877.901	760
877.952	1166
878.008	771
878.034	602
878.115	1180
878.117	1196
878.199	856
878.222	895
878.282	1032
878.329	1137
878.364	1036
878.437	1080
878.447	1106
878.529	355
878.544	394
878.611	522
878.651	367
878.694	581
878.758	1442
878.776	1521
878.858	1394
878.865	1368
878.941	1033
878.972	671
879.023	212
879.078	729
879.105	1096
879.185	972
879.187	966
879.269	1339
879.292	1411
879.351	1314
879.399	1008
879.433	951
879.506	477
879.516	417
879.598	1012
879.613	950
879.680	508
879.720	842
879.762	1440
879.827	1141
879.844	984
879.926	1159
879.933	1190
880.007	1596
880.040	1643
880.089	1934
880.147	2107
880.171	2056
880.253	3444
880.254	3444
880.335	4130
880.360	4909
880.417	7647
880.467	9870
880.499	12363
880.574	19263
880.580	19014
880.662	8335
880.680	6561
880.744	3071
880.787	1557
880.825	1295
880.893	980
880.907	943
880.989	1030
881.000	984
881.070	949
881.106	1124
881.152	1064
881.213	583
881.233	505
881.315	329
881.319	375
881.396	1264
881.426	1082
881.478	690
881.532	1082
881.559	1408
881.639	1022
881.641	996
881.722	972
881.745	695
881.803	622
881.852	1167
881.885	1409
881.958	814
881.966	762
882.047	1366
882.064	1331
882.129	1549
882.171	2017
882.210	2472
882.277	2629
882.291	2513
882.372	2187
882.383	2128
882.454	1607
882.489	1105
882.535	776
882.596	851
882.616	960
882.697	1294
882.702	1305
882.778	787
882.808	636
882.859	775
882.914	579
882.940	502
883.020	825
883.021	834
883.102	1316
883.127	1380
883.183	1126
883.233	1003
883.264	1052
883.339	1228
883.345	1215
883.426	428
883.445	401
883.507	667
883.551	663
883.587	749
883.657	783
883.668	849
883.749	2121
883.763	2201
883.830	1267
883.869	706
883.910	812
883.975	1363
883.991	1346
884.072	588
884.081	541
884.152	1148
884.187	1423
884.233	1410
884.292	1521
884.314	1381
884.394	636
884.398	585
884.475	555
884.504	670
884.555	682
884.610	703
884.636	840
884.716	852
884.716	857
884.797	1480
884.821	1422
884.877	1303
884.927	1444
884.958	1313
885.033	527
885.038	500
885.118	661
885.139	611
885.199	664
885.244	630
885.279	756
885.350	1394
885.359	1434
885.439	1486
885.456	1445
885.520	1195
885.561	1293
885.600	1294
885.667	661
885.680	703
885.760	1591
885.773	1675
885.840	1232
885.878	1020
885.920	1120
885.984	1220
886.000	1196
886.080	1221
886.089	1204
886.160	1394
886.195	1507
886.240	1409
886.300	1131
886.320	1162
886.400	1458
886.406	1471
886.480	1101
886.511	978
886.560	1404
886.616	1727
886.640	1632
886.720	1428
886.722	1413
886.800	1383
886.827	1511
886.879	1450
886.932	1142
886.959	1191
887.038	1529
887.039	1534
887.119	1406
887.143	1413
887.198	1430
887.248	1355
887.278	1250
887.354	906
887.358	922
887.437	1199
887.459	1323
887.517	1310
887.564	1176
887.596	1319
887.669	1568
887.676	1539
887.755	1215
887.774	1132
887.835	1361
887.880	1487
887.914	1465
887.985	1397
887.994	1375
888.073	1172
888.090	1136
888.153	1834
888.195	2262
888.232	2011
888.300	1540
888.311	1565
888.391	1566
888.405	1600
888.470	1342
888.510	1077
888.549	1213
888.615	1623
888.628	1650
888.708	1568
888.720	1578
888.787	1796
888.825	1828
888.866	1503
888.930	1055
888.945	1066
889.024	1072
889.035	1079
889.103	1868
889.140	2221
889.182	1774
889.245	1202
889.261	1262
889.340	1444
889.349	1469
889.419	1568
889.454	1587
889.498	1292
889.559	917
889.577	1080
889.656	1765
889.664	1830
889.735	1627
889.768	1521
889.814	1489
889.873	1441
889.978	1391
890.083	1270
890.187	1273
890.292	999
890.397	1349
890.501	1348
890.606	1337
890.710	1087
890.815	2522
890.919	838
891.024	916
891.128	1120
891.233	2323
891.337	1896
891.442	1698
891.546	1955
891.650	570
891.755	632
891.859	2729
891.963	1390
892.068	1897
892.172	1324
892.276	1070
892.380	1648
892.484	1713
892.589	1752
892.693	1654
892.797	1783
892.901	779
893.005	882
893.109	1159
893.213	1777
893.317	1434
893.421	1270
893.525	982
893.629	1284
893.733	1285
893.837	566
893.941	365
894.045	1702
894.148	777
894.252	1372
894.356	1706
894.460	1839
894.564	1465
894.667	1411
894.771	1592
894.875	278
894.978	1191
895.082	1802
895.186	1500
895.289	1674
895.393	1755
895.496	1262
895.600	1227
895.703	1485
895.807	1102
895.910	1638
896.014	1424
896.117	1716
896.221	954
896.324	683
896.427	764
896.531	327
896.634	339
896.737	1186
896.840	984
896.944	1537
897.047	1676
897.150	1355
897.253	757
897.356	458
897.460	101
897.563	807
897.666	618
897.769	1260
897.872	1452
897.975	518
898.078	1471
898.181	1161
898.284	954
898.387	574
898.490	1009
898.593	1049
898.695	717
898.798	833
898.901	1093
899.004	1338
899.107	594
899.209	1554
899.312	2285
899.415	427
899.518	1017
899.620	514
899.723	497
899.826	2198
899.928	3883
900.031	961
900.133	1680
900.236	902
900.338	112
900.441	1343
900.543	953
900.646	895
900.748	661
900.851	341
900.953	1124
901.055	864
901.158	1249
901.260	1511
901.362	722
901.465	709
901.567	1804
901.669	1245
901.771	1300
901.873	805
901.976	1993
902.078	835
902.180	1234
902.282	864
902.384	755
902.486	1305
902.588	1320
902.690	745
902.792	1438
902.894	1299
902.996	685
903.098	780
903.200	1428
903.302	713
903.404	1521
903.505	611
903.607	1513
903.709	430
903.811	1640
903.913	473
904.014	352
904.116	209
904.218	1113
904.319	1185
904.421	2080
904.523	1195
904.624	577
904.726	1149
904.827	1189
904.929	1250
905.030	1220
905.132	865
905.233	757
905.335	1298
905.436	1060
905.537	556
905.639	1142
905.740	967
905.841	755
905.943	681
906.044	754
906.145	1232
906.247	967
906.348	1535
906.449	1275
906.550	537
906.651	776
906.752	616
906.854	323
906.955	1073
907.056	391
907.157	657
907.258	1214
907.359	356
907.460	802
907.561	1148
907.662	1328
907.762	1091
907.863	1141
907.964	1433
908.065	934
908.166	1493
908.267	608
908.367	721
908.468	1113
908.569	1223
908.670	1156
908.770	1750
908.871	1644
908.971	1949
909.072	1567
909.173	627
909.273	1004
909.374	1646
909.474	488
909.575	859
909.675	1162
909.776	722
909.876	495
909.977	859
910.077	1636
910.177	665
910.278	976
910.378	-48
910.478	688
910.579	619
910.679	1107
910.779	815
910.879	1670
910.980	589
911.080	930
911.180	-319
911.280	1078
911.380	547
911.480	634
911.580	1197
911.680	1064
911.780	865
911.880	1335
911.980	894
912.080	1363
912.180	969
912.280	1553
912.380	130
912.480	890
912.580	582
912.679	698
912.779	799
912.879	1676
912.979	569
913.078	834
913.178	564
913.278	434
913.377	713
913.477	966
913.577	1427
913.676	676
913.776	1599
913.875	938
913.975	1173
914.074	323
914.174	752
914.273	505
914.373	930
914.472	760
914.572	673
914.671	1214
914.770	555
914.870	945
914.969	487
915.068	319
915.167	-39
915.267	604
915.366	54
915.465	810
915.564	547
915.663	769
915.763	737
915.862	770
915.961	1037
916.060	598
916.159	969
916.258	-97
916.357	356
916.456	1409
916.555	961
916.654	387
916.752	60
916.851	909
916.950	773
917.049	567
917.148	223
917.247	1327
917.345	628
917.444	-374
917.543	253
917.642	-26
917.740	831
917.839	1480
917.937	983
918.036	1230
918.135	1126
918.233	614
918.332	497
918.430	825
918.529	1084
918.627	985
918.726	550
918.824	666
918.923	-133
919.021	701
919.119	406
919.218	598
919.316	768
919.414	861
919.512	1273
919.611	756
919.709	126
919.807	885
919.905	717
920.003	80
920.102	1061
920.200	172
920.298	526
920.396	1018
920.494	1037
920.592	932
920.690	-152
920.788	1253
920.886	353
920.984	745
921.082	1614
921.180	1042
921.277	704
921.375	1744
921.473	965
921.571	1076
921.669	2317
921.766	1607
921.864	1653
921.962	2675
922.060	669
922.157	1783
922.255	1228
922.352	1094
922.450	2134
922.548	1232
922.645	1497
922.743	1505
922.840	2964
922.938	4051
923.035	3321
923.133	3374
923.230	4179
923.327	4688
923.425	4385
923.522	3699
923.619	2809
923.717	3497
923.814	2807
923.911	3395
924.008	3221
924.106	3151
924.203	3056
924.300	3263
924.397	3079
924.494	3460
924.591	3311
924.688	3405
924.786	3405
924.883	2972
924.979	3168
925.077	3291
925.173	3550
925.270	3481
925.367	2986
925.464	3338
925.561	3807
925.658	3821
925.755	3443
925.852	3745
925.948	3804
926.045	3281
926.142	2832
926.239	3501
926.335	2935
926.432	3637
926.529	2562
926.625	3189
926.722	2896
926.818	2447
926.915	2471
927.011	3414
927.108	2265
927.204	3109
927.301	2676
927.397	2626
927.494	2743
927.590	2197
927.687	2374
927.783	3192
927.879	2643
927.976	2497
928.072	1947
928.168	2829
928.264	3017
928.361	2048
928.457	2560
928.553	2982
928.649	2767
928.745	2207
928.841	1931
928.937	2154
929.033	2472
929.129	2419
929.225	3058
929.321	2887
929.417	1970
929.513	2972
929.609	1862
929.705	1858
929.801	2392
929.897	1836
929.993	1718
930.089	1916
930.184	1801
930.280	2133
930.376	2180
930.471	1838
930.567	2131
930.663	2292
930.758	2005
930.854	2296
930.950	3049
931.045	1892
931.141	1971
931.236	3105
931.332	1154
931.427	1880
931.523	2849
931.618	1875
931.714	481
931.809	1273
931.905	2134
932.000	1657
932.095	366
932.191	2503
932.286	2071
932.381	1880
932.476	1472
932.572	2350
932.667	1222
932.762	1831
932.857	1039
932.952	3040
933.047	1327
933.142	1664
933.237	2061
933.332	2481
933.427	2840
933.522	1248
933.617	1566
933.712	1834
933.807	2191
933.902	2905
933.997	2879
934.092	1563
934.187	1683
934.282	1302
934.376	1360
934.471	1389
934.566	1915
934.661	1194
934.755	1172
934.850	1828
934.945	2549
935.039	1135
935.134	1064
935.228	1310
935.323	2231
935.417	1775
935.512	1130
935.606	910
935.701	919
935.795	1271
935.890	913
935.984	1266
936.079	575
936.173	2291
936.267	1144
936.362	1266
936.456	1479
936.550	2325
936.644	2063
936.738	877
936.833	1731
936.927	1048
937.021	1611
937.115	2044
937.209	1124
937.303	1814
937.397	1156
937.491	1380
937.585	2220
937.679	1918
937.773	1020
937.867	1388
937.961	277
938.055	1552
938.149	1086
938.243	887
938.337	1292
938.430	1054
938.524	2016
938.618	1172
938.712	1199
938.805	1219
938.899	1858
938.993	1890
939.086	760
939.180	770
939.274	1006
939.367	1294
939.461	1960
939.554	2009
939.648	1070
939.741	1705
939.835	1472
939.928	2315
940.022	1455
940.115	1971
940.208	1484
940.302	2363
940.395	2188
940.488	293
940.582	1373
940.675	1311
940.768	269
940.861	1894
940.954	1722
941.048	1470
941.141	919
941.234	875
941.327	2458
941.420	3061
941.513	2682
941.606	1516
941.699	1668
941.792	1416
941.885	1217
941.978	1078
942.071	754
942.164	888
942.257	895
942.349	2021
942.442	1045
942.535	662
942.628	1882
942.721	1246
942.813	234
942.906	1624
942.999	2735
943.091	810
943.184	1189
943.277	246
943.369	1332
943.462	815
943.554	637
943.647	427
943.739	1489
943.832	837
943.924	261
944.017	677
944.109	804
944.201	1628
944.294	1237
944.386	810
944.478	353
944.571	1108
944.663	1545
944.755	1478
944.847	640
944.940	1453
945.032	747
945.124	231
945.216	761
945.308	1064
945.400	1318
945.492	467
945.584	821
945.676	1814
945.768	1358
945.860	1149
945.952	1428
946.044	913
946.136	969
946.228	880
946.320	-228
946.412	681
946.503	563
946.595	1598
946.687	321
946.779	998
946.870	18
946.962	933
947.054	431
947.145	486
947.237	846
947.329	1144
947.420	781
947.512	1805
947.603	23
947.695	507
947.786	457
947.878	1119
947.969	1322
948.061	1120
948.152	-44
948.243	795
948.335	469
948.426	533
948.517	673
948.609	1273
948.700	672
948.791	162
948.882	890
948.973	809
949.065	-37
949.156	1753
949.247	227
949.338	378
949.429	-457
949.520	740
949.611	347
949.702	877
949.793	1026
949.884	497
949.975	715
950.066	866
950.157	-85
950.247	682
950.338	687
950.429	110
950.520	722
950.611	783
950.701	357
950.792	1830
950.883	1701
950.973	576
951.064	1067
951.155	978
951.245	1614
951.336	12
951.427	-230
951.517	1564
951.608	485
951.698	1027
951.788	502
951.879	241
951.969	966
952.060	-251
952.150	412
952.240	1436
952.331	-103
952.421	980
952.511	-562
952.602	461
952.692	167
952.782	603
952.872	766
952.962	1278
953.052	1307
953.143	-230
953.233	1486
953.323	772
953.413	-330
953.503	407
953.593	1023
953.683	814
953.773	570
953.863	809
953.953	539
954.042	496
954.132	905
954.222	1505
954.312	758
954.402	911
954.492	1596
954.581	1535
954.671	965
954.761	-492
954.850	1475
954.940	88
955.030	1052
955.119	389
955.209	254
955.298	1006
955.388	1328
955.477	1090
955.567	-715
955.656	1157
955.746	609
955.835	343
955.925	165
956.014	-93
956.103	248
956.193	947
956.282	1064
956.371	415
956.461	367
956.550	834
956.639	940
956.728	205
956.817	-140
956.906	498
956.995	562
957.085	-21
957.174	280
957.263	611
957.352	-265
957.441	407
957.530	197
957.619	818
957.708	523
957.796	799
957.885	-124
957.974	-419
958.063	605
958.152	355
958.241	297
958.329	508
958.418	28
958.507	409
958.596	159
958.684	-367
958.773	910
958.861	-169
958.950	161
959.039	138
959.127	-162
959.216	360
959.304	162
959.393	614
959.481	774
959.570	-14
959.658	684
959.746	185
959.835	1704
959.923	2413
960.011	1340
960.100	998
960.188	158
960.276	782
960.365	465
960.453	413
960.541	-733
960.629	570
960.717	-871
960.805	573
960.893	-418
960.981	-329
961.069	1135
961.158	552
961.245	1378
961.333	-1
961.421	374
961.509	545
961.597	-190
961.685	42
961.773	872
961.861	-704
961.949	699
962.036	-305
962.124	645
962.212	-419
962.299	-195
962.387	-240
962.475	-583
962.562	-624
962.650	448
962.738	641
962.825	-298
962.913	-569
963.000	-178
963.088	511
963.175	215
963.263	-91
963.350	456
963.438	436
963.525	1055
963.612	1723
963.700	4717
963.787	11271
963.874	6545
963.962	744
964.049	-123
964.136	-451
964.223	-464
964.310	-658
964.398	396
964.485	172
964.572	210
964.659	1527
964.746	1402
964.833	296
964.920	-1049
965.007	762
965.094	324
965.181	-204
965.268	-713
965.355	772
965.441	178
965.528	-1192
965.615	471
965.702	-193
965.789	-318
965.875	-298
965.962	-86
966.049	-669
966.136	428
966.222	-552
966.309	199
966.395	-321
966.482	500
966.569	24
966.655	280
966.742	-331
966.828	216
966.915	699
967.001	124
967.087	330
967.174	397
967.260	811
967.347	1208
967.433	3614
967.519	7421
967.605	3938
967.692	440
967.778	-596
967.864	-453
967.950	-226
968.036	-710
968.123	-547
968.209	-232
968.295	-1158
968.381	870
968.467	308
968.553	-749
968.639	364
968.725	470
968.811	1488
968.897	1469
968.983	-179
969.069	-314
969.154	-540
969.240	566
969.326	-750
969.412	-726
969.497	-713
969.583	-286
969.669	256
969.755	-17
969.840	107
969.926	564
970.012	777
970.097	990
970.183	1085
970.268	581
970.354	1145
970.439	1637
970.525	4501
970.610	1596
970.696	274
970.781	-165
970.866	-1098
970.952	318
971.037	-30
971.122	-197
971.208	-385
971.293	-384
971.378	-1072
971.463	-446
971.549	-481
971.634	-64
971.719	648
971.804	244
971.889	1241
971.974	-775
972.059	-432
972.144	-66
972.229	-548
972.314	-346
972.399	613
972.484	-287
972.569	-260
972.654	-278
972.739	1971
972.824	2224
972.908	196
972.993	-537
973.078	-1052
973.163	-632
973.247	394
973.332	-1167
973.417	1084
973.501	-504
973.586	485
973.671	-177
973.755	28
973.840	263
973.924	-33
974.009	421
974.093	-136
974.178	496
974.262	1668
974.346	1511
974.431	143
974.515	-185
974.600	-527
974.684	-120
974.768	-541
974.852	38
974.937	-1001
975.021	-322
975.105	-174
975.189	105
975.273	1287
975.358	-404
975.442	-653
975.526	-667
975.610	-1177
975.694	-950
975.778	341
975.862	-421
975.946	-1654
976.030	1023
976.114	-576
976.198	-583
976.281	-408
976.365	419
976.449	-479
976.533	-435
976.617	-733
976.700	-1363
976.784	392
976.868	-509
976.951	853
977.035	-8
977.119	-446
977.202	-796
977.286	49
977.369	-282
977.453	104
977.536	721
977.620	-213
977.703	426
977.787	-841
977.870	-330
977.953	570
978.037	-857
978.120	1186
978.203	289
978.287	1723
978.370	335
978.453	-375
978.536	-14
978.620	270
978.703	1262
978.786	881
978.869	-938
978.952	-682
979.035	711
979.118	2
979.201	-1388
979.284	41
979.367	-342
979.450	-664
979.533	-474
979.616	-873
979.699	-713
979.782	35
979.865	-156
979.948	-315
980.030	-941
980.113	49
980.196	-963
980.279	-155
980.361	-337
980.444	-330
980.526	-867
980.609	-272
980.692	-286
980.774	467
980.857	-924
980.939	485
981.022	106
981.104	-85
981.187	-460
981.269	-197
981.352	-269
981.434	-542
981.516	-433
981.599	574
981.681	-267
981.763	-117
981.846	-1246
981.928	-184
982.010	624
982.092	-867
982.174	114
982.256	-694
982.339	-440
982.421	-500
982.503	-76
982.585	-1573
982.667	-542
982.749	-490
982.831	-229
982.913	-672
982.995	319
983.077	-820
983.158	846
983.240	-505
983.322	544
983.404	1002
983.486	-933
983.568	237
983.649	-952
983.731	-254
983.813	-1257
983.894	-196
983.976	-732
984.058	-635
984.139	279
984.221	-351
984.302	348
984.384	-38
984.465	-1360
984.547	149
984.628	-220
984.710	563
984.791	-245
984.872	-458
984.954	-44
985.035	-45
985.116	-1022
985.198	-319
985.279	302
985.360	-328
985.441	-456
985.522	-626
985.604	-328
985.685	-1199
985.766	548
985.847	423
985.928	-441
986.009	-766
986.090	-609
986.171	-200
986.252	-97
986.333	-382
986.414	-862
986.495	-812
986.576	-202
986.656	-971
986.737	317
986.818	543
986.899	-512
986.980	-746
987.060	1025
987.141	-889
987.222	-337
987.302	-187
987.383	134
987.464	-224
987.544	426
987.625	-328
987.705	432
987.786	-279
987.866	180
987.947	476
988.027	-79
988.108	-334
988.188	-42
988.268	298
988.349	-44
988.429	62
988.509	-489
988.589	-294
988.670	-1089
988.750	510
988.830	-594
988.910	102
988.990	-873
989.070	-833
989.151	-225
989.231	-656
989.311	-817
989.391	-125
989.471	-396
989.551	-162
989.631	144
989.711	57
989.791	108
989.870	-161
989.950	-654
990.030	36
990.110	-702
990.190	-237
990.269	-593
990.349	-325
990.429	-245
990.509	-274
990.588	-166
990.668	-218
990.747	215
990.827	-318
990.907	201
990.986	-1004
991.066	342
991.145	-885
991.225	-276
991.304	-8
991.383	-443
991.463	-730
991.542	-362
991.622	-266
991.701	-369
991.780	-743
991.859	-939
991.939	-460
992.018	-375
992.097	134
992.176	-474
992.256	-590
992.335	-1519
992.414	-338
992.493	-881
992.572	-541
992.651	223
992.730	-748
992.809	156
992.888	-1161
992.967	-1300
993.046	-359
993.125	-858
993.203	-1047
993.282	10
993.361	378
993.440	-443
993.519	-782
993.597	-813
993.676	-1150
993.755	552
993.834	-466
993.912	-1744
993.991	-132
994.069	-559
994.148	-1005
994.226	-59
994.305	-745
994.384	-905
994.462	276
994.540	-855
994.619	-741
994.697	-328
994.776	-720
994.854	-229
994.932	-1192
995.011	-1281
995.089	-743
995.167	-1174
995.245	-151
995.324	-1413
995.402	-712
995.480	-908
995.558	-434
995.636	-1116
995.714	-1455
995.792	-727
995.870	-1292
995.948	-429
996.026	-481
996.104	-856
996.182	-290
996.260	-1612
996.338	-845
996.416	-1140
996.494	-956
996.572	-384
996.649	-1625
996.727	-1321
996.805	511
996.883	-1142
996.960	-1121
997.038	-230
997.116	-677
997.193	-1793
997.271	-462
997.348	-1136
997.426	-714
997.504	-977
997.581	-125
997.658	84
997.736	-911
997.813	-1436
997.891	-70
997.968	-1241
998.046	168
998.123	-1310
998.200	-11
998.277	-1561
998.355	-694
998.432	-1445
998.509	-1240
998.586	-273
998.663	-67
998.741	-279
998.818	-928
998.895	-694
998.972	-933
999.049	-739
999.126	-1930
999.203	-455
999.280	-1040
999.357	-1266
999.434	-1389
999.511	-669
999.587	-269
999.664	-1368
999.741	-553
999.818	-884
999.895	-1317
999.971	-1437
1000.048	-733
1000.125	-348
1000.202	-1456
1000.278	-1059
1000.355	-159
1000.431	-1685
1000.508	-562
1000.584	-371
1000.661	-943
1000.738	-1253
1000.814	-1869
1000.890	-780
1000.967	-766
1001.043	-1128
1001.120	-871
1001.196	-1447
1001.272	-1348
1001.349	-753
1001.425	-243
1001.501	-985
1001.577	-1876
1001.654	-884
1001.730	-1530
1001.806	-935
1001.882	-1472
1001.958	-582
1002.034	-708
1002.110	-1225
1002.186	-1460
1002.262	-2128
1002.338	-1735
1002.414	-1675
1002.490	-675
1002.566	-1377
1002.642	-1566
1002.718	-335
1002.794	-1174
1002.870	-897
1002.945	-1107
1003.021	-1408
1003.097	-1939
1003.173	-1493
1003.248	-1082
1003.324	-1377
1003.400	-1186
1003.475	-1369
1003.551	-1047
1003.626	-1230
1003.702	-1542
1003.777	-1499
1003.853	-1135
1003.928	-1782
1004.004	-931
1004.079	-1503
1004.155	-456
1004.230	-2284
1004.305	48
1004.381	-1818
1004.456	-1598
1004.531	-1541
1004.607	-283
1004.682	-1516
1004.757	-1223
1004.832	-240
1004.907	-895
1004.982	-1570
1005.057	-682
1005.133	-1427
1005.208	-1143
1005.283	-2042
1005.358	-1090
1005.433	-1106
1005.508	-1182
1005.583	-2074
1005.657	-1223
1005.732	-882
1005.807	-1297
1005.882	-1247
1005.957	-730
1006.032	-578
1006.106	-757
1006.181	-1631
1006.256	-1174
1006.331	-1426
1006.405	-1229
1006.480	-507
1006.554	-1328
1006.629	-1779
1006.704	-485
1006.778	-1060
1006.853	-794
1006.927	-1348
1007.002	-1364
1007.076	-1317
1007.150	-1431
1007.225	-964
1007.299	-1444
1007.373	-2320
1007.448	-1020
1007.522	-250
1007.596	-1689
1007.671	-1951
1007.745	-433
1007.819	-1169
1007.893	-901
1007.967	-641
1008.041	-1667
1008.115	-901
1008.190	-1723
1008.264	-472
1008.338	-2219
1008.412	-1416
1008.486	-834
1008.560	-1689
1008.633	-773
1008.707	-1991
1008.781	-1230
1008.855	-1512
1008.929	-730
1009.003	-1141
1009.076	-1729
1009.150	-788
1009.224	-868
1009.298	-1127
1009.371	-1748
1009.445	-1498
1009.519	-1297
1009.592	-2460
1009.666	-1247
1009.739	-952
1009.813	-1857
1009.886	-1005
1009.960	-2285
1010.033	-1121
1010.107	-891
1010.180	-1670
1010.253	-1792
1010.327	-2023
1010.400	-928
1010.473	-1343
1010.547	-1048
1010.620	-1457
1010.693	-888
1010.766	-1494
1010.840	-1412
1010.913	-1284
1010.986	-1857
1011.059	-1970
1011.132	-1245
1011.205	-808
1011.278	-1608
1011.351	-2021
1011.424	-1326
1011.497	-2266
1011.570	-1104
1011.643	-1884
1011.716	-1635
1011.789	-1231
1011.862	-568
1011.934	-1182
1012.007	-2269
1012.080	-809
1012.153	-1478
1012.225	-747
1012.298	-1396
1012.371	-1746
1012.443	-722
1012.516	-1420
1012.588	-1038
1012.661	-1760
1012.733	-1646
1012.806	-1021
1012.879	-1315
1012.951	-1218
1013.023	-1391
1013.096	-966
1013.168	-2616
1013.241	-1104
1013.313	-1866
1013.385	-2671
1013.458	-1643
1013.530	-1779
1013.602	-1729
1013.674	-543
1013.746	-1771
1013.819	-1740
1013.891	-480
1013.963	-1182
1014.035	-1022
1014.107	-1118
1014.179	-1193
1014.251	-1424
1014.323	-257
1014.395	-1973
1014.467	-1840
1014.539	-1228
1014.611	-881
1014.683	-1255
1014.754	-1559
1014.826	-1959
1014.898	-1203
1014.970	-2089
1015.042	-1108
1015.113	-1673
1015.185	-1061
1015.257	-1664
1015.328	-629
1015.400	-1805
1015.471	-1750
1015.543	-1737
1015.615	-1483
1015.686	-1458
1015.757	-1640
1015.829	-2016
1015.901	-1206
1015.972	-1592
1016.043	-1185
1016.115	-1871
1016.186	-1415
1016.257	-1531
1016.328	-1492
1016.400	-1572
1016.471	-2065
1016.542	-2062
1016.613	-1136
1016.685	-1344
1016.756	-1547
1016.827	-1320
1016.898	-1303
1016.969	-1612
1017.040	-783
1017.111	-1794
1017.182	-2225
1017.253	-1660
1017.324	-1180
1017.395	-2345
1017.466	-759
1017.537	-1566
1017.608	-1590
1017.678	-2343
1017.749	-2042
1017.820	-1852
1017.891	-2594
1017.961	-2607
1018.032	-1499
1018.103	-1060
1018.173	-1319
1018.244	-2223
1018.315	-1384
1018.385	-1480
1018.456	-1834
1018.526	-1993
1018.597	-2146
1018.667	-1225
1018.738	-1642
1018.808	-1089
1018.878	-1627
1018.949	-1728
1019.019	-738
1019.089	-1112
1019.160	-1300
1019.230	-1918
1019.300	-1311
1019.371	-2984
1019.441	-990
1019.511	-2229
1019.581	-1278
1019.651	-1662
1019.721	-741
1019.791	-1980
1019.861	-1453
1019.931	-2155
1020.001	-1882
1020.071	-1539
1020.141	-1375
1020.211	-2883
1020.281	-2298
1020.351	-2041
1020.421	-1111
1020.491	-736
1020.560	-1808
1020.630	-2153
1020.700	-1605
1020.770	-1240
1020.839	-1662
1020.909	-2146
1020.979	-2431
1021.048	-1478
1021.118	-1565
1021.187	-1862
1021.257	-1077
1021.326	-1372
1021.396	-1728
1021.465	-1248
1021.535	-1945
1021.604	-1726
1021.674	-1461
1021.743	-1987
1021.812	-1786
1021.882	-2102
1021.951	-1169
1022.020	-1706
1022.089	-1556
1022.159	-1746
1022.228	-1898
1022.297	-2334
1022.366	-1744
1022.435	-2027
1022.504	-1194
1022.573	-2742
1022.642	-1690
1022.711	-1837
1022.781	-1740
1022.849	-1477
1022.918	-1953
1022.987	-2017
1023.056	-1474
1023.125	-1984
1023.194	-1618
1023.263	-2000
1023.331	-1889
1023.400	-2335
1023.469	-2421
1023.538	-1660
1023.606	-2301
1023.675	-2023
1023.744	-2069
1023.812	-2588
1023.881	-2425
1023.949	-2113
1024.018	-2025
1024.086	-2682
1024.155	-1918
1024.223	-1595
1024.292	-1201
1024.360	-2403
1024.429	-2015
1024.497	-2817
1024.565	-1668
1024.634	-1997
1024.702	-1704
1024.770	-2070
1024.838	-1700
1024.907	-1603
1024.975	-1600
1025.043	-1853
1025.111	-2087
1025.179	-2020
1025.247	-2088
1025.315	-2003
1025.383	-1463
1025.451	-2124
1025.519	-1892
1025.587	-1871
1025.655	-2352
1025.723	-2074
1025.791	-1464
1025.859	-1685
1025.927	-1811
1025.995	-1658
1026.062	-1994
1026.130	-2144
1026.198	-1402
1026.266	-2090
1026.333	-1678
1026.401	-1595
1026.469	-1707
1026.536	-2049
1026.604	-1647
1026.671	-2522
1026.739	-2428
1026.806	-1700
1026.874	-2058
1026.941	-2382
1027.009	-2072
1027.076	-2822
1027.144	-1579
1027.211	-2560
1027.278	-2758
1027.345	-1389
1027.413	-1586
1027.480	-1634
1027.547	-2252
1027.614	-1951
1027.682	-1369
1027.749	-1722
1027.816	-1609
1027.883	-2337
1027.950	-1696
1028.017	-2047
1028.084	-1989
1028.151	-2365
1028.218	-2732
1028.285	-1495
1028.352	-2227
1028.419	-2814
1028.486	-1659
1028.553	-2350
1028.619	-3176
1028.686	-1664
1028.753	-1269
1028.820	-2002
1028.886	-2131
1028.953	-2176
1029.020	-1596
1029.086	-2045
1029.153	-1554
1029.220	-2900
1029.286	-1589
1029.353	-2786
1029.419	-2081
1029.486	-2004
1029.552	-1753
1029.619	-1981
1029.685	-2152
1029.751	-2614
1029.818	-1847
1029.884	-1936
1029.951	-1671
1030.017	-2521
1030.083	-1727
1030.149	-2073
1030.216	-1976
1030.282	-2540
1030.348	-1902
1030.414	-2391
1030.480	-2223
1030.546	-1852
1030.612	-1481
1030.678	-2170
1030.744	-1961
1030.810	-2336
1030.876	-1956
1030.942	-2551
1031.008	-1488
1031.074	-2780
1031.140	-1807
1031.206	-1991
1031.272	-2567
1031.337	-2002
1031.403	-1188
1031.469	-1932
1031.534	-1840
1031.600	-1696
1031.666	-2606
1031.731	-2455
1031.797	-1188
1031.863	-2011
1031.928	-2684
1031.994	-1324
1032.059	-1751
1032.125	-1545
1032.190	-2474
1032.256	-1593
1032.321	-2073
1032.386	-1866
1032.452	-1789
1032.517	-2516
1032.582	-2569
1032.647	-1895
1032.713	-1940
1032.778	-2191
1032.843	-1816
1032.908	-1843
1032.974	-1587
1033.039	-2230
1033.104	-2157
1033.169	-1739
1033.234	-1711
1033.299	-985
1033.364	-1404
1033.429	-1178
1033.494	-1759
1033.559	-2203
1033.624	-1517
1033.688	-2236
1033.753	-2153
1033.818	-1828
1033.883	-2037
1033.948	-1727
1034.013	-1920
1034.077	-1796
1034.142	-615
1034.207	-846
1034.271	-128
1034.336	-313
1034.400	219
1034.465	-650
1034.530	-1101
1034.594	-1042
1034.658	-1376
1034.723	-2136
1034.787	-2180
1034.852	-2323
1034.916	-1467
1034.981	-2297
1035.045	-1818
1035.109	-2573
1035.173	-1437
1035.238	-2695
1035.302	-1600
1035.366	-2878
1035.430	-2013
1035.495	-1739
1035.559	-1025
1035.623	-2478
1035.687	-2355
1035.751	-2344
1035.815	-1610
1035.879	-1396
1035.943	-1861
1036.007	-1561
1036.071	-1559
1036.135	-2241
1036.198	-1845
1036.262	-1939
1036.326	-1802
1036.390	-1497
1036.454	-1524
1036.517	-1156
1036.581	-1835
1036.645	-977
1036.709	-432
1036.772	-1817
1036.836	-1431
1036.900	-1975
1036.963	-2284
1037.026	-1079
1037.090	-2399
1037.154	-2045
1037.217	-2239
1037.280	-1751
1037.344	-2310
1037.407	-1243
1037.471	-2184
1037.534	-2418
1037.597	-1363
1037.661	-1790
1037.724	-2074
1037.787	-2396
1037.850	-1470
1037.913	-2286
1037.977	-1915
1038.040	-2163
1038.103	-2009
1038.166	-1900
1038.229	-2153
1038.292	-2209
1038.355	-2002
1038.418	-1448
1038.481	-2057
1038.544	-1965
1038.607	-1855
1038.670	-1700
1038.732	-1882
1038.795	-1980
1038.858	-2528
1038.921	-2188
1038.984	-1933
1039.046	-2328
1039.109	-2417
1039.172	-2285
1039.234	-1891
1039.297	-1912
1039.360	-1772
1039.422	-1787
1039.485	-1934
1039.547	-2645
1039.610	-2009
1039.672	-2518
1039.734	-2021
1039.797	-1959
1039.859	-1753
1039.922	-1399
1039.984	-2420
1040.046	-2349
1040.109	-3006
1040.171	-2597
1040.233	-2077
1040.295	-2124
1040.358	-1988
1040.420	-1966
1040.482	-2288
1040.544	-2072
1040.606	-2130
1040.668	-1583
1040.730	-2214
1040.792	-2248
1040.854	-2443
1040.916	-2093
1040.978	-1851
1041.040	-1318
1041.102	-1839
1041.164	-1652
1041.225	-2558
1041.287	-2102
1041.349	-1658
1041.411	-2582
1041.472	-2072
1041.534	-1511
1041.596	-2157
1041.657	-2204
1041.719	-2158
1041.781	-2237
1041.842	-2267
1041.904	-2770
1041.965	-1975
1042.027	-1963
1042.088	-1593
1042.150	-2066
1042.211	-2489
1042.272	-1973
1042.334	-1580
1042.395	-2211
1042.456	-1933
1042.518	-1903
1042.579	-2143
1042.640	-1667
1042.701	-1923
1042.763	-2644
1042.824	-1305
1042.885	-2191
1042.946	-2508
1043.007	-2798
1043.068	-2706
1043.129	-2298
1043.190	-2214
1043.251	-1310
1043.312	-2339
1043.373	-1564
1043.434	-1212
1043.495	-3309
1043.556	-2483
1043.616	-2226
1043.677	-2481
1043.738	-1496
1043.799	-2129
1043.859	-1345
1043.920	-1487
1043.981	-1978
1044.041	-1659
1044.102	-2157
1044.162	-2833
1044.223	-2098
1044.284	-1915
1044.344	-2007
1044.405	-2050
1044.465	-2636
1044.525	-2463
1044.586	-2036
1044.646	-2588
1044.707	-2666
1044.767	-2113
1044.827	-2134
1044.887	-2218
1044.948	-1682
1045.008	-2109
1045.068	-2313
1045.128	-1888
1045.188	-1718
1045.249	-1962
1045.309	-3329
1045.369	-947
1045.429	-1998
1045.489	-1148
1045.549	-1979
1045.609	-2043
1045.669	-2572
1045.729	-2551
1045.789	-2283
1045.848	-1681
1045.908	-1852
1045.968	-1513
1046.028	-1791
1046.088	-1770
1046.147	-1172
1046.207	-2619
1046.267	-1857
1046.326	-342
1046.386	-1991
1046.446	-575
1046.505	-1523
1046.565	-1354
1046.624	-771
1046.684	-870
1046.743	-908
1046.803	-1586
1046.862	-1062
1046.922	0
