'Start Wavelength	183.907
'End Wavelength	1046.922
'Gate Delay	5.000
'Gate Width (ms)	1.050
'Laser Output Level	0.000
'X Position	0.000
'Y Position	0.000
'Z Position	0.000
'Grid Point Number	1.000
'Shot Number	100.000
183.907	861.000
183.977	86.000
184.047	-116
184.116	662
184.186	-447
184.256	214
184.325	-441
184.395	-588
184.465	601
184.534	-587
184.604	-9
184.674	92
184.743	14
184.813	586
184.883	234
184.952	548
185.022	701
185.092	-105
185.161	258
185.231	706
185.301	557
185.370	533
185.440	223
185.509	-154
185.579	-326
185.649	-6
185.718	859
185.788	-111
185.857	-423
185.927	-268
185.996	17
186.066	-121
186.136	-11
186.205	-302
186.275	493
186.344	-500
186.414	124
186.483	-71
186.553	185
186.622	636
186.692	-228
186.761	-70
186.831	484
186.900	-164
186.970	619
187.039	498
187.109	1125
187.178	6
187.248	139
187.317	596
187.387	85
187.456	122
187.526	-268
187.595	-65
187.664	-57
187.734	36
187.803	596
187.873	-70
187.942	396
188.012	863
188.081	-131
188.150	105
188.220	289
188.289	1844
188.358	-266
188.428	-39
188.497	-527
188.567	373
188.636	-673
188.705	500
188.775	-423
188.844	398
188.913	-71
188.983	286
189.052	-108
189.121	151
189.191	229
189.260	469
189.329	97
189.399	158
189.468	462
189.537	-614
189.606	261
189.676	438
189.745	-506
189.814	456
189.883	-209
189.953	-57
190.022	801
190.091	904
190.161	1476
190.230	362
190.299	648
190.368	266
190.437	867
190.507	420
190.576	438
190.645	717
190.714	525
190.783	-176
190.853	1508
190.922	122
190.991	-399
191.060	186
191.129	-549
191.198	-199
191.268	-212
191.337	586
191.406	367
191.475	-74
191.544	-417
191.613	-246
191.682	-539
191.752	78
191.821	-532
191.890	-25
191.959	-195
192.028	437
192.097	26
192.166	191
192.235	113
192.304	947
192.373	-147
192.442	284
192.511	105
192.580	-579
192.650	-111
192.719	461
192.788	-26
192.857	870
192.926	138
192.995	681
193.064	659
193.133	804
193.202	675
193.271	1924
193.340	598
193.409	375
193.478	959
193.547	896
193.615	1065
193.684	1191
193.753	334
193.822	1490
193.891	912
193.960	498
194.029	378
194.098	-235
194.167	-653
194.236	851
194.305	189
194.374	90
194.443	21
194.512	422
194.580	581
194.649	685
194.718	44
194.787	-74
194.856	-2
194.925	-159
194.994	-93
195.062	341
195.131	140
195.200	753
195.269	836
195.338	-8
195.407	1125
195.475	-125
195.544	666
195.613	230
195.682	611
195.751	1132
195.819	172
195.888	854
195.957	742
196.026	96
196.094	1097
196.163	447
196.232	532
196.301	198
196.369	-461
196.438	164
196.507	519
196.576	374
196.644	515
196.713	-11
196.782	391
196.850	-29
196.919	-312
196.988	188
197.056	-148
197.125	970
197.194	442
197.262	625
197.331	392
197.400	614
197.468	398
197.537	407
197.606	1055
197.674	658
197.743	598
197.812	-272
197.880	882
197.949	589
198.017	1353
198.086	492
198.155	459
198.223	727
198.292	467
198.360	623
198.429	-345
198.497	-498
198.566	1121
198.635	875
198.703	764
198.772	772
198.840	1754
198.909	821
198.977	445
199.046	-148
199.114	249
199.183	185
199.251	641
199.320	-344
199.388	-306
199.457	-146
199.525	-179
199.594	-79
199.662	-424
199.731	479
199.799	975
199.867	-5
199.936	8
200.004	72
200.073	534
200.141	-223
200.210	-344
200.278	362
200.346	203
200.415	-52
200.483	-305
200.552	515
200.620	158
200.688	15
200.757	115
200.825	680
200.893	107
200.962	354
201.030	245
201.098	740
201.167	172
201.235	139
201.303	468
201.372	214
201.440	813
201.508	696
201.577	283
201.645	-298
201.713	60
201.781	461
201.850	702
201.918	439
201.986	195
202.055	603
202.123	654
202.191	37
202.259	266
202.327	119
202.396	-16
202.464	192
202.532	289
202.600	1782
202.669	1200
202.737	647
202.805	-20
202.873	-247
202.941	1076
203.009	337
203.078	157
203.146	686
203.214	262
203.282	-327
203.350	666
203.418	782
203.487	826
203.555	-84
203.623	255
203.691	477
203.759	389
203.827	-224
203.895	1435
203.963	491
204.031	-90
204.099	529
204.168	98
204.236	1003
204.304	1050
204.372	404
204.440	-585
204.508	572
204.576	-270
204.644	489
204.712	-523
204.780	583
204.848	774
204.916	645
204.984	-45
205.052	497
205.120	289
205.188	194
205.256	109
205.324	382
205.392	264
205.460	405
205.528	862
205.596	965
205.664	19
205.732	352
205.799	1279
205.867	2329
205.935	-88
206.003	847
206.071	52
206.139	-91
206.207	509
206.275	510
206.343	479
206.411	379
206.478	660
206.546	974
206.614	754
206.682	504
206.750	-110
206.818	1164
206.885	674
206.953	299
207.021	1698
207.089	460
207.157	38
207.225	435
207.292	450
207.360	87
207.428	548
207.496	-59
207.563	131
207.631	1066
207.699	886
207.767	-393
207.834	952
207.902	203
207.970	422
208.038	552
208.105	469
208.173	355
208.241	942
208.309	775
208.376	600
208.444	2120
208.512	494
208.579	-17
208.647	1193
208.715	628
208.782	948
208.850	626
208.918	281
208.985	978
209.053	1292
209.120	675
209.188	429
209.256	-65
209.323	-8
209.391	314
209.459	1769
209.526	1201
209.594	376
209.661	622
209.729	838
209.796	379
209.864	1123
209.932	-85
209.999	1835
210.067	1276
210.134	1103
210.202	949
210.269	1859
210.337	1562
210.404	315
210.472	327
210.539	580
210.607	629
210.674	1143
210.742	818
210.809	453
210.877	364
210.944	1746
211.012	156
211.079	2504
211.146	1100
211.214	1129
211.281	1234
211.349	865
211.416	1300
211.484	664
211.551	312
211.618	756
211.686	439
211.753	597
211.821	922
211.888	760
211.955	571
212.023	-270
212.090	1465
212.157	670
212.225	1145
212.292	2220
212.359	3130
212.427	7176
212.494	2640
212.561	1262
212.629	773
212.696	751
212.763	1057
212.831	701
212.898	944
212.965	710
213.032	984
213.100	1522
213.167	708
213.234	1497
213.301	1049
213.369	1003
213.436	87
213.503	1006
213.570	1238
213.638	1033
213.705	416
213.772	791
213.839	795
213.906	1517
213.973	1289
214.041	162
214.108	1348
214.175	1193
214.242	830
214.309	1120
214.376	1146
214.444	1307
214.511	1100
214.578	1038
214.645	1807
214.712	1441
214.779	1164
214.846	1179
214.913	1517
214.980	1553
215.048	2444
215.115	1810
215.182	1127
215.249	945
215.316	1693
215.383	1511
215.450	1161
215.517	1931
215.584	800
215.651	1204
215.718	1297
215.785	1802
215.852	720
215.919	1629
215.986	1527
216.053	96
216.120	1149
216.187	1235
216.254	1351
216.321	1220
216.388	1489
216.455	1157
216.522	1142
216.589	1289
216.656	2131
216.722	2729
216.789	1060
216.856	2200
216.923	2033
216.990	496
217.057	1452
217.124	1401
217.191	1591
217.258	2374
217.324	2603
217.391	3394
217.458	1802
217.525	1178
217.592	2161
217.659	780
217.725	1752
217.792	1387
217.859	1877
217.926	438
217.993	891
218.059	1056
218.126	497
218.193	1295
218.260	488
218.327	425
218.393	885
218.460	832
218.527	53
218.594	566
218.660	2098
218.727	2328
218.794	737
218.860	151
218.927	-209
218.994	493
219.061	466
219.127	880
219.194	1717
219.261	898
219.327	406
219.394	1472
219.461	-437
219.527	-455
219.594	930
219.661	1000
219.727	-453
219.794	1350
219.860	-315
219.927	952
219.994	1585
220.060	2505
220.127	1219
220.193	1097
220.260	102
220.326	2223
220.393	4232
220.460	4324
220.526	2332
220.593	661
220.659	2667
220.726	1056
220.792	4565
220.859	3015
220.925	5290
220.992	6993
221.058	6287
221.125	5701
221.191	4145
221.258	1008
221.324	1600
221.391	1545
221.457	558
221.524	732
221.590	1606
221.657	3898
221.723	2326
221.789	2610
221.856	3030
221.922	1514
221.989	1238
222.055	-175
222.121	-122
222.188	2676
222.254	935
222.321	634
222.387	379
222.453	164
222.520	125
222.586	507
222.652	923
222.719	191
222.785	1214
222.851	30
222.918	-85
222.984	1014
223.050	1156
223.116	-472
223.183	1133
223.249	330
223.315	113
223.382	756
223.448	323
223.514	-3
223.580	231
223.647	40
223.713	-527
223.779	162
223.845	-184
223.911	139
223.978	320
224.044	1026
224.110	160
224.176	1118
224.242	926
224.309	-305
224.375	1179
224.441	756
224.507	107
224.573	-281
224.639	642
224.705	-534
224.772	616
224.838	-331
224.904	804
224.970	-370
225.036	-78
225.102	-317
225.168	1335
225.234	1005
225.300	415
225.366	314
225.432	673
225.499	312
225.565	110
225.631	106
225.697	803
225.763	1467
225.829	868
225.895	934
225.961	2255
226.027	2152
226.093	1449
226.159	1873
226.225	3082
226.291	6755
226.357	11333
226.423	6178
226.489	3656
226.554	1719
226.620	1340
226.686	3229
226.752	3201
226.818	6401
226.884	14231
226.950	12627
227.016	4779
227.082	2963
227.148	1840
227.214	2461
227.279	1561
227.345	1701
227.411	1577
227.477	1018
227.543	3634
227.609	2884
227.674	2613
227.740	548
227.806	847
227.872	704
227.938	1272
228.003	2178
228.069	795
228.135	25
228.201	1455
228.267	891
228.332	1209
228.398	758
228.464	879
228.530	370
228.595	594
228.661	-14
228.727	1099
228.792	1629
228.858	407
228.924	-1177
228.990	1708
229.055	-259
229.121	1244
229.187	1124
229.252	770
229.318	909
229.384	717
229.449	797
229.515	-840
229.581	-659
229.646	2028
229.712	784
229.777	1653
229.843	2151
229.909	1395
229.974	2241
230.040	2073
230.105	953
230.171	812
230.236	1687
230.302	2822
230.368	1516
230.433	812
230.499	604
230.564	2346
230.630	646
230.695	888
230.761	1099
230.826	-342
230.892	2365
230.957	478
231.023	-68
231.088	246
231.154	108
231.219	581
231.284	743
231.350	1728
231.415	14
231.481	1331
231.546	324
231.612	1004
231.677	-460
231.742	-656
231.808	1332
231.873	478
231.939	-850
232.004	2075
232.069	1350
232.135	271
232.200	-561
232.265	1705
232.331	-925
232.396	-322
232.461	-136
232.527	-76
232.592	-618
232.657	714
232.723	471
232.788	423
232.853	553
232.918	419
232.984	-342
233.049	547
233.114	283
233.179	593
233.245	2484
233.310	2735
233.375	-400
233.440	1756
233.506	-360
233.571	152
233.636	-116
233.701	188
233.766	1128
233.832	1270
233.897	335
233.962	128
234.027	2124
234.092	835
234.157	301
234.222	908
234.288	1111
234.353	5107
234.418	4943
234.483	3273
234.548	1752
234.613	2050
234.678	1999
234.743	739
234.808	5975
234.873	2809
234.938	1613
235.004	595
235.069	636
235.134	349
235.199	1246
235.264	843
235.329	597
235.394	1133
235.459	2214
235.524	871
235.589	2045
235.654	423
235.719	36
235.784	1165
235.849	527
235.913	3369
235.978	2547
236.043	3006
236.108	1588
236.173	1006
236.238	1545
236.303	699
236.368	374
236.433	2431
236.498	2487
236.563	2285
236.627	3565
236.692	16752
236.757	14184
236.822	5262
236.887	3191
236.952	3009
237.017	1906
237.081	3376
237.146	2965
237.211	7513
237.276	15694
237.341	25882
237.405	12956
237.470	4956
237.535	3119
237.600	2390
237.664	2057
237.729	842
237.794	2256
237.859	5585
237.923	3374
237.988	1572
238.053	2994
238.118	2424
238.182	6863
238.247	6952
238.312	2429
238.376	2188
238.441	40
238.506	2494
238.570	-34
238.635	1876
238.700	1054
238.764	822
238.829	2547
238.893	2867
238.958	2423
239.023	2281
239.087	559
239.152	1716
239.216	620
239.281	1185
239.346	908
239.410	583
239.475	847
239.539	6333
239.604	4151
239.668	1721
239.733	1359
239.797	1736
239.862	5470
239.926	6562
239.991	2810
240.055	1783
240.120	974
240.184	1295
240.249	807
240.313	504
240.378	403
240.442	4031
240.507	6786
240.571	2066
240.635	2333
240.700	3695
240.764	566
240.829	356
240.893	-342
240.957	972
241.022	4208
241.086	6825
241.151	2370
241.215	50
241.279	2163
241.344	3030
241.408	2552
241.472	-12
241.537	2276
241.601	1422
241.665	122
241.730	991
241.794	2018
241.858	513
241.922	1146
241.987	940
242.051	456
242.115	938
242.179	1042
242.244	582
242.308	2523
242.372	1489
242.436	1192
242.501	1738
242.565	450
242.629	161
242.693	1654
242.757	559
242.822	760
242.886	1672
242.950	592
243.014	1
243.078	1804
243.142	616
243.206	362
243.271	482
243.335	577
243.399	2027
243.463	8463
243.527	23511
243.591	7426
243.655	3095
243.719	745
243.783	2552
243.847	3002
243.911	3968
243.975	6065
244.040	3430
244.104	2656
244.168	1154
244.232	2147
244.296	4287
244.360	3369
244.424	2080
244.488	1648
244.552	1669
244.615	-279
244.679	1345
244.743	843
244.807	1412
244.871	1423
244.935	1151
244.999	-1023
245.063	1041
245.127	2146
245.191	2521
245.255	2767
245.319	2530
245.383	355
245.446	1887
245.510	256
245.574	1012
245.638	1293
245.702	1016
245.766	4523
245.829	3064
245.893	673
245.957	747
246.021	1819
246.085	1512
246.149	1872
246.212	5854
246.276	7488
246.340	3565
246.404	2627
246.467	2529
246.531	3101
246.595	2911
246.659	3046
246.722	2053
246.786	3724
246.850	3665
246.913	4220
246.977	1390
247.041	2150
247.104	1789
247.168	1549
247.232	5018
247.295	10853
247.359	5349
247.423	2285
247.486	4760
247.550	3527
247.614	2088
247.677	3166
247.741	1604
247.804	1243
247.868	1742
247.932	3760
247.995	11245
248.059	3435
248.122	1029
248.186	3251
248.249	4796
248.313	16693
248.376	18653
248.440	11159
248.503	3076
248.567	3981
248.630	4539
248.694	7836
248.757	10073
248.821	18223
248.884	12420
248.948	9772
249.011	14908
249.075	20550
249.138	18878
249.202	8227
249.265	4435
249.328	6002
249.392	4087
249.455	3865
249.519	2384
249.582	3250
249.645	5810
249.709	4454
249.772	1959
249.835	3231
249.899	3376
249.962	2996
250.025	1671
250.089	5896
250.152	10635
250.215	5060
250.279	2677
250.342	3499
250.405	3388
250.468	3140
250.532	3395
250.595	6477
250.658	20486
250.721	35348
250.785	13491
250.848	7074
250.911	2903
250.974	3971
251.038	4186
251.101	11932
251.164	5410
251.227	6827
251.290	5251
251.354	7173
251.417	29095
251.480	29636
251.543	19860
251.606	52215
251.669	40148
251.732	15770
251.795	15073
251.859	15399
251.922	34427
251.985	21381
252.048	8761
252.111	5839
252.174	5011
252.237	10476
252.300	21852
252.363	23734
252.426	45497
252.489	19467
252.552	10332
252.615	5925
252.678	6716
252.741	16651
252.804	20215
252.867	44513
252.930	28638
252.993	16266
253.056	9637
253.119	6652
253.182	4457
253.245	8353
253.308	7362
253.371	6476
253.434	6869
253.497	5824
253.559	11667
253.622	7933
253.685	10652
253.748	11435
253.811	5046
253.874	6013
253.937	5007
254.000	4154
254.062	7108
254.125	11327
254.188	12491
254.251	9779
254.314	4014
254.376	8273
254.439	10441
254.502	8522
254.565	7906
254.628	13728
254.690	8715
254.753	4551
254.816	3845
254.878	3778
254.941	7502
255.004	8222
255.067	3555
255.129	3416
255.192	2102
255.255	1105
255.317	2597
255.380	1634
255.443	554
255.505	1538
255.568	968
255.631	1545
255.693	2096
255.756	908
255.819	1555
255.881	944
255.944	1124
256.006	849
256.069	1552
256.132	-35
256.194	2788
256.257	5831
256.319	4286
256.382	3735
256.444	2342
256.507	1544
256.569	417
256.632	1944
256.694	1732
256.757	9600
256.819	28978
256.882	10527
256.944	4509
257.007	4055
257.069	3835
257.132	2782
257.194	3117
257.257	1640
257.319	1009
257.381	1084
257.444	7385
257.506	30983
257.569	36582
257.631	18887
257.693	9940
257.756	3533
257.818	2448
257.880	2004
257.943	2373
258.005	1208
258.067	1049
258.130	1827
258.192	2813
258.254	5965
258.317	2994
258.379	2193
258.441	6037
258.503	6381
258.566	6879
258.628	11071
258.690	2344
258.753	2019
258.815	5916
258.877	2666
258.939	1321
259.001	1518
259.064	1034
259.126	2257
259.188	3128
259.250	2614
259.312	2469
259.375	8820
259.437	5690
259.499	1320
259.561	1662
259.623	3050
259.685	1644
259.747	934
259.809	7071
259.872	13339
259.934	20263
259.996	21300
260.058	6882
260.120	2134
260.182	1866
260.244	1430
260.306	455
260.368	1536
260.430	141
260.492	5010
260.554	10733
260.616	6018
260.678	10937
260.740	15486
260.802	4109
260.864	2803
260.926	1009
260.988	3300
261.050	1777
261.112	6360
261.174	18848
261.236	12289
261.298	4322
261.359	6465
261.421	9176
261.483	1939
261.545	2427
261.607	770
261.669	1668
261.731	3200
261.793	10904
261.854	3103
261.916	2720
261.978	1667
262.040	2842
262.102	1635
262.164	3294
262.225	2658
262.287	1356
262.349	6269
262.411	4199
262.472	2301
262.534	2951
262.596	8806
262.658	2879
262.719	137
262.781	2140
262.843	7559
262.904	4689
262.966	2632
263.028	2416
263.090	14493
263.151	40977
263.213	15625
263.275	8301
263.336	2819
263.398	1810
263.459	661
263.521	1720
263.583	5924
263.644	3904
263.706	875
263.767	494
263.829	1751
263.891	1245
263.952	691
264.014	643
264.075	3346
264.137	9497
264.198	3976
264.260	1327
264.321	994
264.383	4888
264.444	15166
264.506	3806
264.567	1681
264.629	4787
264.690	10954
264.752	3560
264.813	1938
264.875	644
264.936	2140
264.998	1020
265.059	113
265.120	957
265.182	2145
265.243	15023
265.305	15095
265.366	3239
265.427	1589
265.489	1485
265.550	-1
265.611	1964
265.673	1251
265.734	1621
265.795	915
265.857	537
265.918	195
265.979	2898
266.040	23982
266.102	20120
266.163	6109
266.224	4273
266.286	2298
266.347	1217
266.408	1201
266.469	1528
266.530	537
266.592	335
266.653	3856
266.714	6115
266.775	1316
266.836	901
266.898	930
266.959	3404
267.020	2234
267.081	2689
267.142	799
267.203	483
267.264	346
267.326	2090
267.387	417
267.448	412
267.509	623
267.570	1698
267.631	600
267.692	593
267.753	104
267.814	1067
267.875	3018
267.936	8855
267.997	4332
268.058	4247
268.119	1759
268.180	1004
268.241	769
268.302	233
268.363	433
268.424	958
268.485	989
268.546	-396
268.607	191
268.668	146
268.729	52
268.790	115
268.851	1297
268.912	5498
268.972	6428
269.033	2877
269.094	566
269.155	614
269.216	595
269.277	1330
269.338	537
269.398	586
269.459	370
269.520	1445
269.581	2958
269.642	4251
269.702	2457
269.763	1010
269.824	1054
269.885	1718
269.945	3691
270.006	1698
270.067	104
270.128	491
270.188	-87
270.249	-247
270.310	437
270.370	591
270.431	424
270.492	343
270.553	704
270.613	3793
270.674	8777
270.734	2938
270.795	996
270.856	2937
270.916	1514
270.977	902
271.038	1882
271.098	1891
271.159	3299
271.219	2762
271.280	227
271.340	-51
271.401	284
271.462	4521
271.522	2963
271.583	1520
271.643	1170
271.704	1101
271.764	1843
271.825	4913
271.885	18583
271.946	24182
272.006	7934
272.066	10649
272.127	17367
272.187	5529
272.248	2044
272.308	1661
272.369	11629
272.429	7286
272.489	6077
272.550	5923
272.610	5988
272.671	4345
272.731	3284
272.791	7275
272.852	3776
272.912	2695
272.972	1893
273.033	1375
273.093	2519
273.153	3116
273.214	2038
273.274	1456
273.334	10051
273.394	20589
273.455	8629
273.515	7640
273.575	18311
273.635	7455
273.696	8358
273.756	17363
273.816	6876
273.876	3895
273.936	7666
273.997	16337
274.057	4537
274.117	2386
274.177	4423
274.237	22894
274.297	20126
274.358	12216
274.418	14518
274.478	11666
274.538	4083
274.598	1858
274.658	11733
274.718	16220
274.778	6491
274.838	2664
274.898	5900
274.958	22031
275.018	18258
275.078	11213
275.138	4985
275.198	2088
275.258	1965
275.318	2444
275.378	4898
275.438	6125
275.498	3536
275.558	8044
275.618	21684
275.678	13250
275.738	8468
275.798	7177
275.858	3605
275.918	1183
275.978	2273
276.038	2426
276.098	1525
276.157	4334
276.217	14738
276.277	6979
276.337	3794
276.397	938
276.457	3498
276.517	2197
276.576	1318
276.636	418
276.696	2574
276.756	8649
276.815	6394
276.875	2579
276.935	2621
276.995	2427
277.055	1198
277.114	858
277.174	3423
277.234	11932
277.293	3780
277.353	2534
277.413	1558
277.472	2030
277.532	1816
277.592	1885
277.651	9994
277.711	21499
277.771	6031
277.830	24626
277.890	19716
277.950	11311
278.009	36937
278.069	13312
278.128	13566
278.188	21354
278.248	8154
278.307	23140
278.367	13379
278.426	4056
278.486	1836
278.545	1701
278.605	924
278.664	2128
278.724	1616
278.783	6273
278.843	18600
278.902	5440
278.962	3288
279.021	2484
279.081	3964
279.140	4813
279.199	3589
279.259	3929
279.318	3613
279.378	4723
279.437	8039
279.496	30590
279.556	93616
279.615	77043
279.675	21275
279.734	10979
279.793	15222
279.853	23147
279.912	9794
279.971	5055
280.031	4229
280.090	8034
280.149	16444
280.208	12189
280.268	64973
280.327	69431
280.386	16958
280.445	12444
280.505	11651
280.564	5070
280.623	3504
280.682	5911
280.742	11312
280.801	3574
280.860	2285
280.919	1761
280.978	1999
281.037	1964
281.097	1403
281.156	1537
281.215	1089
281.274	1640
281.333	11962
281.392	10199
281.451	1881
281.510	941
281.569	1343
281.628	686
281.688	1131
281.747	1952
281.806	1982
281.865	1297
281.924	1202
281.983	661
282.042	146
282.101	961
282.160	1020
282.219	336
282.278	903
282.337	7252
282.396	5776
282.454	1549
282.513	2247
282.572	12322
282.631	7963
282.690	1397
282.749	691
282.808	2286
282.867	1948
282.926	3114
282.985	1734
283.043	400
283.102	194
283.161	1467
283.220	4916
283.279	13206
283.338	3147
283.396	1498
283.455	1615
283.514	1909
283.573	3434
283.631	3167
283.690	1710
283.749	1319
283.808	5071
283.866	5663
283.925	1302
283.984	1495
284.043	2289
284.101	3142
284.160	1633
284.219	4068
284.277	2480
284.336	4269
284.395	16718
284.453	13822
284.512	5112
284.570	6797
284.629	5442
284.688	5309
284.746	5541
284.805	6643
284.863	9234
284.922	12407
284.981	13579
285.039	18190
285.098	32730
285.156	72202
285.215	99469
285.273	99857
285.332	79480
285.390	45777
285.449	27888
285.507	17470
285.566	12802
285.624	8991
285.683	7146
285.741	5949
285.799	4423
285.858	3984
285.916	3578
285.975	2764
286.033	2732
286.091	1828
286.150	1979
286.208	1541
286.267	3390
286.325	2609
286.383	5007
286.442	4268
286.500	1845
286.558	1682
286.616	1118
286.675	2625
286.733	2333
286.791	1937
286.850	2053
286.908	3530
286.966	6336
287.024	2412
287.083	1390
287.141	407
287.199	1755
287.257	3548
287.315	1724
287.374	1813
287.432	6677
287.490	4708
287.548	2272
287.606	2135
287.664	476
287.723	3435
287.781	4574
287.839	1576
287.897	1834
287.955	2399
288.013	3597
288.071	8714
288.129	43570
288.187	127132
288.245	57007
288.303	17888
288.361	9528
288.419	6614
288.477	4381
288.535	2389
288.593	2265
288.651	1469
288.709	517
288.767	929
288.825	593
288.883	529
288.941	1040
288.999	1404
289.057	863
289.115	1083
289.173	289
289.231	802
289.289	1575
289.346	953
289.404	1107
289.462	3238
289.520	3559
289.578	1153
289.636	786
289.694	324
289.751	-413
289.809	182
289.867	381
289.925	1463
289.983	1534
290.040	1077
290.098	548
290.156	1497
290.214	2001
290.271	590
290.329	832
290.387	512
290.444	247
290.502	336
290.560	1030
290.617	1219
290.675	1593
290.733	212
290.790	1106
290.848	787
290.906	1130
290.963	628
291.021	1048
291.078	249
291.136	469
291.194	7193
291.251	18114
291.309	4081
291.366	1747
291.424	1212
291.481	800
291.539	981
291.596	1355
291.654	-6
291.711	477
291.769	1281
291.826	4058
291.884	2705
291.941	869
291.999	1417
292.056	1169
292.114	599
292.171	-340
292.228	1619
292.286	1851
292.343	3706
292.401	5987
292.458	3344
292.515	1063
292.573	2445
292.630	2172
292.687	1763
292.745	859
292.802	1699
292.859	10455
292.917	16533
292.974	8206
293.031	2491
293.089	1892
293.146	1657
293.203	588
293.260	576
293.318	2552
293.375	4741
293.432	1327
293.489	1369
293.546	260
293.604	1557
293.661	6704
293.718	22960
293.775	12715
293.832	5929
293.889	3442
293.947	3897
294.004	3298
294.061	2354
294.118	6152
294.175	16571
294.232	23735
294.289	9301
294.346	3573
294.403	2978
294.460	1787
294.517	1567
294.574	1073
294.631	986
294.688	1495
294.745	5192
294.802	27021
294.859	34401
294.916	12621
294.973	7325
295.030	4534
295.087	4088
295.144	2250
295.201	1447
295.258	231
295.315	1701
295.372	8819
295.429	18180
295.486	7075
295.542	4744
295.599	14330
295.656	26222
295.713	16594
295.770	18091
295.827	6881
295.883	3924
295.940	2406
295.997	6126
296.054	5793
296.111	1839
296.167	1727
296.224	625
296.281	985
296.338	964
296.394	1033
296.451	1740
296.508	7341
296.564	16176
296.621	11042
296.678	20764
296.734	29834
296.791	12296
296.848	6410
296.904	4938
296.961	13954
297.018	21780
297.074	15401
297.131	6007
297.187	3717
297.244	4292
297.301	19295
297.357	32642
297.414	11757
297.470	4295
297.527	2810
297.583	2508
297.640	2876
297.696	2230
297.753	1271
297.809	856
297.866	796
297.922	780
297.979	548
298.035	1229
298.092	3446
298.148	11659
298.204	11360
298.261	4889
298.317	10169
298.374	24580
298.430	14323
298.486	7446
298.543	4496
298.599	3258
298.656	2851
298.712	7447
298.768	20154
298.824	13660
298.881	4377
298.937	2747
298.993	2597
299.050	3789
299.106	2802
299.162	2260
299.218	2832
299.275	1342
299.331	1730
299.387	4856
299.443	21471
299.500	23578
299.556	9874
299.612	4423
299.668	3494
299.724	6288
299.780	6416
299.837	3322
299.893	4209
299.949	21114
300.005	23102
300.061	19948
300.117	33280
300.173	14528
300.229	6269
300.285	9043
300.341	9801
300.397	4590
300.453	2483
300.510	1573
300.566	1966
300.622	3099
300.678	12859
300.734	24045
300.790	20174
300.845	21189
300.901	15032
300.957	22947
301.013	16979
301.069	6511
301.125	4353
301.181	5095
301.237	2452
301.293	1412
301.349	2322
301.405	1049
301.461	1779
301.516	1470
301.572	2565
301.628	5912
301.684	5428
301.740	8335
301.796	12718
301.851	9447
301.907	15300
301.963	13622
302.019	20941
302.074	57209
302.130	57563
302.186	25286
302.242	10628
302.297	6982
302.353	6326
302.409	12575
302.464	11555
302.520	7926
302.576	23205
302.631	26454
302.687	15477
302.743	6505
302.798	3230
302.854	2682
302.910	2964
302.965	4545
303.021	8338
303.076	7138
303.132	10731
303.187	12587
303.243	5892
303.299	3308
303.354	2195
303.410	2292
303.465	1355
303.521	2394
303.576	1294
303.632	2298
303.687	5167
303.743	18879
303.798	15796
303.853	6804
303.909	3443
303.964	2625
304.020	4540
304.075	8122
304.130	8079
304.186	15506
304.241	16764
304.297	12753
304.352	6030
304.358	5806
304.407	3990
304.449	4259
304.463	4354
304.518	3324
304.539	3315
304.573	3288
304.629	2666
304.630	2710
304.684	4802
304.720	11177
304.739	14378
304.794	21188
304.811	18134
304.850	10810
304.902	5409
304.905	5072
304.960	3984
304.992	3700
305.015	3458
305.071	3225
305.083	3078
305.126	2541
305.173	1857
305.181	1753
305.236	1166
305.264	1547
305.292	1911
305.347	3093
305.354	3170
305.402	3673
305.445	3147
305.457	3003
305.512	4663
305.535	4673
305.567	4684
305.622	4225
305.626	4378
305.678	7979
305.716	18333
305.733	22144
305.788	24037
305.807	20720
305.843	15008
305.897	19073
305.898	19113
305.953	17918
305.988	12406
306.008	9456
306.063	6739
306.078	6178
306.118	4670
306.168	2875
306.173	2730
306.228	1832
306.259	1924
306.283	1987
306.338	1534
306.349	1670
306.393	2321
306.440	2424
306.448	2425
306.503	2870
306.530	3452
306.558	4999
306.613	12776
306.620	13752
306.668	18997
306.711	22784
306.723	23203
306.778	17262
306.801	13774
306.833	9675
306.888	3906
306.892	3761
306.943	2801
306.982	2486
306.997	2427
307.052	2103
307.072	2427
307.107	3322
307.162	4721
307.163	4755
307.217	8255
307.253	10323
307.272	10907
307.327	12162
307.343	10921
307.381	7815
307.434	5632
307.436	5741
307.491	13355
307.524	20714
307.546	23111
307.600	21018
307.614	18481
307.655	10897
307.704	5594
307.710	5361
307.765	6332
307.795	8724
307.819	10915
307.874	18747
307.885	18534
307.929	14080
307.975	8847
307.984	8512
308.038	9671
308.065	11733
308.093	19572
308.148	43952
308.156	50361
308.202	83867
308.246	98900
308.257	96734
308.312	54838
308.336	39934
308.366	30616
308.421	19702
308.426	18748
308.475	11777
308.517	8296
308.530	7593
308.585	6567
308.607	6233
308.639	5833
308.694	6147
308.697	6305
308.748	13829
308.787	22126
308.803	22695
308.857	16451
308.877	13755
308.912	11317
308.967	9328
308.967	9337
309.021	12762
309.058	15757
309.076	19117
309.130	32522
309.148	38221
309.185	64310
309.238	113281
309.239	113635
309.293	127424
309.328	117112
309.348	101737
309.402	51302
309.418	38920
309.457	27173
309.508	17215
309.511	16878
309.566	15675
309.598	16199
309.620	19168
309.674	30262
309.688	32917
309.729	31286
309.778	24472
309.783	23812
309.837	16092
309.868	12438
309.892	13809
309.946	19993
309.959	22380
310.001	29935
310.049	35638
310.055	34506
310.109	19856
310.139	11860
310.163	9294
310.218	5910
310.229	5388
310.272	4491
310.319	3892
310.326	3815
310.381	3734
310.409	3666
310.435	3543
310.489	3336
310.499	3292
310.543	3395
310.589	3774
310.598	3791
310.652	3878
310.679	3809
310.706	3529
310.760	2779
310.769	2683
310.814	2464
310.859	2433
310.868	2466
310.923	2411
310.948	2521
310.977	2930
311.031	3699
311.038	3792
311.085	2992
311.128	2148
311.139	2212
311.193	2583
311.218	2778
311.247	2720
311.301	2496
311.308	2476
311.356	2581
311.398	2747
311.410	2766
311.464	2746
311.488	2728
311.518	2676
311.572	2569
311.578	2562
311.626	3472
311.668	4331
311.680	4417
311.734	4614
311.758	4755
311.788	4631
311.842	4307
311.847	4277
311.896	5749
311.937	7081
311.950	6923
312.004	6181
312.027	5839
312.058	4865
312.112	3153
312.117	2989
312.165	2842
312.207	2730
312.297	4672
312.386	4733
312.476	3638
312.566	6569
312.656	2706
312.745	2462
312.835	3380
312.925	3954
313.015	2825
313.104	3478
313.194	3577
313.284	2379
313.374	3123
313.463	2813
313.553	2700
313.643	1952
313.732	2458
313.822	2755
313.912	2476
314.001	3653
314.091	3889
314.180	5447
314.270	4617
314.360	4223
314.449	3741
314.539	2166
314.628	2240
314.718	3837
314.808	3940
314.897	3119
314.987	2878
315.076	3431
315.166	4968
315.255	4595
315.345	4216
315.434	4909
315.524	3878
315.613	4520
315.703	5250
315.792	7164
315.881	15385
315.971	5870
316.060	8109
316.150	12416
316.239	12457
316.328	4045
316.418	1943
316.507	2858
316.597	4236
316.686	3579
316.775	6543
316.865	13238
316.954	3564
317.043	2252
317.133	3588
317.222	3236
317.311	3332
317.400	1698
317.490	4510
317.579	3983
317.668	2606
317.757	4831
317.847	10538
317.936	26443
318.025	11634
318.114	7358
318.203	4700
318.293	8155
318.382	14794
318.471	10874
318.560	16798
318.649	33397
318.738	6164
318.828	4683
318.917	3956
319.006	6102
319.095	17003
319.184	39991
319.273	19899
319.362	10149
319.451	3469
319.540	3364
319.629	7845
319.718	12346
319.807	5586
319.896	14316
319.985	48404
320.074	15285
320.163	4364
320.252	7588
320.341	8361
320.430	6119
320.519	7344
320.608	4074
320.697	4533
320.786	3806
320.875	4558
320.964	5967
321.053	8691
321.142	12542
321.230	12858
321.319	9975
321.408	25089
321.497	10246
321.586	9569
321.675	13292
321.764	11875
321.852	7802
321.941	13171
322.030	7534
322.119	10501
322.207	24253
322.296	20079
322.385	9008
322.474	10619
322.562	30280
322.651	13425
322.740	10523
322.829	16077
322.917	18821
323.006	9928
323.095	6531
323.183	5200
323.272	8489
323.361	17112
323.449	48647
323.538	14457
323.626	36410
323.715	19846
323.804	8862
323.892	33188
323.981	16238
324.069	5004
324.158	19895
324.246	16776
324.335	5842
324.424	8627
324.512	3634
324.601	4658
324.689	10807
324.778	18558
324.866	12177
324.954	3470
325.043	3453
325.131	6988
325.220	15980
325.308	16038
325.397	12390
325.485	6881
325.574	2819
325.662	2574
325.750	2638
325.839	2739
325.927	1991
326.015	3583
326.104	5610
326.192	8425
326.280	2299
326.369	2603
326.457	3937
326.545	6921
326.634	2501
326.722	1775
326.810	2014
326.898	2378
326.987	3366
327.075	6786
327.163	7979
327.251	3972
327.340	7215
327.428	9000
327.516	2232
327.604	2425
327.692	2458
327.781	3397
327.869	6474
327.957	3390
328.045	2388
328.133	2383
328.221	3195
328.309	3360
328.397	2377
328.485	3013
328.574	4557
328.662	15299
328.750	8478
328.838	3768
328.926	2914
329.014	2229
329.102	3742
329.190	11613
329.278	6490
329.366	2010
329.454	1807
329.542	2023
329.630	1907
329.718	2160
329.806	3114
329.893	3619
329.981	2906
330.069	3514
330.157	16478
330.245	45439
330.333	23819
330.421	4761
330.509	4768
330.597	18293
330.684	11432
330.772	3504
330.860	7024
330.948	10094
331.036	3707
331.123	1382
331.211	1528
331.299	2603
331.387	9085
331.475	15320
331.562	3868
331.650	1512
331.738	2678
331.825	4853
331.913	1993
332.001	1769
332.089	3024
332.176	7286
332.264	18436
332.352	12946
332.439	3912
332.527	3171
332.614	2792
332.702	3751
332.790	2566
332.877	7563
332.965	17358
333.052	3917
333.140	3883
333.228	10061
333.315	3024
333.403	2929
333.490	11376
333.578	8736
333.665	11839
333.753	6054
333.840	1892
333.928	3828
334.015	11038
334.103	15692
334.190	51138
334.278	11857
334.365	6657
334.452	4508
334.540	3119
334.627	4222
334.715	4786
334.802	10674
334.889	61700
334.977	57170
335.064	8829
335.151	3206
335.239	3798
335.326	5213
335.413	25432
335.501	32955
335.588	4353
335.675	3441
335.762	4667
335.850	8742
335.937	5325
336.024	15315
336.111	67967
336.199	28386
336.286	5768
336.373	2637
336.460	1959
336.547	2388
336.635	3071
336.722	2742
336.809	1919
336.896	4563
336.983	14018
337.070	38565
337.157	51589
337.245	40055
337.332	27481
337.419	3740
337.506	2267
337.593	2970
337.680	13579
337.767	41576
337.854	10151
337.941	12117
338.028	15150
338.115	4786
338.202	5514
338.289	11139
338.376	39700
338.463	12287
338.550	24697
338.637	24440
338.724	8650
338.811	13243
338.898	3263
338.984	1617
339.071	3313
339.158	3704
339.245	9147
339.332	5406
339.419	9761
339.506	8840
339.593	1096
339.679	2476
339.766	2598
339.853	3407
339.940	6991
340.027	2426
340.113	2728
340.200	2626
340.287	2027
340.374	4186
340.460	5703
340.547	1717
340.634	4516
340.720	17069
340.807	9110
340.894	1836
340.980	2263
341.067	1690
341.154	3491
341.240	3530
341.327	8644
341.414	3372
341.500	2623
341.587	3224
341.674	1591
341.760	6370
341.847	6588
341.933	1825
342.020	1560
342.106	1326
342.193	2872
342.279	4281
342.366	3016
342.452	6007
342.539	2909
342.625	6817
342.712	17590
342.798	7911
342.885	3027
342.971	909
343.058	784
343.144	1212
343.230	1823
343.317	1890
343.403	1646
343.490	1145
343.576	1366
343.662	1162
343.749	2245
343.835	3265
343.921	3701
344.008	27339
344.094	61664
344.180	13586
344.267	5659
344.353	19318
344.439	21575
344.525	8868
344.612	3208
344.698	2075
344.784	1819
344.870	1646
344.957	2108
345.043	2936
345.129	2631
345.215	6405
345.301	3583
345.387	1869
345.474	1273
345.560	1559
345.646	1709
345.732	1984
345.818	1722
345.904	1615
345.990	2344
346.076	2986
346.162	5425
346.249	2695
346.335	1288
346.421	1270
346.507	7507
346.593	27083
346.679	5252
346.765	2289
346.851	2004
346.937	1836
347.023	2064
347.108	2812
347.194	2068
347.280	1767
347.366	1851
347.452	7751
347.538	30541
347.624	24832
347.710	21108
347.796	3061
347.882	2197
347.967	2203
348.053	3087
348.139	1498
348.225	1621
348.311	1198
348.397	1255
348.482	3234
348.568	3219
348.654	1901
348.740	2708
348.825	2049
348.911	4756
348.997	14141
349.083	29175
349.168	4854
349.254	1884
349.340	3258
349.425	1557
349.511	2556
349.597	2856
349.682	5757
349.768	19710
349.854	9680
349.939	2313
350.025	1764
350.110	1105
350.196	1858
350.282	144
350.367	1904
350.453	3420
350.538	3665
350.624	2763
350.709	3295
350.795	1134
350.880	1518
350.966	2553
351.051	3947
351.137	2484
351.222	2158
351.308	6388
351.393	17917
351.479	4345
351.564	1211
351.649	1983
351.735	2029
351.820	1507
351.906	1993
351.991	2594
352.076	11342
352.162	17425
352.247	3564
352.332	2025
352.418	3976
352.503	6008
352.588	26176
352.673	19884
352.759	4338
352.844	1637
352.929	2698
353.014	3403
353.100	2500
353.185	4872
353.270	6286
353.355	6382
353.441	2372
353.526	2425
353.611	5477
353.696	7119
353.781	4883
353.866	970
353.952	2540
354.037	6159
354.122	12803
354.207	11718
354.292	4524
354.377	2097
354.462	2112
354.547	2805
354.632	2905
354.717	4586
354.802	5315
354.887	2028
354.972	1372
355.057	721
355.142	1134
355.227	2515
355.312	2961
355.397	8066
355.482	20598
355.567	8952
355.652	7573
355.737	7718
355.822	21680
355.907	18563
355.991	3608
356.076	807
356.161	1634
356.246	1391
356.331	2063
356.416	4330
356.501	32811
356.585	35363
356.670	4595
356.755	4474
356.840	4531
356.924	23983
357.009	81769
357.094	32422
357.179	6585
357.263	4635
357.348	5330
357.433	4920
357.517	3622
357.602	3609
357.687	2113
357.771	3509
357.856	7875
357.941	5848
358.025	16446
358.110	74384
358.195	35419
358.279	5291
358.364	4923
358.448	14747
358.533	42874
358.617	31652
358.702	30503
358.787	11821
358.871	6178
358.956	5120
359.040	1959
359.125	1561
359.209	2079
359.294	4172
359.378	6494
359.462	4812
359.547	3046
359.631	2896
359.716	1429
359.800	2012
359.885	5052
359.969	1938
360.053	1992
360.138	2328
360.222	3134
360.306	5885
360.391	4892
360.475	7118
360.559	15085
360.644	16046
360.728	11289
360.812	18398
360.896	51261
360.981	23822
361.065	13126
361.149	4066
361.233	3358
361.318	2424
361.402	3347
361.486	3231
361.570	1802
361.654	2931
361.739	7579
361.823	32002
361.907	51973
361.991	8917
362.075	5813
362.159	11298
362.243	9593
362.327	9039
362.411	13757
362.495	7307
362.580	3020
362.664	2072
362.748	2008
362.832	2578
362.916	5037
363.000	19154
363.084	52563
363.168	63347
363.252	14690
363.336	5500
363.420	8367
363.503	32909
363.587	41823
363.671	7549
363.755	4343
363.839	7845
363.923	2538
364.007	6634
364.091	7731
364.175	11857
364.258	55534
364.342	39719
364.426	46402
364.510	24696
364.594	11006
364.677	11161
364.761	42824
364.845	32515
364.929	10792
365.013	8551
365.096	8141
365.180	9312
365.264	13619
365.347	54678
365.431	24932
365.515	6215
365.598	2137
365.682	3397
365.766	5708
365.849	8600
365.933	3569
366.017	6046
366.100	4155
366.184	1701
366.267	3102
366.351	2533
366.435	1584
366.518	1554
366.602	755
366.685	2202
366.769	2586
366.852	5750
366.936	9183
367.019	4315
367.103	3875
367.186	10610
367.270	2755
367.353	279
367.436	2306
367.520	1634
367.603	2908
367.687	2962
367.770	6671
367.853	4761
367.937	12926
368.020	23229
368.104	4707
368.187	5739
368.270	8244
368.353	7385
368.437	10067
368.520	27249
368.603	15703
368.687	16242
368.770	31498
368.853	7970
368.936	8054
369.020	9356
369.103	2707
369.186	1699
369.269	2193
369.352	4828
369.436	6710
369.519	4271
369.602	1240
369.685	3790
369.768	1849
369.851	2823
369.934	1505
370.018	2482
370.101	6024
370.184	6543
370.267	4961
370.350	6964
370.433	9757
370.516	23102
370.599	30136
370.682	8664
370.765	18257
370.848	21663
370.931	37702
371.014	17468
371.097	2772
371.180	3188
371.263	1720
371.346	787
371.429	2609
371.511	1377
371.594	4531
371.677	8260
371.760	10180
371.843	6732
371.926	25406
372.009	60135
372.091	22052
372.174	14309
372.257	32665
372.340	14022
372.423	12333
372.505	16004
372.588	6182
372.671	12110
372.754	35469
372.836	19842
372.919	16808
373.002	36335
373.085	9893
373.167	6286
373.250	15148
373.332	33716
373.415	42779
373.498	83230
373.580	33748
373.663	38598
373.746	55061
373.828	13300
373.911	6987
373.993	7512
374.076	31683
374.159	31947
374.241	11675
374.324	31556
374.406	22763
374.489	24370
374.571	68892
374.654	30669
374.736	14757
374.819	41993
374.901	60480
374.983	63533
375.066	12516
375.148	5172
375.231	25054
375.313	53027
375.395	19405
375.478	3798
375.560	2788
375.643	4229
375.725	13842
375.807	54940
375.890	50930
375.972	24901
376.054	13324
376.136	22324
376.219	9633
376.301	15792
376.383	47637
376.465	19467
376.548	11266
376.630	15054
376.712	42298
376.794	19693
376.877	2602
376.959	1295
377.041	2796
377.123	7282
377.205	9066
377.287	1217
377.369	1924
377.452	1441
377.534	1789
377.616	1643
377.698	1532
377.780	946
377.862	2277
377.944	3021
378.026	1163
378.108	1685
378.190	1378
378.272	2243
378.354	1061
378.436	1536
378.518	3358
378.600	14882
378.682	12625
378.764	21858
378.846	19448
378.928	5541
379.010	6576
379.091	4294
379.173	2537
379.255	1258
379.337	3049
379.419	10230
379.501	31914
379.583	14098
379.664	3903
379.746	7284
379.828	23082
379.910	30493
379.991	27236
380.073	4177
380.155	3513
380.237	2253
380.318	1436
380.400	1672
380.482	5052
380.564	7567
380.645	7143
380.727	7221
380.809	4961
380.890	2289
380.972	1669
381.053	2165
381.135	4076
381.217	7410
381.298	23771
381.380	12946
381.461	9224
381.543	39093
381.624	51559
381.706	9929
381.787	5307
381.869	7238
381.951	17333
382.032	61332
382.113	44574
382.195	9814
382.276	7918
382.358	13652
382.439	35938
382.521	41854
382.602	61715
382.684	31661
382.765	53975
382.846	66823
382.928	94638
383.009	56090
383.090	35647
383.172	124059
383.253	194643
383.334	69111
383.416	59042
383.497	33270
383.578	15471
383.659	30198
383.741	106665
383.822	264140
383.903	146659
383.984	47294
384.066	73997
384.147	48571
384.228	11535
384.309	7333
384.390	6042
384.471	3950
384.553	4816
384.634	7069
384.715	8168
384.796	4210
384.877	4801
384.958	20852
385.039	25224
385.120	8891
385.201	4852
385.282	6048
385.363	6501
385.444	5159
385.525	8802
385.606	27942
385.687	26480
385.768	7220
385.849	7248
385.930	29191
386.011	51314
386.092	14825
386.173	4244
386.254	3404
386.335	4434
386.416	3946
386.496	14025
386.577	23945
386.658	10751
386.739	5167
386.820	6631
386.901	4265
386.981	4581
387.062	2967
387.143	4687
387.224	21784
387.304	22829
387.385	8674
387.466	5242
387.547	7905
387.627	5403
387.708	9782
387.789	36849
387.869	46250
387.950	13308
388.031	2517
388.111	2004
388.192	9987
388.273	15588
388.353	8038
388.434	3998
388.514	7681
388.595	31447
388.676	43615
388.756	23375
388.837	20475
388.917	13297
388.998	2822
389.078	3201
389.159	2608
389.239	1901
389.320	5547
389.400	2618
389.480	9899
389.561	23611
389.641	12804
389.722	4533
389.802	6547
389.883	10611
389.963	26548
390.043	19952
390.124	7241
390.204	8702
390.284	25264
390.365	17430
390.445	22040
390.525	45643
390.605	37297
390.686	13495
390.766	5536
390.846	3671
390.927	1698
391.007	1542
391.087	3903
391.167	3555
391.247	1509
391.328	5357
391.408	8757
391.488	6233
391.568	799
391.648	2936
391.728	5348
391.808	5144
391.888	4809
391.969	12311
392.049	20959
392.129	11458
392.209	10415
392.289	25536
392.369	16166
392.449	16726
392.529	10894
392.609	7179
392.689	8842
392.769	24149
392.849	23603
392.929	18750
393.009	40160
393.089	30537
393.169	26113
393.248	78323
393.328	266915
393.408	303902
393.488	89968
393.568	23752
393.648	12456
393.728	7238
393.807	5912
393.887	5456
393.967	4761
394.047	5678
394.127	5851
394.206	10874
394.286	34217
394.366	140852
394.446	163055
394.525	40056
394.605	9939
394.685	9865
394.764	22378
394.844	36895
394.924	26552
395.003	7168
395.083	4743
395.163	4236
395.242	3508
395.322	4570
395.402	2191
395.481	5393
395.561	13599
395.640	40663
395.720	33106
395.799	42773
395.879	35184
395.958	16698
396.038	50738
396.117	183040
396.197	216030
396.276	70616
396.356	23776
396.435	18165
396.515	12383
396.594	12031
396.673	23808
396.753	83561
396.832	247515
396.912	201985
396.991	51103
397.070	13740
397.150	6472
397.229	6042
397.308	8376
397.388	14477
397.467	8182
397.546	3525
397.625	726
397.705	4125
397.784	4346
397.863	2043
397.942	2217
398.022	2637
398.101	11881
398.180	39482
398.259	21988
398.338	5776
398.417	2420
398.497	2267
398.576	3097
398.655	714
398.734	1777
398.813	2652
398.892	12010
398.971	39684
399.050	21581
399.129	2662
399.208	1795
399.287	2424
399.366	630
399.445	698
399.524	1756
399.603	172
399.682	4317
399.761	12126
399.840	39933
399.919	35404
399.998	4202
400.077	802
400.156	-187
400.235	3514
400.313	1422
400.392	1373
400.471	11953
400.550	19634
400.629	5827
400.708	2418
400.786	2690
400.865	9617
400.944	10046
401.023	5508
401.102	373
401.180	796
401.259	1045
401.338	1519
401.416	2520
401.495	1703
401.574	2290
401.652	942
401.731	3075
401.810	2728
401.888	1142
401.967	133
402.046	1315
402.124	2823
402.203	2608
402.281	2345
402.360	2853
402.438	12738
402.517	8871
402.596	2781
402.674	2743
402.753	1369
402.831	1581
402.910	1643
402.988	8200
403.066	29569
403.145	18329
403.223	9341
403.302	23150
403.380	19677
403.459	17397
403.537	7591
403.615	2735
403.694	105
403.772	1392
403.850	588
403.929	30
404.007	523
404.085	4173
404.164	3919
404.242	929
404.320	2213
404.398	3404
404.477	10329
404.555	49997
404.633	47847
404.711	7164
404.789	1881
404.868	1451
404.946	596
405.024	796
405.102	181
405.180	17
405.258	-1066
405.336	2061
405.415	507
405.493	3924
405.571	3374
405.649	720
405.727	298
405.805	2848
405.883	2234
405.961	3249
406.039	2987
406.117	632
406.195	2247
406.273	11337
406.351	45096
406.429	31266
406.507	5323
406.585	1609
406.663	1583
406.740	2664
406.818	1843
406.896	1446
406.974	2085
407.052	3891
407.130	25465
407.208	38735
407.285	7936
407.363	382
407.441	1545
407.519	659
407.596	1065
407.674	4560
407.752	15486
407.830	18805
407.907	7829
407.985	1427
408.063	1449
408.141	254
408.218	3953
408.296	2776
408.373	546
408.451	1856
408.529	1219
408.606	310
408.684	180
408.762	423
408.839	-202
408.917	-223
408.994	-306
409.072	98
409.149	695
409.227	2102
409.304	3254
409.382	2124
409.459	2374
409.537	4649
409.614	3400
409.692	1994
409.769	1461
409.846	4352
409.924	5919
410.001	1838
410.079	2459
410.156	1538
410.233	1562
410.311	685
410.388	569
410.465	1807
410.543	1383
410.620	1866
410.697	1378
410.775	1273
410.852	-439
410.929	1677
411.006	2565
411.083	1482
411.161	3177
411.238	6208
411.315	2487
411.392	647
411.469	2853
411.547	2147
411.624	-110
411.701	558
411.778	1610
411.855	3092
411.932	1907
412.009	745
412.086	872
412.163	1782
412.240	1121
412.317	2068
412.394	1616
412.471	1277
412.548	378
412.625	1102
412.702	1603
412.779	3628
412.856	2837
412.933	-20
413.010	-156
413.087	1675
413.164	10338
413.241	17193
413.318	3720
413.395	2902
413.471	3046
413.548	2147
413.625	1104
413.702	470
413.779	1617
413.855	46
413.932	-1269
414.009	-173
414.086	243
414.162	501
414.239	2415
414.316	10045
414.393	25397
414.469	8037
414.546	386
414.623	-76
414.699	313
414.776	711
414.853	851
414.929	432
415.006	600
415.082	1387
415.159	742
415.236	460
415.312	885
415.389	1823
415.465	2869
415.542	1205
415.618	138
415.695	2519
415.771	414
415.848	927
415.924	829
416.000	727
416.077	527
416.153	-547
416.230	-1148
416.306	126
416.383	-325
416.459	718
416.535	220
416.612	-400
416.688	442
416.764	285
416.841	-361
416.917	197
416.993	551
417.069	752
417.146	1090
417.222	1407
417.298	1318
417.374	695
417.451	1304
417.527	820
417.603	929
417.679	1084
417.755	1183
417.831	-375
417.908	826
417.984	288
418.060	-811
418.136	2795
418.212	3991
418.288	1644
418.364	1049
418.440	484
418.516	2422
418.592	3178
418.668	5777
418.744	6822
418.820	6126
418.896	1143
418.972	-443
419.048	458
419.124	3696
419.200	1031
419.276	303
419.352	-907
419.428	0
419.504	-365
419.579	887
419.655	826
419.731	403
419.807	4176
419.883	8882
419.959	5694
420.034	2309
420.110	3232
420.186	14513
420.262	12806
420.337	2316
420.413	1275
420.489	483
420.565	949
420.640	508
420.716	935
420.792	-1142
420.867	1031
420.943	54
421.019	2090
421.094	1376
421.170	155
421.245	155
421.321	707
421.397	519
421.472	3282
421.548	8361
421.623	6970
421.699	2576
421.774	2429
421.850	2088
421.925	3606
422.001	3931
422.076	2675
422.152	3894
422.227	5532
422.302	8126
422.378	11155
422.453	21520
422.529	50640
422.604	126552
422.679	189527
422.755	145308
422.830	60448
422.905	24742
422.981	12724
423.056	7839
423.131	5850
423.207	4115
423.282	4258
423.357	6281
423.432	4863
423.508	4261
423.583	7539
423.658	7421
423.733	2628
423.808	2817
423.883	3002
423.959	2072
424.034	2030
424.109	1405
424.184	873
424.259	686
424.334	784
424.409	663
424.484	651
424.559	1032
424.634	977
424.709	812
424.784	2101
424.859	1310
424.934	1870
425.009	10162
425.084	18089
425.159	6468
425.234	1487
425.309	-649
425.384	1772
425.459	1727
425.534	954
425.609	1133
425.683	238
425.758	354
425.833	936
425.908	1339
425.983	5798
426.058	19141
426.132	9752
426.207	1553
426.282	4307
426.357	2756
426.431	1078
426.506	1040
426.581	473
426.655	1038
426.730	588
426.805	-111
426.879	1302
426.954	571
427.029	2987
427.103	16637
427.178	42596
427.253	21468
427.327	2732
427.402	1819
427.476	5872
427.551	2522
427.625	1273
427.700	1444
427.774	-92
427.849	1414
427.923	215
427.998	1151
428.072	1242
428.147	3864
428.221	15880
428.296	46353
428.370	27381
428.444	2963
428.519	4271
428.593	10184
428.667	8923
428.742	9942
428.816	10678
428.890	30684
428.965	49080
429.039	16420
429.113	12041
429.188	4715
429.262	751
429.336	2051
429.410	9191
429.485	6940
429.559	8132
429.633	7352
429.707	1893
429.781	7024
429.855	36532
429.930	56102
430.004	30926
430.078	45346
430.152	41625
430.226	56544
430.300	61655
430.374	10280
430.448	4811
430.522	13368
430.596	41383
430.670	28045
430.744	47086
430.818	73620
430.892	16582
430.966	1751
431.040	1021
431.114	278
431.188	-714
431.262	-196
431.336	488
431.410	4283
431.484	11759
431.557	8198
431.631	797
431.705	1367
431.779	8298
431.853	38527
431.927	31566
432.000	3586
432.074	576
432.148	1106
432.222	828
432.295	649
432.369	183
432.443	2170
432.516	16556
432.590	43920
432.664	19020
432.737	2091
432.811	-422
432.885	-438
432.958	875
433.032	-976
433.106	-448
433.179	-729
433.253	-475
433.326	557
433.400	-787
433.473	115
433.547	-500
433.620	-23
433.694	1246
433.767	2057
433.841	251
433.914	580
433.988	-602
434.061	323
434.134	264
434.208	-928
434.281	-583
434.355	-604
434.428	345
434.501	-333
434.575	-539
434.648	77
434.721	-67
434.795	-299
434.868	-480
434.941	-848
435.014	149
435.088	163
435.161	168
435.234	1619
435.307	2148
435.381	908
435.454	819
435.527	1273
435.600	1486
435.673	1041
435.746	623
435.819	807
435.892	179
435.966	-395
436.039	452
436.112	99
436.185	-350
436.258	-477
436.331	-427
436.404	-623
436.477	-1278
436.550	-516
436.623	-309
436.696	-508
436.769	181
436.842	455
436.915	896
436.987	1041
437.060	191
437.133	-584
437.206	-1181
437.279	947
437.352	19
437.425	356
437.498	9
437.570	2191
437.643	2828
437.716	977
437.789	656
437.861	2432
437.934	7521
438.007	4696
438.080	304
438.152	1228
438.225	2713
438.298	20873
438.370	63166
438.443	30301
438.516	7479
438.588	1685
438.661	-113
438.734	597
438.806	313
438.879	1343
438.951	1278
439.024	4412
439.096	1507
439.169	211
439.241	-751
439.314	89
439.386	2116
439.459	3119
439.531	3857
439.604	1853
439.676	427
439.749	248
439.821	-496
439.893	328
439.966	253
440.038	541
440.110	1673
440.183	516
440.255	-433
440.327	1543
440.400	9667
440.472	42507
440.544	32248
440.617	3870
440.689	3271
440.761	3902
440.833	7716
440.905	4369
440.978	316
441.050	-393
441.122	981
441.194	-216
441.266	331
441.338	54
441.411	1654
441.483	13524
441.555	22722
441.627	5458
441.699	2860
441.771	3280
441.843	829
441.915	209
441.987	114
442.059	145
442.131	1424
442.203	2218
442.275	3293
442.347	3009
442.419	4669
442.491	21497
442.563	58871
442.635	31532
442.706	15099
442.778	12835
442.850	2703
442.922	752
442.994	1639
443.066	2920
443.137	2775
443.209	1607
443.281	3113
443.353	7123
443.425	29918
443.496	100468
443.568	108867
443.640	45821
443.711	8760
443.783	2097
443.855	2279
443.926	1114
443.998	1084
444.070	3383
444.141	877
444.213	2778
444.285	3831
444.356	3065
444.428	2096
444.499	1298
444.571	645
444.642	934
444.714	1224
444.785	3235
444.857	3814
444.928	10325
445.000	7186
445.071	7246
445.143	9725
445.214	5790
445.285	8247
445.357	25097
445.428	67847
445.500	157009
445.571	114310
445.642	60065
445.714	25776
445.785	20709
445.856	6877
445.928	4793
445.999	3697
446.070	2870
446.141	3127
446.213	4071
446.284	1681
446.355	2375
446.426	1913
446.497	1456
446.569	3252
446.640	4885
446.711	3833
446.782	1449
446.853	1652
446.924	2511
446.995	1494
447.066	1987
447.138	4028
447.209	2669
447.280	-226
447.351	158
447.422	81
447.493	1874
447.564	2319
447.635	2608
447.706	1365
447.777	361
447.847	764
447.918	383
447.989	1735
448.060	2788
448.131	6806
448.202	7161
448.273	4604
448.344	2044
448.414	380
448.485	121
448.556	372
448.627	906
448.698	1194
448.768	-186
448.839	698
448.910	2959
448.981	3757
449.051	1677
449.122	642
449.193	472
449.263	398
449.334	1097
449.405	1977
449.475	4553
449.546	4319
449.616	4897
449.687	5142
449.758	1907
449.828	1601
449.899	893
449.969	1044
450.040	1624
450.110	1529
450.181	2187
450.251	938
450.322	1425
450.392	1543
450.463	890
450.533	512
450.604	500
450.674	986
450.744	1196
450.815	1004
450.885	1210
450.955	876
451.026	780
451.096	849
451.166	1885
451.237	5394
451.307	13347
451.377	6797
451.447	904
451.518	506
451.588	876
451.658	1145
451.728	2504
451.799	12419
451.869	18055
451.939	4695
452.009	1369
452.079	364
452.149	1930
452.219	2967
452.289	15411
452.360	15305
452.430	3539
452.500	1671
452.570	2435
452.640	3756
452.710	11302
452.780	19883
452.850	13105
452.920	10509
452.990	4025
453.060	2066
453.129	3178
453.199	5078
453.269	15335
453.339	39012
453.409	62747
453.479	53076
453.549	82975
453.619	93372
453.688	44724
453.758	6903
453.828	1816
453.898	1392
453.968	1263
454.037	1749
454.087	770
454.107	354
454.168	586
454.177	606
454.247	1216
454.249	1238
454.316	1181
454.330	1348
454.386	1727
454.411	3980
454.456	7297
454.492	10592
454.525	13591
454.574	7900
454.595	5483
454.655	2307
454.665	1810
454.734	2560
454.736	2700
454.804	5256
454.817	7345
454.873	14350
454.898	16308
454.943	19888
454.979	13242
455.013	7537
455.060	4616
455.082	3483
455.141	4930
455.152	4975
455.221	11445
455.222	11677
455.291	20354
455.303	18325
455.360	10561
455.384	8815
455.430	5846
455.465	6848
455.499	7217
455.546	12117
455.569	13674
455.627	11548
455.638	11462
455.707	3178
455.708	3184
455.777	1231
455.789	1369
455.846	1928
455.869	1735
455.916	1445
455.950	1973
455.985	2341
456.031	2310
456.054	2347
456.112	1413
456.124	1243
456.193	2474
456.193	2458
456.262	2446
456.274	2668
456.332	3514
456.355	3438
456.401	2802
456.436	2210
456.470	1831
456.516	1565
456.540	1396
456.597	1044
456.609	999
456.678	1573
456.678	1561
456.747	1313
456.759	1312
456.817	1407
456.840	1301
456.886	1129
456.920	1552
456.955	2057
457.001	2108
457.024	2139
457.082	2727
457.093	2862
457.162	4176
457.163	4207
457.232	4690
457.243	4237
457.301	2290
457.324	1925
457.370	1686
457.405	1884
457.439	2173
457.485	2606
457.508	2705
457.566	3038
457.577	3202
457.646	3727
457.647	3762
457.715	6854
457.727	7395
457.784	10895
457.808	13283
457.853	14721
457.889	16539
457.922	17154
457.969	13627
457.991	14173
458.050	16415
458.060	16902
458.129	26612
458.130	26915
458.198	22371
458.211	19809
458.267	13636
458.292	10310
458.336	7776
458.372	7882
458.405	10196
458.453	14458
458.474	17338
458.533	28202
458.543	28567
458.611	39286
458.614	39503
458.680	25374
458.694	20080
458.749	11305
458.775	8406
458.818	4781
458.855	4185
458.887	3958
458.936	3624
458.955	3273
459.016	3300
459.024	3432
459.093	3852
459.097	3912
459.162	4190
459.177	4095
459.230	4479
459.257	4978
459.299	4928
459.338	4733
459.368	4971
459.418	6023
459.437	5872
459.499	4121
459.505	4085
459.574	4079
459.579	4071
459.643	3210
459.659	3216
459.711	4130
459.740	4269
459.780	4006
459.820	4088
459.849	4359
459.900	5081
459.917	5025
459.981	4694
459.986	4702
460.054	4848
460.061	4808
460.123	4716
460.141	4835
460.191	5778
460.222	6425
460.260	6960
460.302	7674
460.328	7233
460.382	6037
460.397	6087
460.462	5372
460.465	5483
460.534	9877
460.543	10317
460.602	19762
460.623	23658
460.671	35682
460.703	46499
460.739	38677
460.783	27226
460.808	24999
460.864	8901
460.876	7336
460.944	4398
460.945	4351
461.013	4263
461.024	4205
461.081	4227
461.104	4414
461.150	4257
461.184	4310
461.218	4608
461.264	4342
461.286	4368
461.345	4449
461.355	4423
461.423	4787
461.425	4787
461.491	5887
461.505	6189
461.559	12572
461.585	15473
461.628	22510
461.665	29818
461.696	30155
461.745	32825
461.764	28887
461.825	10326
461.832	10166
461.901	6001
461.905	6030
461.969	5107
461.985	4871
462.037	5512
462.065	5568
462.105	6824
462.145	8531
462.173	11361
462.225	16668
462.241	17929
462.305	24334
462.310	23569
462.378	11659
462.385	9866
462.446	6268
462.465	5555
462.514	4860
462.545	5040
462.582	5350
462.625	5185
462.650	5067
462.705	5073
462.718	5418
462.785	7257
462.786	7302
462.854	10010
462.865	10469
462.922	11931
462.945	12703
462.990	9584
463.025	6273
463.058	5652
463.104	5104
463.126	4951
463.184	4664
463.194	4781
463.262	5655
463.264	5690
463.330	6047
463.344	6153
463.398	6996
463.424	7185
463.466	6664
463.504	6581
463.533	7017
463.583	7307
463.601	7435
463.663	7862
463.669	8158
463.737	11722
463.743	12048
463.805	18770
463.823	20772
463.873	31079
463.903	37461
463.940	35541
463.982	34444
464.008	27869
464.062	11350
464.076	10786
464.142	6594
464.144	6533
464.211	5881
464.221	5866
464.279	5946
464.301	6039
464.347	7077
464.381	7690
464.414	8664
464.461	10187
464.482	10101
464.540	10038
464.550	9744
464.617	7163
464.620	7060
464.685	9006
464.699	9489
464.753	10403
464.779	10888
464.820	11613
464.859	12281
464.888	12386
464.938	12343
464.956	12431
465.018	12915
465.023	12686
465.091	9355
465.098	8980
465.158	9110
465.177	9201
465.226	9263
465.257	9333
465.293	9764
465.336	10149
465.361	11234
465.416	13753
465.428	15225
465.495	23059
465.496	23186
465.563	37580
465.575	40114
465.631	42683
465.654	43942
465.698	26429
465.734	10847
465.765	10136
465.813	8925
465.833	8638
465.893	8495
465.900	8497
465.968	8705
465.972	8698
466.035	8535
466.052	8480
466.102	8972
466.131	9270
466.170	9207
466.210	9060
466.237	9459
466.290	10261
466.304	10314
466.369	10425
466.372	10490
466.439	12096
466.449	12297
466.506	14418
466.528	15209
466.573	23312
466.607	29322
466.641	40799
466.687	56744
466.708	58935
466.766	64942
466.775	59737
466.842	19777
466.845	17841
466.909	15276
466.925	14751
466.977	13786
467.004	13355
467.044	13334
467.083	13276
467.111	14502
467.163	16765
467.178	16911
467.242	17392
467.245	17330
467.312	15540
467.321	15283
467.379	16109
467.400	16369
467.446	18162
467.480	19411
467.559	14558
467.638	12573
467.717	14082
467.796	15555
467.875	15908
467.955	17530
468.034	31808
468.113	64544
468.192	81583
468.271	17127
468.350	14992
468.429	16729
468.508	17536
468.588	13246
468.667	14235
468.746	14489
468.825	13465
468.904	11773
468.983	16019
469.062	24393
469.141	25417
469.220	10337
469.299	11691
469.378	12311
469.456	14948
469.535	12521
469.614	12838
469.693	14226
469.772	19724
469.851	27382
469.930	15612
470.009	12629
470.088	11779
470.166	14364
470.245	19600
470.324	21098
470.403	15295
470.482	12005
470.560	10842
470.639	12130
470.718	14159
470.797	11668
470.875	16117
470.954	22318
471.033	21181
471.111	9480
471.190	9722
471.269	9472
471.347	9468
471.426	10740
471.505	11718
471.583	12802
471.662	11043
471.740	10609
471.819	10826
471.898	9824
471.976	10218
472.055	10357
472.133	13276
472.212	18099
472.290	17135
472.369	10083
472.447	9815
472.526	8126
472.604	10672
472.683	10095
472.761	10922
472.839	9933
472.918	10553
472.996	11075
473.075	12631
473.153	12478
473.231	10555
473.310	13204
473.388	12160
473.466	10105
473.545	11865
473.623	14241
473.701	13436
473.780	9941
473.858	9637
473.936	11137
474.014	11281
474.093	12375
474.171	20417
474.249	26835
474.327	14380
474.405	8080
474.484	9839
474.562	9083
474.640	9793
474.718	10467
474.796	10377
474.874	9629
474.952	8733
475.030	8387
475.108	10221
475.187	10672
475.265	12384
475.343	15625
475.421	17166
475.499	9748
475.577	10949
475.655	18093
475.733	36361
475.811	57248
475.889	51795
475.966	24198
476.044	11124
476.122	13993
476.200	16437
476.278	11707
476.356	9418
476.434	10848
476.512	13343
476.590	15808
476.667	13273
476.745	8978
476.823	10039
476.901	10847
476.979	10830
477.056	10638
477.134	10663
477.212	10974
477.290	10455
477.367	8259
477.445	9830
477.523	7817
477.601	8751
477.678	9545
477.756	12947
477.834	12728
477.911	8560
477.989	9667
478.066	10420
478.144	10645
478.222	12543
478.299	18914
478.377	14558
478.454	8585
478.532	8192
478.609	8538
478.687	10055
478.764	8345
478.842	8401
478.919	9684
478.997	9084
479.074	8522
479.152	11225
479.229	14962
479.307	7331
479.384	8015
479.461	8463
479.539	9731
479.616	11902
479.694	8344
479.771	11383
479.848	11809
479.926	16383
480.003	15662
480.080	8018
480.157	8046
480.235	8117
480.312	8524
480.389	11717
480.467	18569
480.544	21296
480.621	10857
480.698	11190
480.775	12087
480.853	12022
480.930	9248
481.007	10926
481.084	11980
481.161	13150
481.238	10546
481.315	8140
481.392	8473
481.470	9761
481.547	9723
481.624	9212
481.701	8505
481.778	9592
481.855	11677
481.932	19880
482.009	32960
482.086	15966
482.163	10562
482.240	15199
482.317	24430
482.393	14880
482.470	8777
482.547	10272
482.624	8986
482.701	9610
482.778	8462
482.855	7639
482.932	7200
483.009	7645
483.085	9779
483.162	12260
483.239	11057
483.316	9052
483.393	9714
483.469	8786
483.546	11319
483.623	11378
483.699	8816
483.776	9114
483.853	10790
483.930	22244
484.006	52118
484.083	78405
484.160	29726
484.236	40155
484.313	28648
484.389	23428
484.466	21894
484.543	22058
484.619	21218
484.696	25338
484.772	24994
484.849	26005
484.925	19176
485.002	20434
485.078	20770
485.155	21158
485.231	19343
485.308	18481
485.384	21008
485.461	29300
485.537	48216
485.614	48579
485.690	19062
485.766	19462
485.843	21526
485.919	26736
485.995	24317
486.072	17279
486.148	16109
486.224	17513
486.301	18264
486.377	22635
486.453	20932
486.530	21138
486.606	26742
486.682	29503
486.758	39411
486.835	43615
486.911	36751
486.987	62114
487.063	50934
487.139	54268
487.215	38155
487.292	20626
487.368	19296
487.444	23191
487.520	28641
487.596	29173
487.672	51037
487.748	120122
487.824	141639
487.900	39305
487.976	23075
488.052	24641
488.128	26711
488.204	20483
488.280	18915
488.356	29704
488.432	60939
488.508	77080
488.584	20440
488.660	16622
488.736	15655
488.812	18334
488.888	21961
488.964	30949
489.039	61494
489.115	78917
489.191	37499
489.267	17590
489.343	17004
489.418	14840
489.494	14368
489.570	13239
489.646	14883
489.722	14109
489.797	17872
489.873	32637
489.949	66674
490.024	38288
490.100	13454
490.176	14654
490.251	17142
490.327	21456
490.403	12749
490.478	13237
490.554	11533
490.629	12587
490.705	11672
490.781	14061
490.856	13162
490.932	15461
491.007	13709
491.083	13786
491.158	14534
491.234	24940
491.309	51471
491.385	39114
491.460	13053
491.536	15617
491.611	11743
491.686	15021
491.762	19481
491.837	40629
491.913	62156
491.988	88569
492.063	85499
492.139	31348
492.214	17417
492.289	10503
492.365	10495
492.440	13629
492.515	13489
492.590	13146
492.666	9598
492.741	19041
492.816	26221
492.891	11330
492.967	8661
493.042	8543
493.117	9713
493.192	9037
493.267	10841
493.342	14793
493.418	12918
493.493	9609
493.568	8295
493.643	10285
493.718	14530
493.793	21995
493.868	18496
493.943	12303
494.018	10737
494.093	9195
494.168	10308
494.243	8754
494.318	7703
494.393	8359
494.468	8155
494.543	8265
494.618	10010
494.693	8851
494.768	9031
494.842	10003
494.917	7642
494.992	8665
495.067	7477
495.142	7475
495.217	8380
495.292	9218
495.366	11047
495.441	13829
495.516	18051
495.591	29220
495.665	88888
495.740	163510
495.815	43495
495.890	14586
495.964	10580
496.039	14786
496.114	12379
496.188	14907
496.263	13385
496.338	12953
496.412	14696
496.487	16334
496.561	17225
496.636	15883
496.710	13458
496.785	16274
496.860	18005
496.934	13732
497.009	13188
497.083	14004
497.158	15399
497.232	19926
497.307	22051
497.381	17882
497.455	24613
497.530	28765
497.604	18636
497.679	23278
497.753	37363
497.827	43246
497.902	37411
497.976	52977
498.050	142551
498.125	409814
498.199	283240
498.273	51284
498.348	40696
498.422	33222
498.496	30336
498.570	26591
498.645	22038
498.719	21008
498.793	28425
498.867	44947
498.941	67327
499.016	200024
499.090	402993
499.164	81623
499.238	16004
499.312	16438
499.386	19334
499.460	16869
499.534	16431
499.609	22887
499.683	33761
499.757	36336
499.831	101361
499.905	311088
499.979	187738
500.053	37775
500.127	33480
500.201	21248
500.275	15496
500.349	15311
500.422	18640
500.496	31312
500.570	70245
500.644	186414
500.718	264708
500.792	36345
500.866	16880
500.940	22158
501.013	16063
501.087	18250
501.161	31797
501.235	49624
501.309	127478
501.382	299434
501.456	168532
501.530	53286
501.603	86138
501.677	23259
501.751	13080
501.825	20007
501.898	47983
501.972	117392
502.046	45778
502.119	21471
502.193	57298
502.266	120065
502.340	42150
502.413	63585
502.487	99068
502.561	47059
502.634	13394
502.708	12223
502.781	10279
502.855	9854
502.928	8842
503.002	8822
503.075	8944
503.149	10241
503.222	9626
503.295	11924
503.369	16462
503.442	29908
503.516	104944
503.589	207755
503.662	100373
503.736	42839
503.809	101028
503.882	70614
503.956	123377
504.029	84102
504.102	70707
504.175	73622
504.249	22841
504.322	18754
504.395	13610
504.468	11171
504.542	10553
504.615	8180
504.688	7852
504.761	7412
504.834	10626
504.907	12875
504.980	16657
505.053	9895
505.127	11986
505.200	15734
505.273	16905
505.346	9290
505.419	7655
505.492	7580
505.565	5500
505.638	6543
505.711	5519
505.784	6968
505.857	6279
505.930	9466
506.003	5554
506.076	9761
506.149	13593
506.221	14017
506.294	19225
506.367	57438
506.440	152496
506.513	47450
506.586	15649
506.659	8670
506.731	8153
506.804	11230
506.877	12028
506.950	9469
507.022	8549
507.095	11620
507.168	11416
507.241	8527
507.313	6001
507.386	7695
507.459	10290
507.531	7406
507.604	4994
507.677	7725
507.749	5157
507.822	11264
507.894	17056
507.967	17204
508.040	9531
508.112	9466
508.185	10007
508.257	8239
508.330	12867
508.402	8982
508.475	9382
508.547	9949
508.620	11763
508.692	18193
508.765	10123
508.837	6953
508.909	6839
508.982	6872
509.054	8951
509.127	7466
509.199	6323
509.271	6156
509.344	6077
509.416	6897
509.488	6679
509.560	6446
509.633	6377
509.705	8351
509.777	8959
509.849	12317
509.922	6853
509.994	5820
510.066	6955
510.138	8579
510.210	15773
510.283	12960
510.355	11088
510.427	10813
510.499	9700
510.571	9790
510.643	9418
510.715	15638
510.787	10259
510.859	11884
510.931	12893
511.003	15241
511.076	11689
511.148	7994
511.219	8830
511.291	18865
511.363	16209
511.435	8937
511.507	6934
511.579	8032
511.651	8386
511.723	7713
511.795	6279
511.867	8536
511.939	13861
512.010	27705
512.082	14966
512.154	8573
512.226	8349
512.298	13139
512.369	16647
512.441	14363
512.513	12121
512.585	9519
512.656	12203
512.728	12114
512.800	8609
512.871	10399
512.943	8687
513.015	7540
513.086	8439
513.158	9772
513.230	9799
513.301	15406
513.373	14413
513.444	9319
513.516	7356
513.588	8637
513.659	9788
513.731	11493
513.802	10228
513.874	24890
513.945	30198
514.016	9423
514.088	8834
514.159	9653
514.231	14032
514.302	16338
514.374	12652
514.445	14533
514.516	31405
514.588	17158
514.659	14674
514.730	27854
514.802	16411
514.873	13216
514.944	13787
515.016	13019
515.087	13134
515.158	20345
515.229	24703
515.301	14500
515.372	17047
515.443	10765
515.514	9049
515.585	7400
515.656	8840
515.728	8478
515.799	7065
515.870	9139
515.941	8829
516.012	10112
516.083	13247
516.154	13075
516.225	15647
516.296	14714
516.367	12593
516.438	15983
516.509	21475
516.580	40039
516.651	130864
516.722	320445
516.793	83838
516.864	25305
516.935	25502
517.006	33065
517.077	52617
517.148	135150
517.219	430901
517.289	442402
517.360	160633
517.431	38924
517.502	15103
517.573	16010
517.643	14660
517.714	16105
517.785	16853
517.856	18006
517.926	19514
517.997	23279
518.068	27653
518.138	43313
518.209	89211
518.280	320201
518.350	770073
518.421	174580
518.492	28561
518.562	22346
518.633	23012
518.703	24279
518.774	48866
518.845	106284
518.915	74347
518.986	26500
519.056	24863
519.127	40480
519.197	69630
519.268	163539
519.338	66183
519.408	20505
519.479	22007
519.549	14365
519.620	11535
519.690	9358
519.760	9982
519.831	10627
519.901	10102
519.971	9976
520.042	10420
520.112	13114
520.182	13066
520.253	13951
520.323	10450
520.393	12065
520.463	15250
520.534	11287
520.604	19675
520.674	13230
520.744	15264
520.814	23319
520.885	27387
520.955	69188
521.025	179818
521.095	39639
521.165	10802
521.235	10458
521.305	9639
521.375	9535
521.445	10798
521.515	12861
521.585	15099
521.655	11349
521.725	12200
521.795	11320
521.865	8434
521.935	18538
522.005	11785
522.075	8428
522.145	9546
522.215	11999
522.285	18123
522.355	27259
522.424	49375
522.494	31027
522.564	17751
522.634	37545
522.704	76708
522.774	20693
522.843	8038
522.913	9680
522.983	11006
523.053	9319
523.122	10944
523.192	16406
523.262	47565
523.331	29454
523.401	9165
523.471	7701
523.540	7331
523.610	6351
523.680	7056
523.749	7759
523.819	11463
523.888	9638
523.958	6676
524.027	8883
524.097	8586
524.166	8443
524.236	8055
524.305	9701
524.375	7633
524.444	6807
524.514	10041
524.583	8926
524.653	10956
524.722	13159
524.791	6716
524.861	9233
524.930	6107
524.999	7557
525.069	11719
525.138	11659
525.207	11827
525.277	8573
525.346	9468
525.415	9131
525.484	8353
525.554	10779
525.623	10788
525.692	9956
525.761	10200
525.830	11588
525.900	13508
525.969	24285
526.038	37748
526.107	84762
526.176	190573
526.245	113923
526.314	50554
526.383	115558
526.452	125264
526.522	244406
526.591	159380
526.660	42609
526.729	25946
526.797	38015
526.867	93383
526.935	306681
527.004	465596
527.073	159604
527.142	17201
527.211	11294
527.280	11709
527.349	9929
527.418	6146
527.487	8608
527.555	6186
527.624	6221
527.693	4868
527.762	7714
527.831	5400
527.899	7174
527.968	6497
528.037	5513
528.106	9692
528.174	15324
528.243	13108
528.312	21024
528.380	19530
528.449	6686
528.518	6129
528.586	4562
528.655	6372
528.723	5557
528.792	5207
528.861	6149
528.929	4680
528.998	7026
529.066	4187
529.135	5572
529.203	4344
529.272	4563
529.340	6421
529.409	7875
529.477	5883
529.545	8978
529.614	9964
529.682	11410
529.751	10611
529.819	13839
529.887	7310
529.956	5883
530.024	6791
530.092	5679
530.161	8974
530.229	10115
530.297	5377
530.365	6332
530.434	5371
530.502	4920
530.570	5234
530.638	3977
530.707	6486
530.775	7161
530.843	5003
530.911	6182
530.979	6606
531.047	4784
531.115	6523
531.183	6196
531.252	6135
531.320	6092
531.388	4526
531.456	6483
531.524	2996
531.592	6596
531.660	7099
531.728	5639
531.796	5242
531.864	5789
531.932	6608
532.000	5696
532.067	5738
532.135	6903
532.203	8712
532.271	7744
532.339	15614
532.407	32235
532.475	13917
532.542	10550
532.610	13191
532.678	21157
532.746	84145
532.814	128568
532.881	23262
532.949	8239
533.017	7228
533.084	6335
533.152	6492
533.220	6432
533.287	6354
533.355	6501
533.423	6463
533.490	5399
533.558	5423
533.625	7172
533.693	6424
533.761	7549
533.828	7723
533.896	6784
533.963	14681
534.031	15901
534.098	20734
534.166	9879
534.233	5969
534.300	7330
534.368	7829
534.435	6693
534.503	7142
534.570	8236
534.637	8217
534.705	9855
534.772	13245
534.840	27570
534.907	100761
534.974	77828
535.041	11856
535.109	10668
535.176	6803
535.243	7237
535.310	7083
535.378	6463
535.445	5554
535.512	5893
535.579	5918
535.646	5759
535.714	6454
535.781	7923
535.848	7722
535.915	7451
535.982	6268
536.049	7604
536.116	8108
536.183	7524
536.250	6895
536.317	6994
536.384	9442
536.451	12862
536.518	11662
536.585	8180
536.652	12791
536.719	15590
536.786	10537
536.853	10829
536.920	16601
536.987	23599
537.053	26091
537.120	85992
537.187	44273
537.254	7962
537.321	7279
537.388	8188
537.454	6507
537.521	6759
537.588	6433
537.654	9257
537.721	8399
537.788	8653
537.855	7274
537.921	8060
537.988	6948
538.055	8173
538.121	7133
538.188	9131
538.254	13103
538.321	20599
538.388	10433
538.454	8741
538.521	8044
538.587	6692
538.654	7160
538.720	7216
538.787	7123
538.853	9132
538.920	9375
538.986	10799
539.053	8331
539.119	8733
539.185	7794
539.252	10737
539.318	12563
539.385	11998
539.451	8841
539.517	11018
539.583	14397
539.650	31136
539.716	51896
539.782	12811
539.849	7980
539.915	9453
539.981	8459
540.047	8632
540.114	8095
540.180	9943
540.246	8149
540.312	13589
540.378	21765
540.444	21009
540.510	31779
540.576	59041
540.643	14297
540.709	6599
540.775	7568
540.841	8617
540.907	11836
540.973	16238
541.039	12809
541.105	12940
541.171	7972
541.237	8253
541.303	9248
541.369	11078
541.435	13104
541.500	19187
541.566	9196
541.632	7581
541.698	6591
541.764	7839
541.830	7808
541.896	6433
541.961	8156
542.027	7609
542.093	8024
542.159	8789
542.224	8661
542.290	14505
542.356	20575
542.421	18875
542.487	10014
542.553	8555
542.618	9250
542.684	8503
542.750	9116
542.815	13565
542.881	22293
542.947	60640
543.012	28340
543.078	8238
543.143	6664
543.209	10314
543.274	8881
543.340	12673
543.405	25403
543.471	28054
543.536	9223
543.602	8088
543.667	6668
543.732	8842
543.798	6176
543.863	7889
543.928	6461
543.994	6851
544.059	7601
544.124	8418
544.190	7107
544.255	8872
544.320	8164
544.386	7835
544.451	12475
544.516	13902
544.581	15960
544.646	42963
544.712	42841
544.777	10446
544.842	11927
544.907	11926
544.972	9770
545.037	10550
545.102	11056
545.168	11138
545.233	12296
545.298	13224
545.363	15321
545.428	16624
545.493	28698
545.558	43478
545.623	16334
545.688	11536
545.753	10688
545.818	10645
545.883	11787
545.947	11591
546.012	13007
546.077	12275
546.142	13147
546.207	12105
546.272	14736
546.337	14770
546.401	13132
546.466	12848
546.531	12242
546.596	14773
546.661	13504
546.725	14315
546.790	12353
546.855	14401
546.919	14146
546.984	16582
547.049	17536
547.113	21055
547.178	19284
547.243	23002
547.307	25093
547.372	29430
547.436	29626
547.501	26665
547.565	26896
547.630	28975
547.695	28109
547.759	31144
547.823	27295
547.888	25655
547.952	26448
548.017	27826
548.081	32182
548.146	36076
548.210	31396
548.274	28122
548.339	27147
548.403	25714
548.468	23161
548.532	24092
548.596	24312
548.660	24741
548.725	29132
548.789	32421
548.853	31032
548.917	29187
548.982	34860
549.046	28494
549.110	22950
549.174	22985
549.238	25682
549.303	26587
549.367	29134
549.431	27134
549.495	25167
549.559	26107
549.623	30964
549.687	34337
549.751	37847
549.815	38779
549.879	36913
549.943	34562
550.007	37282
550.071	37611
550.135	36904
550.199	31964
550.263	32191
550.327	34972
550.391	37643
550.455	34093
550.519	35853
550.582	39310
550.646	46962
550.710	44752
550.774	41135
550.838	41665
550.901	43856
550.965	46722
551.029	48374
551.093	55679
551.156	66292
551.220	96652
551.284	91478
551.347	63646
551.411	89437
551.475	74197
551.538	44576
551.602	40943
551.666	39342
551.729	35759
551.793	36037
551.856	35575
551.920	34645
551.983	35154
552.047	34899
552.110	36208
552.174	34701
552.237	35520
552.301	32496
552.364	32488
552.428	31819
552.491	32670
552.554	33276
552.618	34719
552.681	35589
552.745	36059
552.808	46403
552.871	49520
552.934	37388
552.998	33451
553.061	34385
553.124	31836
553.187	31608
553.251	32954
553.314	32854
553.377	32694
553.440	35340
553.503	37910
553.567	37783
553.630	35026
553.693	33520
553.756	34580
553.819	32785
553.882	32437
553.945	32046
554.008	32477
554.071	32301
554.134	33204
554.197	29918
554.260	31744
554.323	32025
554.386	32765
554.449	32463
554.512	32687
554.575	31003
554.638	31560
554.701	29650
554.764	30555
554.827	29486
554.889	27911
554.952	27139
555.015	27527
555.078	27604
555.141	27798
555.203	27035
555.266	27516
555.329	25784
555.391	25503
555.454	25472
555.517	25539
555.580	23067
555.642	23832
555.705	22327
555.768	23158
555.830	22235
555.893	21355
555.955	21104
556.018	21414
556.080	21219
556.143	21613
556.206	21388
556.268	22518
556.330	21796
556.393	21384
556.455	21753
556.518	27162
556.580	23434
556.643	18989
556.705	17884
556.767	18447
556.830	19922
556.892	21184
556.955	23580
557.017	20275
557.079	17364
557.142	18428
557.204	19997
557.266	28989
557.328	21162
557.391	16162
557.453	15550
557.515	15800
557.577	18022
557.639	17644
557.701	16209
557.764	15147
557.826	15821
557.888	18915
557.950	18724
558.012	22659
558.074	31176
558.136	69790
558.198	114867
558.260	33011
558.322	17865
558.384	19214
558.446	21312
558.508	25613
558.570	31866
558.632	50450
558.694	69542
558.756	105140
558.818	299095
558.880	482369
558.942	121326
559.003	124367
559.065	43571
559.127	25316
559.189	28175
559.251	38119
559.312	61481
559.374	150387
559.436	358667
559.498	105747
559.559	25640
559.621	28508
559.683	40679
559.744	72432
559.806	210527
559.868	199529
559.929	35152
559.991	34127
560.052	58023
560.114	129525
560.176	63687
560.237	84832
560.299	94552
560.360	19647
560.422	13900
560.483	13755
560.545	13384
560.606	12745
560.667	12635
560.729	12123
560.790	11444
560.852	12131
560.913	11433
560.974	12118
561.036	11632
561.097	12015
561.158	10757
561.220	12491
561.281	12624
561.342	13181
561.403	14608
561.465	17752
561.526	34620
561.587	33108
561.648	12969
561.709	11621
561.771	11802
561.832	10496
561.893	10425
561.954	10892
562.015	10736
562.076	11118
562.137	11049
562.198	10843
562.259	11304
562.320	11319
562.381	12785
562.442	15993
562.503	12919
562.564	11358
562.625	11227
562.686	11283
562.747	12095
562.808	11467
562.869	11961
562.930	14641
562.991	12587
563.051	12636
563.112	11454
563.173	11664
563.234	10622
563.294	11335
563.355	11134
563.416	12118
563.477	11491
563.537	10740
563.598	12946
563.659	11831
563.720	11408
563.780	12564
563.841	12018
563.901	11320
563.962	10978
564.023	13091
564.083	11953
564.144	13013
564.204	11608
564.265	13253
564.325	15300
564.386	27158
564.446	18573
564.507	11178
564.567	10778
564.628	11092
564.688	10784
564.749	10687
564.809	14012
564.869	15557
564.930	11004
564.990	11667
565.050	10626
565.111	11163
565.171	11139
565.231	11603
565.292	11652
565.352	10468
565.412	11851
565.472	11362
565.532	11103
565.593	10833
565.653	11407
565.713	12773
565.773	12108
565.833	13097
565.893	15410
565.953	12352
566.013	11914
566.074	14356
566.134	17678
566.194	25800
566.254	22331
566.314	16168
566.374	12093
566.434	13418
566.494	13050
566.554	12326
566.614	13303
566.673	13726
566.733	15156
566.793	16267
566.853	14789
566.913	15797
566.973	15913
567.033	17459
567.092	16327
567.152	15993
567.212	16971
567.272	16551
567.331	17535
567.391	18517
567.451	20060
567.511	24821
567.570	21871
567.630	16747
567.690	16547
567.749	16606
567.809	16634
567.868	19668
567.928	20947
567.988	25907
568.047	28992
568.107	35543
568.166	48561
568.226	76494
568.285	91452
568.345	71691
568.404	55994
568.464	49083
568.523	46870
568.582	49831
568.642	59102
568.701	77291
568.761	113541
568.820	163443
568.879	138404
568.939	100888
568.998	71332
569.057	55610
569.116	44397
569.176	36826
569.235	31407
569.294	28184
569.353	24820
569.413	22943
569.472	21732
569.531	19167
569.590	18325
569.649	17481
569.708	15548
569.767	17064
569.827	18181
569.886	15390
569.945	13383
570.004	14556
570.063	14274
570.122	14544
570.181	15607
570.240	16364
570.299	15253
570.358	15505
570.417	12541
570.475	12033
570.534	12821
570.593	13038
570.652	13570
570.711	13825
570.770	11780
570.829	13970
570.887	13162
570.946	13492
571.005	12071
571.064	11706
571.122	13144
571.181	14035
571.240	11519
571.299	11748
571.357	12594
571.416	13256
571.475	13887
571.533	14361
571.592	11559
571.650	12623
571.709	11397
571.768	10249
571.826	11728
571.885	10532
571.943	10245
572.002	11005
572.060	11420
572.119	10323
572.177	10381
572.236	10877
572.294	10405
572.352	9913
572.411	9422
572.469	10059
572.528	9319
572.586	10287
572.644	12487
572.703	14040
572.761	10407
572.819	11224
572.877	9859
572.936	9933
572.994	8866
573.052	9325
573.110	10063
573.169	9596
573.227	8614
573.285	9932
573.343	9488
573.401	9927
573.459	9322
573.517	10438
573.576	9674
573.634	9567
573.692	10255
573.750	10395
573.808	9532
573.866	11742
573.924	12634
573.982	12374
574.040	9878
574.098	9800
574.155	8643
574.213	9963
574.271	9396
574.329	8929
574.387	8996
574.445	9065
574.503	8379
574.560	8220
574.618	8400
574.676	8568
574.734	8550
574.792	9507
574.849	7853
574.907	8740
574.965	8575
575.022	8872
575.080	7959
575.138	8890
575.195	9171
575.253	9183
575.311	9166
575.368	8743
575.426	8703
575.483	9380
575.541	8904
575.598	8101
575.656	8513
575.713	9142
575.771	8682
575.828	8491
575.886	8385
575.943	10482
576.001	8884
576.058	9744
576.115	10277
576.173	12707
576.230	11984
576.287	13296
576.345	9977
576.402	9542
576.459	10695
576.517	9907
576.574	10730
576.631	11313
576.688	9828
576.746	9669
576.803	9575
576.860	9179
576.917	9973
576.974	9399
577.031	9921
577.089	9809
577.146	9857
577.203	10343
577.260	10919
577.317	11484
577.374	11577
577.431	11158
577.488	9404
577.545	8948
577.602	9170
577.659	9497
577.716	9463
577.773	9511
577.830	9356
577.886	9817
577.943	8645
578.000	9602
578.057	9740
578.114	9806
578.171	8364
578.227	9011
578.284	8626
578.341	10333
578.398	9074
578.454	11523
578.511	11864
578.568	13452
578.625	9960
578.681	9522
578.738	9300
578.794	10012
578.851	10004
578.908	9606
578.964	10331
579.021	10836
579.077	9065
579.134	8815
579.190	9816
579.247	9235
579.303	8963
579.360	9286
579.416	9334
579.473	8590
579.529	9268
579.586	10692
579.642	8435
579.698	9722
579.755	9557
579.811	10201
579.867	10307
579.924	9321
579.980	9256
580.036	10031
580.093	9508
580.149	10039
580.205	9575
580.261	11391
580.317	10743
580.374	11973
580.430	12066
580.486	12569
580.542	11314
580.598	10867
580.619	10588
580.654	10110
580.692	10588
580.710	10843
580.765	9716
580.767	9688
580.823	10767
580.838	10687
580.879	10507
580.911	10418
580.935	10358
580.984	10366
580.991	10382
581.047	10596
581.057	10661
581.103	10959
581.130	11097
581.159	11287
581.203	10988
581.215	10902
581.270	11661
581.276	11674
581.326	11913
581.349	11979
581.382	12086
581.422	11742
581.438	11618
581.494	11168
581.494	11160
581.550	10779
581.567	11172
581.606	12078
581.640	11539
581.661	11243
581.713	11623
581.717	11652
581.773	12043
581.786	11948
581.829	11684
581.859	11695
581.885	11733
581.932	11826
581.940	11839
581.996	11381
582.004	11512
582.052	12185
582.077	11619
582.107	10989
582.150	12147
582.163	12519
582.219	11298
582.223	11347
582.274	11981
582.296	12031
582.330	12102
582.368	12292
582.386	12398
582.441	12084
582.441	12085
582.497	11336
582.514	11261
582.552	11295
582.587	11700
582.608	11913
582.659	11707
582.663	11687
582.719	12351
582.732	12295
582.774	12163
582.805	12161
582.830	12165
582.877	12292
582.885	12297
582.941	12560
582.950	12534
582.996	12554
583.023	12867
583.052	13282
583.095	12774
583.107	12605
583.162	13449
583.168	13414
583.218	13011
583.240	13187
583.273	13419
583.313	12837
583.328	12649
583.384	12774
583.385	12782
583.439	12978
583.458	13124
583.494	13297
583.531	12663
583.549	12502
583.603	13189
583.605	13193
583.660	13613
583.676	13576
583.715	13592
583.748	13073
583.770	12747
583.820	13614
583.825	13708
583.881	13308
583.893	13435
583.936	13952
583.965	14116
583.991	14150
584.038	14294
584.046	14313
584.101	14225
584.110	14130
584.156	13801
584.183	14128
584.211	14414
584.255	14626
584.266	14693
584.321	14494
584.328	14527
584.376	14826
584.400	14935
584.431	15077
584.472	15002
584.486	14953
584.541	15478
584.545	15494
584.596	15933
584.617	16094
584.651	16467
584.689	16828
584.706	16864
584.761	16236
584.762	16240
584.816	16989
584.834	16952
584.871	16961
584.906	17505
584.926	17787
584.978	17446
584.980	17441
585.035	19035
585.051	18982
585.090	18835
585.123	19712
585.145	20407
585.195	21186
585.200	21272
585.254	22807
585.267	23198
585.309	24295
585.340	25351
585.364	26349
585.412	28160
585.419	28433
585.473	33573
585.484	34702
585.528	40729
585.556	46879
585.583	57376
585.628	80104
585.637	88466
585.692	171047
585.700	181504
585.747	216774
585.772	182849
585.801	111558
585.845	48735
585.856	42045
585.910	30009
585.917	28738
585.965	26484
585.989	26101
586.019	26112
586.061	25470
586.074	25387
586.128	26214
586.133	26231
586.183	26884
586.205	27233
586.237	27588
586.277	27993
586.292	28187
586.346	28493
586.349	28528
586.401	28985
586.421	29486
586.455	30784
586.493	32244
586.509	33724
586.564	39148
586.565	39392
586.618	52650
586.637	52568
586.672	44996
586.709	38894
586.727	37323
586.781	36033
586.781	36043
586.835	34475
586.853	34437
586.889	34931
586.925	34941
586.944	35096
586.996	36647
586.998	36708
587.052	38389
587.068	38601
587.106	39171
587.140	39854
587.161	40240
587.212	41863
587.215	41989
587.269	43890
587.284	44500
587.323	45604
587.356	45979
587.377	46704
587.427	49676
587.431	49867
587.485	51302
587.499	51933
587.539	54536
587.571	56279
587.593	57473
587.643	60516
587.648	60822
587.702	63289
587.715	64277
587.755	68090
587.786	70614
587.810	72648
587.858	77125
587.864	77852
587.917	84823
587.930	86749
587.971	93505
588.001	98143
588.025	102068
588.073	110428
588.079	111692
588.133	122745
588.145	125472
588.187	137077
588.217	145491
588.241	153637
588.288	170917
588.295	173533
588.348	197273
588.360	202483
588.402	227112
588.431	246060
588.456	264768
588.503	302189
588.510	309095
588.564	371263
588.575	385054
588.617	454075
588.646	503716
588.671	562484
588.718	682053
588.725	706896
588.778	905312
588.789	945481
588.832	1098515
588.861	1192406
588.886	1179555
588.932	1077589
588.939	1060380
588.993	942483
589.004	940387
589.047	1153231
589.075	1241796
589.100	1175460
589.147	1018857
589.154	993930
589.207	804894
589.218	768587
589.261	708919
589.290	675871
589.314	689983
589.361	727950
589.368	745396
589.421	899639
589.433	933458
589.475	1067789
589.504	1139202
589.528	1103074
589.576	991459
589.582	995538
589.635	1092964
589.647	1097794
589.689	946138
589.718	828244
589.742	722024
589.790	520039
589.795	507156
589.849	390910
589.861	365270
589.902	315166
589.932	277606
589.955	256120
590.004	213231
590.009	210599
590.062	182128
590.075	175347
590.115	160344
590.146	148422
590.168	142333
590.218	129697
590.222	128995
590.275	118059
590.289	115287
590.328	109621
590.360	104935
590.381	101880
590.431	94257
590.435	94034
590.488	89047
590.503	87632
590.541	84619
590.574	81722
590.594	79798
590.645	74922
590.647	74860
590.700	71191
590.716	69984
590.753	68575
590.787	67130
590.806	66195
590.859	63745
590.859	63778
590.912	61049
590.930	60238
590.965	59254
591.001	57952
591.018	57414
591.071	55854
591.072	55770
591.124	54366
591.143	53853
591.177	53347
591.214	52572
591.230	52528
591.283	52321
591.285	52242
591.336	51577
591.356	51194
591.389	50738
591.427	49934
591.442	49419
591.495	47424
591.498	47204
591.547	46123
591.569	45655
591.600	45032
591.640	43920
591.653	44085
591.706	44548
591.711	44551
591.759	44643
591.782	44622
591.811	45379
591.853	46289
591.864	45961
591.917	43854
591.924	43503
591.969	42828
591.995	42338
592.022	42088
592.066	41559
592.075	41871
592.127	43478
592.137	43732
592.180	45848
592.208	47003
592.233	45050
592.279	41155
592.285	41203
592.338	41192
592.350	41110
592.390	40375
592.421	39746
592.443	39848
592.491	39870
592.495	39906
592.548	39550
592.562	39397
592.600	39101
592.633	38729
592.653	38229
592.704	36586
592.705	36805
592.775	37297
592.846	38812
592.916	37544
592.987	37916
593.058	37631
593.128	35645
593.199	38018
593.270	36322
593.341	35077
593.411	35556
593.482	35682
593.553	36271
593.623	35569
593.694	36134
593.764	37446
593.835	36333
593.906	35106
593.976	35519
594.047	36816
594.117	39675
594.188	40088
594.258	34770
594.329	35381
594.399	36554
594.470	36968
594.540	36669
594.611	35836
594.681	36407
594.751	35679
594.822	37757
594.892	37983
594.963	38986
595.033	39391
595.103	38916
595.174	41084
595.244	48432
595.314	54914
595.384	41518
595.455	40183
595.525	41171
595.595	42006
595.665	41821
595.736	41122
595.806	41674
595.876	40715
595.946	42060
596.016	42269
596.087	42982
596.157	43489
596.227	43685
596.297	45405
596.367	46763
596.437	49703
596.507	54551
596.577	59679
596.647	50517
596.717	49547
596.787	50761
596.857	50453
596.927	50290
596.997	50526
597.067	50015
597.137	52293
597.207	51236
597.277	52030
597.347	51072
597.417	48533
597.487	49434
597.557	51820
597.626	50973
597.696	53596
597.766	56814
597.836	60122
597.906	50606
597.975	46797
598.045	46848
598.115	47643
598.185	50734
598.254	55501
598.324	58206
598.394	58957
598.464	58113
598.533	57006
598.603	54130
598.672	52724
598.742	54540
598.812	52794
598.881	55015
598.951	54476
599.020	53750
599.090	54587
599.159	56268
599.229	55389
599.299	53058
599.368	53444
599.437	53750
599.507	51454
599.576	50036
599.646	50632
599.715	49633
599.785	49304
599.854	48233
599.924	50650
599.993	48734
600.062	48433
600.132	48995
600.201	51262
600.270	58896
600.340	59543
600.409	59065
600.478	57837
600.547	58528
600.617	54923
600.686	46274
600.755	43814
600.824	42751
600.894	41159
600.963	40875
601.032	40663
601.101	41006
601.170	40295
601.239	39151
601.308	40919
601.378	39655
601.447	39696
601.516	39194
601.585	40187
601.654	42471
601.723	41293
601.792	41663
601.861	42849
601.930	45209
601.999	45952
602.068	44313
602.137	45197
602.206	45153
602.275	45249
602.343	47222
602.412	47070
602.481	44905
602.550	44911
602.619	45841
602.688	47105
602.756	47220
602.825	46512
602.894	46948
602.963	48326
603.032	49329
603.100	48877
603.169	48353
603.238	50034
603.307	48486
603.375	48945
603.444	50050
603.513	49818
603.581	49584
603.650	51589
603.719	49435
603.787	49731
603.856	50457
603.924	52644
603.993	53866
604.061	54296
604.130	56631
604.198	57143
604.267	58227
604.335	57160
604.404	60197
604.472	59463
604.541	61137
604.609	62600
604.678	61015
604.746	61384
604.815	64305
604.883	64377
604.951	64768
605.020	64539
605.088	65845
605.156	66466
605.225	67297
605.293	66980
605.361	67606
605.429	67108
605.498	69091
605.566	70356
605.634	72807
605.702	75768
605.771	75963
605.839	77910
605.907	74642
605.975	73853
606.043	71059
606.111	72482
606.180	72362
606.248	71168
606.316	70363
606.384	72123
606.452	73880
606.520	74457
606.588	74060
606.656	71587
606.724	69944
606.792	67884
606.860	60596
606.928	55094
606.996	54275
607.064	53463
607.132	54097
607.200	58024
607.267	60637
607.335	59150
607.403	61916
607.471	59137
607.539	58343
607.607	58933
607.674	51599
607.742	53540
607.810	53737
607.878	52784
607.946	52956
608.013	55557
608.081	57339
608.149	58554
608.216	58819
608.284	60805
608.352	60051
608.419	60307
608.487	64801
608.555	59218
608.622	59403
608.690	62184
608.757	68346
608.825	68818
608.893	69422
608.960	67991
609.028	67401
609.095	68564
609.163	62602
609.230	56070
609.298	52578
609.365	52686
609.432	58250
609.500	63725
609.567	70315
609.635	80901
609.702	84024
609.769	82065
609.837	67203
609.904	58421
609.971	59566
610.039	69368
610.106	90430
610.173	171760
610.241	394838
610.308	297258
610.375	143140
610.442	71692
610.509	60423
610.577	60121
610.644	59117
610.711	60628
610.778	62716
610.845	63367
610.912	67632
610.980	69194
611.047	70477
611.114	69470
611.181	66279
611.248	64615
611.315	70428
611.382	70400
611.449	72781
611.516	75200
611.583	72953
611.650	73457
611.717	74096
611.784	76147
611.851	81474
611.918	88095
611.984	103223
612.051	146004
612.118	295933
612.185	705322
612.252	456821
612.319	122731
612.386	98060
612.452	88953
612.519	85930
612.586	88661
612.653	86509
612.719	86063
612.786	81792
612.853	76176
612.919	74574
612.986	77415
613.053	72319
613.120	66873
613.186	65872
613.253	67733
613.319	66119
613.386	65784
613.453	66288
613.519	69427
613.586	71820
613.652	79722
613.719	72559
613.785	70241
613.852	67684
613.918	67453
613.985	68355
614.051	71102
614.118	70546
614.184	67732
614.250	66697
614.317	67728
614.383	67447
614.449	68830
614.516	68361
614.582	70300
614.648	68523
614.715	67213
614.781	66620
614.847	67121
614.914	66523
614.980	65615
615.046	64498
615.112	66905
615.179	68248
615.245	70424
615.311	76466
615.377	93101
615.443	96932
615.509	79577
615.575	75133
615.642	72668
615.708	76119
615.774	81039
615.840	87165
615.906	98712
615.972	132593
616.038	221574
616.104	405881
616.170	841719
616.236	715406
616.302	181833
616.368	129726
616.434	94704
616.500	88277
616.565	95995
616.631	115599
616.697	98319
616.763	101877
616.829	143632
616.895	247582
616.961	237034
617.026	107476
617.092	76093
617.158	73078
617.224	70449
617.289	68131
617.355	64184
617.421	63076
617.487	64128
617.552	60273
617.618	59115
617.684	59812
617.749	60739
617.815	57135
617.880	56375
617.946	56310
618.012	58322
618.077	59009
618.143	56031
618.208	57710
618.274	60604
618.339	62619
618.405	51622
618.470	53334
618.536	52486
618.601	54406
618.667	50778
618.732	46390
618.798	47649
618.863	46549
618.928	46168
618.994	47127
619.059	48400
619.124	54658
619.190	49631
619.255	46650
619.320	44970
619.386	46571
619.451	44774
619.516	44860
619.581	44230
619.647	46700
619.712	45982
619.777	44762
619.842	45299
619.907	46826
619.972	46878
620.038	46826
620.103	45125
620.168	44164
620.233	44974
620.298	44807
620.363	45507
620.428	46640
620.493	46686
620.558	48140
620.623	48227
620.688	47718
620.753	48039
620.818	47720
620.883	49047
620.948	49044
621.013	48972
621.078	48148
621.143	47333
621.207	51650
621.272	49694
621.337	49604
621.402	50593
621.467	54537
621.532	54570
621.596	51918
621.661	48619
621.726	46692
621.791	47828
621.855	48828
621.920	48498
621.985	49593
622.049	51798
622.114	51812
622.179	50056
622.243	51599
622.308	51708
622.373	54871
622.437	54119
622.502	50841
622.566	50152
622.631	50196
622.695	53113
622.760	50513
622.824	50820
622.889	51123
622.953	52785
623.018	62015
623.082	61341
623.147	52196
623.211	51881
623.276	53003
623.340	49837
623.404	48607
623.469	47945
623.533	49050
623.597	46178
623.662	48075
623.726	44689
623.790	42879
623.854	42537
623.919	42891
623.983	42924
624.047	44651
624.111	43529
624.176	45509
624.240	45925
624.304	49822
624.368	44453
624.432	43599
624.496	45987
624.560	48537
624.625	48331
624.689	47264
624.753	47816
624.817	46036
624.881	45697
624.945	42249
625.009	41496
625.073	41796
625.137	44250
625.201	49273
625.265	48325
625.329	43734
625.393	44436
625.456	44342
625.520	46053
625.584	49425
625.648	52391
625.712	63891
625.776	101041
625.839	108244
625.903	57928
625.967	41190
626.031	54867
626.095	74261
626.158	46572
626.222	34261
626.286	32838
626.349	31901
626.413	30079
626.477	32809
626.540	29864
626.604	29671
626.668	30390
626.731	30346
626.795	30266
626.858	30809
626.922	30016
626.986	30415
627.049	28518
627.113	30388
627.176	29943
627.240	28397
627.303	28108
627.366	28401
627.430	29642
627.493	29197
627.557	28397
627.620	30056
627.684	29454
627.747	30045
627.810	26661
627.874	26479
627.937	24886
628.000	27368
628.064	26260
628.127	22990
628.190	24302
628.253	23823
628.317	22563
628.380	23257
628.443	21814
628.506	22240
628.569	20707
628.632	20251
628.696	19829
628.759	20624
628.822	19816
628.885	19425
628.948	19209
629.011	20068
629.074	18270
629.137	18710
629.200	18650
629.263	20499
629.326	18116
629.389	18003
629.452	17986
629.515	18574
629.578	18637
629.641	19537
629.704	18376
629.767	18393
629.830	17808
629.892	17559
629.955	16841
630.018	19255
630.081	18158
630.144	20691
630.207	17212
630.269	19516
630.332	18764
630.395	18222
630.458	16720
630.520	15699
630.583	16527
630.646	15981
630.708	16135
630.771	15843
630.834	16008
630.896	16412
630.959	16317
631.021	15599
631.084	16873
631.146	18000
631.209	18880
631.272	16789
631.334	16629
631.397	15805
631.459	15798
631.522	17062
631.584	17750
631.646	18268
631.709	18140
631.771	20026
631.834	18791
631.896	17403
631.958	15562
632.021	15999
632.083	15113
632.145	16364
632.208	15738
632.270	16509
632.332	14385
632.395	14457
632.457	15948
632.519	14829
632.581	15198
632.643	14370
632.706	14930
632.768	12999
632.830	15582
632.892	14509
632.954	14694
633.016	15676
633.078	14777
633.141	14028
633.203	14838
633.265	15209
633.327	14861
633.389	14244
633.451	16293
633.513	17476
633.575	18304
633.637	15818
633.698	15408
633.760	15699
633.822	15686
633.884	15782
633.946	15498
634.008	16462
634.070	16410
634.132	16477
634.193	17925
634.255	18931
634.317	18534
634.379	19270
634.441	16471
634.502	16048
634.564	15517
634.626	13912
634.687	13746
634.749	14236
634.811	14535
634.873	13359
634.934	13775
634.996	14529
635.057	13451
635.119	13029
635.181	14255
635.242	13924
635.304	11628
635.365	15378
635.427	13705
635.488	14315
635.550	13226
635.611	13675
635.673	11882
635.734	16015
635.796	14579
635.857	17244
635.918	14664
635.980	18005
636.041	16475
636.102	19069
636.164	19110
636.225	19263
636.286	15204
636.348	16382
636.409	14981
636.470	12616
636.531	13975
636.593	14149
636.654	14446
636.715	12001
636.776	12406
636.838	12045
636.899	12741
636.960	12532
637.021	11262
637.082	11347
637.143	11993
637.204	11658
637.265	10826
637.326	11294
637.387	11754
637.448	9419
637.509	12040
637.570	11564
637.631	12340
637.692	10088
637.753	9319
637.814	11006
637.875	12112
637.936	11984
637.997	11111
638.058	10154
638.119	11940
638.179	10913
638.240	9689
638.301	11186
638.362	10596
638.423	10242
638.483	11348
638.544	9654
638.605	10848
638.666	9835
638.726	10751
638.787	10809
638.848	9241
638.908	9642
638.969	10222
639.030	10092
639.090	8940
639.151	10056
639.211	10539
639.272	12015
639.332	16022
639.393	12230
639.453	9127
639.514	10078
639.574	10372
639.635	9222
639.695	10296
639.756	9359
639.816	9487
639.877	9860
639.937	14821
639.997	17057
640.058	8956
640.118	8615
640.178	9231
640.239	8465
640.299	8626
640.359	9465
640.420	9125
640.480	9464
640.540	10882
640.600	10993
640.661	10687
640.721	9821
640.781	11947
640.841	9806
640.901	10005
640.961	9139
641.021	9873
641.082	10795
641.142	11698
641.202	10136
641.262	7833
641.322	9232
641.382	8057
641.442	8924
641.502	8623
641.562	9585
641.622	8360
641.682	8886
641.742	9905
641.802	8956
641.861	9390
641.921	9020
641.981	9676
642.041	10587
642.101	10525
642.161	7859
642.221	7529
642.280	8044
642.340	7592
642.400	8100
642.460	8884
642.519	8485
642.579	8645
642.639	9078
642.698	5868
642.758	10317
642.818	8628
642.877	8462
642.937	9267
642.997	10073
643.056	11847
643.116	8538
643.175	9819
643.235	8897
643.294	8539
643.354	9895
643.414	10372
643.473	12199
643.532	12727
643.592	17763
643.651	28532
643.711	49551
643.770	94857
643.830	230067
643.889	485828
643.948	119324
644.008	23346
644.067	14496
644.126	11109
644.186	9662
644.245	10073
644.304	8231
644.363	9972
644.423	7641
644.482	8431
644.541	9356
644.600	6740
644.659	10474
644.719	12258
644.778	18406
644.837	29277
644.896	59129
644.955	136818
645.014	46778
645.073	11691
645.132	9887
645.191	8982
645.250	9129
645.309	9482
645.368	9688
645.427	12254
645.486	16860
645.545	29560
645.604	10308
645.663	8699
645.722	8250
645.781	9993
645.840	10766
645.898	12138
645.957	17889
646.016	25203
646.075	46212
646.134	90212
646.192	240273
646.251	357437
646.310	53947
646.369	16623
646.427	13919
646.486	9733
646.545	9702
646.603	8700
646.662	8240
646.721	7894
646.779	7762
646.838	8411
646.896	10334
646.955	12160
647.014	18286
647.072	32186
647.131	86981
647.189	41865
647.248	8870
647.306	8084
647.365	7710
647.423	4962
647.481	7310
647.540	4792
647.598	6225
647.657	6593
647.715	7238
647.773	4579
647.832	6381
647.890	5534
647.948	6311
648.007	6859
648.065	4850
648.123	5460
648.181	7498
648.240	6083
648.298	4263
648.356	5485
648.414	6617
648.472	5894
648.531	5602
648.589	5308
648.647	5507
648.705	5883
648.763	6126
648.821	5311
648.879	5463
648.937	7246
648.995	7322
649.053	9059
649.111	13614
649.169	21551
649.227	37858
649.285	77327
649.343	226938
649.401	107754
649.459	23455
649.516	15622
649.574	6667
649.632	9738
649.690	9804
649.748	10512
649.806	13157
649.863	23062
649.921	62281
649.979	40680
650.037	7942
650.094	5429
650.152	5676
650.210	5159
650.268	5605
650.325	5883
650.383	5276
650.440	4164
650.498	5857
650.556	4298
650.613	4771
650.671	4997
650.728	4854
650.786	5675
650.843	6467
650.901	3676
650.958	5316
651.016	4060
651.073	4709
651.131	3307
651.188	3757
651.246	5258
651.303	3682
651.360	5395
651.418	3570
651.475	3546
651.532	3036
651.590	4410
651.647	3351
651.704	3848
651.762	3490
651.819	3637
651.876	4013
651.933	4425
651.990	4516
652.048	2927
652.105	3606
652.162	3979
652.219	3175
652.276	4696
652.333	4561
652.390	3340
652.448	4107
652.505	4412
652.562	3909
652.619	2935
652.676	4488
652.733	4743
652.790	3953
652.847	2355
652.904	3809
652.961	2209
653.017	2748
653.074	4367
653.131	2965
653.188	3324
653.245	3941
653.302	3777
653.359	3353
653.415	4412
653.472	3022
653.529	4101
653.586	2778
653.642	3032
653.699	2981
653.756	2486
653.813	3527
653.869	3635
653.926	2864
653.983	3493
654.039	4100
654.096	3554
654.152	3896
654.209	2665
654.266	3509
654.322	2699
654.379	4244
654.435	3795
654.492	3910
654.548	5517
654.605	8101
654.661	5140
654.717	3853
654.774	4011
654.830	3769
654.887	3551
654.943	3534
655.000	3471
655.056	4297
655.112	4719
655.168	2598
655.225	3457
655.281	4361
655.337	5239
655.394	6981
655.450	5914
655.506	4407
655.562	8136
655.618	6671
655.675	3169
655.731	3051
655.787	3048
655.843	4008
655.899	2757
655.955	4052
656.011	3895
656.067	1670
656.123	3737
656.179	3743
656.235	4552
656.291	2062
656.347	5062
656.403	3237
656.459	3435
656.515	4456
656.571	3866
656.627	3662
656.683	3780
656.739	4162
656.795	3348
656.850	3931
656.906	3971
656.962	4181
657.018	3904
657.074	3935
657.129	4433
657.185	6132
657.241	9204
657.297	6127
657.352	3172
657.408	2944
657.464	4915
657.519	3051
657.575	2696
657.630	3019
657.686	3358
657.742	2812
657.797	3050
657.853	2985
657.908	4359
657.964	2398
658.019	3087
658.075	2911
658.130	4456
658.186	2217
658.241	3028
658.297	2366
658.352	3107
658.407	3182
658.463	2784
658.518	3282
658.573	2669
658.629	2290
658.684	2751
658.739	4203
658.795	2799
658.850	3440
658.905	2408
658.960	3110
659.016	2780
659.071	3341
659.126	3050
659.181	3454
659.236	6047
659.291	5540
659.346	3117
659.401	3840
659.457	3504
659.512	2040
659.567	3891
659.622	2616
659.677	2459
659.732	2113
659.787	3264
659.842	2972
659.897	3876
659.952	3742
660.007	3484
660.061	3207
660.116	2010
660.171	2427
660.226	2565
660.281	3053
660.336	2615
660.391	4028
660.445	2259
660.500	3308
660.555	2742
660.610	2801
660.664	3287
660.719	2531
660.774	2982
660.828	3918
660.883	2768
660.938	3974
660.992	2213
661.047	2953
661.101	2962
661.156	3548
661.211	1817
661.265	2739
661.320	2439
661.374	2613
661.429	2377
661.483	3073
661.538	2819
661.592	2299
661.647	2529
661.701	3669
661.755	2443
661.810	3150
661.864	1622
661.919	3279
661.973	3050
662.027	2347
662.081	2198
662.136	2490
662.190	3668
662.244	3741
662.299	2405
662.353	3567
662.407	2387
662.461	2981
662.515	2866
662.569	3772
662.624	3985
662.678	2428
662.732	2925
662.786	3498
662.840	3503
662.894	2860
662.948	2509
663.002	1627
663.056	3274
663.110	2298
663.164	3121
663.218	3021
663.272	2904
663.326	3424
663.380	3200
663.434	2747
663.488	3462
663.542	4151
663.595	3143
663.649	2122
663.703	2102
663.757	2755
663.811	2549
663.864	2474
663.918	2114
663.972	2459
664.026	2722
664.079	2341
664.133	3498
664.187	2298
664.240	2901
664.294	2943
664.348	3435
664.401	2783
664.455	3721
664.508	2547
664.562	2724
664.615	2649
664.669	2165
664.722	2751
664.776	2535
664.829	3244
664.883	2904
664.936	2812
664.990	2806
665.043	3244
665.097	3166
665.150	4460
665.203	3403
665.257	3565
665.310	2738
665.363	2986
665.417	3561
665.470	3433
665.523	3650
665.576	3292
665.630	3423
665.683	2790
665.736	4304
665.789	3382
665.842	3297
665.895	3141
665.949	2709
666.002	3093
666.055	2518
666.108	3401
666.161	4145
666.214	3358
666.267	3011
666.320	4142
666.373	2992
666.426	2985
666.479	2697
666.532	3419
666.585	4003
666.638	4747
666.691	3675
666.744	4125
666.796	4097
666.849	2908
666.902	3117
666.955	2685
667.008	2712
667.060	2467
667.113	2136
667.166	3264
667.219	3010
667.271	2564
667.324	2969
667.377	2888
667.430	3429
667.482	2629
667.535	2977
667.587	4198
667.640	3142
667.693	3603
667.745	5007
667.798	5208
667.850	3285
667.903	3448
667.955	3531
668.008	3099
668.060	3075
668.113	3348
668.165	3785
668.218	4166
668.270	3574
668.322	3392
668.375	3740
668.427	3762
668.479	3746
668.532	3182
668.584	3322
668.636	3322
668.689	3756
668.741	3357
668.793	3468
668.845	3304
668.898	3116
668.950	2950
669.002	3629
669.054	3635
669.106	2840
669.158	4268
669.211	2744
669.263	3163
669.315	3489
669.367	3933
669.419	3335
669.471	4483
669.523	3519
669.575	4880
669.627	3565
669.679	4026
669.731	3079
669.783	3888
669.835	4129
669.886	3333
669.938	4107
669.990	3828
670.042	3052
670.094	4266
670.146	5112
670.197	5787
670.249	5939
670.301	7269
670.353	8536
670.404	12841
670.456	18480
670.508	28097
670.560	46453
670.611	76650
670.663	134157
670.715	293871
670.766	418345
670.818	160523
670.869	35248
670.921	18525
670.972	12232
671.024	9976
671.075	7110
671.127	5571
671.178	4946
671.230	5587
671.281	5871
671.333	4759
671.384	4892
671.436	5283
671.487	6234
671.538	7162
671.590	9402
671.641	13265
671.692	21757
671.744	41518
671.795	27509
671.846	10102
671.897	6548
671.949	5166
672.000	4124
672.051	3986
672.102	4846
672.153	3348
672.204	3454
672.256	4143
672.307	4421
672.358	3459
672.409	3993
672.460	3201
672.511	3024
672.562	2634
672.613	2322
672.664	2742
672.715	2518
672.766	3351
672.817	2742
672.868	3690
672.919	2545
672.970	2973
673.021	2341
673.071	3191
673.122	2761
673.173	2538
673.224	2165
673.275	3122
673.326	2535
673.376	2473
673.427	1828
673.478	3239
673.528	2621
673.579	2660
673.630	3142
673.680	2727
673.731	3230
673.782	2026
673.832	2317
673.883	2689
673.934	3151
673.984	2382
674.035	2369
674.085	2111
674.136	3226
674.186	3560
674.237	3967
674.287	5527
674.338	3787
674.388	2951
674.438	2526
674.489	2424
674.539	2835
674.589	2624
674.640	3549
674.690	3318
674.740	2202
674.791	3352
674.841	3019
674.891	3676
674.942	2945
674.992	2623
675.042	1978
675.092	2233
675.142	2033
675.193	1870
675.243	2067
675.293	2427
675.343	2217
675.393	1963
675.443	3022
675.493	2688
675.543	1492
675.593	2797
675.643	2197
675.693	2494
675.743	2278
675.793	2511
675.843	2359
675.893	2865
675.943	2560
675.993	3824
676.043	2720
676.093	2168
676.142	1697
676.192	3070
676.242	2195
676.292	1902
676.341	2275
676.391	2534
676.441	1760
676.491	2436
676.540	2048
676.590	2285
676.640	1938
676.689	1251
676.739	1828
676.789	2000
676.838	1980
676.888	1970
676.937	1580
676.987	1655
677.037	1776
677.086	837
677.136	2018
677.185	2010
677.235	1554
677.284	2204
677.333	1356
677.383	1103
677.432	1436
677.482	2403
677.531	1883
677.580	2017
677.630	1155
677.679	2087
677.728	1769
677.778	1725
677.827	592
677.876	2038
677.925	1308
677.975	2082
678.024	1613
678.073	1887
678.122	1885
678.171	2079
678.220	1412
678.269	2218
678.319	2156
678.368	2854
678.417	2601
678.466	1619
678.515	2641
678.564	2121
678.613	1547
678.662	1815
678.711	1447
678.760	2124
678.809	1805
678.857	1722
678.906	1720
678.955	2505
679.004	1524
679.053	2140
679.102	2068
679.151	1973
679.199	1730
679.248	1598
679.297	1506
679.346	2467
679.394	762
679.443	1176
679.492	1590
679.540	1755
679.589	1560
679.638	1976
679.686	2043
679.735	2110
679.784	2383
679.832	2621
679.881	2125
679.929	1243
679.978	1515
680.026	1406
680.075	2321
680.123	1376
680.172	1678
680.220	1533
680.268	1913
680.317	972
680.365	2102
680.414	1569
680.462	2231
680.510	1664
680.559	1122
680.607	1571
680.655	957
680.703	1334
680.752	1747
680.800	1480
680.848	1974
680.896	984
680.945	1250
680.993	1370
681.041	1735
681.089	1665
681.137	1531
681.185	1445
681.233	447
681.258	1061
681.281	1575
681.329	1415
681.377	1120
681.380	1251
681.425	2324
681.473	2781
681.502	2688
681.521	2509
681.569	2503
681.617	1895
681.624	2026
681.665	2337
681.713	3357
681.745	2929
681.761	2625
681.809	1999
681.857	3918
681.867	3908
681.904	3614
681.952	3748
681.989	3369
682.000	3153
682.048	2985
682.096	3733
682.111	3837
682.143	3903
682.191	4031
682.233	5339
682.239	5460
682.286	4358
682.334	3884
682.354	4271
682.382	4635
682.430	4835
682.476	4759
682.477	4699
682.525	4736
682.572	4995
682.598	5178
682.620	5214
682.667	4874
682.715	6689
682.720	6603
682.763	5231
682.810	6450
682.841	6498
682.857	6424
682.905	6201
682.952	6279
682.963	6370
683.000	6487
683.047	5732
683.085	7341
683.095	7698
683.142	6557
683.190	6757
683.206	6828
683.237	6875
683.284	7563
683.328	7936
683.332	7908
683.379	7062
683.426	7564
683.449	7323
683.473	7004
683.521	7417
683.568	8255
683.571	8278
683.615	7894
683.662	7675
683.693	7943
683.709	8033
683.757	7768
683.804	8807
683.814	8744
683.851	8434
683.898	8934
683.936	8674
683.945	8538
683.992	9031
684.039	9754
684.057	9811
684.086	9802
684.133	9558
684.179	9445
684.180	9398
684.227	10170
684.274	10182
684.300	10624
684.321	10911
684.368	10344
684.415	10685
684.422	10727
684.462	10617
684.509	10567
684.543	10378
684.556	10316
684.603	10809
684.649	10811
684.665	10857
684.696	10855
684.743	10696
684.786	11070
684.790	11081
684.837	11109
684.883	11894
684.908	12161
684.930	12373
684.977	13038
685.023	13131
685.029	13141
685.070	12475
685.117	12912
685.150	12995
685.164	13168
685.210	13822
685.257	14666
685.272	14721
685.303	14371
685.350	13859
685.393	14002
685.396	14012
685.443	14399
685.490	14554
685.514	14860
685.536	14962
685.583	14860
685.629	14958
685.636	14969
685.675	14867
685.722	14796
685.757	14876
685.768	14952
685.815	15749
685.861	15824
685.878	15889
685.908	15849
685.954	15965
686.000	15949
686.000	15937
686.047	16615
686.093	16906
686.121	17148
686.139	17017
686.185	16798
686.232	16651
686.242	16596
686.278	16310
686.324	16370
686.363	15664
686.370	15571
686.416	15440
686.463	16742
686.484	16478
686.509	16089
686.555	15977
686.601	15781
686.606	15838
686.647	16617
686.693	16218
686.727	16728
686.739	16843
686.785	16694
686.831	16673
686.848	16799
686.877	16850
686.923	16361
686.969	16394
686.969	16394
687.015	16611
687.061	16971
687.090	17071
687.107	16972
687.153	17183
687.199	17348
687.211	17134
687.245	16874
687.291	17372
687.332	17849
687.336	17901
687.382	18152
687.428	18370
687.453	18690
687.474	18614
687.520	18726
687.565	18084
687.574	17862
687.611	17429
687.657	17647
687.695	18273
687.702	18456
687.748	18792
687.794	20207
687.816	20172
687.839	19724
687.885	19274
687.931	18972
687.937	18927
687.976	19140
688.022	19222
688.058	19437
688.067	19471
688.113	19231
688.158	19586
688.179	19408
688.204	19159
688.249	19565
688.295	19401
688.300	19378
688.340	19826
688.386	20609
688.421	20736
688.431	20643
688.477	20948
688.522	20424
688.542	20261
688.567	20259
688.613	20606
688.658	20394
688.663	20373
688.703	20267
688.749	20279
688.784	20878
688.794	21042
688.839	20586
688.884	20570
688.905	20453
688.930	20475
688.975	20442
689.020	21081
689.026	21017
689.065	20729
689.110	21275
689.146	20998
689.155	20905
689.201	21018
689.246	20917
689.267	20686
689.291	20655
689.336	21479
689.381	21575
689.388	21538
689.426	21347
689.471	21254
689.509	21261
689.516	21254
689.561	20828
689.606	21070
689.630	20795
689.651	20756
689.696	20911
689.741	20977
689.750	21124
689.785	21785
689.830	21306
689.871	21238
689.875	21227
689.920	21023
689.965	21135
689.992	20949
690.010	21089
690.054	21066
690.099	21892
690.112	21832
690.144	21454
690.189	21357
690.233	21537
690.233	21567
690.278	21414
690.323	20985
690.354	21075
690.367	21329
690.412	21777
690.457	22255
690.474	22356
690.501	22212
690.546	22334
690.590	21923
690.595	21894
690.635	22067
690.680	21669
690.716	21447
690.724	21512
690.769	22281
690.813	22807
690.836	22675
690.857	22568
690.902	22709
690.946	23232
690.957	23298
690.991	24231
691.035	25186
691.077	25807
691.080	25853
691.124	25977
691.168	26846
691.198	26967
691.213	26749
691.257	26170
691.301	25169
691.318	25045
691.346	25199
691.390	24613
691.434	24377
691.439	24296
691.478	24373
691.522	24707
691.559	24606
691.567	24664
691.611	25103
691.655	25109
691.680	25173
691.699	25161
691.743	25262
691.787	25382
691.800	25266
691.831	25554
691.875	25864
691.919	26165
691.921	26136
691.964	26605
692.008	27225
692.041	27131
692.052	27018
692.096	26819
692.139	26676
692.162	26340
692.183	26332
692.227	26615
692.271	26678
692.282	26621
692.315	26685
692.359	26737
692.402	26985
692.403	27036
692.447	26821
692.490	26549
692.523	26237
692.534	26419
692.578	26896
692.622	27736
692.643	27760
692.666	27351
692.709	26923
692.753	26530
692.763	26378
692.797	26418
692.840	26188
692.884	26099
692.884	26157
692.928	26491
692.971	27109
693.004	27347
693.015	27306
693.059	27024
693.102	27154
693.124	26917
693.146	27029
693.189	27103
693.233	27224
693.245	27249
693.276	27566
693.320	27954
693.363	27776
693.365	27719
693.407	27706
693.450	28302
693.485	28126
693.493	28175
693.537	28366
693.580	28478
693.605	28561
693.624	28772
693.667	29143
693.710	29307
693.725	29337
693.753	30826
693.797	33019
693.840	35324
693.845	35516
693.883	35195
693.926	35110
693.966	34407
693.970	34251
694.013	32062
694.056	30166
694.086	28345
694.099	28314
694.142	28594
694.185	28835
694.206	28860
694.229	29101
694.272	29166
694.315	29610
694.326	29585
694.358	29636
694.401	29548
694.444	29744
694.446	29683
694.487	29761
694.530	29664
694.566	29512
694.573	29479
694.616	28882
694.659	28179
694.686	27717
694.702	27705
694.745	27543
694.787	27459
694.806	27299
694.830	27567
694.873	27927
694.916	28061
694.926	28106
694.959	27958
695.002	27674
695.044	27252
695.046	27175
695.087	28007
695.130	28633
695.166	29202
695.172	29282
695.215	29257
695.258	29376
695.286	29282
695.301	29316
695.343	29225
695.386	29332
695.406	29225
695.428	29032
695.471	28481
695.514	28049
695.526	27845
695.556	28461
695.599	29359
695.641	30039
695.646	30049
695.684	29804
695.726	29538
695.766	29006
695.769	29069
695.811	29060
695.854	29142
695.886	29092
695.896	29099
695.938	28807
695.981	28442
696.005	28272
696.023	28706
696.065	29381
696.108	30294
696.125	30578
696.150	30836
696.192	30829
696.235	31014
696.245	31020
696.277	31034
696.319	30640
696.361	30542
696.365	30443
696.404	30232
696.446	29944
696.485	29699
696.488	29816
696.530	30220
696.572	30634
696.604	30952
696.614	30993
696.656	30643
696.698	30481
696.724	30264
696.740	30302
696.783	30207
696.825	30228
696.844	30105
696.867	30438
696.909	30775
696.951	31152
696.964	31246
696.992	31051
697.034	30529
697.076	29972
697.083	29820
697.118	30159
697.160	30432
697.202	30654
697.203	30581
697.244	30884
697.286	31110
697.323	31158
697.327	31170
697.369	30557
697.411	29970
697.442	29508
697.453	29877
697.494	30931
697.536	32063
697.562	32676
697.578	32571
697.620	32087
697.661	31533
697.682	31238
697.703	31775
697.744	32492
697.786	33449
697.801	33639
697.828	33562
697.869	33318
697.911	33166
697.921	33012
697.952	32914
697.994	32773
698.035	32582
698.040	32468
698.077	31942
698.118	31299
698.160	30597
698.160	30509
698.201	31155
698.243	31790
698.279	32246
698.284	32361
698.325	32601
698.367	32854
698.399	32945
698.408	32925
698.449	32430
698.491	31958
698.518	31524
698.532	31797
698.573	32396
698.614	32980
698.638	33239
698.656	33369
698.697	33440
698.738	33511
698.757	33461
698.779	33737
698.820	34068
698.862	34412
698.877	34442
698.903	34689
698.944	34948
698.985	35203
698.996	35177
699.026	35007
699.067	34642
699.116	34112
699.235	33669
699.354	32374
699.474	32570
699.593	33978
699.713	34074
699.832	32095
699.951	33814
700.070	31804
700.190	31540
700.309	31512
700.428	32455
700.547	31045
700.667	30880
700.786	32238
700.905	29847
701.024	31850
701.143	30704
701.262	28950
701.381	29527
701.500	30713
701.619	31754
701.738	29171
701.857	30276
701.976	29128
702.095	27619
702.214	30632
702.333	30417
702.452	29580
702.571	28391
702.690	27693
702.809	26972
702.928	26695
703.047	27748
703.165	27576
703.284	26917
703.403	26016
703.522	28355
703.640	27721
703.759	30387
703.878	34926
703.997	27436
704.115	26346
704.234	25951
704.353	25993
704.471	25564
704.590	24637
704.708	25509
704.827	24771
704.946	25838
705.064	27506
705.183	26220
705.301	29831
705.420	42129
705.538	37505
705.656	32380
705.775	30265
705.893	33013
706.012	35453
706.130	32860
706.249	32859
706.367	33176
706.485	33776
706.604	33160
706.722	33166
706.840	35712
706.958	36622
707.077	33499
707.195	31157
707.313	30673
707.431	29722
707.549	30018
707.668	29172
707.786	30826
707.904	29322
708.022	29214
708.140	28932
708.258	28216
708.376	29499
708.494	29103
708.612	31100
708.730	44106
708.848	42333
708.966	38362
709.084	35537
709.202	34654
709.320	36221
709.438	35371
709.556	36739
709.674	35824
709.791	34992
709.909	34002
710.027	33894
710.145	33520
710.263	34386
710.380	32693
710.498	33795
710.616	33661
710.733	32465
710.851	33313
710.969	33798
711.086	32838
711.204	31965
711.322	31364
711.439	31203
711.557	32903
711.674	31724
711.792	31696
711.909	30018
712.027	30083
712.144	30478
712.262	30228
712.379	33640
712.497	46044
712.614	47757
712.732	40341
712.849	37697
712.966	38802
713.084	43156
713.201	40470
713.318	40623
713.436	38459
713.553	38516
713.670	38522
713.787	41273
713.905	41133
714.022	38454
714.139	37115
714.256	39983
714.373	45740
714.490	59674
714.608	110988
714.725	403053
714.842	464753
714.959	58698
715.076	40531
715.193	36304
715.310	35286
715.427	33118
715.544	31840
715.661	32702
715.778	32648
715.895	36184
716.011	35030
716.128	33623
716.245	32506
716.362	34519
716.479	34762
716.596	31443
716.713	31771
716.829	31479
716.946	30633
717.063	28964
717.180	30062
717.296	28302
717.413	28784
717.530	29083
717.646	29045
717.763	28374
717.880	27577
717.996	26556
718.113	28759
718.229	27623
718.346	26103
718.462	27145
718.579	30369
718.695	37436
718.812	34939
718.928	31112
719.045	27244
719.161	25976
719.277	25793
719.394	25096
719.510	26143
719.626	26078
719.743	33696
719.859	33702
719.975	46469
720.092	125702
720.208	295578
720.324	55045
720.440	28861
720.557	28704
720.673	35348
720.789	42985
720.905	77714
721.021	36243
721.137	25327
721.253	25344
721.369	25779
721.486	26548
721.602	32397
721.718	24568
721.834	22210
721.950	23365
722.066	22286
722.181	22564
722.297	22877
722.413	22236
722.529	22152
722.645	21719
722.761	20727
722.877	21637
722.993	21602
723.108	22133
723.224	21946
723.340	21681
723.456	19987
723.571	20542
723.687	19999
723.803	21049
723.918	19633
724.034	20502
724.150	19666
724.265	20832
724.381	33469
724.497	41487
724.612	20221
724.728	19215
724.843	18887
724.959	20371
725.074	31389
725.190	37457
725.305	20562
725.421	19842
725.536	18088
725.651	17621
725.767	17474
725.882	17818
725.997	17701
726.113	17337
726.228	16831
726.343	17529
726.459	16390
726.574	18282
726.689	17368
726.804	17068
726.920	17222
727.035	16796
727.150	17126
727.265	17173
727.380	17359
727.495	16853
727.610	15589
727.725	16405
727.841	16424
727.956	16952
728.071	18512
728.186	16288
728.301	14509
728.416	17021
728.531	15701
728.645	14856
728.760	15720
728.875	15783
728.990	14502
729.105	15632
729.220	15646
729.335	15165
729.449	14927
729.564	14383
729.679	13297
729.794	13798
729.908	16008
730.023	15646
730.138	13151
730.253	13991
730.367	14010
730.482	13516
730.596	13630
730.711	15371
730.826	14920
730.940	15076
731.055	15018
731.169	13754
731.284	12982
731.398	13531
731.513	15407
731.627	16237
731.742	16610
731.856	18576
731.970	15968
732.085	16582
732.199	20009
732.313	27584
732.428	55976
732.542	146360
732.656	97864
732.771	24616
732.885	17581
732.999	16624
733.113	17024
733.227	16204
733.342	15075
733.456	14897
733.570	13942
733.684	13901
733.798	14687
733.912	13800
734.026	13536
734.140	14312
734.254	15270
734.368	20588
734.482	25100
734.596	14485
734.710	13494
734.824	13221
734.938	12619
735.052	13448
735.166	14593
735.280	13685
735.393	12864
735.507	12783
735.621	16861
735.735	22812
735.849	14968
735.962	12756
736.076	13179
736.190	13327
736.303	15965
736.417	19893
736.531	12788
736.644	13252
736.758	11775
736.872	12157
736.985	10705
737.099	12246
737.212	11075
737.326	12018
737.439	12131
737.553	11441
737.666	11673
737.780	11023
737.893	10727
738.007	11389
738.120	12093
738.233	11359
738.347	11052
738.460	11090
738.573	11446
738.687	11236
738.800	11444
738.913	12743
739.026	11502
739.140	11306
739.253	10769
739.366	10760
739.479	10368
739.592	10434
739.705	10439
739.818	11612
739.932	10664
740.045	10973
740.158	10438
740.271	10933
740.384	9869
740.497	10609
740.610	11011
740.723	10193
740.836	10634
740.949	10882
741.062	12498
741.174	12155
741.287	11297
741.400	10656
741.513	10323
741.626	10767
741.739	10771
741.851	9877
741.964	10163
742.077	9588
742.189	9336
742.302	10427
742.415	10283
742.527	9651
742.640	10389
742.753	9670
742.865	8179
742.978	9916
743.090	9121
743.203	9353
743.316	10024
743.428	9452
743.541	8898
743.653	8952
743.766	8932
743.878	9605
743.990	11017
744.103	10927
744.215	9680
744.327	9127
744.440	10693
744.552	13544
744.664	9270
744.777	8633
744.889	8804
745.001	9624
745.113	8699
745.226	8306
745.338	8893
745.450	10130
745.562	9098
745.674	8673
745.786	8611
745.898	8082
746.010	8080
746.122	7855
746.234	9103
746.347	8030
746.459	8698
746.570	8152
746.682	8030
746.794	8369
746.906	8367
747.018	8195
747.130	8830
747.242	7531
747.354	8495
747.466	9093
747.577	8521
747.689	8013
747.801	8610
747.913	7404
748.024	7975
748.136	7111
748.248	7348
748.359	7383
748.471	8106
748.583	7007
748.694	7154
748.806	8059
748.918	9820
749.029	8394
749.141	8031
749.252	8588
749.364	9718
749.475	13544
749.587	11992
749.698	7831
749.809	7483
749.921	6928
750.032	7517
750.144	6933
750.255	7374
750.366	7066
750.478	6873
750.589	7900
750.700	7481
750.811	7803
750.923	8712
751.034	14012
751.145	14868
751.256	7274
751.367	6902
751.479	7805
751.590	7483
751.701	6801
751.812	6167
751.923	7092
752.034	7815
752.145	7462
752.256	6960
752.367	7329
752.478	6725
752.589	6863
752.700	7949
752.811	6566
752.922	7367
753.032	7309
753.143	8498
753.254	6723
753.365	7611
753.476	6932
753.586	6918
753.697	6371
753.808	6507
753.919	7738
754.029	6584
754.140	6694
754.251	6583
754.361	6694
754.472	6451
754.582	6734
754.693	6699
754.804	7211
754.914	6322
755.025	5862
755.135	6865
755.246	6388
755.356	6161
755.466	6643
755.577	6511
755.687	6761
755.798	5555
755.908	5731
756.018	6430
756.129	5595
756.239	7322
756.349	6321
756.460	6954
756.570	6546
756.680	6026
756.790	5915
756.900	7306
757.011	6392
757.121	6884
757.231	5457
757.341	6545
757.451	5968
757.561	4551
757.671	5753
757.781	5728
757.891	7039
758.001	6164
758.111	6339
758.221	7147
758.331	7595
758.441	6710
758.551	7735
758.661	7884
758.771	5874
758.880	7066
758.990	6851
759.100	6934
759.210	7122
759.320	7119
759.429	6431
759.539	6838
759.649	6696
759.758	7558
759.868	7675
759.978	7549
760.087	7589
760.197	7459
760.307	7393
760.416	7140
760.526	6744
760.635	7267
760.745	6800
760.854	6944
760.964	7973
761.073	8922
761.182	7855
761.292	7182
761.401	7676
761.511	7091
761.620	5879
761.729	6899
761.839	6896
761.948	7667
762.057	6952
762.166	7172
762.276	5516
762.385	7600
762.494	6014
762.603	6727
762.712	6595
762.822	7292
762.931	7650
763.040	7151
763.149	6715
763.258	6917
763.367	6767
763.476	6383
763.585	6858
763.694	6816
763.803	7767
763.912	7659
764.021	7260
764.130	6556
764.238	6998
764.347	6827
764.456	7026
764.565	7975
764.674	7010
764.783	7147
764.891	7491
765.000	7870
765.109	7806
765.217	8213
765.326	9628
765.435	11147
765.543	11510
765.652	11382
765.761	13441
765.869	17887
765.978	24406
766.086	40514
766.195	76877
766.303	192260
766.412	545191
766.520	564364
766.629	154296
766.737	54090
766.846	30975
766.954	21406
767.062	18262
767.171	15324
767.279	13839
767.387	10727
767.496	10250
767.604	9965
767.712	9901
767.820	8972
767.928	9328
768.037	8615
768.145	9741
768.253	9258
768.361	7563
768.469	8542
768.577	7701
768.685	8485
768.793	8288
768.901	8882
769.009	9955
769.117	9670
769.225	11008
769.333	13861
769.441	18711
769.549	31512
769.657	67944
769.765	211552
769.873	510799
769.981	210225
770.088	43961
770.196	22419
770.304	15900
770.412	13493
770.519	12674
770.627	10519
770.735	9481
770.842	9310
770.950	8220
771.058	8077
771.165	8775
771.273	8226
771.380	8881
771.488	9285
771.595	8857
771.703	8419
771.810	8126
771.918	7835
772.025	8272
772.133	8244
772.240	8318
772.348	8978
772.455	8360
772.562	7927
772.670	7794
772.777	8657
772.884	7794
772.991	7730
773.099	7513
773.206	7051
773.313	7694
773.420	7877
773.528	7586
773.635	7135
773.742	8323
773.849	8059
773.956	7406
774.063	6951
774.170	7654
774.277	8409
774.384	7644
774.491	7123
774.598	7914
774.705	8103
774.812	9137
774.919	8262
775.026	8543
775.133	8284
775.239	7796
775.346	7903
775.453	6937
775.560	7254
775.667	7391
775.773	6901
775.880	8134
775.987	8128
776.093	8309
776.200	7170
776.307	7456
776.413	7667
776.520	6212
776.627	7784
776.733	6348
776.840	5582
776.946	9074
777.053	7746
777.159	6933
777.266	5963
777.372	7031
777.478	7502
777.585	6695
777.691	7257
777.798	6580
777.904	7721
778.010	8583
778.117	8725
778.223	6827
778.329	7794
778.435	7113
778.542	7253
778.648	6651
778.754	5521
778.860	5965
778.966	6951
779.072	6498
779.178	6401
779.284	6129
779.391	6363
779.497	5474
779.603	7958
779.708	6694
779.815	8262
779.920	12657
780.026	22899
780.132	8839
780.238	6139
780.344	6171
780.450	7664
780.556	5647
780.661	5772
780.767	6685
780.873	5481
780.979	6810
781.085	6471
781.190	6937
781.296	4817
781.402	5492
781.507	5741
781.613	5737
781.719	4874
781.824	5810
781.930	5830
782.035	6132
782.141	6683
782.246	5738
782.352	6368
782.457	5216
782.563	5953
782.668	6147
782.773	5614
782.879	5683
782.984	6746
783.090	6076
783.195	7859
783.300	7041
783.405	6237
783.511	5437
783.616	5896
783.721	5388
783.826	5855
783.932	5559
784.037	5151
784.142	5746
784.247	5974
784.352	6229
784.457	5648
784.562	5365
784.667	5141
784.772	5314
784.877	4908
784.982	5266
785.087	6189
785.192	5649
785.297	5070
785.402	6107
785.507	4419
785.611	4556
785.716	5250
785.821	5491
785.926	5034
786.031	5216
786.135	6381
786.240	4718
786.345	4708
786.450	6292
786.554	4712
786.659	4167
786.763	4629
786.868	5096
786.973	5999
787.077	4707
787.182	4466
787.286	5300
787.391	5206
787.495	4282
787.600	4817
787.704	3961
787.809	4939
787.913	4827
788.017	4476
788.122	5535
788.226	5081
788.330	4535
788.435	4779
788.539	4499
788.643	4159
788.747	3420
788.852	3909
788.956	3630
789.060	4730
789.164	5047
789.268	4559
789.372	5017
789.476	4789
789.580	3960
789.684	4670
789.788	4843
789.892	4858
789.996	4950
790.100	4722
790.204	4731
790.308	4190
790.412	4985
790.516	4251
790.620	3796
790.724	5169
790.828	4407
790.931	4681
791.035	5326
791.139	4631
791.242	3080
791.346	4771
791.450	4337
791.554	4830
791.657	3274
791.761	4529
791.864	4974
791.968	4602
792.072	5551
792.175	4413
792.279	3631
792.382	4096
792.486	4852
792.589	4321
792.693	5560
792.796	3549
792.899	4807
793.003	5065
793.106	2411
793.209	3942
793.313	5276
793.416	2703
793.519	5126
793.623	5060
793.726	6951
793.829	4213
793.932	4364
794.035	4551
794.138	4393
794.242	4697
794.345	5313
794.448	4650
794.551	5800
794.654	9306
794.757	12770
794.860	6019
794.963	5077
795.066	3122
795.169	4665
795.272	3522
795.375	3687
795.477	3692
795.580	3966
795.683	2579
795.786	3479
795.889	3841
795.991	4831
796.094	4870
796.197	2983
796.300	4665
796.402	3015
796.505	3120
796.608	2733
796.710	3966
796.813	3178
796.915	3756
797.018	4163
797.120	4446
797.223	3352
797.326	4217
797.428	4151
797.530	2914
797.633	3290
797.735	5176
797.838	5757
797.940	5335
798.042	4026
798.145	3636
798.247	3485
798.349	2574
798.452	4491
798.554	3315
798.656	2792
798.758	4834
798.860	3487
798.962	3412
799.065	3385
799.167	3034
799.269	4722
799.371	4165
799.473	4227
799.575	4085
799.677	5186
799.779	5561
799.881	4478
799.983	4904
800.085	4248
800.187	2974
800.289	2725
800.390	3758
800.492	3689
800.594	4627
800.696	3228
800.798	3409
800.899	2549
801.001	3154
801.103	3705
801.205	2861
801.306	3768
801.408	2418
801.509	2777
801.611	3953
801.713	3208
801.814	3146
801.916	2892
802.017	2247
802.119	2472
802.220	3761
802.322	2186
802.423	5997
802.525	3180
802.626	3079
802.727	3982
802.829	2769
802.930	737
803.031	4283
803.133	2915
803.234	3325
803.335	3043
803.436	1543
803.538	3313
803.639	2182
803.740	3217
803.841	2350
803.942	3337
804.043	3056
804.144	2844
804.245	2402
804.346	2981
804.447	3322
804.548	3582
804.649	4848
804.750	2638
804.851	3018
804.952	2394
805.053	2912
805.154	1351
805.255	2716
805.355	3377
805.456	1913
805.557	2287
805.658	2643
805.758	2595
805.859	3120
805.960	2615
806.061	1638
806.161	2328
806.262	2822
806.362	2581
806.463	2666
806.564	3730
806.664	3199
806.765	3807
806.865	3580
806.966	3337
807.066	3173
807.166	3609
807.267	3345
807.367	1792
807.468	3977
807.568	2696
807.668	4119
807.769	3186
807.869	2239
807.969	2709
808.069	2676
808.170	2017
808.270	1970
808.370	3203
808.470	4014
808.570	2378
808.670	2061
808.770	2947
808.870	2605
808.970	2644
809.070	2229
809.170	1845
809.271	2559
809.370	1612
809.470	2905
809.570	2242
809.670	2253
809.770	2374
809.870	2312
809.970	3066
810.070	1996
810.169	3261
810.269	1847
810.369	3197
810.469	2012
810.568	1934
810.668	2310
810.768	2361
810.867	2541
810.967	2762
811.066	2682
811.166	2338
811.265	3111
811.365	2353
811.464	2004
811.564	2608
811.663	3207
811.763	1322
811.862	3180
811.962	3374
812.061	3053
812.160	2488
812.260	3033
812.359	3964
812.458	5408
812.557	13258
812.657	20104
812.756	8454
812.855	4144
812.954	3238
813.053	3802
813.153	3033
813.252	1700
813.351	3550
813.450	3322
813.549	2452
813.648	2729
813.747	2860
813.846	3291
813.945	2787
814.044	3193
814.143	2932
814.242	3644
814.341	3183
814.439	3438
814.538	3606
814.637	3455
814.736	2732
814.835	3935
814.933	3497
815.032	3749
815.131	3941
815.229	4387
815.328	5376
815.427	3677
815.525	5641
815.624	4902
815.722	4453
815.821	5386
815.919	4605
816.018	5144
816.116	6397
816.215	5766
816.313	6230
816.412	5598
816.510	6911
816.609	8409
816.707	7437
816.805	7547
816.904	7285
817.002	9022
817.100	9205
817.198	11036
817.296	11419
817.395	12411
817.493	16104
817.591	16911
817.689	22907
817.787	29489
817.885	44683
817.983	73742
818.081	134974
818.179	272894
818.277	525374
818.375	507192
818.473	237321
818.571	112936
818.669	72666
818.767	60628
818.865	58698
818.963	66955
819.061	87887
819.158	133992
819.256	233519
819.354	424854
819.452	651972
819.549	546533
819.647	294861
819.745	154753
819.842	93795
819.940	64018
820.038	45859
820.135	36134
820.233	30196
820.330	23598
820.428	18589
820.525	18747
820.623	15100
820.720	13403
820.818	12783
820.915	11144
821.012	10937
821.110	8438
821.207	9796
821.304	8483
821.402	7363
821.499	8210
821.596	7941
821.693	6901
821.791	6866
821.888	7272
821.985	9169
822.082	7754
822.179	6485
822.276	5538
822.373	3953
822.470	4896
822.567	5186
822.664	3812
822.761	5349
822.858	4177
822.955	4709
823.052	4689
823.149	3717
823.246	4582
823.343	4091
823.440	5163
823.536	4114
823.633	3685
823.730	3269
823.827	4367
823.923	3439
824.020	4566
824.117	4293
824.213	3709
824.310	3620
824.407	3496
824.503	2992
824.600	3780
824.696	3353
824.793	3814
824.889	2610
824.986	3858
825.082	2778
825.179	2903
825.275	3171
825.371	3056
825.468	3511
825.564	1719
825.660	2987
825.757	3565
825.853	3723
825.949	2354
826.045	2413
826.142	2202
826.238	3265
826.334	3073
826.430	2651
826.526	2412
826.622	1874
826.718	2565
826.814	2874
826.910	3821
827.006	2737
827.102	1884
827.198	3397
827.294	2480
827.390	2818
827.486	3043
827.582	1891
827.678	1399
827.774	2842
827.869	2001
827.965	2903
828.061	2118
828.157	1629
828.252	3100
828.348	1832
828.444	2727
828.539	2250
828.635	2378
828.731	2538
828.826	1737
828.922	2677
829.017	2700
829.113	2839
829.208	1227
829.304	2345
829.399	3132
829.495	2241
829.590	2641
829.685	1786
829.781	2428
829.876	2260
829.971	1953
830.066	1931
830.162	2319
830.257	2649
830.352	1872
830.447	2923
830.543	2695
830.638	1627
830.733	3659
830.828	1854
830.923	2900
831.018	1628
831.113	2775
831.208	1709
831.303	1959
831.398	2362
831.493	2346
831.588	2061
831.683	1347
831.778	1673
831.873	1866
831.967	2436
832.062	1736
832.157	2530
832.252	2822
832.346	2309
832.441	2658
832.536	3649
832.631	7165
832.725	6250
832.820	1359
832.914	1500
833.009	1724
833.104	2554
833.198	2520
833.293	2248
833.387	2114
833.482	2520
833.576	2604
833.670	2471
833.765	1400
833.859	2056
833.954	2762
834.048	2756
834.142	1754
834.237	1719
834.331	1595
834.425	1798
834.519	1801
834.613	2628
834.708	1459
834.802	2213
834.896	1255
834.990	1784
835.084	2301
835.178	1448
835.272	1831
835.366	2103
835.460	2823
835.554	1405
835.648	1435
835.742	1246
835.836	1651
835.930	29
836.024	1840
836.117	3203
836.211	2499
836.305	2616
836.399	4644
836.493	1627
836.586	3089
836.680	582
836.774	1542
836.867	2867
836.961	1374
837.055	1478
837.148	1341
837.242	2264
837.335	660
837.429	2919
837.522	2748
837.616	2753
837.709	4223
837.803	3730
837.896	2225
837.989	1965
838.083	3145
838.176	5119
838.269	4797
838.363	2843
838.456	1856
838.549	3225
838.642	4186
838.735	8091
838.829	4490
838.922	2327
839.015	1739
839.108	725
839.201	1647
839.294	2377
839.387	1723
839.480	1607
839.573	2417
839.666	2996
839.759	1087
839.852	155
839.945	1261
840.038	1141
840.131	1510
840.223	1227
840.316	1891
840.409	813
840.502	1350
840.594	3111
840.687	1234
840.780	1706
840.873	900
840.965	1954
841.058	2527
841.150	5312
841.243	4161
841.336	2115
841.428	1109
841.521	415
841.613	1401
841.706	2722
841.798	1425
841.890	1345
841.983	506
842.075	2203
842.167	1478
842.260	2445
842.352	2641
842.444	2828
842.537	4678
842.629	8019
842.721	2682
842.813	1485
842.905	674
842.997	1399
843.090	2196
843.182	2997
843.274	5020
843.366	10955
843.458	20746
843.550	15209
843.642	2963
843.734	2336
843.826	2575
843.918	2571
844.009	1803
844.101	1433
844.193	1836
844.285	2438
844.377	1445
844.469	2219
844.560	1214
844.652	1017
844.744	1223
844.835	1442
844.927	1346
845.019	1716
845.110	1660
845.202	1566
845.293	1036
845.385	608
845.476	2030
845.568	2378
845.659	1593
845.751	1325
845.842	1377
845.934	491
846.025	1564
846.116	1595
846.208	1300
846.299	436
846.390	1709
846.482	1352
846.573	3261
846.664	2797
846.755	3783
846.846	3921
846.937	664
847.029	2016
847.120	1147
847.211	545
847.302	2531
847.393	105
847.484	2357
847.575	965
847.666	1130
847.757	598
847.847	1132
847.938	1911
848.029	736
848.120	869
848.211	1202
848.302	1219
848.392	751
848.483	1755
848.574	856
848.664	851
848.755	974
848.846	725
848.936	892
849.027	740
849.118	2161
849.208	1000
849.299	1648
849.389	2371
849.480	4487
849.570	7303
849.661	11594
849.751	19780
849.841	8348
849.932	1402
850.022	643
850.112	1524
850.203	1092
850.293	1038
850.383	1103
850.474	570
850.564	724
850.654	1231
850.744	1300
850.834	352
850.924	1392
851.014	2035
851.104	1683
851.194	1137
851.284	1729
851.374	2609
851.464	1728
851.554	1300
851.644	1698
851.734	2444
851.824	1788
851.914	783
852.004	1194
852.094	1123
852.183	2435
852.273	1942
852.363	746
852.452	679
852.542	859
852.632	1611
852.721	1627
852.811	1467
852.901	820
852.990	922
853.080	1096
853.169	1210
853.259	1015
853.348	1509
853.438	2324
853.527	1044
853.617	2774
853.706	4873
853.795	8247
853.885	20290
853.974	36567
854.063	64230
854.152	109595
854.242	46813
854.331	8382
854.420	3353
854.509	2834
854.598	3122
854.687	2645
854.777	1981
854.866	1868
854.955	1680
855.044	2164
855.133	1523
855.222	1194
855.311	696
855.400	1853
855.488	1436
855.577	1380
855.666	908
855.755	1166
855.844	633
855.933	1233
856.021	770
856.110	1176
856.199	897
856.288	1485
856.376	937
856.465	370
856.554	1289
856.642	935
856.731	2066
856.819	1653
856.908	1248
856.996	1198
857.085	1786
857.173	1137
857.262	763
857.350	997
857.438	479
857.527	1307
857.615	1234
857.703	2273
857.792	998
857.880	914
857.968	371
858.056	1188
858.145	739
858.233	1500
858.321	670
858.409	1360
858.497	-171
858.585	1233
858.673	1789
858.761	785
858.849	1000
858.937	397
859.025	1250
859.113	1430
859.201	32
859.289	1656
859.377	983
859.465	839
859.552	1130
859.640	1785
859.728	2146
859.816	1503
859.903	1271
859.991	1097
860.079	1468
860.166	1354
860.254	595
860.342	1204
860.429	808
860.517	154
860.604	544
860.692	1019
860.779	1502
860.867	907
860.954	1098
861.042	941
861.129	1668
861.216	1511
861.304	780
861.391	658
861.478	1159
861.565	943
861.653	1528
861.740	686
861.827	753
861.914	1212
862.001	1212
862.089	1096
862.176	689
862.263	351
862.350	1163
862.437	634
862.524	1133
862.611	232
862.698	901
862.785	886
862.871	1366
862.958	434
863.045	160
863.132	954
863.219	1044
863.306	397
863.392	1025
863.479	1500
863.566	1723
863.652	714
863.739	-29
863.826	963
863.912	1191
863.999	1000
864.086	1080
864.172	1010
864.259	-8
864.345	1414
864.432	1037
864.518	860
864.604	1286
864.691	958
864.777	1379
864.863	1190
864.950	1511
865.036	1615
865.122	2409
865.209	3306
865.295	2648
865.381	2715
865.467	2747
865.553	3396
865.639	3558
865.726	6169
865.812	10320
865.898	20432
865.984	29828
866.070	50556
866.156	62277
866.242	18127
866.328	5220
866.414	3065
866.499	2907
866.585	2922
866.671	2342
866.757	2759
866.843	2662
866.928	2041
867.014	1800
867.100	2312
867.186	1754
867.271	3135
867.357	3390
867.442	3083
867.528	2458
867.614	2431
867.699	1691
867.785	2579
867.870	1574
867.956	2215
868.041	1958
868.127	2016
868.212	2671
868.297	2961
868.383	2231
868.468	3495
868.553	4250
868.639	5225
868.724	8361
868.809	8720
868.894	2694
868.979	1699
869.065	2064
869.150	1246
869.235	2205
869.320	1708
869.405	1240
869.490	1134
869.575	1271
869.660	982
869.745	1860
869.830	1233
869.915	1698
870.000	1507
870.085	495
870.169	1262
870.254	1990
870.339	641
870.424	950
870.509	2061
870.593	1821
870.678	1807
870.763	1566
870.847	803
870.932	1707
871.016	1535
871.101	481
871.186	1275
871.270	1471
871.355	1204
871.439	1152
871.523	1339
871.608	1409
871.692	287
871.777	1597
871.861	1628
871.945	525
872.030	1457
872.114	1018
872.198	693
872.282	1461
872.367	1398
872.451	943
872.535	822
872.619	330
872.703	1495
872.787	1511
872.871	1336
872.955	835
873.039	539
873.123	1921
873.207	1888
873.291	760
873.375	857
873.459	738
873.543	446
873.627	1321
873.711	1676
873.794	1113
873.878	833
873.962	677
874.045	931
874.129	1371
874.137	1352
874.213	1165
874.245	1023
874.296	802
874.352	896
874.380	935
874.460	977
874.464	980
874.547	1206
874.568	1072
874.631	662
874.676	957
874.714	1201
874.784	791
874.798	713
874.881	2017
874.892	1832
874.965	547
874.999	867
875.048	1326
875.107	927
875.131	755
875.215	845
875.215	846
875.298	1065
875.323	1023
875.381	916
875.430	1528
875.465	1980
875.538	1459
875.548	1385
875.631	1233
875.646	1100
875.714	468
875.753	763
875.798	1118
875.861	956
875.881	883
875.964	882
875.968	879
876.047	928
876.076	1002
876.130	1086
876.183	1177
876.213	1250
876.291	2073
876.296	2124
876.379	1243
876.398	1214
876.462	1150
876.506	1014
876.545	873
876.613	890
876.628	898
876.711	425
876.721	559
876.794	1633
876.828	1259
876.877	700
876.935	727
876.960	737
877.043	1173
877.043	1173
877.125	1008
877.150	1124
877.208	1462
877.258	1128
877.291	881
877.365	794
877.374	778
877.456	951
877.472	959
877.539	1084
877.579	1016
877.622	866
877.687	1275
877.704	1380
877.787	1198
877.794	1194
877.869	1538
877.901	1380
877.952	863
878.008	723
878.034	677
878.115	794
878.117	798
878.199	206
878.222	394
878.282	817
878.329	891
878.364	982
878.437	886
878.447	860
878.529	46
878.544	208
878.611	1156
878.651	1101
878.694	931
878.758	912
878.776	922
878.858	987
878.865	1020
878.941	1165
878.972	842
879.023	398
879.078	253
879.105	290
879.185	1112
879.187	1122
879.269	987
879.292	862
879.351	645
879.399	735
879.433	775
879.506	579
879.516	548
879.598	397
879.613	364
879.680	414
879.720	885
879.762	1158
879.827	623
879.844	530
879.926	134
879.933	223
880.007	1261
880.040	1282
880.089	1134
880.147	1562
880.171	1834
880.253	2692
880.254	2696
880.335	2901
880.360	3257
880.417	4324
880.467	6383
880.499	7901
880.574	9659
880.580	9604
880.662	3952
880.680	3174
880.744	1249
880.787	1060
880.825	913
880.893	330
880.907	317
880.989	643
881.000	705
881.070	969
881.106	944
881.152	543
881.213	187
881.233	285
881.315	641
881.319	690
881.396	1167
881.426	821
881.478	261
881.532	480
881.559	587
881.639	694
881.641	688
881.722	715
881.745	558
881.803	767
881.852	913
881.885	740
881.958	508
881.966	509
882.047	1008
882.064	1025
882.129	1042
882.171	825
882.210	776
882.277	1862
882.291	2005
882.372	1154
882.383	1011
882.454	160
882.489	251
882.535	432
882.596	567
882.616	586
882.697	295
882.702	298
882.778	392
882.808	418
882.859	427
882.914	514
882.940	565
883.020	142
883.021	138
883.102	166
883.127	118
883.183	625
883.233	1114
883.264	754
883.339	-181
883.345	-153
883.426	378
883.445	586
883.507	705
883.551	442
883.587	404
883.657	384
883.668	413
883.749	993
883.763	1028
883.830	713
883.869	559
883.910	504
883.975	598
883.991	623
884.072	534
884.081	546
884.152	520
884.187	443
884.233	547
884.292	347
884.314	225
884.394	520
884.398	500
884.475	441
884.504	681
884.555	861
884.610	949
884.636	973
884.716	205
884.716	204
884.797	663
884.821	681
884.877	631
884.927	350
884.958	226
885.033	346
885.038	349
885.118	198
885.139	243
885.199	482
885.244	561
885.279	622
885.350	599
885.359	630
885.439	1162
885.456	1139
885.520	311
885.561	47
885.600	54
885.667	148
885.680	152
885.760	-2
885.773	-51
885.840	-135
885.878	-82
885.920	236
885.984	603
886.000	540
886.080	685
886.089	633
886.160	378
886.195	346
886.240	458
886.300	732
886.320	764
886.400	891
886.406	884
886.480	956
886.511	976
886.560	732
886.616	582
886.640	639
886.720	658
886.722	661
886.800	199
886.827	-16
886.879	187
886.932	436
886.959	597
887.038	1042
887.039	1038
887.119	501
887.143	337
887.198	551
887.248	765
887.278	623
887.354	251
887.358	254
887.437	321
887.459	307
887.517	351
887.564	538
887.596	682
887.669	803
887.676	795
887.755	692
887.774	670
887.835	504
887.880	445
887.914	523
887.985	576
887.994	544
888.073	275
888.090	240
888.153	390
888.195	370
888.232	402
888.300	643
888.311	614
888.391	324
888.405	285
888.470	791
888.510	1056
888.549	884
888.615	622
888.628	680
888.708	1017
888.720	1064
888.787	1066
888.825	1096
888.866	553
888.930	-332
888.945	-156
889.024	794
889.035	919
889.103	196
889.140	-175
889.182	-81
889.245	51
889.261	62
889.340	142
889.349	152
889.419	701
889.454	988
889.498	595
889.559	49
889.577	179
889.656	768
889.664	828
889.735	713
889.768	658
889.814	258
889.873	-269
889.978	483
890.083	-56
890.187	1127
890.292	-49
890.397	664
890.501	945
890.606	-165
890.710	474
890.815	254
890.919	405
891.024	-473
891.128	400
891.233	274
891.337	831
891.442	-297
891.546	243
891.650	578
891.755	880
891.859	1640
891.963	1345
892.068	797
892.172	573
892.276	229
892.380	119
892.484	424
892.589	1158
892.693	294
892.797	-56
892.901	822
893.005	946
893.109	81
893.213	434
893.317	843
893.421	302
893.525	235
893.629	554
893.733	-197
893.837	-411
893.941	801
894.045	143
894.148	435
894.252	-509
894.356	703
894.460	957
894.564	100
894.667	904
894.771	395
894.875	-431
894.978	813
895.082	-406
895.186	1332
895.289	1390
895.393	249
895.496	146
895.600	473
895.703	-269
895.807	165
895.910	941
896.014	401
896.117	-102
896.221	-225
896.324	74
896.427	476
896.531	44
896.634	818
896.737	772
896.840	369
896.944	721
897.047	-214
897.150	763
897.253	-81
897.356	41
897.460	-351
897.563	-149
897.666	1081
897.769	728
897.872	917
897.975	746
898.078	377
898.181	366
898.284	702
898.387	1361
898.490	602
898.593	809
898.695	-860
898.798	-45
898.901	1198
899.004	866
899.107	-461
899.209	1207
899.312	506
899.415	738
899.518	-24
899.620	577
899.723	-138
899.826	208
899.928	906
900.031	-351
900.133	-246
900.236	33
900.338	-225
900.441	303
900.543	454
900.646	450
900.748	582
900.851	671
900.953	493
901.055	47
901.158	993
901.260	334
901.362	-316
901.465	-235
901.567	266
901.669	641
901.771	543
901.873	291
901.976	438
902.078	450
902.180	-341
902.282	591
902.384	-350
902.486	799
902.588	-212
902.690	189
902.792	891
902.894	137
902.996	-553
903.098	-101
903.200	189
903.302	105
903.404	512
903.505	163
903.607	223
903.709	750
903.811	348
903.913	-71
904.014	164
904.116	-549
904.218	-71
904.319	7
904.421	58
904.523	61
904.624	330
904.726	430
904.827	45
904.929	-155
905.030	-220
905.132	33
905.233	416
905.335	8
905.436	148
905.537	286
905.639	-461
905.740	280
905.841	-196
905.943	562
906.044	-5
906.145	154
906.247	-44
906.348	777
906.449	306
906.550	-329
906.651	283
906.752	-152
906.854	-399
906.955	-524
907.056	-302
907.157	103
907.258	938
907.359	12
907.460	-155
907.561	-480
907.662	-33
907.762	-540
907.863	-195
907.964	262
908.065	162
908.166	-255
908.267	531
908.367	-996
908.468	144
908.569	-66
908.670	-662
908.770	139
908.871	406
908.971	150
909.072	44
909.173	45
909.273	-4
909.374	-102
909.474	30
909.575	-36
909.675	-28
909.776	286
909.876	447
909.977	41
910.077	19
910.177	-209
910.278	74
910.378	132
910.478	-213
910.579	-324
910.679	-471
910.779	97
910.879	178
910.980	-183
911.080	-584
911.180	-424
911.280	-97
911.380	37
911.480	46
911.580	-624
911.680	-83
911.780	-712
911.880	462
911.980	628
912.080	5
912.180	87
912.280	189
912.380	170
912.480	-635
912.580	-105
912.679	-52
912.779	-312
912.879	-5
912.979	426
913.078	-604
913.178	100
913.278	-247
913.377	724
913.477	434
913.577	387
913.676	452
913.776	-167
913.875	-164
913.975	982
914.074	-276
914.174	-489
914.273	-393
914.373	667
914.472	1253
914.572	-667
914.671	482
914.770	178
914.870	-338
914.969	171
915.068	64
915.167	644
915.267	184
915.366	-119
915.465	131
915.564	-656
915.663	-300
915.763	-308
915.862	516
915.961	517
916.060	-183
916.159	-70
916.258	-493
916.357	-51
916.456	519
916.555	135
916.654	-296
916.752	-294
916.851	85
916.950	365
917.049	-249
917.148	383
917.247	734
917.345	-260
917.444	-261
917.543	-323
917.642	-11
917.740	402
917.839	-545
917.937	77
918.036	298
918.135	203
918.233	363
918.332	716
918.430	506
918.529	320
918.627	311
918.726	-786
918.824	-193
918.923	-437
919.021	-222
919.119	-61
919.218	77
919.316	-888
919.414	199
919.512	-213
919.611	-178
919.709	-385
919.807	-271
919.905	-355
920.003	448
920.102	270
920.200	694
920.298	-508
920.396	-806
920.494	-96
920.592	577
920.690	843
920.788	-77
920.886	-208
920.984	-17
921.082	-188
921.180	356
921.277	110
921.375	-160
921.473	208
921.571	262
921.669	-90
921.766	-216
921.864	436
921.962	220
922.060	867
922.157	195
922.255	555
922.352	663
922.450	10
922.548	-480
922.645	-96
922.743	1029
922.840	629
922.938	621
923.035	1361
923.133	808
923.230	1503
923.327	1290
923.425	1109
923.522	908
923.619	1292
923.717	438
923.814	770
923.911	92
924.008	2370
924.106	870
924.203	673
924.300	671
924.397	407
924.494	1134
924.591	761
924.688	711
924.786	815
924.883	267
924.979	555
925.077	401
925.173	300
925.270	675
925.367	624
925.464	245
925.561	1301
925.658	971
925.755	1514
925.852	1037
925.948	836
926.045	818
926.142	366
926.239	480
926.335	687
926.432	1015
926.529	1013
926.625	377
926.722	226
926.818	906
926.915	425
927.011	402
927.108	594
927.204	222
927.301	189
927.397	892
927.494	1103
927.590	495
927.687	460
927.783	1041
927.879	923
927.976	886
928.072	543
928.168	758
928.264	241
928.361	-46
928.457	353
928.553	585
928.649	725
928.745	512
928.841	319
928.937	145
929.033	1160
929.129	166
929.225	94
929.321	649
929.417	1009
929.513	-84
929.609	267
929.705	-106
929.801	776
929.897	-96
929.993	426
930.089	210
930.184	-352
930.280	683
930.376	959
930.471	425
930.567	41
930.663	290
930.758	-315
930.854	15
930.950	-48
931.045	302
931.141	826
931.236	897
931.332	971
931.427	-25
931.523	393
931.618	-118
931.714	-438
931.809	525
931.905	932
932.000	779
932.095	648
932.191	724
932.286	-100
932.381	195
932.476	-281
932.572	651
932.667	300
932.762	903
932.857	988
932.952	130
933.047	764
933.142	785
933.237	987
933.332	115
933.427	315
933.522	331
933.617	608
933.712	41
933.807	439
933.902	384
933.997	502
934.092	7
934.187	-121
934.282	216
934.376	115
934.471	567
934.566	337
934.661	357
934.755	209
934.850	44
934.945	169
935.039	276
935.134	547
935.228	187
935.323	-77
935.417	795
935.512	320
935.606	130
935.701	-43
935.795	1222
935.890	-110
935.984	690
936.079	-315
936.173	10
936.267	119
936.362	-248
936.456	-940
936.550	256
936.644	235
936.738	54
936.833	302
936.927	223
937.021	-274
937.115	113
937.209	-729
937.303	300
937.397	-485
937.491	270
937.585	575
937.679	433
937.773	-338
937.867	-272
937.961	-292
938.055	765
938.149	835
938.243	-64
938.337	-307
938.430	239
938.524	106
938.618	-357
938.712	415
938.805	-670
938.899	-748
938.993	-174
939.086	2
939.180	-353
939.274	394
939.367	298
939.461	290
939.554	-63
939.648	-337
939.741	-84
939.835	-262
939.928	213
940.022	151
940.115	-263
940.208	-303
940.302	272
940.395	486
940.488	-1052
940.582	564
940.675	164
940.768	-252
940.861	230
940.954	987
941.048	-219
941.141	-836
941.234	-485
941.327	-236
941.420	744
941.513	91
941.606	-67
941.699	313
941.792	378
941.885	347
941.978	338
942.071	-437
942.164	-363
942.257	260
942.349	-427
942.442	-171
942.535	-189
942.628	-370
942.721	274
942.813	-558
942.906	954
942.999	-389
943.091	-597
943.184	-76
943.277	-386
943.369	419
943.462	-1054
943.554	-538
943.647	-1259
943.739	475
943.832	-167
943.924	-732
944.017	645
944.109	-993
944.201	-618
944.294	402
944.386	-1250
944.478	-1104
944.571	-151
944.663	-173
944.755	-949
944.847	-67
944.940	216
945.032	-809
945.124	-757
945.216	-90
945.308	261
945.400	170
945.492	-158
945.584	-336
945.676	-308
945.768	693
945.860	149
945.952	-935
946.044	-220
946.136	-352
946.228	-224
946.320	-927
946.412	271
946.503	-184
946.595	581
946.687	-217
946.779	-349
946.870	0
946.962	-609
947.054	-648
947.145	-422
947.237	-448
947.329	-832
947.420	-333
947.512	-346
947.603	-393
947.695	-582
947.786	-373
947.878	-829
947.969	-71
948.061	-683
948.152	-409
948.243	-895
948.335	-195
948.426	-573
948.517	-278
948.609	72
948.700	-436
948.791	-751
948.882	29
948.973	-372
949.065	-733
949.156	-342
949.247	-1117
949.338	-420
949.429	-221
949.520	-680
949.611	-1637
949.702	-95
949.793	-473
949.884	-286
949.975	-223
950.066	-464
950.157	-1058
950.247	-634
950.338	-202
950.429	-308
950.520	-551
950.611	-187
950.701	-845
950.792	-263
950.883	497
950.973	4
951.064	-112
951.155	-129
951.245	-303
951.336	-403
951.427	-449
951.517	-727
951.608	-325
951.698	-770
951.788	-457
951.879	-707
951.969	-1234
952.060	-1139
952.150	-724
952.240	-563
952.331	-1196
952.421	610
952.511	-1003
952.602	-959
952.692	-1035
952.782	-280
952.872	-838
952.962	-1031
953.052	-553
953.143	-970
953.233	-125
953.323	-655
953.413	-1112
953.503	-580
953.593	-1048
953.683	-1461
953.773	-990
953.863	-764
953.953	-610
954.042	-670
954.132	-939
954.222	-417
954.312	-625
954.402	-694
954.492	-246
954.581	319
954.671	-737
954.761	-1275
954.850	1
954.940	-606
955.030	-949
955.119	-1516
955.209	-582
955.298	-856
955.388	-310
955.477	-639
955.567	-495
955.656	-681
955.746	-138
955.835	-682
955.925	-1333
956.014	-208
956.103	-965
956.193	-359
956.282	-479
956.371	-275
956.461	-927
956.550	-772
956.639	-997
956.728	-833
956.817	340
956.906	-1021
956.995	-250
957.085	-945
957.174	-6
957.263	-411
957.352	-1392
957.441	-1367
957.530	-1519
957.619	-393
957.708	-59
957.796	-421
957.885	-952
957.974	-802
958.063	-1213
958.152	-1532
958.241	-987
958.329	-700
958.418	-442
958.507	-1301
958.596	-268
958.684	-926
958.773	-838
958.861	-854
958.950	-363
959.039	-975
959.127	-1241
959.216	-253
959.304	-985
959.393	-681
959.481	-1400
959.570	-849
959.658	-1022
959.746	-372
959.835	-487
959.923	467
960.011	-474
960.100	-1122
960.188	-1007
960.276	-445
960.365	-1584
960.453	-1304
960.541	-842
960.629	-1018
960.717	-1333
960.805	-1320
960.893	-1069
960.981	-855
961.069	97
961.158	-324
961.245	-672
961.333	-544
961.421	-645
961.509	-716
961.597	-859
961.685	-610
961.773	-1820
961.861	-1165
961.949	-632
962.036	-707
962.124	-872
962.212	-1801
962.299	-926
962.387	-1245
962.475	-193
962.562	-1516
962.650	-9
962.738	-366
962.825	-1433
962.913	-1108
963.000	-67
963.088	-783
963.175	-943
963.263	-819
963.350	-513
963.438	-854
963.525	-959
963.612	-65
963.700	1282
963.787	7090
963.874	2714
963.962	-5
964.049	-849
964.136	-197
964.223	-1323
964.310	-737
964.398	-984
964.485	-978
964.572	18
964.659	-275
964.746	473
964.833	-229
964.920	-765
965.007	-1038
965.094	-615
965.181	-732
965.268	-708
965.355	-411
965.441	-1080
965.528	-542
965.615	256
965.702	173
965.789	-609
965.875	-523
965.962	-351
966.049	-1237
966.136	-1094
966.222	-486
966.309	575
966.395	-643
966.482	35
966.569	-727
966.655	-653
966.742	-1037
966.828	-606
966.915	-797
967.001	-646
967.087	-1779
967.174	-1006
967.260	-328
967.347	-138
967.433	1274
967.519	4181
967.605	945
967.692	-633
967.778	-523
967.864	-396
967.950	-1164
968.036	-1173
968.123	-1005
968.209	10
968.295	-817
968.381	873
968.467	-212
968.553	-1470
968.639	-526
968.725	-1257
968.811	122
968.897	51
968.983	-405
969.069	-889
969.154	-400
969.240	-213
969.326	-744
969.412	-505
969.497	-1415
969.583	-1125
969.669	230
969.755	-133
969.840	-813
969.926	-368
970.012	-641
970.097	934
970.183	-382
970.268	-34
970.354	-770
970.439	-465
970.525	2467
970.610	107
970.696	-158
970.781	-373
970.866	-1286
970.952	21
971.037	-1597
971.122	-524
971.208	-1089
971.293	-959
971.378	-2136
971.463	-465
971.549	215
971.634	-1130
971.719	-184
971.804	-1094
971.889	296
971.974	-1547
972.059	-1262
972.144	-967
972.229	-1246
972.314	-1899
972.399	-413
972.484	-315
972.569	-567
972.654	-898
972.739	781
972.824	623
972.908	-464
972.993	-1674
973.078	-1474
973.163	-1424
973.247	22
973.332	-2418
973.417	566
973.501	-646
973.586	-687
973.671	-557
973.755	-464
973.840	-405
973.924	-764
974.009	-757
974.093	-1737
974.178	1113
974.262	-72
974.346	829
974.431	-456
974.515	-1589
974.600	-790
974.684	152
974.768	-1348
974.852	-171
974.937	-2331
975.021	-958
975.105	-1168
975.189	-540
975.273	-304
975.358	-1404
975.442	-1649
975.526	-277
975.610	-1858
975.694	-1248
975.778	-95
975.862	-967
975.946	-3068
976.030	207
976.114	-637
976.198	-1636
976.281	-1041
976.365	-721
976.449	-605
976.533	-496
976.617	-1447
976.700	-215
976.784	75
976.868	-700
976.951	-473
977.035	-1187
977.119	-1092
977.202	-1032
977.286	-753
977.369	-257
977.453	-108
977.536	-1727
977.620	-1470
977.703	-577
977.787	-1054
977.870	-390
977.953	290
978.037	-2060
978.120	-306
978.203	-610
978.287	703
978.370	-971
978.453	-1152
978.536	-964
978.620	-307
978.703	467
978.786	-774
978.869	-1836
978.952	-1978
979.035	-273
979.118	-648
979.201	-1121
979.284	-746
979.367	-1886
979.450	-1039
979.533	-1513
979.616	-1119
979.699	-1392
979.782	-1233
979.865	-1034
979.948	-448
980.030	-1154
980.113	-1529
980.196	-2021
980.279	-1026
980.361	-1085
980.444	-1492
980.526	-539
980.609	-1340
980.692	-883
980.774	-179
980.857	-1785
980.939	-982
981.022	-1147
981.104	-563
981.187	-1592
981.269	30
981.352	-1165
981.434	-2015
981.516	-2555
981.599	-206
981.681	-787
981.763	-916
981.846	-863
981.928	-1285
982.010	-343
982.092	-1198
982.174	-454
982.256	-1369
982.339	-741
982.421	-1091
982.503	-1283
982.585	-1682
982.667	-1263
982.749	-1035
982.831	-1306
982.913	-1456
982.995	-252
983.077	-1689
983.158	-376
983.240	-1839
983.322	-1019
983.404	-193
983.486	-924
983.568	-853
983.649	-1107
983.731	-1562
983.813	-673
983.894	-1295
983.976	-2029
984.058	-1562
984.139	31
984.221	-1473
984.302	-224
984.384	-711
984.465	-1740
984.547	-1510
984.628	-1912
984.710	-1071
984.791	-1079
984.872	-1123
984.954	-1260
985.035	-1603
985.116	-1858
985.198	-1359
985.279	-711
985.360	-1698
985.441	-724
985.522	-566
985.604	-1246
985.685	-3224
985.766	-409
985.847	247
985.928	-1650
986.009	-968
986.090	-2276
986.171	-392
986.252	-893
986.333	-828
986.414	-947
986.495	-977
986.576	-1341
986.656	-1293
986.737	-1395
986.818	-654
986.899	-1823
986.980	-1475
987.060	-448
987.141	-1876
987.222	-465
987.302	-1367
987.383	-1784
987.464	-1350
987.544	-673
987.625	-1077
987.705	-914
987.786	-717
987.866	-1187
987.947	-1236
988.027	-599
988.108	-1140
988.188	-1137
988.268	-526
988.349	-1293
988.429	-1798
988.509	-800
988.589	-1509
988.670	-2654
988.750	-300
988.830	-1596
988.910	-1103
988.990	-1404
989.070	-1377
989.151	-542
989.231	-2725
989.311	-1394
989.391	-1809
989.471	-1772
989.551	-832
989.631	-2832
989.711	-454
989.791	-1514
989.870	-1989
989.950	-239
990.030	-1639
990.110	-1455
990.190	-2351
990.269	-1700
990.349	-1658
990.429	-1124
990.509	-992
990.588	-1737
990.668	-1067
990.747	-178
990.827	-1867
990.907	-101
990.986	-2161
991.066	-841
991.145	-2305
991.225	-627
991.304	-1456
991.383	-601
991.463	-2202
991.542	-646
991.622	-1705
991.701	-2163
991.780	-803
991.859	-1256
991.939	-1210
992.018	-1159
992.097	-1373
992.176	-413
992.256	-878
992.335	-1919
992.414	-1181
992.493	-1956
992.572	-1536
992.651	-110
992.730	-2173
992.809	-1564
992.888	-2730
992.967	-2090
993.046	-981
993.125	-1764
993.203	-1359
993.282	-1374
993.361	-1328
993.440	-1217
993.519	-1347
993.597	-1213
993.676	-1643
993.755	-348
993.834	-603
993.912	-2183
993.991	-567
994.069	-1682
994.148	-1682
994.226	-1482
994.305	-1385
994.384	-2025
994.462	-283
994.540	-1920
994.619	-2318
994.697	-1343
994.776	-1799
994.854	-1108
994.932	-1761
995.011	-1567
995.089	-1084
995.167	-1364
995.245	-1373
995.324	-1941
995.402	-1084
995.480	-1765
995.558	-1206
995.636	-2052
995.714	-1449
995.792	-1415
995.870	-2013
995.948	-1271
996.026	-1029
996.104	-2707
996.182	-237
996.260	-1131
996.338	-425
996.416	-2044
996.494	-2347
996.572	-974
996.649	-1220
996.727	-1720
996.805	-1496
996.883	-1585
996.960	-2610
997.038	-1421
997.116	-1022
997.193	-1202
997.271	-1327
997.348	-838
997.426	-1698
997.504	-2293
997.581	-1199
997.658	-678
997.736	-2652
997.813	-2702
997.891	-574
997.968	-1664
998.046	-1268
998.123	-2419
998.200	-1962
998.277	-2221
998.355	-854
998.432	-2671
998.509	-1486
998.586	-1175
998.663	-1762
998.741	-1519
998.818	-2275
998.895	-1876
998.972	-968
999.049	-2002
999.126	-1552
999.203	-878
999.280	-1213
999.357	-2124
999.434	-2077
999.511	-1693
999.587	-1108
999.664	-2152
999.741	-1356
999.818	-1095
999.895	-2108
999.971	-1581
1000.048	-2041
1000.125	-917
1000.202	-2709
1000.278	-1429
1000.355	-1493
1000.431	-1409
1000.508	-2410
1000.584	-974
1000.661	-1723
1000.738	-1723
1000.814	-1864
1000.890	-1390
1000.967	-1385
1001.043	-1428
1001.120	-2331
1001.196	-920
1001.272	-2232
1001.349	-1655
1001.425	-935
1001.501	-1777
1001.577	-1732
1001.654	-299
1001.730	-1876
1001.806	-1963
1001.882	-1896
1001.958	-1520
1002.034	-1966
1002.110	-1788
1002.186	-1925
1002.262	-1809
1002.338	-2080
1002.414	-1335
1002.490	-1316
1002.566	-2211
1002.642	-1772
1002.718	-1510
1002.794	-1507
1002.870	-1755
1002.945	-2288
1003.021	-2130
1003.097	-1639
1003.173	-1313
1003.248	-2219
1003.324	-1202
1003.400	-1479
1003.475	-2179
1003.551	-1987
1003.626	-1930
1003.702	-1229
1003.777	-1996
1003.853	-2083
1003.928	-839
1004.004	-1966
1004.079	-1226
1004.155	-1067
1004.230	-2457
1004.305	-1143
1004.381	-2346
1004.456	-1040
1004.531	-1561
1004.607	-1424
1004.682	-1279
1004.757	-1858
1004.832	-1843
1004.907	-1109
1004.982	-1507
1005.057	-1158
1005.133	-1554
1005.208	-1915
1005.283	-1719
1005.358	-838
1005.433	-2203
1005.508	-1039
1005.583	-1668
1005.657	-2302
1005.732	-1203
1005.807	-1754
1005.882	-1903
1005.957	-1313
1006.032	-1709
1006.106	-1389
1006.181	-2532
1006.256	-1360
1006.331	-1567
1006.405	-1877
1006.480	-1193
1006.554	-1714
1006.629	-1787
1006.704	-1461
1006.778	-905
1006.853	-640
1006.927	-2351
1007.002	-2340
1007.076	-1288
1007.150	-1656
1007.225	-1180
1007.299	-821
1007.373	-2702
1007.448	-1902
1007.522	-1261
1007.596	-1226
1007.671	-2137
1007.745	-1388
1007.819	-2267
1007.893	-2271
1007.967	-1114
1008.041	-2289
1008.115	-1469
1008.190	-2339
1008.264	-1430
1008.338	-2392
1008.412	-1827
1008.486	-1989
1008.560	-1524
1008.633	-1975
1008.707	-1496
1008.781	-869
1008.855	-1570
1008.929	-2031
1009.003	-1354
1009.076	-2062
1009.150	-1574
1009.224	-1668
1009.298	-1315
1009.371	-2621
1009.445	-1709
1009.519	-978
1009.592	-2156
1009.666	-1198
1009.739	-1108
1009.813	-2113
1009.886	-1405
1009.960	-2203
1010.033	-1500
1010.107	-491
1010.180	-2470
1010.253	-2290
1010.327	-2499
1010.400	-1181
1010.473	-1275
1010.547	-1055
1010.620	-2293
1010.693	-1986
1010.766	-2041
1010.840	-942
1010.913	-1105
1010.986	-2929
1011.059	-1627
1011.132	-2537
1011.205	-1881
1011.278	-2123
1011.351	-1954
1011.424	-2221
1011.497	-2329
1011.570	-1697
1011.643	-1689
1011.716	-2076
1011.789	-1527
1011.862	-2044
1011.934	-1456
1012.007	-2951
1012.080	-1529
1012.153	-1742
1012.225	-1214
1012.298	-1497
1012.371	-2386
1012.443	-1381
1012.516	-1699
1012.588	-2026
1012.661	-1689
1012.733	-1816
1012.806	-1088
1012.879	-2468
1012.951	-1743
1013.023	-2534
1013.096	-1510
1013.168	-1681
1013.241	-1672
1013.313	-1239
1013.385	-1996
1013.458	-1583
1013.530	-1724
1013.602	-2540
1013.674	-1401
1013.746	-2730
1013.819	-1533
1013.891	-1302
1013.963	-2216
1014.035	-1599
1014.107	-1718
1014.179	-1412
1014.251	-1488
1014.323	-1723
1014.395	-2244
1014.467	-1815
1014.539	-1533
1014.611	-1820
1014.683	-1726
1014.754	-2248
1014.826	-1660
1014.898	-1851
1014.970	-2653
1015.042	-1257
1015.113	-1615
1015.185	-1408
1015.257	-2624
1015.328	-1468
1015.400	-1963
1015.471	-2067
1015.543	-2524
1015.615	-964
1015.686	-2150
1015.757	-2186
1015.829	-1321
1015.901	-2531
1015.972	-1404
1016.043	-1619
1016.115	-1490
1016.186	-1344
1016.257	-2641
1016.328	-1333
1016.400	-1408
1016.471	-1835
1016.542	-2199
1016.613	-1741
1016.685	-1558
1016.756	-1925
1016.827	-1903
1016.898	-2267
1016.969	-335
1017.040	-1433
1017.111	-2200
1017.182	-2327
1017.253	-1709
1017.324	-2110
1017.395	-1811
1017.466	-2167
1017.537	-2280
1017.608	-2144
1017.678	-2073
1017.749	-2210
1017.820	-2238
1017.891	-2787
1017.961	-2362
1018.032	-2134
1018.103	-1988
1018.173	-1993
1018.244	-2075
1018.315	-1624
1018.385	-1300
1018.456	-1639
1018.526	-1860
1018.597	-2082
1018.667	-1933
1018.738	-1970
1018.808	-2396
1018.878	-2870
1018.949	-1428
1019.019	-1576
1019.089	-2092
1019.160	-2979
1019.230	-2508
1019.300	-1262
1019.371	-2820
1019.441	-1384
1019.511	-1886
1019.581	-1640
1019.651	-1037
1019.721	-2183
1019.791	-2197
1019.861	-2064
1019.931	-1827
1020.001	-1368
1020.071	-1162
1020.141	-1866
1020.211	-2040
1020.281	-2386
1020.351	-2546
1020.421	-1411
1020.491	-1710
1020.560	-2526
1020.630	-1960
1020.700	-1329
1020.770	-1968
1020.839	-2388
1020.909	-2371
1020.979	-1920
1021.048	-1978
1021.118	-2420
1021.187	-1787
1021.257	-2027
1021.326	-2449
1021.396	-2169
1021.465	-1566
1021.535	-2321
1021.604	-1562
1021.674	-1685
1021.743	-2252
1021.812	-1998
1021.882	-1876
1021.951	-1619
1022.020	-2564
1022.089	-1792
1022.159	-2675
1022.228	-2113
1022.297	-2008
1022.366	-2498
1022.435	-1588
1022.504	-2498
1022.573	-2222
1022.642	-1457
1022.711	-1789
1022.781	-2399
1022.849	-1565
1022.918	-2028
1022.987	-1541
1023.056	-1964
1023.125	-1737
1023.194	-1975
1023.263	-1669
1023.331	-1664
1023.400	-2779
1023.469	-2445
1023.538	-836
1023.606	-2886
1023.675	-1212
1023.744	-2311
1023.812	-2186
1023.881	-2513
1023.949	-2229
1024.018	-2816
1024.086	-2276
1024.155	-2265
1024.223	-1871
1024.292	-2503
1024.360	-2018
1024.429	-2075
1024.497	-2842
1024.565	-1849
1024.634	-1595
1024.702	-2098
1024.770	-2017
1024.838	-2111
1024.907	-1744
1024.975	-2104
1025.043	-1736
1025.111	-2193
1025.179	-1933
1025.247	-2401
1025.315	-1518
1025.383	-1547
1025.451	-2678
1025.519	-2562
1025.587	-2147
1025.655	-2496
1025.723	-1369
1025.791	-2327
1025.859	-2379
1025.927	-1350
1025.995	-2325
1026.062	-2167
1026.130	-2072
1026.198	-2310
1026.266	-2120
1026.333	-1846
1026.401	-1480
1026.469	-2319
1026.536	-2269
1026.604	-2957
1026.671	-2349
1026.739	-2251
1026.806	-1941
1026.874	-2540
1026.941	-2013
1027.009	-2650
1027.076	-2674
1027.144	-1994
1027.211	-2533
1027.278	-1598
1027.345	-1995
1027.413	-2145
1027.480	-2626
1027.547	-2548
1027.614	-2312
1027.682	-2813
1027.749	-1483
1027.816	-2162
1027.883	-1430
1027.950	-2405
1028.017	-2611
1028.084	-1735
1028.151	-2322
1028.218	-2480
1028.285	-2122
1028.352	-2539
1028.419	-2126
1028.486	-1957
1028.553	-2624
1028.619	-2337
1028.686	-2429
1028.753	-2478
1028.820	-2285
1028.886	-1874
1028.953	-1970
1029.020	-2153
1029.086	-2209
1029.153	-2003
1029.220	-2897
1029.286	-1796
1029.353	-1319
1029.419	-2058
1029.486	-1893
1029.552	-2387
1029.619	-2043
1029.685	-2669
1029.751	-2107
1029.818	-1513
1029.884	-2836
1029.951	-1173
1030.017	-2075
1030.083	-1649
1030.149	-2408
1030.216	-2478
1030.282	-1116
1030.348	-1277
1030.414	-2048
1030.480	-1874
1030.546	-2281
1030.612	-1759
1030.678	-2436
1030.744	-2201
1030.810	-1404
1030.876	-969
1030.942	-1593
1031.008	-2072
1031.074	-1765
1031.140	-1808
1031.206	-1220
1031.272	-2214
1031.337	-2289
1031.403	-1524
1031.469	-2370
1031.534	-2075
1031.600	-1981
1031.666	-2845
1031.731	-2647
1031.797	-2099
1031.863	-2098
1031.928	-958
1031.994	-2096
1032.059	-2157
1032.125	-1914
1032.190	-2156
1032.256	-2473
1032.321	-2667
1032.386	-2684
1032.452	-1566
1032.517	-2218
1032.582	-2085
1032.647	-1814
1032.713	-2417
1032.778	-1575
1032.843	-2042
1032.908	-1968
1032.974	-2088
1033.039	-2353
1033.104	-1907
1033.169	-2464
1033.234	-2236
1033.299	-1691
1033.364	-1379
1033.429	-1541
1033.494	-1775
1033.559	-2502
1033.624	-2278
1033.688	-2398
1033.753	-2685
1033.818	-1748
1033.883	-1937
1033.948	-1985
1034.013	-1973
1034.077	-2408
1034.142	-1781
1034.207	-1992
1034.271	-888
1034.336	-927
1034.400	-1113
1034.465	-1843
1034.530	-2151
1034.594	-1826
1034.658	-2217
1034.723	-3000
1034.787	-1689
1034.852	-1931
1034.916	-2146
1034.981	-2161
1035.045	-1943
1035.109	-2107
1035.173	-1381
1035.238	-954
1035.302	-2101
1035.366	-2666
1035.430	-2191
1035.495	-1893
1035.559	-2132
1035.623	-2507
1035.687	-2294
1035.751	-1900
1035.815	-2255
1035.879	-1897
1035.943	-1210
1036.007	-2493
1036.071	-1754
1036.135	-2021
1036.198	-3183
1036.262	-2242
1036.326	-2068
1036.390	-1582
1036.454	-1852
1036.517	-1019
1036.581	-2042
1036.645	-2025
1036.709	-2290
1036.772	-2263
1036.836	-2263
1036.900	-2646
1036.963	-1472
1037.026	-1860
1037.090	-2145
1037.154	-2274
1037.217	-2184
1037.280	-2987
1037.344	-2154
1037.407	-2802
1037.471	-2615
1037.534	-2565
1037.597	-1516
1037.661	-1392
1037.724	-2635
1037.787	-1751
1037.850	-1870
1037.913	-1897
1037.977	-1702
1038.040	-2603
1038.103	-1571
1038.166	-2645
1038.229	-2182
1038.292	-2570
1038.355	-2177
1038.418	-2175
1038.481	-2453
1038.544	-1928
1038.607	-2584
1038.670	-2956
1038.732	-2736
1038.795	-2824
1038.858	-2286
1038.921	-2253
1038.984	-2046
1039.046	-2905
1039.109	-2324
1039.172	-1265
1039.234	-1882
1039.297	-2144
1039.360	-2291
1039.422	-1903
1039.485	-1542
1039.547	-2711
1039.610	-1733
1039.672	-2193
1039.734	-2620
1039.797	-3343
1039.859	-1597
1039.922	-2751
1039.984	-2271
1040.046	-2627
1040.109	-2142
1040.171	-3108
1040.233	-1880
1040.295	-1985
1040.358	-2310
1040.420	-2095
1040.482	-2415
1040.544	-2421
1040.606	-2335
1040.668	-2026
1040.730	-2140
1040.792	-1727
1040.854	-2142
1040.916	-2992
1040.978	-3220
1041.040	-1971
1041.102	-2233
1041.164	-2442
1041.225	-2090
1041.287	-3187
1041.349	-2044
1041.411	-2284
1041.472	-1955
1041.534	-1787
1041.596	-2315
1041.657	-2433
1041.719	-2398
1041.781	-2293
1041.842	-2628
1041.904	-2003
1041.965	-1988
1042.027	-1743
1042.088	-1819
1042.150	-2128
1042.211	-1990
1042.272	-2056
1042.334	-2439
1042.395	-2401
1042.456	-2259
1042.518	-2260
1042.579	-2269
1042.640	-1608
1042.701	-2698
1042.763	-1868
1042.824	-2086
1042.885	-2145
1042.946	-2207
1043.007	-2510
1043.068	-2011
1043.129	-1732
1043.190	-2105
1043.251	-1917
1043.312	-2287
1043.373	-2167
1043.434	-2154
1043.495	-2500
1043.556	-1815
1043.616	-2049
1043.677	-2629
1043.738	-1625
1043.799	-2155
1043.859	-2161
1043.920	-2334
1043.981	-2139
1044.041	-2130
1044.102	-1805
1044.162	-1918
1044.223	-2397
1044.284	-2159
1044.344	-730
1044.405	-2432
1044.465	-2301
1044.525	-2255
1044.586	-1604
1044.646	-1163
1044.707	-2462
1044.767	-1917
1044.827	-2097
1044.887	-2102
1044.948	-2043
1045.008	-1963
1045.068	-1796
1045.128	-2038
1045.188	-1692
1045.249	-2319
1045.309	-2498
1045.369	-1763
1045.429	-1481
1045.489	-2207
1045.549	-2119
1045.609	-1858
1045.669	-2024
1045.729	-2103
1045.789	-2170
1045.848	-2521
1045.908	-1882
1045.968	-1854
1046.028	-1687
1046.088	-1285
1046.147	-1322
1046.207	-1684
1046.267	-1890
1046.326	-974
1046.386	-1598
1046.446	-969
1046.505	-1649
1046.565	-1515
1046.624	-1304
1046.684	-981
1046.743	-2148
1046.803	-955
1046.862	-676
1046.922	0
