'Start Wavelength	183.907
'End Wavelength	1046.922
'Gate Delay	5.000
'Gate Width (ms)	1.050
'Laser Output Level	0.000
'X Position	0.000
'Y Position	0.000
'Z Position	0.000
'Grid Point Number	1.000
'Shot Number	100.000
183.907	337.000
183.977	-487.000
184.047	-749
184.116	40
184.186	293
184.256	-201
184.325	-1228
184.395	-1014
184.465	270
184.534	-167
184.604	-430
184.674	276
184.743	-254
184.813	413
184.883	-214
184.952	-360
185.022	-162
185.092	-59
185.161	-189
185.231	-588
185.301	-1218
185.370	-463
185.440	-398
185.509	-930
185.579	-529
185.649	335
185.718	-56
185.788	550
185.857	-466
185.927	-171
185.996	-553
186.066	-437
186.136	-932
186.205	28
186.275	49
186.344	23
186.414	-804
186.483	-1058
186.553	709
186.622	693
186.692	-63
186.761	-934
186.831	-199
186.900	-238
186.970	-444
187.039	172
187.109	-104
187.178	-361
187.248	-84
187.317	265
187.387	-989
187.456	529
187.526	417
187.595	227
187.664	167
187.734	523
187.803	-414
187.873	305
187.942	148
188.012	275
188.081	-692
188.150	109
188.220	-551
188.289	799
188.358	154
188.428	-179
188.497	-16
188.567	113
188.636	-506
188.705	143
188.775	-258
188.844	-481
188.913	514
188.983	-133
189.052	-212
189.121	-718
189.191	-284
189.260	-346
189.329	-65
189.399	220
189.468	-363
189.537	221
189.606	-249
189.676	-275
189.745	-218
189.814	-233
189.883	-1125
189.953	410
190.022	-47
190.091	709
190.161	1343
190.230	853
190.299	-1099
190.368	459
190.437	-213
190.507	-27
190.576	-511
190.645	-114
190.714	-327
190.783	-160
190.853	-391
190.922	-280
190.991	-1123
191.060	-576
191.129	851
191.198	408
191.268	167
191.337	-370
191.406	-614
191.475	166
191.544	-472
191.613	-456
191.682	-297
191.752	-104
191.821	-402
191.890	-126
191.959	-126
192.028	-496
192.097	496
192.166	-57
192.235	-1072
192.304	-217
192.373	93
192.442	-983
192.511	-71
192.580	157
192.650	377
192.719	-219
192.788	-17
192.857	439
192.926	-130
192.995	65
193.064	-224
193.133	278
193.202	163
193.271	460
193.340	624
193.409	179
193.478	418
193.547	548
193.615	1252
193.684	1137
193.753	922
193.822	755
193.891	-320
193.960	685
194.029	-252
194.098	244
194.167	484
194.236	64
194.305	-102
194.374	16
194.443	-767
194.512	466
194.580	253
194.649	680
194.718	528
194.787	46
194.856	-508
194.925	-56
194.994	-118
195.062	524
195.131	91
195.200	21
195.269	396
195.338	113
195.407	-99
195.475	-69
195.544	-93
195.613	626
195.682	-441
195.751	958
195.819	774
195.888	-112
195.957	667
196.026	892
196.094	1129
196.163	395
196.232	368
196.301	-197
196.369	-210
196.438	312
196.507	258
196.576	182
196.644	-75
196.713	-273
196.782	-62
196.850	-134
196.919	354
196.988	199
197.056	-466
197.125	139
197.194	574
197.262	-1
197.331	-68
197.400	93
197.468	-269
197.537	12
197.606	-385
197.674	1236
197.743	1772
197.812	542
197.880	875
197.949	880
198.017	967
198.086	562
198.155	601
198.223	-147
198.292	1056
198.360	505
198.429	317
198.497	-359
198.566	26
198.635	1009
198.703	103
198.772	1415
198.840	1677
198.909	1219
198.977	-624
199.046	712
199.114	-508
199.183	575
199.251	128
199.320	-79
199.388	21
199.457	-290
199.525	-219
199.594	19
199.662	-149
199.731	-518
199.799	194
199.867	112
199.936	-502
200.004	-51
200.073	-99
200.141	134
200.210	58
200.278	755
200.346	910
200.415	550
200.483	223
200.552	-253
200.620	-125
200.688	357
200.757	638
200.825	599
200.893	-190
200.962	260
201.030	-78
201.098	0
201.167	307
201.235	-121
201.303	177
201.372	711
201.440	352
201.508	515
201.577	331
201.645	198
201.713	-371
201.781	-94
201.850	668
201.918	662
201.986	576
202.055	797
202.123	253
202.191	482
202.259	-499
202.327	524
202.396	645
202.464	2
202.532	1063
202.600	2388
202.669	1069
202.737	53
202.805	-323
202.873	378
202.941	399
203.009	16
203.078	384
203.146	614
203.214	386
203.282	-169
203.350	-472
203.418	117
203.487	-122
203.555	793
203.623	233
203.691	32
203.759	24
203.827	287
203.895	399
203.963	485
204.031	339
204.099	309
204.168	231
204.236	-146
204.304	307
204.372	1005
204.440	180
204.508	111
204.576	134
204.644	199
204.712	-184
204.780	509
204.848	114
204.916	259
204.984	171
205.052	429
205.120	544
205.188	-56
205.256	97
205.324	118
205.392	381
205.460	683
205.528	658
205.596	108
205.664	-182
205.732	627
205.799	1762
205.867	2948
205.935	608
206.003	-358
206.071	-5
206.139	833
206.207	461
206.275	339
206.343	175
206.411	275
206.478	626
206.546	217
206.614	359
206.682	-245
206.750	100
206.818	778
206.885	271
206.953	394
207.021	200
207.089	241
207.157	-527
207.225	355
207.292	760
207.360	360
207.428	217
207.496	102
207.563	-33
207.631	513
207.699	-39
207.767	552
207.834	-440
207.902	1080
207.970	393
208.038	532
208.105	136
208.173	833
208.241	1197
208.309	1275
208.376	714
208.444	2150
208.512	626
208.579	-158
208.647	505
208.715	1367
208.782	-65
208.850	397
208.918	496
208.985	274
209.053	937
209.120	1090
209.188	383
209.256	201
209.323	85
209.391	621
209.459	1569
209.526	1158
209.594	530
209.661	280
209.729	163
209.796	821
209.864	727
209.932	761
209.999	1805
210.067	530
210.134	817
210.202	1133
210.269	821
210.337	1634
210.404	299
210.472	759
210.539	882
210.607	134
210.674	405
210.742	748
210.809	-497
210.877	268
210.944	1750
211.012	189
211.079	2141
211.146	557
211.214	1105
211.281	1355
211.349	1379
211.416	1562
211.484	664
211.551	225
211.618	1550
211.686	808
211.753	701
211.821	1125
211.888	298
211.955	1360
212.023	380
212.090	1223
212.157	1032
212.225	470
212.292	2473
212.359	4177
212.427	8836
212.494	4020
212.561	1193
212.629	1191
212.696	1026
212.763	1620
212.831	844
212.898	1241
212.965	217
213.032	1186
213.100	858
213.167	850
213.234	998
213.301	233
213.369	298
213.436	785
213.503	1035
213.570	1635
213.638	822
213.705	294
213.772	106
213.839	429
213.906	962
213.973	1637
214.041	816
214.108	899
214.175	880
214.242	819
214.309	807
214.376	1159
214.444	945
214.511	1002
214.578	1033
214.645	1723
214.712	858
214.779	981
214.846	858
214.913	1645
214.980	2456
215.048	1815
215.115	2391
215.182	1855
215.249	1263
215.316	1271
215.383	1314
215.450	1279
215.517	1399
215.584	1137
215.651	213
215.718	1511
215.785	1444
215.852	1093
215.919	2378
215.986	1635
216.053	668
216.120	1080
216.187	1012
216.254	1036
216.321	1105
216.388	583
216.455	1467
216.522	835
216.589	2206
216.656	3139
216.722	2730
216.789	1928
216.856	2717
216.923	1808
216.990	1992
217.057	1791
217.124	2332
217.191	1644
217.258	2871
217.324	3310
217.391	3317
217.458	2699
217.525	1773
217.592	1622
217.659	937
217.725	2112
217.792	2873
217.859	1475
217.926	647
217.993	1240
218.059	1175
218.126	520
218.193	997
218.260	998
218.327	584
218.393	1264
218.460	966
218.527	390
218.594	1100
218.660	1862
218.727	1282
218.794	1010
218.860	805
218.927	628
218.994	169
219.061	565
219.127	1394
219.194	2795
219.261	1065
219.327	702
219.394	637
219.461	183
219.527	234
219.594	1685
219.661	913
219.727	267
219.794	952
219.860	-1
219.927	966
219.994	2848
220.060	3456
220.127	3090
220.193	1874
220.260	2068
220.326	2419
220.393	3834
220.460	4621
220.526	3750
220.593	1680
220.659	2768
220.726	1952
220.792	6234
220.859	4880
220.925	7404
220.992	8650
221.058	8096
221.125	6906
221.191	6241
221.258	2453
221.324	1706
221.391	865
221.457	1096
221.524	921
221.590	1720
221.657	6630
221.723	3340
221.789	4145
221.856	3706
221.922	1105
221.989	1717
222.055	894
222.121	551
222.188	2856
222.254	1730
222.321	708
222.387	648
222.453	798
222.520	1286
222.586	978
222.652	897
222.719	73
222.785	1204
222.851	834
222.918	871
222.984	423
223.050	1163
223.116	8
223.183	1515
223.249	665
223.315	-514
223.382	721
223.448	804
223.514	-258
223.580	324
223.647	193
223.713	-180
223.779	617
223.845	386
223.911	444
223.978	48
224.044	148
224.110	925
224.176	1097
224.242	348
224.309	13
224.375	476
224.441	883
224.507	805
224.573	317
224.639	1396
224.705	218
224.772	1068
224.838	114
224.904	1011
224.970	14
225.036	235
225.102	531
225.168	800
225.234	1095
225.300	1019
225.366	770
225.432	217
225.499	212
225.565	457
225.631	449
225.697	1016
225.763	866
225.829	1319
225.895	971
225.961	2914
226.027	2063
226.093	1493
226.159	2311
226.225	3435
226.291	8790
226.357	12917
226.423	7636
226.489	4099
226.554	2798
226.620	2368
226.686	2736
226.752	5086
226.818	7510
226.884	17572
226.950	14665
227.016	5007
227.082	3484
227.148	2410
227.214	2697
227.279	2296
227.345	1239
227.411	2690
227.477	2064
227.543	5536
227.609	6605
227.674	3482
227.740	1705
227.806	1348
227.872	1327
227.938	1669
228.003	2451
228.069	1172
228.135	293
228.201	984
228.267	1332
228.332	942
228.398	757
228.464	2139
228.530	256
228.595	827
228.661	586
228.727	1724
228.792	2035
228.858	1439
228.924	256
228.990	1699
229.055	1127
229.121	2336
229.187	1209
229.252	1013
229.318	-417
229.384	320
229.449	1337
229.515	-25
229.581	-1248
229.646	2389
229.712	0
229.777	3195
229.843	3033
229.909	2705
229.974	2538
230.040	3110
230.105	1337
230.171	2082
230.236	2728
230.302	4681
230.368	3326
230.433	1202
230.499	1626
230.564	2542
230.630	1226
230.695	610
230.761	1323
230.826	1021
230.892	2246
230.957	1028
231.023	750
231.088	1304
231.154	1027
231.219	1115
231.284	1136
231.350	1655
231.415	827
231.481	1651
231.546	-154
231.612	1056
231.677	612
231.742	-400
231.808	1420
231.873	258
231.939	-595
232.004	2654
232.069	3006
232.135	1018
232.200	879
232.265	1163
232.331	330
232.396	-439
232.461	33
232.527	540
232.592	381
232.657	1503
232.723	1648
232.788	2322
232.853	1072
232.918	1645
232.984	-143
233.049	-61
233.114	1617
233.179	2712
233.245	3540
233.310	2674
233.375	483
233.440	78
233.506	124
233.571	271
233.636	313
233.701	1129
233.766	1836
233.832	2574
233.897	1152
233.962	694
234.027	2888
234.092	580
234.157	1086
234.222	1365
234.288	2477
234.353	7517
234.418	6711
234.483	4153
234.548	2720
234.613	1953
234.678	2163
234.743	1665
234.808	8381
234.873	3976
234.938	2426
235.004	1718
235.069	1311
235.134	1777
235.199	1805
235.264	1765
235.329	47
235.394	1658
235.459	2034
235.524	1468
235.589	1604
235.654	1611
235.719	-239
235.784	883
235.849	1112
235.913	3854
235.978	4983
236.043	4976
236.108	2010
236.173	1793
236.238	1820
236.303	1337
236.368	743
236.433	3303
236.498	4183
236.563	3289
236.627	5957
236.692	22006
236.757	16560
236.822	6793
236.887	5619
236.952	4663
237.017	2538
237.081	4119
237.146	4235
237.211	9337
237.276	20811
237.341	32513
237.405	15668
237.470	6660
237.535	4948
237.600	3208
237.664	2494
237.729	1735
237.794	2610
237.859	7013
237.923	4818
237.988	2226
238.053	3532
238.118	4159
238.182	9599
238.247	8962
238.312	4391
238.376	2743
238.441	1407
238.506	2920
238.570	1006
238.635	2147
238.700	166
238.764	950
238.829	4717
238.893	4249
238.958	3247
239.023	2822
239.087	1538
239.152	2175
239.216	898
239.281	1921
239.346	2139
239.410	1406
239.475	1981
239.539	10091
239.604	5665
239.668	3144
239.733	2036
239.797	3178
239.862	9531
239.926	9185
239.991	3929
240.055	1092
240.120	560
240.184	1858
240.249	676
240.313	1691
240.378	1253
240.442	4725
240.507	8301
240.571	3030
240.635	3378
240.700	4857
240.764	822
240.829	1550
240.893	-80
240.957	2310
241.022	5221
241.086	9535
241.151	3661
241.215	131
241.279	3163
241.344	4317
241.408	2525
241.472	1577
241.537	2537
241.601	1895
241.665	210
241.730	1495
241.794	1909
241.858	1329
241.922	1112
241.987	1507
242.051	929
242.115	518
242.179	2076
242.244	598
242.308	2339
242.372	1716
242.436	2409
242.501	2515
242.565	933
242.629	1662
242.693	1634
242.757	1166
242.822	1426
242.886	1890
242.950	2356
243.014	792
243.078	2387
243.142	2388
243.206	1352
243.271	1627
243.335	1579
243.399	3322
243.463	13990
243.527	32416
243.591	10345
243.655	5425
243.719	1303
243.783	3414
243.847	5133
243.911	6614
243.975	7225
244.040	4045
244.104	4299
244.168	1911
244.232	4004
244.296	5796
244.360	4806
244.424	2060
244.488	2835
244.552	1800
244.615	-192
244.679	1828
244.743	1733
244.807	2246
244.871	1731
244.935	2077
244.999	103
245.063	1517
245.127	2403
245.191	4443
245.255	3722
245.319	3071
245.383	1073
245.446	2968
245.510	617
245.574	1970
245.638	2177
245.702	899
245.766	6705
245.829	4412
245.893	2329
245.957	1988
246.021	2562
246.085	1977
246.149	1997
246.212	8234
246.276	10801
246.340	5062
246.404	3113
246.467	3536
246.531	4846
246.595	4262
246.659	2241
246.722	2194
246.786	3912
246.850	4040
246.913	4924
246.977	1445
247.041	1353
247.104	2276
247.168	2535
247.232	7751
247.295	14496
247.359	7639
247.423	3352
247.486	6618
247.550	3951
247.614	2706
247.677	4394
247.741	2333
247.804	1997
247.868	3067
247.932	6238
247.995	14371
248.059	4523
248.122	1782
248.186	3660
248.249	6033
248.313	23494
248.376	25065
248.440	13961
248.503	5386
248.567	5414
248.630	6362
248.694	10756
248.757	13390
248.821	24555
248.884	16066
248.948	14546
249.011	19404
249.075	28632
249.138	25074
249.202	10067
249.265	5767
249.328	7345
249.392	5340
249.455	5290
249.519	3496
249.582	4491
249.645	8946
249.709	5750
249.772	4561
249.835	3778
249.899	4630
249.962	3561
250.025	2675
250.089	10320
250.152	14326
250.215	6743
250.279	4516
250.342	5426
250.405	5023
250.468	3736
250.532	6310
250.595	9135
250.658	34051
250.721	49319
250.785	19021
250.848	10391
250.911	5793
250.974	5187
251.038	6838
251.101	15206
251.164	7966
251.227	8644
251.290	6916
251.354	12044
251.417	45223
251.480	41670
251.543	30705
251.606	78886
251.669	57802
251.732	23146
251.795	22100
251.859	22462
251.922	51222
251.985	28646
252.048	11887
252.111	7585
252.174	7280
252.237	14628
252.300	29732
252.363	35796
252.426	62469
252.489	26559
252.552	13827
252.615	8432
252.678	10412
252.741	21546
252.804	32243
252.867	64618
252.930	38965
252.993	20541
253.056	13336
253.119	8323
253.182	6940
253.245	12670
253.308	9882
253.371	9722
253.434	7551
253.497	7665
253.559	14104
253.622	10757
253.685	14217
253.748	13358
253.811	6799
253.874	8195
253.937	7271
254.000	5679
254.062	10723
254.125	13927
254.188	15371
254.251	12596
254.314	5933
254.376	10816
254.439	12662
254.502	9894
254.565	10287
254.628	17422
254.690	10939
254.753	5778
254.816	5879
254.878	5655
254.941	10776
255.004	10600
255.067	4714
255.129	4446
255.192	3272
255.255	2486
255.317	3713
255.380	2310
255.443	1256
255.505	2022
255.568	1322
255.631	2281
255.693	2894
255.756	1335
255.819	2800
255.881	1585
255.944	1717
256.006	1398
256.069	1843
256.132	1269
256.194	2949
256.257	8612
256.319	5402
256.382	4863
256.444	4503
256.507	2148
256.569	1280
256.632	2216
256.694	3877
256.757	12976
256.819	34776
256.882	13391
256.944	6784
257.007	4709
257.069	4716
257.132	2979
257.194	3531
257.257	2729
257.319	2588
257.381	2662
257.444	8784
257.506	41084
257.569	43965
257.631	25241
257.693	12911
257.756	5854
257.818	4725
257.880	2674
257.943	3527
258.005	1589
258.067	2441
258.130	2484
258.192	3486
258.254	6956
258.317	4174
258.379	2321
258.441	9183
258.503	7849
258.566	11272
258.628	13443
258.690	3491
258.753	3541
258.815	7711
258.877	3324
258.939	2259
259.001	2887
259.064	2071
259.126	2273
259.188	4282
259.250	3017
259.312	4147
259.375	13474
259.437	6763
259.499	3441
259.561	2443
259.623	2361
259.685	2884
259.747	1803
259.809	9905
259.872	17861
259.934	29149
259.996	24010
260.058	6624
260.120	2241
260.182	2668
260.244	2185
260.306	1514
260.368	2388
260.430	1501
260.492	5780
260.554	12887
260.616	8466
260.678	16452
260.740	19672
260.802	4482
260.864	3566
260.926	2217
260.988	3242
261.050	3545
261.112	8234
261.174	22480
261.236	14527
261.298	5330
261.359	8437
261.421	11085
261.483	3170
261.545	3180
261.607	1091
261.669	2301
261.731	5838
261.793	14400
261.854	5682
261.916	4875
261.978	2813
262.040	3946
262.102	2087
262.164	5442
262.225	4068
262.287	2689
262.349	7938
262.411	5811
262.472	3139
262.534	4672
262.596	11558
262.658	4074
262.719	855
262.781	3374
262.843	11304
262.904	5183
262.966	3222
263.028	3549
263.090	24210
263.151	57921
263.213	18085
263.275	10535
263.336	3413
263.398	2778
263.459	1592
263.521	2405
263.583	7658
263.644	4588
263.706	1900
263.767	923
263.829	1530
263.891	834
263.952	1103
264.014	831
264.075	4371
264.137	9246
264.198	5000
264.260	380
264.321	1674
264.383	6207
264.444	15215
264.506	3949
264.567	2910
264.629	6695
264.690	11690
264.752	4731
264.813	2789
264.875	1180
264.936	2636
264.998	1824
265.059	1851
265.120	1831
265.182	3136
265.243	19320
265.305	17126
265.366	4555
265.427	2423
265.489	2677
265.550	381
265.611	2421
265.673	1360
265.734	2243
265.795	1727
265.857	595
265.918	1307
265.979	5800
266.040	30955
266.102	23943
266.163	7326
266.224	5382
266.286	3225
266.347	1293
266.408	1957
266.469	2681
266.530	1610
266.592	1301
266.653	5351
266.714	8685
266.775	2635
266.836	2065
266.898	680
266.959	3388
267.020	2511
267.081	2368
267.142	1540
267.203	1503
267.264	844
267.326	3085
267.387	2378
267.448	1166
267.509	2182
267.570	1831
267.631	1080
267.692	1573
267.753	1747
267.814	1256
267.875	4739
267.936	9884
267.997	5800
268.058	4883
268.119	2602
268.180	2110
268.241	485
268.302	1575
268.363	972
268.424	1806
268.485	1508
268.546	978
268.607	910
268.668	1047
268.729	681
268.790	1940
268.851	1615
268.912	7531
268.972	7894
269.033	3935
269.094	2240
269.155	1312
269.216	970
269.277	683
269.338	1414
269.398	1864
269.459	2132
269.520	3508
269.581	4506
269.642	5535
269.702	3740
269.763	2391
269.824	2367
269.885	2922
269.945	5536
270.006	1571
270.067	845
270.128	2400
270.188	1106
270.249	1248
270.310	1050
270.370	1712
270.431	1447
270.492	658
270.553	1117
270.613	4819
270.674	11356
270.734	3964
270.795	1821
270.856	3908
270.916	2444
270.977	1233
271.038	2946
271.098	2289
271.159	4860
271.219	4138
271.280	1337
271.340	2038
271.401	1367
271.462	6330
271.522	3379
271.583	2319
271.643	2114
271.704	1862
271.764	2003
271.825	7352
271.885	25325
271.946	29908
272.006	10270
272.066	14635
272.127	22984
272.187	7352
272.248	4730
272.308	3676
272.369	15754
272.429	8163
272.489	7937
272.550	7594
272.610	9134
272.671	5874
272.731	5707
272.791	9129
272.852	5247
272.912	4414
272.972	2878
273.033	3057
273.093	4628
273.153	5402
273.214	3247
273.274	3297
273.334	13764
273.394	24476
273.455	10834
273.515	10992
273.575	23535
273.635	9308
273.696	12422
273.756	23079
273.816	9331
273.876	5710
273.936	12207
273.997	20639
274.057	4989
274.117	3941
274.177	6321
274.237	32265
274.297	23721
274.358	16216
274.418	18184
274.478	14042
274.538	4830
274.598	3647
274.658	17176
274.718	20273
274.778	7175
274.838	3148
274.898	10211
274.958	28664
275.018	24338
275.078	14658
275.138	7043
275.198	3318
275.258	1978
275.318	3536
275.378	8609
275.438	8154
275.498	4788
275.558	14008
275.618	27256
275.678	16699
275.738	11337
275.798	8809
275.858	3992
275.918	2591
275.978	3522
276.038	2567
276.098	1742
276.157	6500
276.217	19536
276.277	8875
276.337	5814
276.397	2447
276.457	4283
276.517	3400
276.576	1346
276.636	2331
276.696	4659
276.756	11232
276.815	7764
276.875	3495
276.935	4016
276.995	4131
277.055	2583
277.114	2987
277.174	3285
277.234	14392
277.293	6001
277.353	3473
277.413	2109
277.472	2716
277.532	2959
277.592	3743
277.651	17104
277.711	28943
277.771	9300
277.830	36544
277.890	24547
277.950	19868
278.009	52873
278.069	17990
278.128	22593
278.188	30350
278.248	12324
278.307	35797
278.367	18886
278.426	5101
278.486	3864
278.545	2629
278.605	2810
278.664	1776
278.724	2989
278.783	9937
278.843	23302
278.902	6994
278.962	4608
279.021	5550
279.081	7933
279.140	6408
279.199	5692
279.259	5370
279.318	5683
279.378	7947
279.437	12699
279.496	50761
279.556	154328
279.615	110058
279.675	31928
279.734	18095
279.793	26365
279.853	35447
279.912	12687
279.971	7708
280.031	6772
280.090	13953
280.149	22776
280.208	20207
280.268	107399
280.327	97702
280.386	24813
280.445	18590
280.505	14806
280.564	6961
280.623	5757
280.682	8415
280.742	12959
280.801	4182
280.860	3103
280.919	3021
280.978	3313
281.037	2375
281.097	2449
281.156	2873
281.215	2186
281.274	3867
281.333	17575
281.392	11922
281.451	2372
281.510	2577
281.569	1814
281.628	1166
281.688	860
281.747	3227
281.806	2834
281.865	2566
281.924	1645
281.983	2571
282.042	570
282.101	2197
282.160	576
282.219	2100
282.278	2449
282.337	10536
282.396	5780
282.454	2806
282.513	3779
282.572	15914
282.631	8606
282.690	2990
282.749	1927
282.808	3478
282.867	3414
282.926	3208
282.985	1737
283.043	1121
283.102	1836
283.161	1910
283.220	8090
283.279	16549
283.338	4212
283.396	3220
283.455	2577
283.514	2994
283.573	6480
283.631	4558
283.690	3252
283.749	3071
283.808	6849
283.866	8104
283.925	2754
283.984	3267
284.043	4955
284.101	5022
284.160	3436
284.219	5329
284.277	4331
284.336	7873
284.395	23154
284.453	16677
284.512	7173
284.570	9921
284.629	9558
284.688	9742
284.746	9250
284.805	12744
284.863	17402
284.922	21115
284.981	24192
285.039	34209
285.098	58099
285.156	118158
285.215	133491
285.273	140002
285.332	118529
285.390	70746
285.449	42627
285.507	30304
285.566	20207
285.624	15257
285.683	10879
285.741	9074
285.799	8452
285.858	7199
285.916	6853
285.975	5151
286.033	4757
286.091	4856
286.150	3662
286.208	4329
286.267	4134
286.325	4409
286.383	7894
286.442	5988
286.500	2960
286.558	3107
286.616	2045
286.675	4433
286.733	2727
286.791	3429
286.850	4441
286.908	4802
286.966	8459
287.024	2709
287.083	2541
287.141	1760
287.199	2449
287.257	4283
287.315	2816
287.374	3777
287.432	9635
287.490	5640
287.548	3122
287.606	2439
287.664	3585
287.723	4154
287.781	5021
287.839	2973
287.897	3979
287.955	3835
288.013	5094
288.071	14016
288.129	71718
288.187	174099
288.245	73930
288.303	24916
288.361	14125
288.419	10047
288.477	5634
288.535	4086
288.593	3114
288.651	2978
288.709	1832
288.767	1426
288.825	1639
288.883	1870
288.941	2749
288.999	1716
289.057	1526
289.115	944
289.173	1227
289.231	2356
289.289	1995
289.346	1745
289.404	2261
289.462	4587
289.520	4916
289.578	1856
289.636	940
289.694	865
289.751	444
289.809	803
289.867	929
289.925	2948
289.983	2574
290.040	1172
290.098	983
290.156	1668
290.214	2405
290.271	1623
290.329	850
290.387	933
290.444	911
290.502	704
290.560	1179
290.617	1560
290.675	835
290.733	970
290.790	2329
290.848	1379
290.906	2163
290.963	2313
291.021	1432
291.078	565
291.136	1804
291.194	9006
291.251	18141
291.309	4821
291.366	1605
291.424	1862
291.481	1267
291.539	1604
291.596	1956
291.654	818
291.711	1100
291.769	1612
291.826	5140
291.884	3183
291.941	737
291.999	1793
292.056	1329
292.114	2616
292.171	483
292.228	1440
292.286	2309
292.343	5810
292.401	6149
292.458	4310
292.515	1404
292.573	3707
292.630	3153
292.687	3311
292.745	1482
292.802	3561
292.859	10646
292.917	19087
292.974	9058
293.031	3298
293.089	2756
293.146	1515
293.203	1193
293.260	597
293.318	2206
293.375	4375
293.432	1744
293.489	1041
293.546	1023
293.604	1725
293.661	10913
293.718	27303
293.775	13528
293.832	6806
293.889	5469
293.947	5133
294.004	2447
294.061	3048
294.118	8603
294.175	19561
294.232	23965
294.289	8904
294.346	3727
294.403	3751
294.460	2921
294.517	2571
294.574	1133
294.631	1554
294.688	1675
294.745	8231
294.802	33420
294.859	33775
294.916	13324
294.973	7940
295.030	6649
295.087	5231
295.144	2702
295.201	2527
295.258	983
295.315	1791
295.372	12058
295.429	21236
295.486	8271
295.542	4847
295.599	16210
295.656	25674
295.713	17553
295.770	21570
295.827	7636
295.883	3805
295.940	3158
295.997	8190
296.054	5856
296.111	3028
296.167	2591
296.224	1844
296.281	1174
296.338	1347
296.394	1534
296.451	1608
296.508	9326
296.564	18529
296.621	10679
296.678	26247
296.734	34672
296.791	12381
296.848	5828
296.904	7475
296.961	15986
297.018	25662
297.074	17166
297.131	6500
297.187	4002
297.244	5238
297.301	25477
297.357	39224
297.414	12617
297.470	5938
297.527	4130
297.583	3534
297.640	2506
297.696	2196
297.753	1585
297.809	1609
297.866	337
297.922	1061
297.979	1373
298.035	1892
298.092	4693
298.148	15843
298.204	12721
298.261	5760
298.317	11671
298.374	30752
298.430	14882
298.486	7014
298.543	5907
298.599	5732
298.656	7163
298.712	11613
298.768	29010
298.824	17867
298.881	6238
298.937	3778
298.993	2511
299.050	3829
299.106	3857
299.162	3240
299.218	3778
299.275	1923
299.331	2602
299.387	6658
299.443	28161
299.500	29527
299.556	13278
299.612	6705
299.668	5760
299.724	10053
299.780	9733
299.837	4380
299.893	6387
299.949	27260
300.005	27592
300.061	26276
300.117	40129
300.173	17242
300.229	8902
300.285	10485
300.341	11809
300.397	6243
300.453	2787
300.510	2828
300.566	3256
300.622	4306
300.678	19936
300.734	31523
300.790	24630
300.845	25198
300.901	19187
300.957	30705
301.013	19380
301.069	6834
301.125	5190
301.181	5539
301.237	4358
301.293	2837
301.349	2437
301.405	3086
301.461	3766
301.516	5514
301.572	4571
301.628	8661
301.684	6114
301.740	12591
301.796	17623
301.851	11093
301.907	19088
301.963	15159
302.019	28114
302.074	74932
302.130	69008
302.186	32301
302.242	12604
302.297	8521
302.353	8277
302.409	16463
302.464	13720
302.520	11269
302.576	28358
302.631	30396
302.687	17875
302.743	7291
302.798	3975
302.854	2877
302.910	2686
302.965	3884
303.021	10422
303.076	8995
303.132	12123
303.187	13108
303.243	6333
303.299	3528
303.354	2899
303.410	2115
303.465	2280
303.521	2067
303.576	2134
303.632	2875
303.687	7757
303.743	24224
303.798	17869
303.853	8004
303.909	4022
303.964	3477
304.020	5823
304.075	10766
304.130	9305
304.186	17777
304.241	17449
304.297	14155
304.352	6753
304.358	6473
304.407	4202
304.449	4882
304.463	5118
304.518	4063
304.539	3795
304.573	3350
304.629	2862
304.630	2906
304.684	5028
304.720	14700
304.739	19579
304.794	24908
304.811	21153
304.850	12125
304.902	5835
304.905	5439
304.960	4641
304.992	3884
305.015	3315
305.071	3109
305.083	2999
305.126	2620
305.173	2452
305.181	2419
305.236	1175
305.264	1755
305.292	2439
305.347	3567
305.354	3723
305.402	4645
305.445	4141
305.457	3978
305.512	4882
305.535	4939
305.567	5058
305.622	4678
305.626	4899
305.678	9854
305.716	22088
305.733	26629
305.788	25679
305.807	22561
305.843	17225
305.897	24455
305.898	24538
305.953	21079
305.988	14492
306.008	10938
306.063	7089
306.078	6291
306.118	4427
306.168	3445
306.173	3358
306.228	2251
306.259	1948
306.283	1834
306.338	2129
306.349	2259
306.393	2752
306.440	3158
306.448	3214
306.503	3171
306.530	3387
306.558	4470
306.613	12207
306.620	13184
306.668	19808
306.711	26367
306.723	27108
306.778	19336
306.801	15364
306.833	10784
306.888	4901
306.892	4685
306.943	3426
306.982	3385
306.997	3304
307.052	2982
307.072	2771
307.107	2748
307.162	3980
307.163	4000
307.217	6248
307.253	8442
307.272	9278
307.327	9331
307.343	8647
307.381	6973
307.434	5956
307.436	6090
307.491	13617
307.524	20656
307.546	23321
307.600	22685
307.614	20185
307.655	11221
307.704	6034
307.710	5889
307.765	5626
307.795	7793
307.819	10032
307.874	17047
307.885	16840
307.929	12483
307.975	8805
307.984	8851
308.038	10997
308.065	13481
308.093	22979
308.148	53685
308.156	61080
308.202	102874
308.246	120205
308.257	115624
308.312	61500
308.336	43230
308.366	34487
308.421	22716
308.426	21659
308.475	13585
308.517	9573
308.530	8864
308.585	6831
308.607	6642
308.639	6855
308.694	6964
308.697	7147
308.748	14218
308.787	21439
308.803	22002
308.857	16025
308.877	13840
308.912	12054
308.967	11334
308.967	11342
309.021	16381
309.058	21202
309.076	26372
309.130	45547
309.148	52843
309.185	85522
309.238	147077
309.239	147709
309.293	167839
309.328	159041
309.348	136712
309.402	67548
309.418	50195
309.457	35843
309.508	22899
309.511	22669
309.566	23042
309.598	25157
309.620	32123
309.674	54310
309.688	59562
309.729	55487
309.778	42936
309.783	41651
309.837	26656
309.868	19341
309.892	20743
309.946	27585
309.959	30239
310.001	40008
310.049	47114
310.055	45542
310.109	26567
310.139	16564
310.163	13129
310.218	7840
310.229	6965
310.272	5940
310.319	5165
310.326	4995
310.381	4028
310.409	3702
310.435	3583
310.489	3303
310.499	3263
310.543	3515
310.589	3894
310.598	3910
310.652	3930
310.679	3934
310.706	3520
310.760	2664
310.769	2492
310.814	2593
310.859	2946
310.868	2930
310.923	2755
310.948	2733
310.977	3267
311.031	4386
311.038	4518
311.085	4038
311.128	3345
311.139	3304
311.193	3376
311.218	3345
311.247	3193
311.301	3002
311.308	2961
311.356	2971
311.398	3016
311.410	2962
311.464	2615
311.488	2521
311.518	2545
311.572	2492
311.578	2499
311.626	3947
311.668	5166
311.680	5104
311.734	4774
311.758	4594
311.788	4555
311.842	4568
311.847	4564
311.896	5566
311.937	6509
311.950	6389
312.004	5808
312.027	5544
312.058	4765
312.112	3402
312.117	3270
312.165	3495
312.207	3693
312.297	4417
312.386	3140
312.476	3346
312.566	7651
312.656	4365
312.745	2790
312.835	2717
312.925	3556
313.015	3459
313.104	3612
313.194	3111
313.284	3174
313.374	5086
313.463	3857
313.553	3952
313.643	3052
313.732	3076
313.822	2475
313.912	2927
314.001	4666
314.091	3879
314.180	5105
314.270	5162
314.360	5220
314.449	4985
314.539	2558
314.628	2723
314.718	3572
314.808	4794
314.897	3469
314.987	3977
315.076	4925
315.166	5909
315.255	5109
315.345	5802
315.434	4666
315.524	4112
315.613	4620
315.703	7133
315.792	12485
315.881	37191
315.971	12346
316.060	10252
316.150	11628
316.239	11096
316.328	5373
316.418	3820
316.507	4032
316.597	5053
316.686	3951
316.775	6548
316.865	11628
316.954	4475
317.043	2865
317.133	3708
317.222	3210
317.311	3567
317.400	2619
317.490	5321
317.579	5254
317.668	4435
317.757	6793
317.847	19401
317.936	64253
318.025	22865
318.114	13153
318.203	7748
318.293	10087
318.382	20968
318.471	14696
318.560	20008
318.649	31837
318.738	6920
318.828	5645
318.917	5040
319.006	5671
319.095	16278
319.184	39305
319.273	23312
319.362	12509
319.451	3981
319.540	3585
319.629	9542
319.718	16394
319.807	6431
319.896	14576
319.985	49762
320.074	19116
320.163	4729
320.252	7932
320.341	6019
320.430	5814
320.519	8151
320.608	5329
320.697	4574
320.786	4483
320.875	6727
320.964	7455
321.053	11993
321.142	16603
321.230	17951
321.319	12997
321.408	30560
321.497	13105
321.586	12289
321.675	13249
321.764	11580
321.852	8636
321.941	17214
322.030	10899
322.119	12467
322.207	30624
322.296	18375
322.385	9653
322.474	13261
322.562	39036
322.651	19264
322.740	14142
322.829	19186
322.917	16079
323.006	10974
323.095	9992
323.183	5858
323.272	9564
323.361	17799
323.449	48104
323.538	15588
323.626	33295
323.715	20543
323.804	7321
323.892	29605
323.981	17731
324.069	5283
324.158	16540
324.246	15310
324.335	6582
324.424	11049
324.512	4315
324.601	6003
324.689	12757
324.778	24636
324.866	12289
324.954	4018
325.043	4172
325.131	7773
325.220	13206
325.308	14371
325.397	11020
325.485	6410
325.574	3352
325.662	2891
325.750	3275
325.839	3544
325.927	3008
326.015	3294
326.104	5417
326.192	7045
326.280	3103
326.369	2801
326.457	4467
326.545	9633
326.634	4188
326.722	2683
326.810	3164
326.898	2781
326.987	3788
327.075	7492
327.163	8322
327.251	4413
327.340	9369
327.428	13932
327.516	3555
327.604	3091
327.692	3145
327.781	2624
327.869	4775
327.957	4525
328.045	4521
328.133	2399
328.221	3127
328.309	3282
328.397	2422
328.485	3630
328.574	6261
328.662	19768
328.750	10245
328.838	3329
328.926	2727
329.014	1774
329.102	4151
329.190	10815
329.278	7101
329.366	2588
329.454	2104
329.542	2626
329.630	1661
329.718	2373
329.806	3232
329.893	3274
329.981	3389
330.069	4170
330.157	19670
330.245	62645
330.333	32619
330.421	5231
330.509	5781
330.597	22850
330.684	14637
330.772	4400
330.860	7273
330.948	7993
331.036	3950
331.123	2178
331.211	2227
331.299	3511
331.387	6371
331.475	11775
331.562	3817
331.650	1985
331.738	3152
331.825	4301
331.913	2574
332.001	1656
332.089	2468
332.176	5108
332.264	14527
332.352	11599
332.439	4368
332.527	3469
332.614	2354
332.702	4031
332.790	2655
332.877	7416
332.965	16246
333.052	6289
333.140	6630
333.228	19493
333.315	5501
333.403	3288
333.490	9046
333.578	10338
333.665	25101
333.753	11484
333.840	3343
333.928	4168
334.015	9457
334.103	14636
334.190	49335
334.278	13225
334.365	7588
334.452	7480
334.540	4411
334.627	4289
334.715	6256
334.802	10460
334.889	55639
334.977	64916
335.064	12966
335.151	5869
335.239	4838
335.326	5102
335.413	24961
335.501	35215
335.588	5575
335.675	4006
335.762	4819
335.850	8557
335.937	8133
336.024	18035
336.111	69631
336.199	38530
336.286	10212
336.373	5341
336.460	3208
336.547	3057
336.635	3714
336.722	3621
336.809	3686
336.896	4564
336.983	14050
337.070	35734
337.157	53666
337.245	35992
337.332	26608
337.419	3369
337.506	2529
337.593	3151
337.680	11250
337.767	35234
337.854	9795
337.941	10398
338.028	12846
338.115	5405
338.202	4407
338.289	9376
338.376	36888
338.463	11287
338.550	18885
338.637	22267
338.724	6927
338.811	11034
338.898	3303
338.984	2352
339.071	3144
339.158	3984
339.245	10732
339.332	8137
339.419	7029
339.506	7747
339.593	1077
339.679	3177
339.766	2656
339.853	3724
339.940	7944
340.027	3490
340.113	3429
340.200	4288
340.287	3557
340.374	4642
340.460	7509
340.547	3007
340.634	5004
340.720	22077
340.807	13244
340.894	2903
340.980	2636
341.067	2257
341.154	3524
341.240	4931
341.327	11909
341.414	4467
341.500	5018
341.587	2670
341.674	3049
341.760	7525
341.847	9359
341.933	3172
342.020	709
342.106	1914
342.193	2483
342.279	6299
342.366	4471
342.452	7238
342.539	3700
342.625	8464
342.712	24013
342.798	10189
342.885	3873
342.971	1409
343.058	1293
343.144	2257
343.230	1510
343.317	3711
343.403	1705
343.490	2009
343.576	1754
343.662	2101
343.749	2913
343.835	3411
343.921	4984
344.008	34945
344.094	87869
344.180	21058
344.267	6755
344.353	24703
344.439	28003
344.525	11537
344.612	4989
344.698	4061
344.784	3035
344.870	1814
344.957	2388
345.043	4908
345.129	3025
345.215	6600
345.301	4430
345.387	3615
345.474	1517
345.560	1376
345.646	2670
345.732	2573
345.818	3427
345.904	3260
345.990	2748
346.076	3112
346.162	5586
346.249	3290
346.335	1931
346.421	2304
346.507	9092
346.593	37396
346.679	8828
346.765	3207
346.851	3335
346.937	2811
347.023	2417
347.108	3058
347.194	2968
347.280	2606
347.366	3869
347.452	11026
347.538	42235
347.624	32858
347.710	27599
347.796	3966
347.882	2633
347.967	2569
348.053	3304
348.139	3116
348.225	1685
348.311	2034
348.397	1578
348.482	2655
348.568	3480
348.654	2681
348.740	5205
348.825	4665
348.911	5056
348.997	17773
349.083	40025
349.168	6275
349.254	3305
349.340	2894
349.425	2695
349.511	3553
349.597	4269
349.682	7167
349.768	26691
349.854	13848
349.939	2812
350.025	2047
350.110	2290
350.196	2064
350.282	892
350.367	2706
350.453	3306
350.538	3067
350.624	2896
350.709	3441
350.795	1729
350.880	2430
350.966	3178
351.051	3949
351.137	3130
351.222	2653
351.308	7878
351.393	24372
351.479	7271
351.564	3196
351.649	2110
351.735	2303
351.820	1791
351.906	2222
351.991	2698
352.076	14372
352.162	24043
352.247	4638
352.332	2896
352.418	7371
352.503	8530
352.588	33009
352.673	29266
352.759	6296
352.844	3349
352.929	2946
353.014	5418
353.100	3893
353.185	7449
353.270	9150
353.355	9202
353.441	3154
353.526	2776
353.611	7574
353.696	9341
353.781	5888
353.866	2537
353.952	3161
354.037	6593
354.122	17570
354.207	15432
354.292	6832
354.377	3362
354.462	1601
354.547	3369
354.632	3968
354.717	5588
354.802	8200
354.887	3932
354.972	2646
355.057	1923
355.142	1574
355.227	2173
355.312	5253
355.397	10304
355.482	26604
355.567	12821
355.652	9886
355.737	10483
355.822	28984
355.907	27527
355.991	4309
356.076	2009
356.161	3033
356.246	2238
356.331	3115
356.416	5543
356.501	43770
356.585	52193
356.670	7879
356.755	5682
356.840	6258
356.924	30203
357.009	112970
357.094	49235
357.179	9382
357.263	7514
357.348	5995
357.433	7068
357.517	5902
357.602	5375
357.687	3989
357.771	9841
357.856	40854
357.941	25117
358.025	22334
358.110	102337
358.195	53878
358.279	7878
358.364	5726
358.448	19638
358.533	58070
358.617	44036
358.702	42815
358.787	16978
358.871	8342
358.956	7983
359.040	3685
359.125	2714
359.209	3156
359.294	18370
359.378	38730
359.462	11180
359.547	4677
359.631	2703
359.716	2381
359.800	2762
359.885	4245
359.969	3033
360.053	3555
360.138	2864
360.222	4339
360.306	8500
360.391	7254
360.475	18210
360.559	45351
360.644	24522
360.728	16526
360.812	23122
360.896	72021
360.981	30906
361.065	17099
361.149	4967
361.233	4194
361.318	2994
361.402	5695
361.486	4095
361.570	2629
361.654	4087
361.739	9470
361.823	42062
361.907	74561
361.991	14831
362.075	6712
362.159	16035
362.243	14068
362.327	14761
362.411	24249
362.495	11518
362.580	4464
362.664	3957
362.748	3517
362.832	4646
362.916	9087
363.000	33556
363.084	85530
363.168	95813
363.252	23402
363.336	8085
363.420	9393
363.503	32264
363.587	43857
363.671	8645
363.755	5688
363.839	8167
363.923	5176
364.007	8686
364.091	11519
364.175	13011
364.258	58886
364.342	56412
364.426	85621
364.510	51630
364.594	16729
364.677	14806
364.761	57718
364.845	48855
364.929	14290
365.013	11930
365.096	9444
365.180	12467
365.264	13758
365.347	54276
365.431	26046
365.515	6368
365.598	3448
365.682	3800
365.766	4491
365.849	7508
365.933	3856
366.017	4949
366.100	3426
366.184	1829
366.267	3148
366.351	2888
366.435	2293
366.518	1813
366.602	2132
366.685	2114
366.769	2836
366.852	5290
366.936	9797
367.019	6521
367.103	3766
367.186	8014
367.270	3053
367.353	1850
367.436	2740
367.520	2958
367.603	3153
367.687	4682
367.770	9938
367.853	6402
367.937	16818
368.020	32963
368.104	8345
368.187	7490
368.270	9776
368.353	9389
368.437	10626
368.520	21445
368.603	15333
368.687	20248
368.770	44495
368.853	11701
368.936	9864
369.020	9623
369.103	4048
369.186	2202
369.269	3084
369.352	6545
369.436	9325
369.519	5908
369.602	3036
369.685	4149
369.768	3432
369.851	3445
369.934	1951
370.018	2654
370.101	7253
370.184	7402
370.267	4726
370.350	8627
370.433	12808
370.516	31320
370.599	48070
370.682	16090
370.765	22484
370.848	26930
370.931	50253
371.014	21758
371.097	3983
371.180	3615
371.263	2489
371.346	1298
371.429	2309
371.511	2480
371.594	5934
371.677	9867
371.760	9410
371.843	8480
371.926	32980
372.009	83515
372.091	32038
372.174	18904
372.257	44734
372.340	21180
372.423	12957
372.505	14846
372.588	6766
372.671	13966
372.754	48671
372.836	28696
372.919	15019
373.002	32610
373.085	11753
373.167	9481
373.250	20148
373.332	45781
373.415	55670
373.498	116818
373.580	49668
373.663	58706
373.746	86029
373.828	19541
373.911	8900
373.993	7896
374.076	27797
374.159	30748
374.241	13455
374.324	39966
374.406	32612
374.489	29879
374.571	92857
374.654	45738
374.736	18039
374.819	54959
374.901	82145
374.983	90080
375.066	18988
375.148	6672
375.231	22511
375.313	48082
375.395	19311
375.478	5926
375.560	4613
375.643	5109
375.725	15924
375.807	70323
375.890	62500
375.972	22570
376.054	12591
376.136	18923
376.219	10350
376.301	19596
376.383	65551
376.465	29512
376.548	14354
376.630	19026
376.712	54725
376.794	31261
376.877	4735
376.959	1973
377.041	3849
377.123	6098
377.205	7947
377.287	2695
377.369	2791
377.452	2258
377.534	2452
377.616	2132
377.698	2641
377.780	1830
377.862	3144
377.944	3631
378.026	1700
378.108	2667
378.190	1738
378.272	2210
378.354	1962
378.436	1227
378.518	3695
378.600	12737
378.682	13049
378.764	27736
378.846	25518
378.928	6069
379.010	9074
379.091	6932
379.173	2465
379.255	2495
379.337	4191
379.419	13353
379.501	41289
379.583	19884
379.664	4462
379.746	9564
379.828	28138
379.910	41349
379.991	38053
380.073	7426
380.155	4679
380.237	3619
380.318	2251
380.400	2527
380.482	6454
380.564	11217
380.645	10385
380.727	10894
380.809	6336
380.890	4286
380.972	3668
381.053	3215
381.135	3179
381.217	9474
381.298	30164
381.380	17723
381.461	11727
381.543	51017
381.624	74486
381.706	16645
381.787	6621
381.869	8956
381.951	22266
382.032	83482
382.113	64713
382.195	14380
382.276	10569
382.358	18660
382.439	49302
382.521	56584
382.602	88295
382.684	45967
382.765	73588
382.846	104837
382.928	182191
383.009	117080
383.090	63523
383.172	214058
383.253	368875
383.334	132687
383.416	87711
383.497	55584
383.578	29066
383.659	51236
383.741	176579
383.822	462795
383.903	283959
383.984	79614
384.066	104829
384.147	73071
384.228	18276
384.309	11907
384.390	10001
384.471	7011
384.553	7126
384.634	9124
384.715	9432
384.796	5938
384.877	7450
384.958	25549
385.039	36719
385.120	13662
385.201	7363
385.282	7477
385.363	8027
385.444	7385
385.525	12627
385.606	37159
385.687	38103
385.768	9689
385.849	9568
385.930	36860
386.011	69928
386.092	22656
386.173	5240
386.254	3723
386.335	5677
386.416	5779
386.496	16513
386.577	30874
386.658	12372
386.739	6241
386.820	6361
386.901	4722
386.981	5316
387.062	4126
387.143	7531
387.224	28482
387.304	31238
387.385	11096
387.466	6838
387.547	9576
387.627	7211
387.708	11573
387.789	46549
387.869	64708
387.950	20088
388.031	4105
388.111	2371
388.192	8433
388.273	12530
388.353	8273
388.434	5153
388.514	9430
388.595	41087
388.676	59916
388.756	32205
388.837	25933
388.917	19715
388.998	3366
389.078	4568
389.159	4079
389.239	2678
389.320	5460
389.400	4471
389.480	10749
389.561	29949
389.641	18741
389.722	6021
389.802	8162
389.883	12877
389.963	34357
390.043	24817
390.124	6844
390.204	11532
390.284	32716
390.365	24136
390.445	21641
390.525	61223
390.605	63032
390.686	20391
390.766	8777
390.846	6201
390.927	2936
391.007	2582
391.087	4070
391.167	5666
391.247	4097
391.328	5413
391.408	8170
391.488	5786
391.568	1509
391.648	5014
391.728	6682
391.808	7437
391.888	7409
391.969	16581
392.049	29587
392.129	13608
392.209	13327
392.289	34409
392.369	22614
392.449	14846
392.529	11256
392.609	9329
392.689	12091
392.769	33345
392.849	35941
392.929	23376
393.009	49893
393.089	49499
393.169	48910
393.248	137495
393.328	450184
393.408	542498
393.488	187086
393.568	53784
393.648	25265
393.728	15435
393.807	10520
393.887	9581
393.967	8146
394.047	8248
394.127	10078
394.206	14699
394.286	40659
394.366	174429
394.446	221457
394.525	55875
394.605	14138
394.685	11047
394.764	19506
394.844	33988
394.924	29038
395.003	9282
395.083	6189
395.163	6146
395.242	5085
395.322	6084
395.402	3871
395.481	6189
395.561	12600
395.640	38668
395.720	40259
395.799	42880
395.879	36665
395.958	20479
396.038	57965
396.117	228951
396.197	287890
396.276	91732
396.356	28365
396.435	20730
396.515	17321
396.594	21344
396.673	41243
396.753	137440
396.832	417185
396.912	363884
396.991	99545
397.070	27833
397.150	14091
397.229	11300
397.308	15492
397.388	27377
397.467	14922
397.546	5584
397.625	3357
397.705	6432
397.784	7113
397.863	2570
397.942	2381
398.022	3413
398.101	9718
398.180	33232
398.259	20019
398.338	5675
398.417	4267
398.497	3611
398.576	4313
398.655	2263
398.734	2471
398.813	2498
398.892	9767
398.971	35179
399.050	22139
399.129	2990
399.208	2360
399.287	2132
399.366	1076
399.445	2500
399.524	1843
399.603	1325
399.682	4383
399.761	11998
399.840	37432
399.919	34725
399.998	5150
400.077	1119
400.156	815
400.235	3512
400.313	1502
400.392	2378
400.471	13588
400.550	26199
400.629	7042
400.708	2980
400.786	2173
400.865	6167
400.944	8179
401.023	5533
401.102	1044
401.180	1416
401.259	1099
401.338	1337
401.416	2789
401.495	1939
401.574	2353
401.652	1454
401.731	3238
401.810	2855
401.888	1086
401.967	116
402.046	2097
402.124	3265
402.203	3518
402.281	2325
402.360	3570
402.438	9666
402.517	6846
402.596	2721
402.674	2187
402.753	1284
402.831	2267
402.910	2233
402.988	10774
403.066	40099
403.145	28901
403.223	12918
403.302	33368
403.380	29445
403.459	26279
403.537	12508
403.615	4302
403.694	552
403.772	1810
403.850	1125
403.929	698
404.007	214
404.085	4919
404.164	5732
404.242	2395
404.320	2775
404.398	4595
404.477	13708
404.555	62970
404.633	68354
404.711	11660
404.789	3398
404.868	2212
404.946	1412
405.024	737
405.102	392
405.180	535
405.258	-370
405.336	1177
405.415	1001
405.493	3624
405.571	4679
405.649	978
405.727	916
405.805	2566
405.883	2174
405.961	2497
406.039	2604
406.117	777
406.195	3809
406.273	13201
406.351	58189
406.429	43138
406.507	5194
406.585	2190
406.663	1952
406.740	3389
406.818	2294
406.896	513
406.974	1689
407.052	4681
407.130	31354
407.208	53526
407.285	12336
407.363	1071
407.441	1648
407.519	1439
407.596	2214
407.674	4893
407.752	15282
407.830	17701
407.907	8246
407.985	2239
408.063	1058
408.141	581
408.218	2491
408.296	2665
408.373	2654
408.451	2099
408.529	2134
408.606	689
408.684	970
408.762	607
408.839	661
408.917	247
408.994	1311
409.072	697
409.149	732
409.227	3317
409.304	4463
409.382	4357
409.459	4243
409.537	6963
409.614	7139
409.692	3401
409.769	3423
409.846	6771
409.924	9896
410.001	6151
410.079	4115
410.156	3514
410.233	1801
410.311	1277
410.388	507
410.465	2267
410.543	2670
410.620	1993
410.697	1726
410.775	2630
410.852	565
410.929	2906
411.006	4130
411.083	1953
411.161	5628
411.238	6580
411.315	3446
411.392	1530
411.469	2916
411.547	3746
411.624	557
411.701	908
411.778	1628
411.855	3684
411.932	1982
412.009	656
412.086	1453
412.163	1454
412.240	1693
412.317	2334
412.394	2285
412.471	910
412.548	942
412.625	456
412.702	1416
412.779	3848
412.856	2400
412.933	-504
413.010	1053
413.087	2664
413.164	11784
413.241	22034
413.318	5573
413.395	2850
413.471	4316
413.548	2731
413.625	1136
413.702	1234
413.779	1289
413.855	278
413.932	-463
414.009	-535
414.086	535
414.162	25
414.239	2012
414.316	10987
414.393	31240
414.469	13208
414.546	1744
414.623	694
414.699	587
414.776	1058
414.853	628
414.929	1297
415.006	399
415.082	1480
415.159	1030
415.236	854
415.312	1518
415.389	2106
415.465	4006
415.542	2090
415.618	-27
415.695	3114
415.771	1903
415.848	632
415.924	1271
416.000	236
416.077	1035
416.153	-360
416.230	-773
416.306	446
416.383	-33
416.459	638
416.535	-252
416.612	-358
416.688	389
416.764	600
416.841	169
416.917	535
416.993	1158
417.069	1198
417.146	1316
417.222	1854
417.298	1533
417.374	-200
417.451	859
417.527	685
417.603	1839
417.679	1281
417.755	1309
417.831	125
417.908	181
417.984	-347
418.060	-133
418.136	3187
418.212	4490
418.288	2057
418.364	1297
418.440	524
418.516	2183
418.592	1672
418.668	5042
418.744	8727
418.820	7713
418.896	2264
418.972	-151
419.048	844
419.124	3769
419.200	2702
419.276	853
419.352	-484
419.428	386
419.504	802
419.579	1130
419.655	662
419.731	1094
419.807	5696
419.883	11063
419.959	8894
420.034	2314
420.110	3896
420.186	17332
420.262	17585
420.337	3240
420.413	1768
420.489	923
420.565	1256
420.640	1108
420.716	1819
420.792	157
420.867	1751
420.943	1089
421.019	2655
421.094	2814
421.170	1165
421.245	404
421.321	1220
421.397	1696
421.472	3664
421.548	9155
421.623	8662
421.699	4200
421.774	3185
421.850	2648
421.925	5073
422.001	5774
422.076	5450
422.152	6906
422.227	10034
422.302	14212
422.378	19148
422.453	35829
422.529	80993
422.604	198024
422.679	284342
422.755	233925
422.830	110788
422.905	45827
422.981	24554
423.056	15245
423.131	10918
423.207	7805
423.282	6998
423.357	9748
423.432	7180
423.508	6148
423.583	10617
423.658	10383
423.733	2960
423.808	3759
423.883	4248
423.959	4422
424.034	3606
424.109	4425
424.184	1303
424.259	1498
424.334	1251
424.409	820
424.484	1212
424.559	1389
424.634	1607
424.709	2853
424.784	3201
424.859	835
424.934	2433
425.009	12016
425.084	23317
425.159	10328
425.234	1871
425.309	1051
425.384	9420
425.459	23068
425.534	7739
425.609	322
425.683	1343
425.758	-11
425.833	981
425.908	2466
425.983	7088
426.058	23441
426.132	12448
426.207	1380
426.282	2163
426.357	1971
426.431	528
426.506	1348
426.581	650
426.655	789
426.730	692
426.805	-231
426.879	2153
426.954	1228
427.029	2618
427.103	19197
427.178	53982
427.253	30518
427.327	3477
427.402	5052
427.476	20953
427.551	13463
427.625	2377
427.700	1030
427.774	242
427.849	1636
427.923	310
427.998	-487
428.072	392
428.147	4347
428.221	19739
428.296	67709
428.370	46984
428.444	5057
428.519	3756
428.593	6684
428.667	7647
428.742	8230
428.816	9748
428.890	40324
428.965	83394
429.039	32362
429.113	10533
429.188	3788
429.262	629
429.336	3187
429.410	11291
429.485	8401
429.559	6204
429.633	6293
429.707	2522
429.781	6465
429.855	39896
429.930	74565
430.004	33587
430.078	35958
430.152	41261
430.226	79514
430.300	100244
430.374	19722
430.448	5254
430.522	9993
430.596	33926
430.670	28940
430.744	63873
430.818	110542
430.892	26419
430.966	2482
431.040	681
431.114	-330
431.188	153
431.262	422
431.336	451
431.410	3175
431.484	8547
431.557	8573
431.631	1392
431.705	1652
431.779	10988
431.853	57659
431.927	54502
432.000	7409
432.074	1434
432.148	1959
432.222	872
432.295	438
432.369	38
432.443	1884
432.516	16921
432.590	54211
432.664	25699
432.737	2579
432.811	439
432.885	459
432.958	179
433.032	370
433.106	-909
433.179	-232
433.253	-297
433.326	539
433.400	-253
433.473	-431
433.547	-290
433.620	471
433.694	1793
433.767	3141
433.841	249
433.914	-104
433.988	85
434.061	574
434.134	-313
434.208	-633
434.281	-499
434.355	-178
434.428	1504
434.501	-66
434.575	-830
434.648	-345
434.721	-84
434.795	-407
434.868	-989
434.941	-730
435.014	-327
435.088	226
435.161	2073
435.234	3830
435.307	4082
435.381	2723
435.454	1912
435.527	3477
435.600	4294
435.673	2895
435.746	1235
435.819	1078
435.892	255
435.966	883
436.039	-795
436.112	361
436.185	-432
436.258	-1359
436.331	-912
436.404	-647
436.477	-120
436.550	-416
436.623	-514
436.696	-519
436.769	-265
436.842	-49
436.915	124
436.987	954
437.060	396
437.133	-29
437.206	-229
437.279	323
437.352	-570
437.425	-568
437.498	214
437.570	2670
437.643	2941
437.716	138
437.789	63
437.861	1978
437.934	9489
438.007	4729
438.080	873
438.152	394
438.225	3261
438.298	23553
438.370	78397
438.443	42105
438.516	10253
438.588	2389
438.661	-585
438.734	-173
438.806	-247
438.879	1077
438.951	1785
439.024	4117
439.096	1493
439.169	-266
439.241	-333
439.314	-412
439.386	393
439.459	2421
439.531	3669
439.604	1504
439.676	-257
439.749	-355
439.821	-738
439.893	192
439.966	109
440.038	700
440.110	2060
440.183	614
440.255	-646
440.327	658
440.400	9124
440.472	47158
440.544	41588
440.617	6036
440.689	3158
440.761	3659
440.833	7188
440.905	5945
440.978	1401
441.050	146
441.122	151
441.194	-155
441.266	-58
441.338	134
441.411	2206
441.483	13455
441.555	27490
441.627	7200
441.699	2904
441.771	1913
441.843	492
441.915	-202
441.987	280
442.059	192
442.131	1194
442.203	2728
442.275	3462
442.347	3989
442.419	5390
442.491	31127
442.563	95694
442.635	52842
442.706	15642
442.778	12450
442.850	3200
442.922	935
442.994	1793
443.066	3089
443.137	3120
443.209	2538
443.281	4083
443.353	9105
443.425	38538
443.496	150020
443.568	180765
443.640	79694
443.711	15626
443.783	5122
443.855	3146
443.926	1227
443.998	1804
444.070	2255
444.141	2067
444.213	2964
444.285	3911
444.356	2950
444.428	3270
444.499	1605
444.571	473
444.642	511
444.714	927
444.785	3199
444.857	2948
444.928	7791
445.000	6726
445.071	5949
445.143	8244
445.214	7058
445.285	9896
445.357	27633
445.428	89464
445.500	229251
445.571	174748
445.642	102925
445.714	36530
445.785	21274
445.856	8674
445.928	5485
445.999	5118
446.070	4692
446.141	4039
446.213	4565
446.284	2368
446.355	1806
446.426	843
446.497	1228
446.569	2027
446.640	4573
446.711	4423
446.782	998
446.853	1411
446.924	2007
446.995	1312
447.066	1437
447.138	2107
447.209	2415
447.280	-869
447.351	-332
447.422	-937
447.493	373
447.564	1756
447.635	3070
447.706	1610
447.777	-253
447.847	-208
447.918	-611
447.989	1806
448.060	2128
448.131	4693
448.202	5612
448.273	4633
448.344	2229
448.414	256
448.485	558
448.556	380
448.627	-194
448.698	690
448.768	-503
448.839	316
448.910	1933
448.981	3350
449.051	1278
449.122	622
449.193	471
449.263	-251
449.334	-59
449.405	1178
449.475	4007
449.546	3873
449.616	3392
449.687	3664
449.758	1570
449.828	499
449.899	66
449.969	170
450.040	281
450.110	761
450.181	1322
450.251	770
450.322	237
450.392	64
450.463	983
450.533	-41
450.604	-204
450.674	-117
450.744	571
450.815	289
450.885	955
450.955	573
451.026	320
451.096	176
451.166	352
451.237	3025
451.307	10169
451.377	6477
451.447	696
451.518	-158
451.588	138
451.658	595
451.728	1504
451.799	8271
451.869	14258
451.939	4458
452.009	857
452.079	318
452.149	652
452.219	2266
452.289	10478
452.360	12277
452.430	2778
452.500	1274
452.570	2775
452.640	5023
452.710	13157
452.780	21245
452.850	15551
452.920	12519
452.990	5417
453.060	2593
453.129	2567
453.199	4881
453.269	10564
453.339	33343
453.409	56177
453.479	42108
453.549	67120
453.619	75522
453.688	41384
453.758	5957
453.828	1374
453.898	1219
453.968	772
454.037	1504
454.087	813
454.107	512
454.168	415
454.177	378
454.247	823
454.249	833
454.316	552
454.330	749
454.386	1282
454.411	2706
454.456	4614
454.492	7962
454.525	10974
454.574	6816
454.595	5049
454.655	2200
454.665	1756
454.734	2058
454.736	2175
454.804	3875
454.817	5242
454.873	9491
454.898	11982
454.943	16415
454.979	10843
455.013	6067
455.060	3458
455.082	2447
455.141	3517
455.152	3568
455.221	8798
455.222	9014
455.291	16055
455.303	14856
455.360	10722
455.384	10588
455.430	10290
455.465	10222
455.499	9815
455.546	11112
455.569	11035
455.627	10124
455.638	10215
455.707	2386
455.708	2398
455.777	1224
455.789	1214
455.846	1072
455.869	1154
455.916	1343
455.950	1514
455.985	1554
456.031	1570
456.054	1537
456.112	1502
456.124	1548
456.193	930
456.193	906
456.262	1834
456.274	2065
456.332	2952
456.355	2865
456.401	2305
456.436	1927
456.470	1689
456.516	1483
456.540	1382
456.597	1022
456.609	893
456.678	1360
456.678	1350
456.747	981
456.759	978
456.817	834
456.840	950
456.886	1062
456.920	1139
456.955	1375
457.001	1320
457.024	1327
457.082	2425
457.093	2580
457.162	3744
457.163	3770
457.232	3777
457.243	3503
457.301	2285
457.324	1801
457.370	1293
457.405	1730
457.439	2123
457.485	2566
457.508	2763
457.566	2974
457.577	3100
457.646	4088
457.647	4126
457.715	7771
457.727	8556
457.784	12936
457.808	15898
457.853	18698
457.889	22973
457.922	25092
457.969	19226
457.991	19389
458.050	20789
458.060	21053
458.129	32905
458.130	33344
458.198	33494
458.211	30252
458.267	21015
458.292	15790
458.336	10659
458.372	9750
458.405	11667
458.453	16757
458.474	20122
458.533	33555
458.543	34275
458.611	52664
458.614	53070
458.680	39934
458.694	32456
458.749	17448
458.775	12897
458.818	6806
458.855	5571
458.887	4791
458.936	4249
458.955	3940
459.016	3942
459.024	4005
459.093	4369
459.097	4376
459.162	4094
459.177	4186
459.230	4547
459.257	4737
459.299	4900
459.338	5120
459.368	5327
459.418	5638
459.437	5312
459.499	4359
459.505	4407
459.574	4154
459.579	4166
459.643	3624
459.659	3486
459.711	3631
459.740	3904
459.780	4039
459.820	3955
459.849	3966
459.900	4554
459.917	4597
459.981	4193
459.986	4190
460.054	4545
460.061	4547
460.123	4405
460.141	4519
460.191	5542
460.222	6124
460.260	6357
460.302	7204
460.328	7195
460.382	6343
460.397	6323
460.462	5529
460.465	5619
460.534	8643
460.543	9014
460.602	18230
460.623	21934
460.671	33698
460.703	44337
460.739	37557
460.783	28332
460.808	26529
460.864	10520
460.876	8782
460.944	4851
460.945	4807
461.013	4501
461.024	4509
461.081	4369
461.104	4495
461.150	4699
461.184	4513
461.218	4338
461.264	4333
461.286	4596
461.345	5011
461.355	4942
461.423	4656
461.425	4656
461.491	5817
461.505	6035
461.559	10719
461.585	13047
461.628	20087
461.665	26662
461.696	26691
461.745	28756
461.764	25242
461.825	10110
461.832	10069
461.901	6049
461.905	6040
461.969	4903
461.985	4685
462.037	5390
462.065	5643
462.105	6434
462.145	7537
462.173	9968
462.225	14319
462.241	15557
462.305	21594
462.310	20925
462.378	10816
462.385	9342
462.446	6829
462.465	6150
462.514	5160
462.545	5172
462.582	5353
462.625	5331
462.650	5079
462.705	4868
462.718	5296
462.785	6957
462.786	6994
462.854	9125
462.865	9574
462.922	10895
462.945	11460
462.990	8829
463.025	6301
463.058	6247
463.104	5845
463.126	5492
463.184	5150
463.194	5287
463.262	6331
463.264	6360
463.330	5990
463.344	5862
463.398	6407
463.424	6823
463.466	6808
463.504	6730
463.533	6821
463.583	6954
463.601	7281
463.663	8272
463.669	8527
463.737	11420
463.743	11689
463.805	16981
463.823	18489
463.873	27852
463.903	33770
463.940	32391
463.982	31529
464.008	25489
464.062	11047
464.076	10513
464.142	6298
464.144	6267
464.211	6423
464.221	6507
464.279	6673
464.301	6696
464.347	7309
464.381	7931
464.414	8814
464.461	9989
464.482	10125
464.540	10437
464.550	10218
464.617	8563
464.620	8488
464.685	8794
464.699	8870
464.753	9483
464.779	9780
464.820	10958
464.859	12134
464.888	11959
464.938	11520
464.956	11782
465.018	12706
465.023	12511
465.091	9772
465.098	9464
465.158	9708
465.177	9758
465.226	9460
465.257	9375
465.293	10307
465.336	11172
465.361	11851
465.416	13490
465.428	14773
465.495	21735
465.496	21843
465.563	33377
465.575	35377
465.631	39638
465.654	41601
465.698	25442
465.734	11472
465.765	11119
465.813	9942
465.833	9436
465.893	8828
465.900	8910
465.968	9594
465.972	9613
466.035	9437
466.052	9436
466.102	10478
466.131	11009
466.170	10372
466.210	9586
466.237	10125
466.290	11279
466.304	11408
466.369	11696
466.372	11756
466.439	13080
466.449	13237
466.506	15286
466.528	16054
466.573	22933
466.607	28013
466.641	38158
466.687	52226
466.708	54736
466.766	61493
466.775	56794
466.842	20784
466.845	19031
466.909	16315
466.925	15699
466.977	14494
467.004	13925
467.044	14621
467.083	15302
467.111	15994
467.163	17200
467.178	17466
467.242	18447
467.245	18385
467.312	16489
467.321	16212
467.379	16200
467.400	16151
467.446	17759
467.480	18870
467.559	16035
467.638	13533
467.717	13813
467.796	15703
467.875	16754
467.955	16355
468.034	29588
468.113	59309
468.192	75650
468.271	18117
468.350	16764
468.429	18047
468.508	19993
468.588	15722
468.667	14251
468.746	13977
468.825	13199
468.904	12550
468.983	14245
469.062	22777
469.141	24558
469.220	11264
469.299	12736
469.378	13387
469.456	14225
469.535	13134
469.614	12519
469.693	14390
469.772	18899
469.851	25911
469.930	14873
470.009	11707
470.088	12609
470.166	15695
470.245	21544
470.324	22524
470.403	15790
470.482	12628
470.560	12093
470.639	12169
470.718	14116
470.797	12670
470.875	15684
470.954	20645
471.033	20693
471.111	10685
471.190	10073
471.269	9686
471.347	9940
471.426	10227
471.505	13669
471.583	12800
471.662	11787
471.740	11416
471.819	11252
471.898	10766
471.976	11461
472.055	10583
472.133	13637
472.212	17340
472.290	16733
472.369	9815
472.447	10264
472.526	9551
472.604	10733
472.683	11247
472.761	11829
472.839	11019
472.918	11418
472.996	11849
473.075	13563
473.153	12784
473.231	11531
473.310	12404
473.388	12238
473.466	11617
473.545	13064
473.623	16475
473.701	14605
473.780	10933
473.858	11015
473.936	13519
474.014	11240
474.093	13216
474.171	19260
474.249	25196
474.327	13228
474.405	9985
474.484	10290
474.562	10116
474.640	10575
474.718	11566
474.796	11962
474.874	10548
474.952	9722
475.030	9675
475.108	10730
475.187	12264
475.265	13624
475.343	17385
475.421	18476
475.499	10203
475.577	12128
475.655	16756
475.733	32093
475.811	49763
475.889	45605
475.966	23430
476.044	11722
476.122	13311
476.200	16832
476.278	12306
476.356	10236
476.434	12064
476.512	14360
476.590	16981
476.667	14058
476.745	9525
476.823	11310
476.901	10344
476.979	11019
477.056	9893
477.134	11286
477.212	10595
477.290	11121
477.367	9616
477.445	9728
477.523	9669
477.601	10293
477.678	10237
477.756	13263
477.834	13282
477.911	9882
477.989	9932
478.066	10213
478.144	12316
478.222	14270
478.299	19681
478.377	15574
478.454	9805
478.532	9219
478.609	9294
478.687	10722
478.764	9281
478.842	10986
478.919	10564
478.997	10536
479.074	9056
479.152	12789
479.229	15556
479.307	9137
479.384	9119
479.461	9418
479.539	9769
479.616	12061
479.694	9797
479.771	11703
479.848	11390
479.926	16622
480.003	15176
480.080	9982
480.157	8913
480.235	9096
480.312	9744
480.389	12231
480.467	18074
480.544	20996
480.621	11076
480.698	11143
480.775	12344
480.853	13189
480.930	9780
481.007	11251
481.084	12614
481.161	13764
481.238	11604
481.315	9276
481.392	9315
481.470	10118
481.547	10561
481.624	9431
481.701	9591
481.778	10774
481.855	12905
481.932	18536
482.009	30428
482.086	17068
482.163	11350
482.240	16426
482.317	24835
482.393	16885
482.470	10674
482.547	11753
482.624	10347
482.701	10759
482.778	10265
482.855	8612
482.932	9063
483.009	8990
483.085	11643
483.162	13028
483.239	12363
483.316	10710
483.393	9265
483.469	11629
483.546	11696
483.623	12459
483.699	9826
483.776	10201
483.853	12630
483.930	19964
484.006	47401
484.083	72747
484.160	29326
484.236	38812
484.313	28934
484.389	23225
484.466	21440
484.543	21119
484.619	22150
484.696	25061
484.772	24923
484.849	25259
484.925	20059
485.002	20435
485.078	21901
485.155	21026
485.231	18762
485.308	18302
485.384	20307
485.461	27413
485.537	44159
485.614	46492
485.690	19444
485.766	17077
485.843	19418
485.919	26813
485.995	24695
486.072	17245
486.148	17184
486.224	17147
486.301	18629
486.377	22617
486.453	21706
486.530	20065
486.606	25246
486.682	27632
486.758	36232
486.835	39749
486.911	35287
486.987	55493
487.063	49891
487.139	56745
487.215	39105
487.292	21673
487.368	19395
487.444	23542
487.520	28878
487.596	32363
487.672	56228
487.748	135743
487.824	176867
487.900	50400
487.976	24408
488.052	24731
488.128	27465
488.204	21704
488.280	19557
488.356	27120
488.432	54189
488.508	70269
488.584	20787
488.660	17643
488.736	16872
488.812	19166
488.888	22698
488.964	30836
489.039	62174
489.115	82491
489.191	41259
489.267	18238
489.343	16644
489.418	15275
489.494	14282
489.570	13044
489.646	15553
489.722	15002
489.797	16873
489.873	29628
489.949	59078
490.024	38627
490.100	14271
490.176	15056
490.251	17911
490.327	22042
490.403	12713
490.478	13305
490.554	11869
490.629	13350
490.705	12576
490.781	14227
490.856	12805
490.932	15796
491.007	14535
491.083	14458
491.158	14462
491.234	22988
491.309	45446
491.385	37524
491.460	13801
491.536	15047
491.611	12574
491.686	14776
491.762	19935
491.837	41544
491.913	64170
491.988	88787
492.063	92511
492.139	30634
492.214	18411
492.289	11285
492.365	11651
492.440	14402
492.515	14361
492.590	13566
492.666	11214
492.741	18307
492.816	24998
492.891	11935
492.967	10434
493.042	9542
493.117	10043
493.192	10787
493.267	13450
493.342	21647
493.418	22576
493.493	10636
493.568	9812
493.643	11498
493.718	15319
493.793	22076
493.868	20692
493.943	13746
494.018	11945
494.093	10331
494.168	10694
494.243	9941
494.318	9306
494.393	9742
494.468	9508
494.543	10065
494.618	11897
494.693	11054
494.768	10804
494.842	9909
494.917	9062
494.992	10014
495.067	9117
495.142	8350
495.217	10285
495.292	10200
495.366	11827
495.441	15112
495.516	19044
495.591	31307
495.665	88673
495.740	174683
495.815	51554
495.890	16222
495.964	13005
496.039	15358
496.114	13895
496.188	15325
496.263	14451
496.338	13666
496.412	15721
496.487	17664
496.561	16320
496.636	17770
496.710	14600
496.785	17732
496.860	19073
496.934	15137
497.009	14799
497.083	16273
497.158	16098
497.232	20040
497.307	23007
497.381	20493
497.455	24693
497.530	29817
497.604	20744
497.679	25220
497.753	38757
497.827	45334
497.902	42417
497.976	54969
498.050	132030
498.125	385367
498.199	283154
498.273	57899
498.348	46824
498.422	39710
498.496	35693
498.570	31161
498.645	23165
498.719	24022
498.793	27845
498.867	43323
498.941	63856
499.016	174725
499.090	378017
499.164	83900
499.238	17155
499.312	17029
499.386	21028
499.460	17108
499.534	17731
499.609	24084
499.683	31238
499.757	33676
499.831	89065
499.905	277465
499.979	182373
500.053	34620
500.127	32294
500.201	22249
500.275	14977
500.349	16497
500.422	19266
500.496	31028
500.570	66998
500.644	163836
500.718	246218
500.792	37278
500.866	17216
500.940	22176
501.013	17290
501.087	19037
501.161	31470
501.235	45218
501.309	109190
501.382	259805
501.456	158905
501.530	48053
501.603	77533
501.677	22831
501.751	14153
501.825	19370
501.898	40927
501.972	103127
502.046	43443
502.119	20003
502.193	51073
502.266	107358
502.340	40624
502.413	54300
502.487	87710
502.561	43398
502.634	14104
502.708	13533
502.781	11888
502.855	10698
502.928	8991
503.002	9081
503.075	9591
503.149	10217
503.222	10418
503.295	11854
503.369	15144
503.442	27487
503.516	86556
503.589	177908
503.662	91123
503.736	38582
503.809	87114
503.882	64399
503.956	109639
504.029	84049
504.102	80798
504.175	95672
504.249	29914
504.322	19891
504.395	14500
504.468	11180
504.542	11552
504.615	9599
504.688	8303
504.761	7984
504.834	11623
504.907	13903
504.980	19047
505.053	11689
505.127	14170
505.200	16476
505.273	16034
505.346	9810
505.419	8062
505.492	8742
505.565	7563
505.638	7137
505.711	7889
505.784	7903
505.857	6469
505.930	9773
506.003	6990
506.076	10390
506.149	11327
506.221	14549
506.294	17911
506.367	50516
506.440	136180
506.513	46836
506.586	14365
506.659	8198
506.731	9179
506.804	10739
506.877	14239
506.950	9678
507.022	8442
507.095	11644
507.168	12373
507.241	8221
507.313	6665
507.386	7988
507.459	10396
507.531	6964
507.604	7241
507.677	7093
507.749	5920
507.822	10163
507.894	16751
507.967	18425
508.040	10635
508.112	10169
508.185	10059
508.257	10468
508.330	13695
508.402	9464
508.475	8853
508.547	9841
508.620	11937
508.692	17583
508.765	9265
508.837	7845
508.909	7811
508.982	8117
509.054	9881
509.127	8113
509.199	7149
509.271	7185
509.344	6870
509.416	7334
509.488	7138
509.560	7769
509.633	8032
509.705	9710
509.777	9192
509.849	13927
509.922	8166
509.994	7303
510.066	8767
510.138	8690
510.210	16023
510.283	14798
510.355	11004
510.427	10522
510.499	9522
510.571	9482
510.643	10378
510.715	16402
510.787	12346
510.859	11198
510.931	12521
511.003	16251
511.076	13109
511.148	8703
511.219	9296
511.291	18262
511.363	16861
511.435	8853
511.507	8030
511.579	9197
511.651	8076
511.723	8718
511.795	7916
511.867	9243
511.939	13278
512.010	25131
512.082	14540
512.154	8574
512.226	9056
512.298	14520
512.369	18786
512.441	14742
512.513	13727
512.585	11237
512.656	12179
512.728	12152
512.800	8965
512.871	10211
512.943	9642
513.015	8647
513.086	9380
513.158	10886
513.230	9777
513.301	15826
513.373	16799
513.444	9175
513.516	8672
513.588	10401
513.659	10009
513.731	12560
513.802	11205
513.874	25888
513.945	32200
514.016	11064
514.088	9147
514.159	10131
514.231	14393
514.302	16635
514.374	12564
514.445	13938
514.516	28582
514.588	17346
514.659	15003
514.730	26130
514.802	16790
514.873	14516
514.944	15461
515.016	13784
515.087	14002
515.158	21156
515.229	24322
515.301	18326
515.372	20444
515.443	12537
515.514	9958
515.585	8895
515.656	9329
515.728	10963
515.799	8387
515.870	11162
515.941	9923
516.012	10299
516.083	12457
516.154	14436
516.225	16575
516.296	16124
516.367	14178
516.438	16171
516.509	23849
516.580	42666
516.651	128950
516.722	352739
516.793	113852
516.864	27928
516.935	26986
517.006	33991
517.077	54126
517.148	138205
517.219	440436
517.289	531225
517.360	161974
517.431	39399
517.502	17130
517.573	16460
517.643	15819
517.714	16551
517.785	17328
517.856	17381
517.926	21184
517.997	23502
518.068	29863
518.138	46780
518.209	92425
518.280	325960
518.350	869332
518.421	248988
518.492	32371
518.562	23379
518.633	25276
518.703	28431
518.774	56065
518.845	125859
518.915	100507
518.986	33895
519.056	26547
519.127	42272
519.197	66718
519.268	143417
519.338	64460
519.408	21222
519.479	23259
519.549	15822
519.620	13530
519.690	10312
519.760	10673
519.831	12375
519.901	10798
519.971	10323
520.042	11193
520.112	14407
520.182	15164
520.253	15830
520.323	12684
520.393	20227
520.463	27096
520.534	20846
520.604	39244
520.674	18733
520.744	20475
520.814	45488
520.885	40736
520.955	60268
521.025	158328
521.095	38410
521.165	12450
521.235	10099
521.305	9371
521.375	10209
521.445	10032
521.515	13182
521.585	16122
521.655	12895
521.725	11553
521.795	11021
521.865	8723
521.935	17095
522.005	11708
522.075	8522
522.145	11121
522.215	12885
522.285	17645
522.355	24974
522.424	43637
522.494	31819
522.564	19104
522.634	37740
522.704	82876
522.774	23657
522.843	10199
522.913	10219
522.983	11729
523.053	9647
523.122	11525
523.192	17889
523.262	48997
523.331	34043
523.401	10880
523.471	8064
523.540	8339
523.610	6313
523.680	7808
523.749	9387
523.819	11979
523.888	10501
523.958	7940
524.027	8890
524.097	9308
524.166	8991
524.236	9345
524.305	10521
524.375	7077
524.444	6737
524.514	10672
524.583	9680
524.653	10988
524.722	12780
524.791	7920
524.861	9878
524.930	7061
524.999	9279
525.069	11918
525.138	11403
525.207	12688
525.277	9740
525.346	8396
525.415	9089
525.484	9835
525.554	12095
525.623	10591
525.692	11313
525.761	10799
525.830	13401
525.900	16570
525.969	26656
526.038	44699
526.107	99179
526.176	237801
526.245	160948
526.314	61420
526.383	134572
526.452	162871
526.522	285293
526.591	217984
526.660	52060
526.729	29493
526.797	44894
526.867	103773
526.935	341101
527.004	555241
527.073	234773
527.142	22794
527.211	13748
527.280	14004
527.349	12610
527.418	7769
527.487	10089
527.555	6780
527.624	7609
527.693	5755
527.762	8481
527.831	6581
527.899	7845
527.968	7885
528.037	7203
528.106	10084
528.174	16181
528.243	14620
528.312	21184
528.380	20315
528.449	7266
528.518	7721
528.586	4916
528.655	6661
528.723	7253
528.792	5903
528.861	7880
528.929	5457
528.998	6979
529.066	5844
529.135	6918
529.203	6360
529.272	6855
529.340	8022
529.409	7570
529.477	7494
529.545	9432
529.614	11053
529.682	12596
529.751	12529
529.819	15092
529.887	9102
529.956	7718
530.024	7689
530.092	8069
530.161	9599
530.229	12688
530.297	7489
530.365	7731
530.434	6710
530.502	7230
530.570	7496
530.638	6155
530.707	7851
530.775	9087
530.843	5892
530.911	7638
530.979	7871
531.047	8018
531.115	8447
531.183	7688
531.252	7403
531.320	8469
531.388	5840
531.456	7985
531.524	5683
531.592	8911
531.660	8935
531.728	7353
531.796	6104
531.864	7254
531.932	8478
532.000	7131
532.067	7919
532.135	8623
532.203	9965
532.271	11021
532.339	17793
532.407	35849
532.475	18468
532.542	12010
532.610	16031
532.678	25151
532.746	85125
532.814	150032
532.881	30374
532.949	9930
533.017	9036
533.084	8649
533.152	8496
533.220	9284
533.287	8673
533.355	7789
533.423	8051
533.490	7679
533.558	7643
533.625	9013
533.693	8264
533.761	8474
533.828	9444
533.896	8374
533.963	15665
534.031	18367
534.098	23414
534.166	10851
534.233	8277
534.300	9943
534.368	9817
534.435	9053
534.503	10204
534.570	11871
534.637	10844
534.705	13064
534.772	17908
534.840	34001
534.907	120719
534.974	113570
535.041	16076
535.109	12006
535.176	7275
535.243	8961
535.310	8549
535.378	8338
535.445	8077
535.512	8539
535.579	7894
535.646	8652
535.714	9020
535.781	10483
535.848	8972
535.915	9282
535.982	8409
536.049	8036
536.116	10045
536.183	8380
536.250	7959
536.317	9391
536.384	9987
536.451	13268
536.518	13443
536.585	10335
536.652	14123
536.719	17207
536.786	11631
536.853	11925
536.920	18072
536.987	26726
537.053	28392
537.120	91831
537.187	54835
537.254	10431
537.321	8864
537.388	10886
537.454	8280
537.521	8974
537.588	8209
537.654	11349
537.721	10437
537.788	11764
537.855	8877
537.921	9403
537.988	8850
538.055	9280
538.121	8839
538.188	10080
538.254	14342
538.321	23944
538.388	14083
538.454	9869
538.521	9207
538.587	9001
538.654	9455
538.720	8923
538.787	8257
538.853	10597
538.920	11885
538.986	11930
539.053	9971
539.119	10715
539.185	10035
539.252	12869
539.318	14540
539.385	13762
539.451	11652
539.517	13027
539.583	16062
539.650	33246
539.716	59002
539.782	16159
539.849	9009
539.915	9801
539.981	10287
540.047	11856
540.114	9976
540.180	12540
540.246	10152
540.312	16210
540.378	25602
540.444	24097
540.510	33630
540.576	67646
540.643	18309
540.709	9438
540.775	9627
540.841	10251
540.907	14383
540.973	19441
541.039	15462
541.105	15614
541.171	10263
541.237	11009
541.303	11295
541.369	12681
541.435	14492
541.500	21765
541.566	12403
541.632	9995
541.698	9802
541.764	9992
541.830	8712
541.896	8657
541.961	9236
542.027	9728
542.093	10132
542.159	11288
542.224	10959
542.290	15776
542.356	20999
542.421	21776
542.487	12007
542.553	9991
542.618	11164
542.684	9763
542.750	10443
542.815	14466
542.881	24989
542.947	66024
543.012	35186
543.078	10019
543.143	9021
543.209	10471
543.274	10449
543.340	14853
543.405	29930
543.471	33392
543.536	11423
543.602	10246
543.667	9285
543.732	10482
543.798	9147
543.863	9991
543.928	8853
543.994	9354
544.059	9170
544.124	8904
544.190	9010
544.255	10112
544.320	10478
544.386	10651
544.451	13562
544.516	15908
544.581	18451
544.646	46199
544.712	51542
544.777	15158
544.842	12855
544.907	13155
544.972	11526
545.037	12278
545.102	13047
545.168	12911
545.233	14481
545.298	15448
545.363	16553
545.428	18985
545.493	30701
545.558	49061
545.623	20020
545.688	13308
545.753	12808
545.818	13543
545.883	14192
545.947	12964
546.012	15092
546.077	15465
546.142	14690
546.207	16123
546.272	17692
546.337	17419
546.401	15244
546.466	15571
546.531	15412
546.596	17831
546.661	16621
546.725	18277
546.790	16746
546.855	17984
546.919	18235
546.984	21356
547.049	23545
547.113	26663
547.178	25295
547.243	30531
547.307	33184
547.372	37850
547.436	37981
547.501	36273
547.565	39084
547.630	38313
547.695	36933
547.759	39715
547.823	34793
547.888	34589
547.952	35831
548.017	38033
548.081	41148
548.146	44831
548.210	41063
548.274	39791
548.339	39028
548.403	37190
548.468	34249
548.532	34038
548.596	34713
548.660	35518
548.725	39557
548.789	44781
548.853	42848
548.917	40475
548.982	44038
549.046	38062
549.110	30360
549.174	33017
549.238	36432
549.303	38612
549.367	40656
549.431	37036
549.495	36289
549.559	37556
549.623	44284
549.687	48559
549.751	51843
549.815	54371
549.879	53268
549.943	49986
550.007	54473
550.071	54395
550.135	52017
550.199	47274
550.263	45972
550.327	45634
550.391	49647
550.455	49224
550.519	50875
550.582	54915
550.646	65144
550.710	64310
550.774	59271
550.838	61208
550.901	62619
550.965	66530
551.029	69750
551.093	76524
551.156	87379
551.220	116421
551.284	121015
551.347	86699
551.411	99736
551.475	88905
551.538	65785
551.602	59807
551.666	55925
551.729	52623
551.793	53139
551.856	51160
551.920	50569
551.983	50320
552.047	50620
552.110	50621
552.174	50792
552.237	52486
552.301	47553
552.364	46547
552.428	45176
552.491	46747
552.554	49635
552.618	48659
552.681	52133
552.745	51508
552.808	63833
552.871	70794
552.934	54588
552.998	50505
553.061	48130
553.124	45618
553.187	47048
553.251	47741
553.314	47352
553.377	48281
553.440	53158
553.503	58580
553.567	61326
553.630	50596
553.693	49172
553.756	50263
553.819	48674
553.882	47768
553.945	48092
554.008	48333
554.071	47286
554.134	48847
554.197	44846
554.260	43857
554.323	47544
554.386	47262
554.449	48322
554.512	48864
554.575	45373
554.638	45131
554.701	45434
554.764	45205
554.827	43723
554.889	42692
554.952	38889
555.015	39310
555.078	38890
555.141	41623
555.203	39278
555.266	38984
555.329	39871
555.391	37257
555.454	38394
555.517	37073
555.580	34853
555.642	32845
555.705	32631
555.768	33854
555.830	32431
555.893	30328
555.955	30377
556.018	30911
556.080	31438
556.143	30768
556.206	30380
556.268	30700
556.330	31108
556.393	29411
556.455	28930
556.518	34212
556.580	33040
556.643	26932
556.705	25666
556.767	25541
556.830	26802
556.892	26852
556.955	30634
557.017	26293
557.079	24672
557.142	25373
557.204	26216
557.266	34861
557.328	28221
557.391	22368
557.453	21732
557.515	22271
557.577	23737
557.639	22908
557.701	21656
557.764	20837
557.826	22026
557.888	24178
557.950	24251
558.012	29412
558.074	40194
558.136	83357
558.198	161990
558.260	50516
558.322	23695
558.384	24867
558.446	27362
558.508	31639
558.570	40631
558.632	60789
558.694	87840
558.756	129896
558.818	340379
558.880	643726
558.942	182149
559.003	168220
559.065	67085
559.127	33028
559.189	36406
559.251	48748
559.312	78402
559.374	171016
559.436	459870
559.498	173308
559.559	35372
559.621	36382
559.683	51572
559.744	89017
559.806	246818
559.868	290600
559.929	53756
559.991	43013
560.052	68777
560.114	169933
560.176	96220
560.237	103552
560.299	138131
560.360	28281
560.422	17263
560.483	16031
560.545	14740
560.606	15101
560.667	15288
560.729	14426
560.790	13870
560.852	13876
560.913	14204
560.974	14120
561.036	13652
561.097	14211
561.158	14364
561.220	14290
561.281	14311
561.342	15023
561.403	17683
561.465	19809
561.526	36197
561.587	37333
561.648	15018
561.709	13425
561.771	13543
561.832	13574
561.893	12267
561.954	12960
562.015	12377
562.076	12770
562.137	12765
562.198	12724
562.259	12508
562.320	12638
562.381	14724
562.442	17459
562.503	14336
562.564	13152
562.625	12686
562.686	12227
562.747	14107
562.808	13490
562.869	12860
562.930	15836
562.991	14225
563.051	13124
563.112	12664
563.173	11854
563.234	11472
563.294	12325
563.355	12565
563.416	13059
563.477	12529
563.537	12949
563.598	12602
563.659	12889
563.720	12334
563.780	12797
563.841	12566
563.901	12868
563.962	12737
564.023	11453
564.083	12991
564.144	12852
564.204	12793
564.265	13311
564.325	15915
564.386	24702
564.446	19284
564.507	11763
564.567	11486
564.628	12793
564.688	11497
564.749	12429
564.809	14148
564.869	15564
564.930	10887
564.990	12872
565.050	11209
565.111	12975
565.171	11535
565.231	11296
565.292	12090
565.352	11001
565.412	11847
565.472	12395
565.532	12566
565.593	12298
565.653	11943
565.713	12989
565.773	12825
565.833	14596
565.893	16162
565.953	12823
566.013	12840
566.074	14375
566.134	17711
566.194	24889
566.254	21246
566.314	16542
566.374	13041
566.434	14076
566.494	13981
566.554	12875
566.614	14215
566.673	14886
566.733	15755
566.793	16615
566.853	16225
566.913	17593
566.973	16408
567.033	17665
567.092	17125
567.152	16901
567.212	17303
567.272	17162
567.331	18192
567.391	19335
567.451	20680
567.511	23673
567.570	21961
567.630	17539
567.690	16336
567.749	17838
567.809	17951
567.868	20046
567.928	22695
567.988	26549
568.047	30462
568.107	38500
568.166	54087
568.226	81008
568.285	102773
568.345	80242
568.404	59602
568.464	52207
568.523	49682
568.582	53093
568.642	62565
568.701	82668
568.761	122686
568.820	182265
568.879	158862
568.939	110823
568.998	75937
569.057	58561
569.116	47300
569.176	38272
569.235	32287
569.294	28436
569.353	24782
569.413	23139
569.472	21282
569.531	19516
569.590	18643
569.649	17645
569.708	16764
569.767	18080
569.827	18912
569.886	16291
569.945	13996
570.004	13858
570.063	14559
570.122	15490
570.181	15604
570.240	16537
570.299	15840
570.358	16261
570.417	13765
570.475	13127
570.534	13722
570.593	14296
570.652	14498
570.711	14236
570.770	13442
570.829	13380
570.887	12882
570.946	15081
571.005	11768
571.064	12717
571.122	13245
571.181	13813
571.240	11736
571.299	12498
571.357	12710
571.416	13374
571.475	14214
571.533	14380
571.592	12348
571.650	12311
571.709	11690
571.768	14021
571.826	11961
571.885	10971
571.943	10915
572.002	10702
572.060	11712
572.119	10882
572.177	9686
572.236	10557
572.294	10484
572.352	10925
572.411	10936
572.469	10889
572.528	10559
572.586	11625
572.644	12263
572.703	14854
572.761	11480
572.819	11396
572.877	10082
572.936	9581
572.994	9484
573.052	11041
573.110	10270
573.169	9767
573.227	10212
573.285	10075
573.343	9223
573.401	11011
573.459	10416
573.517	10371
573.576	9126
573.634	10427
573.692	10795
573.750	11003
573.808	9314
573.866	11513
573.924	12990
573.982	12239
574.040	10395
574.098	10259
574.155	10064
574.213	9799
574.271	10162
574.329	10965
574.387	9945
574.445	9369
574.503	8895
574.560	8985
574.618	8882
574.676	8575
574.734	8799
574.792	10260
574.849	9091
574.907	7837
574.965	7754
575.022	8243
575.080	9173
575.138	9172
575.195	9363
575.253	9623
575.311	9094
575.368	9525
575.426	7729
575.483	9204
575.541	9269
575.598	8801
575.656	8910
575.713	9219
575.771	9070
575.828	8852
575.886	8175
575.943	10674
576.001	8978
576.058	8556
576.115	10256
576.173	12530
576.230	11660
576.287	11762
576.345	11504
576.402	9826
576.459	9578
576.517	10158
576.574	10708
576.631	10502
576.688	8830
576.746	9538
576.803	9566
576.860	9416
576.917	9626
576.974	10264
577.031	9173
577.089	9928
577.146	9574
577.203	10356
577.260	9564
577.317	10551
577.374	10820
577.431	10200
577.488	9444
577.545	9392
577.602	9292
577.659	9504
577.716	8710
577.773	8936
577.830	7926
577.886	9670
577.943	8560
578.000	9200
578.057	9748
578.114	9394
578.171	8828
578.227	9510
578.284	8917
578.341	10052
578.398	9842
578.454	10853
578.511	11374
578.568	11479
578.625	9644
578.681	9194
578.738	9079
578.794	9842
578.851	9112
578.908	9120
578.964	9832
579.021	10954
579.077	8994
579.134	10404
579.190	9372
579.247	9676
579.303	9402
579.360	9000
579.416	9410
579.473	9440
579.529	7937
579.586	8596
579.642	9512
579.698	9264
579.755	9756
579.811	9269
579.867	9369
579.924	9684
579.980	8732
580.036	9420
580.093	9846
580.149	10021
580.205	10346
580.261	10284
580.317	9768
580.374	9784
580.430	11794
580.486	12388
580.542	9460
580.598	10480
580.619	10394
580.654	10256
580.692	10496
580.710	10631
580.765	10114
580.767	10111
580.823	10803
580.838	10473
580.879	9610
580.911	9896
580.935	10115
580.984	9002
580.991	8865
581.047	10462
581.057	10467
581.103	10504
581.130	10547
581.159	10590
581.203	10686
581.215	10741
581.270	11010
581.276	10929
581.326	10188
581.349	10425
581.382	10814
581.422	10628
581.438	10554
581.494	10791
581.494	10784
581.550	10744
581.567	10981
581.606	11552
581.640	11026
581.661	10717
581.713	11408
581.717	11470
581.773	10244
581.786	10470
581.829	11224
581.859	11066
581.885	10935
581.932	10403
581.940	10324
581.996	11460
582.004	11446
582.052	11285
582.077	10883
582.107	10459
582.150	11077
582.163	11283
582.219	10804
582.223	10808
582.274	10938
582.296	11051
582.330	11183
582.368	11844
582.386	12163
582.441	12025
582.441	12027
582.497	10695
582.514	10794
582.552	11085
582.587	11088
582.608	11046
582.659	10919
582.663	10931
582.719	10955
582.732	10967
582.774	10900
582.805	10940
582.830	10968
582.877	11887
582.885	12042
582.941	11100
582.950	11155
582.996	11448
583.023	11746
583.052	12049
583.095	11799
583.107	11786
583.162	11743
583.168	11769
583.218	11740
583.240	11605
583.273	11490
583.313	11582
583.328	11604
583.384	12136
583.385	12121
583.439	11666
583.458	11637
583.494	11654
583.531	11542
583.549	11445
583.603	11853
583.605	11866
583.660	11925
583.676	11962
583.715	12052
583.748	12157
583.770	12214
583.820	12445
583.825	12463
583.881	11702
583.893	11797
583.936	12345
583.965	12113
583.991	11908
584.038	12357
584.046	12406
584.101	12277
584.110	12511
584.156	13511
584.183	12815
584.211	12155
584.255	12165
584.266	12193
584.321	12456
584.328	12446
584.376	12547
584.400	12979
584.431	13393
584.472	13720
584.486	13762
584.541	12922
584.545	12918
584.596	13289
584.617	13671
584.651	14113
584.689	14303
584.706	14467
584.761	14522
584.762	14530
584.816	15112
584.834	15273
584.871	15595
584.906	15574
584.926	15410
584.978	15461
584.980	15486
585.035	16723
585.051	16890
585.090	17351
585.123	18265
585.145	18729
585.195	19119
585.200	19199
585.254	20650
585.267	21045
585.309	22456
585.340	24397
585.364	25901
585.412	29526
585.419	30074
585.473	36311
585.484	38022
585.528	46713
585.556	55174
585.583	68635
585.628	97443
585.637	108514
585.692	214616
585.700	232008
585.747	307027
585.772	263872
585.801	162271
585.845	63972
585.856	52022
585.910	31604
585.917	29607
585.965	25918
585.989	24394
586.019	23577
586.061	23089
586.074	22923
586.128	22912
586.133	22913
586.183	23594
586.205	23761
586.237	23914
586.277	23994
586.292	23961
586.346	24048
586.349	24063
586.401	24305
586.421	24526
586.455	25190
586.493	26283
586.509	27186
586.564	31398
586.565	31588
586.618	41772
586.637	41998
586.672	37791
586.709	33285
586.727	31889
586.781	31951
586.781	31950
586.835	29457
586.853	29067
586.889	28728
586.925	28320
586.944	28335
586.996	29363
586.998	29404
587.052	30681
587.068	31066
587.106	31961
587.140	32524
587.161	32673
587.212	33476
587.215	33541
587.269	34913
587.284	35227
587.323	36383
587.356	37302
587.377	37627
587.427	39602
587.431	39796
587.485	41029
587.499	41755
587.539	44046
587.571	45205
587.593	46132
587.643	49251
587.648	49458
587.702	50976
587.715	51562
587.755	54759
587.786	56733
587.810	58042
587.858	61775
587.864	62351
587.917	67998
587.930	69331
587.971	73778
588.001	77530
588.025	81020
588.073	88081
588.079	89074
588.133	98260
588.145	100544
588.187	110238
588.217	117713
588.241	124510
588.288	138491
588.295	140737
588.348	161295
588.360	166266
588.402	187496
588.431	203814
588.456	220041
588.503	254936
588.510	260824
588.564	314457
588.575	327037
588.617	388937
588.646	436019
588.671	491611
588.718	608144
588.725	633648
588.778	845986
588.789	892926
588.832	1124999
588.861	1279310
588.886	1336415
588.932	1352108
588.939	1331960
588.993	1144558
589.004	1134960
589.047	1316863
589.075	1368403
589.100	1247116
589.147	985163
589.154	952614
589.207	726935
589.218	685572
589.261	623011
589.290	590559
589.314	603201
589.361	642324
589.368	660905
589.421	836908
589.433	877985
589.475	1093960
589.504	1231545
589.528	1247826
589.576	1199850
589.582	1193948
589.635	1206449
589.647	1188740
589.689	952901
589.718	780117
589.742	657936
589.790	437827
589.795	424868
589.849	316533
589.861	293121
589.902	250205
589.932	218793
589.955	201269
590.004	167563
590.009	165334
590.062	142288
590.075	136811
590.115	124561
590.146	115364
590.168	110657
590.218	100681
590.222	99985
590.275	90766
590.289	88338
590.328	83865
590.360	80246
590.381	78134
590.431	73687
590.435	73449
590.488	68405
590.503	67157
590.541	64751
590.574	62464
590.594	61080
590.645	57617
590.647	57540
590.700	55027
590.716	54167
590.753	52366
590.787	50837
590.806	50696
590.859	50394
590.859	50403
590.912	48865
590.930	48424
590.965	47334
591.001	46215
591.018	45680
591.071	43639
591.072	43589
591.124	43504
591.143	43478
591.177	42713
591.214	41644
591.230	41579
591.283	41471
591.285	41425
591.336	40587
591.356	40378
591.389	39909
591.427	39071
591.442	38715
591.495	37433
591.498	37301
591.547	36802
591.569	36629
591.600	36458
591.640	36085
591.653	36256
591.706	36958
591.711	36994
591.759	36605
591.782	36475
591.811	36711
591.853	36715
591.864	36525
591.917	35508
591.924	35332
591.969	34687
591.995	34281
592.022	34365
592.066	34469
592.075	34603
592.127	35246
592.137	35352
592.180	36813
592.208	37653
592.233	36539
592.279	34290
592.285	34249
592.338	33723
592.350	33574
592.390	33053
592.421	32606
592.443	32640
592.491	32637
592.495	32661
592.548	32581
592.562	32532
592.600	32536
592.633	32489
592.653	32330
592.704	31671
592.705	31843
592.775	31383
592.846	31508
592.916	32158
592.987	33005
593.058	33039
593.128	31663
593.199	30816
593.270	30403
593.341	31294
593.411	31822
593.482	32055
593.553	32074
593.623	31438
593.694	31425
593.764	32986
593.835	32127
593.906	32051
593.976	32036
594.047	32804
594.117	34754
594.188	36671
594.258	33676
594.329	32338
594.399	32525
594.470	33967
594.540	34134
594.611	34042
594.681	33839
594.751	33682
594.822	35296
594.892	36456
594.963	36276
595.033	38583
595.103	38224
595.174	38761
595.244	44044
595.314	49139
595.384	41607
595.455	41147
595.525	40716
595.595	42726
595.665	42637
595.736	41008
595.806	42636
595.876	41827
595.946	41906
596.016	43852
596.087	44248
596.157	43854
596.227	44660
596.297	46951
596.367	49222
596.437	52860
596.507	55132
596.577	58792
596.647	54080
596.717	54484
596.787	54801
596.857	54768
596.927	54710
596.997	55270
597.067	55289
597.137	56116
597.207	55612
597.277	57931
597.347	55744
597.417	54461
597.487	53774
597.557	55503
597.626	56195
597.696	57409
597.766	58914
597.836	60678
597.906	53028
597.975	49891
598.045	50659
598.115	52075
598.185	54696
598.254	59977
598.324	66325
598.394	67265
598.464	65332
598.533	64026
598.603	60199
598.672	59141
598.742	59248
598.812	59769
598.881	60650
598.951	61320
599.020	60717
599.090	62800
599.159	63452
599.229	61778
599.299	59637
599.368	61982
599.437	60927
599.507	56536
599.576	54561
599.646	54610
599.715	54343
599.785	53563
599.854	52650
599.924	52500
599.993	51511
600.062	51646
600.132	52532
600.201	55354
600.270	63492
600.340	67875
600.409	64903
600.478	64575
600.547	65688
600.617	62649
600.686	51428
600.755	46170
600.824	45531
600.894	43597
600.963	43059
601.032	42948
601.101	41479
601.170	39958
601.239	39465
601.308	39829
601.378	39664
601.447	38504
601.516	39552
601.585	40979
601.654	42188
601.723	40770
601.792	41206
601.861	43000
601.930	44419
601.999	46422
602.068	44871
602.137	47427
602.206	46199
602.275	45095
602.343	47478
602.412	49218
602.481	45867
602.550	45162
602.619	46806
602.688	46980
602.756	47879
602.825	48335
602.894	48244
602.963	50590
603.032	50421
603.100	50532
603.169	50270
603.238	50287
603.307	51267
603.375	51557
603.444	52453
603.513	53093
603.581	54425
603.650	54705
603.719	52949
603.787	53657
603.856	55699
603.924	56580
603.993	59690
604.061	61003
604.130	64250
604.198	66360
604.267	65675
604.335	65658
604.404	67536
604.472	68794
604.541	68858
604.609	69305
604.678	69920
604.746	69683
604.815	71951
604.883	73102
604.951	74076
605.020	74149
605.088	76298
605.156	76633
605.225	77736
605.293	79063
605.361	79460
605.429	78974
605.498	80433
605.566	82461
605.634	86018
605.702	88909
605.771	92364
605.839	92981
605.907	90092
605.975	87934
606.043	85658
606.111	84600
606.180	84628
606.248	84756
606.316	82920
606.384	84151
606.452	87189
606.520	89517
606.588	90150
606.656	88010
606.724	87623
606.792	81888
606.860	74047
606.928	68187
606.996	64684
607.064	63608
607.132	65530
607.200	69161
607.267	71221
607.335	72566
607.403	73853
607.471	72617
607.539	69203
607.607	71801
607.674	62286
607.742	63055
607.810	62576
607.878	62692
607.946	63851
608.013	66902
608.081	68317
608.149	67770
608.216	69350
608.284	73265
608.352	72895
608.419	72575
608.487	73356
608.555	69786
608.622	70837
608.690	74536
608.757	82803
608.825	85469
608.893	83384
608.960	80163
609.028	80103
609.095	78623
609.163	76451
609.230	67793
609.298	60333
609.365	64659
609.432	69394
609.500	74231
609.567	85451
609.635	97232
609.702	103152
609.769	101157
609.837	80915
609.904	68794
609.971	70065
610.039	80190
610.106	104684
610.173	198347
610.241	463713
610.308	337125
610.375	130524
610.442	79983
610.509	71248
610.577	70036
610.644	71062
610.711	72675
610.778	74456
610.845	77749
610.912	80751
610.980	84857
611.047	85834
611.114	84749
611.181	81849
611.248	80461
611.315	84999
611.382	86689
611.449	88828
611.516	90258
611.583	91232
611.650	91581
611.717	92477
611.784	95434
611.851	99937
611.918	107829
611.984	126605
612.051	179417
612.118	359351
612.185	879950
612.252	668424
612.319	168016
612.386	124366
612.452	111762
612.519	105827
612.586	106091
612.653	104862
612.719	107648
612.786	102510
612.853	95287
612.919	90551
612.986	95030
613.053	88015
613.120	83692
613.186	80003
613.253	82089
613.319	79862
613.386	82751
613.453	84985
613.519	85341
613.586	85018
613.652	94654
613.719	88537
613.785	88954
613.852	84274
613.918	82339
613.985	84221
614.051	88460
614.118	92544
614.184	89386
614.250	82327
614.317	84930
614.383	83033
614.449	84937
614.516	84294
614.582	86392
614.648	82727
614.715	83191
614.781	81754
614.847	81537
614.914	82134
614.980	79250
615.046	78369
615.112	81054
615.179	82696
615.245	84657
615.311	89066
615.377	104911
615.443	111499
615.509	93391
615.575	89529
615.642	87648
615.708	91457
615.774	96867
615.840	103549
615.906	117527
615.972	152884
616.038	248426
616.104	470542
616.170	1024640
616.236	1020390
616.302	250119
616.368	164605
616.434	119813
616.500	107796
616.565	115613
616.631	146028
616.697	123317
616.763	121538
616.829	173624
616.895	312702
616.961	324942
617.026	142998
617.092	95232
617.158	88578
617.224	85021
617.289	77621
617.355	75771
617.421	73599
617.487	74762
617.552	70055
617.618	69203
617.684	69364
617.749	71900
617.815	66047
617.880	64940
617.946	64053
618.012	65719
618.077	67595
618.143	66258
618.208	65465
618.274	71381
618.339	71249
618.405	59669
618.470	59398
618.536	59721
618.601	58214
618.667	56392
618.732	52157
618.798	51782
618.863	50902
618.928	50686
618.994	51838
619.059	52379
619.124	58444
619.190	53958
619.255	50398
619.320	50503
619.386	50325
619.451	48955
619.516	48763
619.581	49134
619.647	49802
619.712	50263
619.777	48331
619.842	49945
619.907	50063
619.972	50927
620.038	51367
620.103	47831
620.168	47474
620.233	48691
620.298	48722
620.363	49570
620.428	51268
620.493	52616
620.558	50912
620.623	53149
620.688	52793
620.753	52874
620.818	53481
620.883	54112
620.948	54044
621.013	53964
621.078	51359
621.143	52663
621.207	55399
621.272	53740
621.337	53260
621.402	53943
621.467	54326
621.532	55795
621.596	54275
621.661	50221
621.726	49891
621.791	50433
621.855	51079
621.920	51249
621.985	51444
622.049	53472
622.114	53895
622.179	54017
622.243	54786
622.308	55846
622.373	58152
622.437	58160
622.502	54437
622.566	53310
622.631	52287
622.695	55292
622.760	53657
622.824	53165
622.889	53126
622.953	54360
623.018	64732
623.082	66928
623.147	56332
623.211	56545
623.276	56648
623.340	52695
623.404	51059
623.469	51330
623.533	51332
623.597	50914
623.662	49552
623.726	48120
623.790	44483
623.854	43227
623.919	45307
623.983	45269
624.047	46419
624.111	45048
624.176	46759
624.240	47403
624.304	52942
624.368	46658
624.432	46645
624.496	47885
624.560	51860
624.625	53060
624.689	49892
624.753	51144
624.817	49778
624.881	48897
624.945	44423
625.009	41976
625.073	44048
625.137	46395
625.201	51251
625.265	52212
625.329	45817
625.393	46493
625.456	46774
625.520	47860
625.584	50494
625.648	52515
625.712	59432
625.776	83054
625.839	88584
625.903	56104
625.967	40436
626.031	49906
626.095	66653
626.158	47841
626.222	36020
626.286	32974
626.349	32957
626.413	29671
626.477	30981
626.540	30909
626.604	30567
626.668	30107
626.731	28960
626.795	30133
626.858	30378
626.922	29666
626.986	29163
627.049	29264
627.113	29768
627.176	28615
627.240	28157
627.303	29307
627.366	29266
627.430	29493
627.493	29927
627.557	27660
627.620	29180
627.684	30084
627.747	30552
627.810	27070
627.874	26181
627.937	24099
628.000	25706
628.064	25983
628.127	22709
628.190	22949
628.253	22937
628.317	21385
628.380	20606
628.443	19973
628.506	20148
628.569	20325
628.632	18521
628.696	19198
628.759	17629
628.822	18121
628.885	17100
628.948	17869
629.011	17629
629.074	17702
629.137	16048
629.200	16689
629.263	18433
629.326	15644
629.389	16186
629.452	15837
629.515	16250
629.578	15678
629.641	16870
629.704	17169
629.767	16551
629.830	15693
629.892	14597
629.955	15212
630.018	16974
630.081	17193
630.144	19084
630.207	16535
630.269	16812
630.332	15655
630.395	16116
630.458	14337
630.520	13933
630.583	15775
630.646	13807
630.708	14485
630.771	14091
630.834	15747
630.896	14638
630.959	14637
631.021	14269
631.084	14346
631.146	15057
631.209	16824
631.272	14342
631.334	15468
631.397	15025
631.459	14725
631.522	15904
631.584	16522
631.646	16661
631.709	18380
631.771	20175
631.834	18444
631.896	17080
631.958	14904
632.021	15614
632.083	14651
632.145	14632
632.208	14027
632.270	16047
632.332	13685
632.395	12964
632.457	14585
632.519	13962
632.581	14404
632.643	12872
632.706	13754
632.768	12735
632.830	14506
632.892	13578
632.954	12936
633.016	14280
633.078	12961
633.141	13653
633.203	12732
633.265	14158
633.327	13652
633.389	13060
633.451	14740
633.513	15822
633.575	15818
633.637	15548
633.698	14982
633.760	15797
633.822	14213
633.884	14845
633.946	14553
634.008	14917
634.070	16335
634.132	17327
634.193	17911
634.255	19586
634.317	19618
634.379	19592
634.441	17736
634.502	15787
634.564	15763
634.626	14283
634.687	13058
634.749	13138
634.811	13953
634.873	12830
634.934	12619
634.996	12372
635.057	11977
635.119	12545
635.181	13360
635.242	13805
635.304	11935
635.365	15106
635.427	13017
635.488	12838
635.550	12977
635.611	12879
635.673	11710
635.734	15315
635.796	13917
635.857	16329
635.918	16184
635.980	18501
636.041	19046
636.102	19785
636.164	20257
636.225	20166
636.286	16708
636.348	15949
636.409	15372
636.470	13078
636.531	13369
636.593	13584
636.654	13019
636.715	11728
636.776	11429
636.838	11029
636.899	11578
636.960	11166
637.021	10951
637.082	10318
637.143	11181
637.204	9659
637.265	9908
637.326	10710
637.387	10464
637.448	10243
637.509	10807
637.570	9658
637.631	9876
637.692	9134
637.753	9599
637.814	9548
637.875	9579
637.936	10394
637.997	9896
638.058	10167
638.119	10446
638.179	10176
638.240	9379
638.301	10193
638.362	8161
638.423	9192
638.483	10990
638.544	8080
638.605	9883
638.666	7427
638.726	9432
638.787	8483
638.848	9282
638.908	9530
638.969	8834
639.030	9025
639.090	8010
639.151	8318
639.211	9542
639.272	11157
639.332	15285
639.393	12158
639.453	10203
639.514	9508
639.574	9967
639.635	8409
639.695	9974
639.756	8057
639.816	8676
639.877	9577
639.937	13576
639.997	17089
640.058	9237
640.118	7814
640.178	8934
640.239	7708
640.299	7986
640.359	8095
640.420	8661
640.480	10094
640.540	10454
640.600	10399
640.661	9872
640.721	9128
640.781	11167
640.841	8881
640.901	9012
640.961	9020
641.021	9127
641.082	9066
641.142	12462
641.202	10281
641.262	6780
641.322	8459
641.382	6845
641.442	7590
641.502	8198
641.562	7713
641.622	7391
641.682	8381
641.742	8968
641.802	8144
641.861	8728
641.921	7676
641.981	9001
642.041	8656
642.101	8981
642.161	7911
642.221	6555
642.280	6875
642.340	6821
642.400	6938
642.460	8069
642.519	6594
642.579	7141
642.639	8051
642.698	5997
642.758	8768
642.818	7910
642.877	6944
642.937	7568
642.997	8837
643.056	10958
643.116	7537
643.175	8496
643.235	7940
643.294	8410
643.354	9912
643.414	10190
643.473	11562
643.532	14320
643.592	20208
643.651	32011
643.711	59697
643.770	114123
643.830	265019
643.889	637040
643.948	196900
644.008	29494
644.067	17245
644.126	11672
644.186	10255
644.245	10335
644.304	7021
644.363	9281
644.423	7007
644.482	8354
644.541	8850
644.600	7896
644.659	11386
644.719	13147
644.778	20396
644.837	33891
644.896	67486
644.955	172984
645.014	71477
645.073	14380
645.132	9642
645.191	9754
645.250	8189
645.309	8672
645.368	8537
645.427	12759
645.486	17667
645.545	35565
645.604	13301
645.663	8175
645.722	7590
645.781	9112
645.840	9607
645.898	13530
645.957	19172
646.016	30088
646.075	55212
646.134	107596
646.192	273577
646.251	494517
646.310	90410
646.369	20029
646.427	14932
646.486	11516
646.545	9047
646.603	8201
646.662	8211
646.721	6859
646.779	6353
646.838	6767
646.896	9520
646.955	12637
647.014	20663
647.072	37232
647.131	104448
647.189	65593
647.248	8724
647.306	7390
647.365	6932
647.423	4837
647.481	7119
647.540	4622
647.598	5694
647.657	5259
647.715	6405
647.773	4707
647.832	5616
647.890	4704
647.948	4723
648.007	5935
648.065	4570
648.123	4583
648.181	5909
648.240	4825
648.298	3576
648.356	4367
648.414	5167
648.472	4961
648.531	5554
648.589	5273
648.647	4757
648.705	4994
648.763	5209
648.821	4623
648.879	4773
648.937	6509
648.995	7797
649.053	9326
649.111	14507
649.169	25044
649.227	45046
649.285	89184
649.343	277768
649.401	169827
649.459	27716
649.516	16708
649.574	8795
649.632	10289
649.690	11924
649.748	11438
649.806	13821
649.863	26613
649.921	72084
649.979	62527
650.037	8868
650.094	3291
650.152	5371
650.210	4387
650.268	4154
650.325	3998
650.383	4498
650.440	3932
650.498	3804
650.556	3946
650.613	2900
650.671	3694
650.728	3232
650.786	3533
650.843	4980
650.901	3974
650.958	3496
651.016	2590
651.073	3414
651.131	2898
651.188	1628
651.246	3531
651.303	2609
651.360	3866
651.418	2918
651.475	3548
651.532	1557
651.590	3960
651.647	2821
651.704	3923
651.762	3134
651.819	3157
651.876	2462
651.933	3187
651.990	3160
652.048	2288
652.105	1960
652.162	2905
652.219	2435
652.276	3303
652.333	3672
652.390	2187
652.448	2570
652.505	3200
652.562	3101
652.619	2939
652.676	3053
652.733	3372
652.790	2857
652.847	1865
652.904	2771
652.961	1777
653.017	1874
653.074	3173
653.131	3615
653.188	2272
653.245	2615
653.302	2235
653.359	1967
653.415	2384
653.472	1563
653.529	4018
653.586	1987
653.642	2387
653.699	2685
653.756	1547
653.813	2322
653.869	2400
653.926	1395
653.983	2128
654.039	2428
654.096	1963
654.152	3123
654.209	709
654.266	2685
654.322	1695
654.379	3450
654.435	3105
654.492	2310
654.548	4125
654.605	5763
654.661	4318
654.717	2894
654.774	2446
654.830	2567
654.887	2709
654.943	2555
655.000	3577
655.056	2579
655.112	1868
655.168	1164
655.225	2189
655.281	4306
655.337	3385
655.394	5011
655.450	4004
655.506	2998
655.562	5045
655.618	5221
655.675	1991
655.731	2467
655.787	1996
655.843	2556
655.899	2123
655.955	2839
656.011	3106
656.067	1323
656.123	2988
656.179	2593
656.235	3949
656.291	2030
656.347	3576
656.403	2089
656.459	2873
656.515	3128
656.571	2892
656.627	2868
656.683	1899
656.739	3009
656.795	2185
656.850	2849
656.906	3040
656.962	3076
657.018	2006
657.074	3005
657.129	3465
657.185	5491
657.241	9719
657.297	7054
657.352	2710
657.408	2057
657.464	3201
657.519	2452
657.575	1254
657.630	1846
657.686	2524
657.742	1046
657.797	1054
657.853	1537
657.908	2000
657.964	1415
658.019	1244
658.075	1892
658.130	1922
658.186	1315
658.241	1686
658.297	1845
658.352	2524
658.407	2473
658.463	1861
658.518	2407
658.573	2344
658.629	956
658.684	1982
658.739	2170
658.795	1156
658.850	2909
658.905	1411
658.960	1844
659.016	1365
659.071	1633
659.126	2541
659.181	2711
659.236	4234
659.291	5034
659.346	2142
659.401	2029
659.457	2511
659.512	1631
659.567	3336
659.622	1427
659.677	2665
659.732	1439
659.787	2166
659.842	2355
659.897	3076
659.952	1526
660.007	1991
660.061	2023
660.116	2266
660.171	1268
660.226	1619
660.281	2542
660.336	1350
660.391	2186
660.445	1052
660.500	1501
660.555	1310
660.610	1163
660.664	1938
660.719	1467
660.774	1902
660.828	1196
660.883	1589
660.938	2681
660.992	926
661.047	1736
661.101	1880
661.156	1080
661.211	985
661.265	1237
661.320	1919
661.374	1023
661.429	913
661.483	2170
661.538	1137
661.592	2093
661.647	1289
661.701	2077
661.755	1537
661.810	1631
661.864	1066
661.919	1291
661.973	1698
662.027	1626
662.081	1011
662.136	1801
662.190	1273
662.244	2199
662.299	1258
662.353	1376
662.407	818
662.461	1057
662.515	1938
662.569	1744
662.624	2217
662.678	1263
662.732	1435
662.786	1186
662.840	1544
662.894	1288
662.948	1661
663.002	1346
663.056	1668
663.110	684
663.164	1126
663.218	884
663.272	2085
663.326	1803
663.380	1890
663.434	1312
663.488	338
663.542	1747
663.595	876
663.649	975
663.703	1223
663.757	1660
663.811	929
663.864	1421
663.918	1872
663.972	1277
664.026	1696
664.079	813
664.133	2344
664.187	1650
664.240	1199
664.294	1407
664.348	2085
664.401	938
664.455	1264
664.508	563
664.562	1713
664.615	1979
664.669	1284
664.722	1493
664.776	807
664.829	1545
664.883	1805
664.936	1286
664.990	1697
665.043	1594
665.097	1509
665.150	2970
665.203	2000
665.257	1617
665.310	1646
665.363	1878
665.417	991
665.470	2177
665.523	1512
665.576	1685
665.630	1794
665.683	1266
665.736	1934
665.789	2003
665.842	1184
665.895	1126
665.949	1909
666.002	1877
666.055	1829
666.108	1865
666.161	2337
666.214	2493
666.267	2364
666.320	2681
666.373	2029
666.426	2172
666.479	1637
666.532	1842
666.585	2233
666.638	2015
666.691	1919
666.744	1480
666.796	2496
666.849	1410
666.902	2856
666.955	1663
667.008	1125
667.060	854
667.113	849
667.166	1435
667.219	646
667.271	1500
667.324	2125
667.377	1650
667.430	1532
667.482	1480
667.535	2263
667.587	2334
667.640	2863
667.693	1883
667.745	4420
667.798	5304
667.850	1786
667.903	1529
667.955	1836
668.008	1581
668.060	2099
668.113	1711
668.165	2226
668.218	2574
668.270	2119
668.322	1842
668.375	1647
668.427	2377
668.479	1593
668.532	1460
668.584	1081
668.636	1753
668.689	1700
668.741	1268
668.793	2132
668.845	1086
668.898	1673
668.950	1841
669.002	1764
669.054	2027
669.106	1327
669.158	2753
669.211	1517
669.263	1063
669.315	2230
669.367	2611
669.419	2081
669.471	3192
669.523	2174
669.575	3502
669.627	2766
669.679	2341
669.731	2401
669.783	2820
669.835	2719
669.886	2307
669.938	1994
669.990	2206
670.042	1214
670.094	2685
670.146	2379
670.197	3582
670.249	3747
670.301	4717
670.353	6913
670.404	9688
670.456	12762
670.508	20756
670.560	34389
670.611	60394
670.663	105782
670.715	237907
670.766	439793
670.818	164071
670.869	26410
670.921	12170
670.972	8655
671.024	5860
671.075	4875
671.127	4635
671.178	3146
671.230	3239
671.281	2584
671.333	3018
671.384	2563
671.436	3606
671.487	4594
671.538	5901
671.590	9512
671.641	14093
671.692	24626
671.744	48530
671.795	38497
671.846	11728
671.897	5340
671.949	4615
672.000	3778
672.051	2037
672.102	2993
672.153	1840
672.204	2068
672.256	2464
672.307	2559
672.358	2084
672.409	2462
672.460	1952
672.511	1939
672.562	1374
672.613	1281
672.664	1402
672.715	1561
672.766	1465
672.817	1178
672.868	1132
672.919	1163
672.970	1672
673.021	1131
673.071	1244
673.122	1015
673.173	1053
673.224	1341
673.275	1542
673.326	1226
673.376	1381
673.427	1362
673.478	646
673.528	1799
673.579	1123
673.630	1258
673.680	1782
673.731	1110
673.782	1885
673.832	1502
673.883	948
673.934	1435
673.984	699
674.035	1307
674.085	2060
674.136	874
674.186	1541
674.237	2100
674.287	2904
674.338	2722
674.388	817
674.438	616
674.489	1556
674.539	1591
674.589	1690
674.640	1747
674.690	653
674.740	1309
674.791	1671
674.841	932
674.891	1649
674.942	795
674.992	654
675.042	901
675.092	843
675.142	1260
675.193	821
675.243	648
675.293	1542
675.343	1681
675.393	1168
675.443	2164
675.493	657
675.543	129
675.593	1150
675.643	1247
675.693	1090
675.743	798
675.793	1262
675.843	830
675.893	1076
675.943	1420
675.993	1046
676.043	1241
676.093	1004
676.142	1045
676.192	1764
676.242	613
676.292	992
676.341	572
676.391	840
676.441	589
676.491	1266
676.540	941
676.590	848
676.640	624
676.689	1234
676.739	321
676.789	713
676.838	995
676.888	623
676.937	193
676.987	-146
677.037	-239
677.086	420
677.136	894
677.185	592
677.235	-334
677.284	493
677.333	720
677.383	575
677.432	445
677.482	407
677.531	1354
677.580	176
677.630	860
677.679	-177
677.728	-187
677.778	467
677.827	1122
677.876	393
677.925	1188
677.975	70
678.024	323
678.073	209
678.122	453
678.171	1109
678.220	423
678.269	999
678.319	1433
678.368	969
678.417	187
678.466	1453
678.515	1057
678.564	459
678.613	800
678.662	155
678.711	682
678.760	649
678.809	518
678.857	751
678.906	476
678.955	870
679.004	992
679.053	630
679.102	449
679.151	51
679.199	1512
679.248	846
679.297	1099
679.346	56
679.394	725
679.443	618
679.492	689
679.540	590
679.589	233
679.638	484
679.686	598
679.735	160
679.784	842
679.832	209
679.881	170
679.929	199
679.978	736
680.026	308
680.075	624
680.123	648
680.172	426
680.220	477
680.268	781
680.317	-407
680.365	65
680.414	824
680.462	692
680.510	581
680.559	390
680.607	1167
680.655	-12
680.703	-21
680.752	555
680.800	557
680.848	393
680.896	-513
680.945	321
680.993	137
681.041	-78
681.089	220
681.137	446
681.185	608
681.233	211
681.258	301
681.281	355
681.329	413
681.377	498
681.380	590
681.425	1662
681.473	1044
681.502	889
681.521	725
681.569	776
681.617	694
681.624	719
681.665	640
681.713	1230
681.745	1256
681.761	1216
681.809	848
681.857	955
681.867	953
681.904	835
681.952	1762
681.989	1343
682.000	1168
682.048	392
682.096	704
682.111	841
682.143	1059
682.191	1920
682.233	1612
682.239	1528
682.286	1201
682.334	992
682.354	1144
682.382	1305
682.430	1780
682.476	2260
682.477	2243
682.525	2163
682.572	2019
682.598	2187
682.620	2267
682.667	1829
682.715	2040
682.720	2094
682.763	2292
682.810	3093
682.841	2487
682.857	2140
682.905	2669
682.952	2554
682.963	2772
683.000	3415
683.047	2448
683.085	3681
683.095	3979
683.142	2368
683.190	2432
683.206	2603
683.237	2900
683.284	2649
683.328	2899
683.332	2889
683.379	2659
683.426	3321
683.449	3251
683.473	3172
683.521	2514
683.568	3105
683.571	3171
683.615	3627
683.662	3740
683.693	3759
683.709	3738
683.757	2895
683.804	3319
683.814	3426
683.851	3743
683.898	3792
683.936	3883
683.945	3881
683.992	3616
684.039	4314
684.057	4297
684.086	4278
684.133	4495
684.179	4696
684.180	4672
684.227	4388
684.274	4638
684.300	4397
684.321	4248
684.368	4766
684.415	4925
684.422	5024
684.462	5370
684.509	4340
684.543	4463
684.556	4522
684.603	4922
684.649	4592
684.665	4841
684.696	5297
684.743	5017
684.786	5182
684.790	5186
684.837	5320
684.883	5699
684.908	5732
684.930	5746
684.977	6150
685.023	5474
685.029	5580
685.070	5844
685.117	5168
685.150	5223
685.164	5364
685.210	5706
685.257	6277
685.272	6263
685.303	6140
685.350	5916
685.393	6660
685.396	6715
685.443	6942
685.490	7560
685.514	7433
685.536	7163
685.583	7425
685.629	6813
685.636	6886
685.675	7115
685.722	6753
685.757	6495
685.768	6467
685.815	6733
685.861	7208
685.878	7278
685.908	7370
685.954	7244
686.000	7614
686.000	7617
686.047	7661
686.093	8472
686.121	8587
686.139	8375
686.185	8237
686.232	7250
686.242	7265
686.278	7348
686.324	7656
686.363	7029
686.370	6960
686.416	6338
686.463	7382
686.484	7364
686.509	7311
686.555	7012
686.601	7243
686.606	7242
686.647	7204
686.693	7171
686.727	7363
686.739	7408
686.785	7504
686.831	7521
686.848	7408
686.877	7214
686.923	7417
686.969	7773
686.969	7774
687.015	7018
687.061	7449
687.090	7652
687.107	7689
687.153	7502
687.199	7734
687.211	7615
687.245	7433
687.291	7959
687.332	8002
687.336	8007
687.382	8482
687.428	8618
687.453	8494
687.474	8278
687.520	8640
687.565	8151
687.574	8024
687.611	7760
687.657	8062
687.695	8471
687.702	8578
687.748	8716
687.794	9968
687.816	9898
687.839	9525
687.885	9082
687.931	8797
687.937	8805
687.976	9088
688.022	8536
688.058	9073
688.067	9226
688.113	8550
688.158	8546
688.179	8842
688.204	9240
688.249	9215
688.295	9636
688.300	9666
688.340	9823
688.386	9290
688.421	9459
688.431	9502
688.477	9607
688.522	9693
688.542	9601
688.567	9524
688.613	9669
688.658	9564
688.663	9569
688.703	9665
688.749	9014
688.784	9604
688.794	9802
688.839	9378
688.884	9638
688.905	9858
688.930	10003
688.975	9522
689.020	9034
689.026	8992
689.065	9229
689.110	9938
689.146	10258
689.155	10272
689.201	10169
689.246	10003
689.267	9996
689.291	9991
689.336	10408
689.381	9651
689.388	9595
689.426	9605
689.471	9879
689.509	10319
689.516	10370
689.561	10191
689.606	10043
689.630	9862
689.651	9725
689.696	9866
689.741	9508
689.750	9531
689.785	9849
689.830	9911
689.871	9991
689.875	10007
689.920	9894
689.965	10341
689.992	10054
690.010	9903
690.054	10110
690.099	10455
690.112	10430
690.144	10350
690.189	10073
690.233	10304
690.233	10320
690.278	10038
690.323	10378
690.354	10204
690.367	10209
690.412	10461
690.457	10431
690.474	10637
690.501	10945
690.546	10874
690.590	10899
690.595	10871
690.635	10706
690.680	10685
690.716	10598
690.724	10627
690.769	10933
690.813	11278
690.836	11195
690.857	11159
690.902	11300
690.946	11106
690.957	11208
690.991	12366
691.035	13632
691.077	14790
691.080	14846
691.124	15053
691.168	15572
691.198	15645
691.213	15279
691.257	14806
691.301	13679
691.318	13378
691.346	13207
691.390	12474
691.434	12190
691.439	12113
691.478	12025
691.522	12075
691.559	11866
691.567	11957
691.611	12763
691.655	12872
691.680	13183
691.699	13096
691.743	13028
691.787	12738
691.800	12480
691.831	12150
691.875	12070
691.919	12459
691.921	12427
691.964	12416
692.008	12769
692.041	12729
692.052	12724
692.096	13163
692.139	13154
692.162	13027
692.183	12764
692.227	12432
692.271	12032
692.282	11958
692.315	12294
692.359	12612
692.402	12776
692.403	12800
692.447	12634
692.490	12187
692.523	12320
692.534	12583
692.578	13021
692.622	13185
692.643	13424
692.666	13304
692.709	12887
692.753	12503
692.763	12323
692.797	12345
692.840	12693
692.884	12887
692.884	12915
692.928	13126
692.971	13035
693.004	13066
693.015	13122
693.059	13132
693.102	13391
693.124	13235
693.146	13118
693.189	13301
693.233	13217
693.245	13203
693.276	13664
693.320	14229
693.363	14550
693.365	14540
693.407	14312
693.450	13889
693.485	13781
693.493	13936
693.537	14055
693.580	14444
693.605	14572
693.624	14826
693.667	15581
693.710	16219
693.725	16436
693.753	17837
693.797	19901
693.840	22148
693.845	22319
693.883	22447
693.926	22631
693.966	22933
693.970	22754
694.013	20456
694.056	17782
694.086	16237
694.099	16226
694.142	15668
694.185	15190
694.206	14907
694.229	14941
694.272	15067
694.315	15395
694.326	15339
694.358	15368
694.401	15524
694.444	15612
694.446	15582
694.487	15964
694.530	16422
694.566	16591
694.573	16421
694.616	15194
694.659	14105
694.686	13280
694.702	13353
694.745	13351
694.787	13694
694.806	13657
694.830	13612
694.873	13798
694.916	13586
694.926	13555
694.959	13707
695.002	13901
695.044	13951
695.046	13924
695.087	14168
695.130	14317
695.166	14439
695.172	14476
695.215	14347
695.258	14259
695.286	14261
695.301	14292
695.343	14012
695.386	14179
695.406	14061
695.428	14133
695.471	14131
695.514	14233
695.526	14248
695.556	14652
695.599	15272
695.641	15641
695.646	15652
695.684	15377
695.726	15077
695.766	14627
695.769	14666
695.811	14857
695.854	14820
695.886	14924
695.896	14987
695.938	14870
695.981	14906
696.005	14776
696.023	14782
696.065	15026
696.108	15122
696.125	15078
696.150	15289
696.192	15641
696.235	16128
696.245	16142
696.277	16001
696.319	15900
696.361	15900
696.365	15845
696.404	15756
696.446	15762
696.485	15572
696.488	15627
696.530	15776
696.572	16047
696.604	16241
696.614	16253
696.656	16025
696.698	15793
696.724	15560
696.740	15499
696.783	15362
696.825	15245
696.844	15136
696.867	15284
696.909	15366
696.951	15555
696.964	15579
696.992	15645
697.034	15579
697.076	15605
697.083	15561
697.118	16164
697.160	16764
697.202	17496
697.203	17466
697.244	16949
697.286	16436
697.323	15933
697.327	15996
697.369	16168
697.411	16323
697.442	16352
697.453	16489
697.494	16996
697.536	17353
697.562	17589
697.578	17665
697.620	17649
697.661	17723
697.682	17697
697.703	17909
697.744	18204
697.786	18611
697.801	18660
697.828	19218
697.869	20051
697.911	20870
697.921	21028
697.952	20164
697.994	18899
698.035	17629
698.040	17431
698.077	17454
698.118	17387
698.160	17319
698.160	17270
698.201	17411
698.243	17494
698.279	17509
698.284	17589
698.325	17910
698.367	18180
698.399	18386
698.408	18383
698.449	18093
698.491	17834
698.518	17603
698.532	17598
698.573	17456
698.614	17300
698.638	17141
698.656	17447
698.697	18082
698.738	18708
698.757	18954
698.779	19023
698.820	19043
698.862	19070
698.877	19027
698.903	19187
698.944	19356
698.985	19520
698.996	19513
699.026	19402
699.067	19169
699.116	18839
699.235	18206
699.354	17891
699.474	17846
699.593	19414
699.713	19121
699.832	18357
699.951	19229
700.070	18611
700.190	17659
700.309	18663
700.428	18009
700.547	17207
700.667	16962
700.786	18950
700.905	16726
701.024	17916
701.143	17845
701.262	15862
701.381	16804
701.500	16655
701.619	18928
701.738	17670
701.857	16829
701.976	16048
702.095	15278
702.214	18036
702.333	18439
702.452	16463
702.571	16796
702.690	16248
702.809	16239
702.928	14622
703.047	15313
703.165	14730
703.284	14904
703.403	15205
703.522	16584
703.640	16758
703.759	17968
703.878	22588
703.997	17775
704.115	15162
704.234	14755
704.353	15672
704.471	14071
704.590	13710
704.708	14801
704.827	14089
704.946	14456
705.064	15209
705.183	14815
705.301	15365
705.420	19885
705.538	18880
705.656	17466
705.775	14939
705.893	17257
706.012	20942
706.130	16433
706.249	17114
706.367	16322
706.485	17382
706.604	16616
706.722	18146
706.840	19392
706.958	20889
707.077	18112
707.195	16585
707.313	15616
707.431	15348
707.549	15199
707.668	14546
707.786	15821
707.904	15673
708.022	15223
708.140	14723
708.258	14080
708.376	15136
708.494	14776
708.612	16412
708.730	20229
708.848	19817
708.966	18783
709.084	19239
709.202	16625
709.320	18282
709.438	17305
709.556	18421
709.674	16409
709.791	17871
709.909	15800
710.027	16532
710.145	16235
710.263	17412
710.380	15616
710.498	16470
710.616	16176
710.733	15994
710.851	16632
710.969	17185
711.086	16074
711.204	16566
711.322	15082
711.439	16101
711.557	16158
711.674	14758
711.792	14765
711.909	14829
712.027	14375
712.144	14180
712.262	14594
712.379	15838
712.497	20340
712.614	21563
712.732	18969
712.849	17726
712.966	17921
713.084	22783
713.201	19377
713.318	18902
713.436	18159
713.553	19265
713.670	19537
713.787	20644
713.905	21322
714.022	19179
714.139	18093
714.256	23284
714.373	28383
714.490	47397
714.608	99694
714.725	427871
714.842	678330
714.959	64127
715.076	25177
715.193	20263
715.310	19316
715.427	16300
715.544	16609
715.661	17188
715.778	16320
715.895	17639
716.011	17825
716.128	16656
716.245	16250
716.362	17515
716.479	19918
716.596	15318
716.713	15780
716.829	14958
716.946	14779
717.063	14016
717.180	13631
717.296	14274
717.413	14236
717.530	13517
717.646	14795
717.763	13905
717.880	13516
717.996	13521
718.113	13395
718.229	13186
718.346	13095
718.462	13914
718.579	16306
718.695	25576
718.812	23278
718.928	18014
719.045	15427
719.161	13292
719.277	13762
719.394	13232
719.510	12082
719.626	13540
719.743	17884
719.859	21635
719.975	37077
720.092	124720
720.208	389268
720.324	72721
720.440	17872
720.557	16038
720.673	22121
720.789	27244
720.905	46673
721.021	24233
721.137	13441
721.253	13155
721.369	11701
721.486	13526
721.602	17516
721.718	13010
721.834	10615
721.950	12007
722.066	10941
722.181	11236
722.297	12173
722.413	11773
722.529	11462
722.645	10984
722.761	9994
722.877	11240
722.993	10915
723.108	13040
723.224	11409
723.340	11512
723.456	10538
723.571	10630
723.687	9888
723.803	10720
723.918	10749
724.034	10649
724.150	10206
724.265	10995
724.381	17808
724.497	28529
724.612	10130
724.728	9625
724.843	8921
724.959	10888
725.074	17043
725.190	25001
725.305	10536
725.421	10388
725.536	8498
725.651	9628
725.767	8284
725.882	8979
725.997	8589
726.113	9661
726.228	8105
726.343	8290
726.459	7922
726.574	8749
726.689	9111
726.804	8480
726.920	8288
727.035	8823
727.150	9232
727.265	8521
727.380	9207
727.495	9682
727.610	7769
727.725	8076
727.841	8009
727.956	10327
728.071	10838
728.186	8580
728.301	7453
728.416	9131
728.531	8508
728.645	7687
728.760	8865
728.875	9435
728.990	9562
729.105	9020
729.220	9358
729.335	10064
729.449	7078
729.564	8810
729.679	7187
729.794	7903
729.908	8491
730.023	7934
730.138	7823
730.253	8047
730.367	8086
730.482	8096
730.596	8261
730.711	8227
730.826	8607
730.940	8471
731.055	8551
731.169	8848
731.284	7709
731.398	7665
731.513	9000
731.627	9665
731.742	10208
731.856	12568
731.970	9999
732.085	13530
732.199	16148
732.313	26585
732.428	61130
732.542	184491
732.656	153597
732.771	28540
732.885	14533
732.999	12569
733.113	11417
733.227	10951
733.342	9248
733.456	10060
733.570	8731
733.684	9033
733.798	8549
733.912	8822
734.026	8633
734.140	9250
734.254	9048
734.368	12242
734.482	17003
734.596	8508
734.710	8013
734.824	8450
734.938	7871
735.052	8621
735.166	9187
735.280	9130
735.393	8147
735.507	8634
735.621	9220
735.735	14758
735.849	9838
735.962	8147
736.076	8471
736.190	8315
736.303	9702
736.417	12911
736.531	7853
736.644	8559
736.758	6885
736.872	8183
736.985	7374
737.099	7676
737.212	6534
737.326	7925
737.439	7046
737.553	7438
737.666	6704
737.780	7517
737.893	7535
738.007	6717
738.120	7423
738.233	6993
738.347	5867
738.460	7031
738.573	7756
738.687	7745
738.800	7830
738.913	9408
739.026	7765
739.140	7121
739.253	6871
739.366	6888
739.479	6882
739.592	6441
739.705	6172
739.818	7779
739.932	6475
740.045	6792
740.158	6390
740.271	7271
740.384	6626
740.497	6995
740.610	6789
740.723	6066
740.836	7625
740.949	7932
741.062	8814
741.174	9478
741.287	6952
741.400	6568
741.513	6083
741.626	8023
741.739	7710
741.851	6681
741.964	6222
742.077	6706
742.189	6113
742.302	7453
742.415	6209
742.527	6708
742.640	5644
742.753	5432
742.865	4675
742.978	5603
743.090	6481
743.203	6280
743.316	5153
743.428	5217
743.541	5677
743.653	5795
743.766	5587
743.878	6668
743.990	6998
744.103	7573
744.215	5143
744.327	5436
744.440	6764
744.552	10898
744.664	7105
744.777	5857
744.889	4418
745.001	5861
745.113	5932
745.226	4889
745.338	5156
745.450	5189
745.562	5074
745.674	5679
745.786	4609
745.898	5366
746.010	4844
746.122	5956
746.234	5305
746.347	5327
746.459	4762
746.570	4766
746.682	5016
746.794	5752
746.906	5188
747.018	4527
747.130	5210
747.242	5067
747.354	5047
747.466	5318
747.577	4318
747.689	5225
747.801	4912
747.913	4769
748.024	4692
748.136	4063
748.248	3779
748.359	4524
748.471	5178
748.583	4851
748.694	3092
748.806	5351
748.918	5989
749.029	5683
749.141	5892
749.252	6114
749.364	5713
749.475	11015
749.587	7825
749.698	5061
749.809	4365
749.921	5206
750.032	4664
750.144	4530
750.255	4049
750.366	3955
750.478	4490
750.589	4747
750.700	4929
750.811	5716
750.923	6516
751.034	10748
751.145	14625
751.256	5313
751.367	3591
751.479	4429
751.590	3704
751.701	4199
751.812	3401
751.923	4397
752.034	3778
752.145	5268
752.256	3643
752.367	4337
752.478	3694
752.589	4585
752.700	3798
752.811	4471
752.922	3507
753.032	4762
753.143	5195
753.254	3774
753.365	4930
753.476	4597
753.586	3350
753.697	4403
753.808	3146
753.919	4564
754.029	4118
754.140	3844
754.251	3569
754.361	3537
754.472	3458
754.582	4137
754.693	3737
754.804	4029
754.914	2907
755.025	3200
755.135	3246
755.246	4555
755.356	4027
755.466	4792
755.577	3883
755.687	4497
755.798	4123
755.908	4702
756.018	2763
756.129	3777
756.239	3914
756.349	4802
756.460	3436
756.570	4884
756.680	3954
756.790	4911
756.900	4743
757.011	3442
757.121	2581
757.231	4863
757.341	3681
757.451	3481
757.561	3310
757.671	4218
757.781	3346
757.891	4750
758.001	3129
758.111	3946
758.221	4650
758.331	5399
758.441	4557
758.551	5528
758.661	6943
758.771	5399
758.880	4416
758.990	3980
759.100	3921
759.210	4377
759.320	4642
759.429	5032
759.539	5201
759.649	5104
759.758	5222
759.868	5368
759.978	5112
760.087	6671
760.197	5776
760.307	5116
760.416	5326
760.526	4034
760.635	5153
760.745	5840
760.854	5080
760.964	6214
761.073	6591
761.182	6300
761.292	5311
761.401	5351
761.511	4975
761.620	4907
761.729	3881
761.839	4653
761.948	4139
762.057	4466
762.166	4039
762.276	3129
762.385	5141
762.494	4223
762.603	4237
762.712	4066
762.822	4364
762.931	4538
763.040	3712
763.149	3940
763.258	3377
763.367	4163
763.476	4376
763.585	3822
763.694	4188
763.803	4914
763.912	4212
764.021	3842
764.130	4765
764.238	4662
764.347	4263
764.456	4781
764.565	4669
764.674	5096
764.783	5086
764.891	4944
765.000	5849
765.109	5935
765.217	6220
765.326	7215
765.435	8961
765.543	9178
765.652	9628
765.761	12217
765.869	15919
765.978	23233
766.086	38326
766.195	74346
766.303	174745
766.412	460578
766.520	487522
766.629	185532
766.737	62560
766.846	34214
766.954	22120
767.062	17171
767.171	13554
767.279	11715
767.387	8980
767.496	8333
767.604	7277
767.712	7396
767.820	6289
767.928	6548
768.037	5880
768.145	5668
768.253	6122
768.361	5203
768.469	6094
768.577	5609
768.685	6217
768.793	6266
768.901	5459
769.009	7135
769.117	6755
769.225	7480
769.333	10901
769.441	17177
769.549	28855
769.657	61937
769.765	185164
769.873	431299
769.981	227485
770.088	52812
770.196	22443
770.304	15287
770.412	11489
770.519	9277
770.627	7365
770.735	7135
770.842	6475
770.950	6327
771.058	6789
771.165	6564
771.273	5467
771.380	5466
771.488	5234
771.595	6177
771.703	4989
771.810	5864
771.918	5414
772.025	5924
772.133	6146
772.240	6094
772.348	6323
772.455	5980
772.562	5293
772.670	5136
772.777	5464
772.884	5150
772.991	5271
773.099	5094
773.206	4305
773.313	4516
773.420	5381
773.528	4905
773.635	4445
773.742	5867
773.849	5689
773.956	4668
774.063	4402
774.170	5152
774.277	4666
774.384	4321
774.491	3989
774.598	5458
774.705	4410
774.812	6010
774.919	4816
775.026	5445
775.133	4201
775.239	4373
775.346	4398
775.453	4580
775.560	4054
775.667	4975
775.773	4440
775.880	4448
775.987	4220
776.093	5000
776.200	4835
776.307	4353
776.413	4002
776.520	3983
776.627	4653
776.733	4481
776.840	3378
776.946	5624
777.053	4410
777.159	5921
777.266	4405
777.372	6903
777.478	5158
777.585	5445
777.691	4274
777.798	4093
777.904	5130
778.010	6395
778.117	6917
778.223	5508
778.329	4110
778.435	3814
778.542	4374
778.648	4597
778.754	3143
778.860	3906
778.966	3851
779.072	3793
779.178	4676
779.284	4225
779.391	3466
779.497	3543
779.603	4812
779.708	4201
779.815	4786
779.920	7994
780.026	18116
780.132	6693
780.238	2988
780.344	3747
780.450	4679
780.556	3122
780.661	2856
780.767	3851
780.873	3243
780.979	4229
781.085	3664
781.190	4540
781.296	3171
781.402	3454
781.507	4157
781.613	3388
781.719	3414
781.824	3239
781.930	3086
782.035	3861
782.141	2996
782.246	3290
782.352	2696
782.457	3795
782.563	2271
782.668	2863
782.773	3307
782.879	2832
782.984	3946
783.090	5272
783.195	5564
783.300	5003
783.405	3164
783.511	4259
783.616	2965
783.721	3338
783.826	3586
783.932	3221
784.037	2889
784.142	2960
784.247	3507
784.352	3817
784.457	2914
784.562	3830
784.667	2434
784.772	3725
784.877	2732
784.982	4079
785.087	2569
785.192	3205
785.297	2730
785.402	3653
785.507	1879
785.611	3557
785.716	1945
785.821	3119
785.926	1865
786.031	3302
786.135	2474
786.240	3296
786.345	1650
786.450	3294
786.554	2731
786.659	3614
786.763	1855
786.868	3087
786.973	2880
787.077	2517
787.182	2017
787.286	3423
787.391	2833
787.495	2989
787.600	1934
787.704	3038
787.809	1831
787.913	2095
788.017	2359
788.122	3216
788.226	1937
788.330	3029
788.435	2022
788.539	3329
788.643	1645
788.747	3238
788.852	2028
788.956	2652
789.060	3116
789.164	3264
789.268	2017
789.372	2896
789.476	2143
789.580	2011
789.684	2253
789.788	2334
789.892	2016
789.996	2389
790.100	1995
790.204	2617
790.308	2640
790.412	2729
790.516	2039
790.620	2552
790.724	2085
790.828	2308
790.931	2175
791.035	3072
791.139	2318
791.242	2615
791.346	1999
791.450	2432
791.554	1746
791.657	1178
791.761	3400
791.864	3508
791.968	2476
792.072	3137
792.175	1890
792.279	2286
792.382	1948
792.486	2151
792.589	2276
792.693	3080
792.796	2047
792.899	2788
793.003	2875
793.106	1769
793.209	2854
793.313	3959
793.416	925
793.519	2862
793.623	3222
793.726	6258
793.829	3434
793.932	3059
794.035	1769
794.138	3144
794.242	2063
794.345	2563
794.448	3371
794.551	4340
794.654	6462
794.757	10267
794.860	4737
794.963	3100
795.066	1897
795.169	3244
795.272	1836
795.375	2834
795.477	1335
795.580	2444
795.683	951
795.786	2746
795.889	510
795.991	2319
796.094	3123
796.197	2251
796.300	2408
796.402	1378
796.505	1151
796.608	1730
796.710	2700
796.813	1755
796.915	2734
797.018	2794
797.120	1562
797.223	1492
797.326	2139
797.428	1607
797.530	1741
797.633	2057
797.735	2348
797.838	3204
797.940	4160
798.042	1911
798.145	1193
798.247	2538
798.349	706
798.452	2547
798.554	1832
798.656	1415
798.758	2563
798.860	2342
798.962	1193
799.065	1664
799.167	565
799.269	2810
799.371	2586
799.473	3384
799.575	2104
799.677	3023
799.779	3136
799.881	3900
799.983	3560
800.085	2045
800.187	1804
800.289	2011
800.390	1604
800.492	1788
800.594	2134
800.696	1784
800.798	1619
800.899	2161
801.001	1091
801.103	1482
801.205	1169
801.306	1977
801.408	806
801.509	1771
801.611	1999
801.713	1493
801.814	395
801.916	1691
802.017	735
802.119	1068
802.220	2188
802.322	645
802.423	3469
802.525	1829
802.626	1316
802.727	2202
802.829	2098
802.930	512
803.031	2730
803.133	1239
803.234	1120
803.335	1189
803.436	1017
803.538	1652
803.639	907
803.740	1800
803.841	1569
803.942	1833
804.043	1911
804.144	1398
804.245	1791
804.346	1267
804.447	1230
804.548	2620
804.649	4306
804.750	2059
804.851	674
804.952	1485
805.053	1538
805.154	484
805.255	2023
805.355	1553
805.456	809
805.557	923
805.658	609
805.758	1740
805.859	797
805.960	1197
806.061	574
806.161	1362
806.262	1406
806.362	1319
806.463	1209
806.564	2080
806.664	1515
806.765	1241
806.865	1918
806.966	1399
807.066	639
807.166	1923
807.267	2034
807.367	1298
807.468	1901
807.568	273
807.668	1638
807.769	2004
807.869	1221
807.969	1921
808.069	391
808.170	1178
808.270	1089
808.370	1625
808.470	2470
808.570	1667
808.670	1226
808.770	1998
808.870	703
808.970	1092
809.070	863
809.170	1302
809.271	1671
809.370	1725
809.470	1114
809.570	959
809.670	993
809.770	1473
809.870	1707
809.970	1431
810.070	885
810.169	1247
810.269	322
810.369	2341
810.469	587
810.568	938
810.668	691
810.768	1178
810.867	1410
810.967	1092
811.066	549
811.166	1932
811.265	1444
811.365	615
811.464	724
811.564	1928
811.663	1855
811.763	752
811.862	1427
811.962	2019
812.061	1355
812.160	926
812.260	725
812.359	2020
812.458	1672
812.557	5230
812.657	7757
812.756	4926
812.855	2049
812.954	1691
813.053	1383
813.153	2221
813.252	1394
813.351	2152
813.450	1423
813.549	1454
813.648	2519
813.747	838
813.846	1717
813.945	1108
814.044	1342
814.143	1906
814.242	2300
814.341	1817
814.439	1717
814.538	2459
814.637	1605
814.736	2005
814.835	2016
814.933	1596
815.032	2976
815.131	1962
815.229	2594
815.328	3642
815.427	3584
815.525	2587
815.624	3239
815.722	3062
815.821	2784
815.919	3463
816.018	3502
816.116	4345
816.215	3423
816.313	4023
816.412	4005
816.510	5391
816.609	5744
816.707	5827
816.805	5389
816.904	5676
817.002	6122
817.100	7431
817.198	7962
817.296	7758
817.395	8577
817.493	10442
817.591	11807
817.689	15295
817.787	20238
817.885	30986
817.983	49578
818.081	94230
818.179	197755
818.277	428041
818.375	488583
818.473	213325
818.571	90003
818.669	54236
818.767	43210
818.865	40592
818.963	45999
819.061	60046
819.158	92256
819.256	168582
819.354	330705
819.452	602286
819.549	549329
819.647	264054
819.745	120760
819.842	69870
819.940	47517
820.038	33743
820.135	26460
820.233	20600
820.330	16504
820.428	13569
820.525	12336
820.623	11406
820.720	9247
820.818	8963
820.915	8252
821.012	7475
821.110	6022
821.207	7414
821.304	5429
821.402	5375
821.499	5064
821.596	6318
821.693	5408
821.791	5851
821.888	4699
821.985	8129
822.082	7810
822.179	5077
822.276	3621
822.373	3775
822.470	3708
822.567	3527
822.664	2083
822.761	3618
822.858	2649
822.955	3675
823.052	2767
823.149	2336
823.246	3538
823.343	2556
823.440	1937
823.536	2915
823.633	2863
823.730	2423
823.827	2772
823.923	2013
824.020	2960
824.117	2785
824.213	1900
824.310	2834
824.407	1703
824.503	2327
824.600	2580
824.696	2436
824.793	2467
824.889	1758
824.986	1941
825.082	1918
825.179	2302
825.275	1455
825.371	1646
825.468	2383
825.564	708
825.660	1701
825.757	1800
825.853	2362
825.949	1844
826.045	1360
826.142	1558
826.238	1173
826.334	1856
826.430	1612
826.526	1181
826.622	1513
826.718	1355
826.814	1183
826.910	811
827.006	1426
827.102	646
827.198	2669
827.294	1049
827.390	1554
827.486	1733
827.582	1215
827.678	1208
827.774	1581
827.869	766
827.965	1792
828.061	518
828.157	2270
828.252	783
828.348	683
828.444	1773
828.539	-16
828.635	1303
828.731	2065
828.826	426
828.922	2392
829.017	833
829.113	2205
829.208	628
829.304	602
829.399	1982
829.495	1134
829.590	1365
829.685	926
829.781	953
829.876	1994
829.971	1770
830.066	164
830.162	1018
830.257	1226
830.352	1304
830.447	2201
830.543	928
830.638	823
830.733	2373
830.828	1476
830.923	1711
831.018	1307
831.113	1075
831.208	309
831.303	677
831.398	847
831.493	962
831.588	1924
831.683	-82
831.778	1322
831.873	1308
831.967	1803
832.062	489
832.157	489
832.252	1679
832.346	1482
832.441	2685
832.536	2145
832.631	4433
832.725	6299
832.820	125
832.914	1324
833.009	1081
833.104	1360
833.198	1554
833.293	1162
833.387	1519
833.482	1398
833.576	370
833.670	1077
833.765	1620
833.859	1244
833.954	1719
834.048	959
834.142	766
834.237	247
834.331	267
834.425	903
834.519	497
834.613	1258
834.708	410
834.802	762
834.896	-261
834.990	915
835.084	1455
835.178	1015
835.272	713
835.366	891
835.460	938
835.554	958
835.648	215
835.742	1060
835.836	-221
835.930	-244
836.024	1059
836.117	1463
836.211	1069
836.305	2020
836.399	2647
836.493	277
836.586	713
836.680	1445
836.774	168
836.867	1181
836.961	-76
837.055	447
837.148	514
837.242	802
837.335	243
837.429	1760
837.522	-22
837.616	1139
837.709	1863
837.803	2300
837.896	828
837.989	1041
838.083	1816
838.176	2558
838.269	3530
838.363	1777
838.456	479
838.549	2094
838.642	1836
838.735	6592
838.829	3838
838.922	484
839.015	118
839.108	-911
839.201	-204
839.294	1082
839.387	683
839.480	210
839.573	757
839.666	2152
839.759	724
839.852	390
839.945	1004
840.038	930
840.131	637
840.223	-596
840.316	804
840.409	773
840.502	-330
840.594	1408
840.687	-114
840.780	655
840.873	-507
840.965	52
841.058	1225
841.150	2025
841.243	1851
841.336	2054
841.428	991
841.521	632
841.613	410
841.706	1171
841.798	225
841.890	1133
841.983	603
842.075	1354
842.167	1030
842.260	690
842.352	1613
842.444	1032
842.537	2441
842.629	5080
842.721	2268
842.813	575
842.905	156
842.997	460
843.090	911
843.182	2064
843.274	2878
843.366	5707
843.458	12415
843.550	12243
843.642	1935
843.734	1298
843.826	742
843.918	1611
844.009	763
844.101	1277
844.193	-232
844.285	201
844.377	740
844.469	1410
844.560	100
844.652	225
844.744	777
844.835	438
844.927	817
845.019	1290
845.110	719
845.202	744
845.293	17
845.385	178
845.476	208
845.568	1471
845.659	313
845.751	1253
845.842	366
845.934	152
846.025	572
846.116	903
846.208	502
846.299	-274
846.390	658
846.482	224
846.573	1482
846.664	1547
846.755	1140
846.846	2864
846.937	-171
847.029	731
847.120	-494
847.211	485
847.302	1186
847.393	-189
847.484	657
847.575	390
847.666	-234
847.757	-59
847.847	188
847.938	1545
848.029	12
848.120	671
848.211	427
848.302	-328
848.392	-302
848.483	1112
848.574	-511
848.664	505
848.755	761
848.846	40
848.936	-7
849.027	1025
849.118	443
849.208	1402
849.299	1042
849.389	2141
849.480	4949
849.570	11528
849.661	18344
849.751	39260
849.841	21173
849.932	3337
850.022	660
850.112	527
850.203	165
850.293	402
850.383	334
850.474	287
850.564	-116
850.654	211
850.744	-166
850.834	389
850.924	419
851.014	1042
851.104	334
851.194	89
851.284	1746
851.374	1614
851.464	878
851.554	808
851.644	-372
851.734	1751
851.824	1144
851.914	1039
852.004	771
852.094	166
852.183	-503
852.273	462
852.363	-256
852.452	292
852.542	175
852.632	181
852.721	638
852.811	-359
852.901	697
852.990	1468
853.080	846
853.169	914
853.259	301
853.348	806
853.438	870
853.527	2814
853.617	2769
853.706	7441
853.795	13595
853.885	31057
853.974	60501
854.063	102316
854.152	188611
854.242	104639
854.331	19277
854.420	6085
854.509	3538
854.598	3013
854.687	1431
854.777	2156
854.866	1339
854.955	1668
855.044	728
855.133	751
855.222	916
855.311	406
855.400	837
855.488	251
855.577	378
855.666	1557
855.755	1376
855.844	1180
855.933	-439
856.021	117
856.110	205
856.199	-376
856.288	-266
856.376	820
856.465	-4
856.554	498
856.642	-77
856.731	722
856.819	431
856.908	351
856.996	-15
857.085	292
857.173	-75
857.262	172
857.350	-833
857.438	331
857.527	57
857.615	-292
857.703	-90
857.792	942
857.880	-41
857.968	-103
858.056	102
858.145	419
858.233	-418
858.321	447
858.409	135
858.497	-276
858.585	-864
858.673	598
858.761	-872
858.849	380
858.937	342
859.025	1005
859.113	951
859.201	501
859.289	354
859.377	-124
859.465	-128
859.552	173
859.640	148
859.728	435
859.816	-244
859.903	531
859.991	-527
860.079	252
860.166	-382
860.254	-677
860.342	-97
860.429	-30
860.517	-528
860.604	799
860.692	-295
860.779	-184
860.867	-131
860.954	705
861.042	398
861.129	381
861.216	482
861.304	-105
861.391	664
861.478	11
861.565	105
861.653	213
861.740	-854
861.827	-261
861.914	-45
862.001	192
862.089	-44
862.176	142
862.263	-448
862.350	282
862.437	-346
862.524	-594
862.611	-996
862.698	-46
862.785	-121
862.871	640
862.958	-771
863.045	-516
863.132	732
863.219	371
863.306	-410
863.392	-5
863.479	-353
863.566	171
863.652	354
863.739	-76
863.826	689
863.912	1092
863.999	-596
864.086	-233
864.172	595
864.259	-234
864.345	-367
864.432	564
864.518	-261
864.604	-176
864.691	-16
864.777	898
864.863	526
864.950	997
865.036	393
865.122	1730
865.209	2377
865.295	1767
865.381	1667
865.467	2569
865.553	2938
865.639	5465
865.726	7845
865.812	16056
865.898	30461
865.984	48660
866.070	79248
866.156	115840
866.242	43939
866.328	9187
866.414	3982
866.499	3679
866.585	2619
866.671	2549
866.757	1763
866.843	1983
866.928	1774
867.014	1748
867.100	1225
867.186	1252
867.271	1582
867.357	2622
867.442	2390
867.528	1986
867.614	611
867.699	1714
867.785	943
867.870	1309
867.956	1463
868.041	1811
868.127	1326
868.212	2115
868.297	1599
868.383	1752
868.468	1675
868.553	3669
868.639	3829
868.724	6542
868.809	8898
868.894	2499
868.979	1707
869.065	1526
869.150	361
869.235	249
869.320	167
869.405	722
869.490	516
869.575	34
869.660	572
869.745	578
869.830	526
869.915	818
870.000	156
870.085	1498
870.169	305
870.254	1596
870.339	283
870.424	1128
870.509	170
870.593	595
870.678	700
870.763	612
870.847	924
870.932	1044
871.016	1071
871.101	564
871.186	-180
871.270	591
871.355	-20
871.439	585
871.523	763
871.608	570
871.692	215
871.777	1106
871.861	1389
871.945	548
872.030	446
872.114	934
872.198	386
872.282	403
872.367	243
872.451	44
872.535	535
872.619	-258
872.703	-252
872.787	446
872.871	774
872.955	750
873.039	-401
873.123	578
873.207	659
873.291	-69
873.375	-181
873.459	596
873.543	-59
873.627	467
873.711	-198
873.794	945
873.878	635
873.962	725
874.045	43
874.129	289
874.137	308
874.213	500
874.245	513
874.296	539
874.352	413
874.380	349
874.460	299
874.464	297
874.547	-51
874.568	146
874.631	705
874.676	614
874.714	548
874.784	671
874.798	694
874.881	1220
874.892	1111
874.965	377
874.999	452
875.048	519
875.107	612
875.131	671
875.215	448
875.215	448
875.298	421
875.323	333
875.381	168
875.430	594
875.465	861
875.538	208
875.548	118
875.631	117
875.646	71
875.714	-94
875.753	-51
875.798	31
875.861	263
875.881	286
875.964	400
875.968	367
876.047	25
876.076	293
876.130	614
876.183	378
876.213	317
876.291	676
876.296	695
876.379	-29
876.398	-9
876.462	50
876.506	174
876.545	284
876.613	88
876.628	52
876.711	-211
876.721	-128
876.794	575
876.828	494
876.877	329
876.935	157
876.960	91
877.043	623
877.043	621
877.125	120
877.150	432
877.208	1139
877.258	985
877.291	881
877.365	703
877.374	664
877.456	-83
877.472	26
877.539	651
877.579	643
877.622	577
877.687	641
877.704	701
877.787	576
877.794	592
877.869	677
877.901	771
877.952	821
878.008	374
878.034	190
878.115	458
878.117	467
878.199	143
878.222	410
878.282	956
878.329	608
878.364	429
878.437	882
878.447	899
878.529	-268
878.544	-182
878.611	485
878.651	331
878.694	195
878.758	474
878.776	538
878.858	338
878.865	385
878.941	648
878.972	336
879.023	40
879.078	238
879.105	374
879.185	509
879.187	509
879.269	649
879.292	613
879.351	431
879.399	384
879.433	500
879.506	688
879.516	648
879.598	111
879.613	-28
879.680	-176
879.720	233
879.762	550
879.827	286
879.844	240
879.926	550
879.933	575
880.007	460
880.040	429
880.089	870
880.147	1674
880.171	1834
880.253	2515
880.254	2524
880.335	4109
880.360	4607
880.417	6038
880.467	7892
880.499	9279
880.574	14008
880.580	14181
880.662	6140
880.680	4927
880.744	1436
880.787	775
880.825	474
880.893	392
880.907	397
880.989	430
881.000	493
881.070	621
881.106	540
881.152	708
881.213	698
881.233	534
881.315	-118
881.319	-143
881.396	124
881.426	250
881.478	44
881.532	-4
881.559	290
881.639	780
881.641	773
881.722	616
881.745	450
881.803	318
881.852	471
881.885	616
881.958	769
881.966	762
882.047	1087
882.064	976
882.129	910
882.171	1211
882.210	1345
882.277	1689
882.291	1720
882.372	911
882.383	857
882.454	444
882.489	398
882.535	441
882.596	-39
882.616	-28
882.697	436
882.702	463
882.778	324
882.808	456
882.859	605
882.914	352
882.940	343
883.020	389
883.021	393
883.102	382
883.127	515
883.183	639
883.233	505
883.264	444
883.339	496
883.345	477
883.426	-99
883.445	-87
883.507	409
883.551	293
883.587	2
883.657	163
883.668	314
883.749	1044
883.763	1138
883.830	662
883.869	364
883.910	342
883.975	396
883.991	409
884.072	429
884.081	451
884.152	386
884.187	127
884.233	104
884.292	634
884.314	599
884.394	-425
884.398	-436
884.475	237
884.504	297
884.555	283
884.610	447
884.636	478
884.716	262
884.716	267
884.797	631
884.821	740
884.877	828
884.927	777
884.958	662
885.033	434
885.038	419
885.118	94
885.139	-37
885.199	-76
885.244	255
885.279	480
885.350	373
885.359	404
885.439	959
885.456	989
885.520	809
885.561	909
885.600	855
885.667	709
885.680	694
885.760	457
885.773	431
885.840	1000
885.878	1182
885.920	878
885.984	443
886.000	401
886.080	596
886.089	560
886.160	295
886.195	375
886.240	374
886.300	91
886.320	170
886.400	668
886.406	690
886.480	452
886.511	378
886.560	610
886.616	734
886.640	860
886.720	1532
886.722	1538
886.800	630
886.827	359
886.879	798
886.932	1039
886.959	794
887.038	267
887.039	276
887.119	705
887.143	882
887.198	872
887.248	740
887.278	678
887.354	449
887.358	457
887.437	694
887.459	743
887.517	911
887.564	1070
887.596	744
887.669	-123
887.676	-110
887.755	101
887.774	168
887.835	465
887.880	637
887.914	670
887.985	696
887.994	702
888.073	846
888.090	865
888.153	1099
888.195	1168
888.232	854
888.300	387
888.311	461
888.391	966
888.405	1051
888.470	539
888.510	174
888.549	377
888.615	857
888.628	797
888.708	237
888.720	179
888.787	137
888.825	25
888.866	148
888.930	389
888.945	440
889.024	729
889.035	766
889.103	415
889.140	186
889.182	320
889.245	594
889.261	528
889.340	135
889.349	96
889.419	329
889.454	428
889.498	471
889.559	553
889.577	622
889.656	907
889.664	935
889.735	1126
889.768	1211
889.814	1270
889.873	1341
889.978	433
890.083	1193
890.187	749
890.292	380
890.397	-126
890.501	492
890.606	881
890.710	798
890.815	1114
890.919	484
891.024	434
891.128	839
891.233	251
891.337	862
891.442	537
891.546	276
891.650	562
891.755	1237
891.859	1381
891.963	1350
892.068	136
892.172	1439
892.276	39
892.380	1159
892.484	824
892.589	1669
892.693	293
892.797	465
892.901	639
893.005	182
893.109	734
893.213	1355
893.317	12
893.421	585
893.525	115
893.629	392
893.733	722
893.837	753
893.941	42
894.045	1180
894.148	71
894.252	902
894.356	-35
894.460	998
894.564	345
894.667	1279
894.771	-1
894.875	264
894.978	-754
895.082	853
895.186	836
895.289	687
895.393	1031
895.496	272
895.600	172
895.703	951
895.807	602
895.910	1288
896.014	267
896.117	-286
896.221	474
896.324	1102
896.427	662
896.531	-148
896.634	11
896.737	-115
896.840	875
896.944	706
897.047	217
897.150	905
897.253	179
897.356	244
897.460	958
897.563	-41
897.666	-562
897.769	800
897.872	247
897.975	956
898.078	420
898.181	30
898.284	-672
898.387	146
898.490	1120
898.593	1099
898.695	144
898.798	-280
898.901	695
899.004	657
899.107	365
899.209	473
899.312	1218
899.415	1294
899.518	199
899.620	365
899.723	669
899.826	838
899.928	1522
900.031	258
900.133	236
900.236	950
900.338	-494
900.441	-253
900.543	224
900.646	698
900.748	456
900.851	869
900.953	212
901.055	-460
901.158	186
901.260	515
901.362	393
901.465	1036
901.567	-127
901.669	403
901.771	116
901.873	-129
901.976	-139
902.078	699
902.180	-489
902.282	753
902.384	-52
902.486	972
902.588	836
902.690	485
902.792	156
902.894	1038
902.996	-281
903.098	579
903.200	722
903.302	1540
903.404	761
903.505	-297
903.607	855
903.709	1290
903.811	832
903.913	124
904.014	458
904.116	826
904.218	242
904.319	941
904.421	496
904.523	1334
904.624	691
904.726	979
904.827	-81
904.929	727
905.030	16
905.132	1206
905.233	258
905.335	-193
905.436	146
905.537	507
905.639	598
905.740	893
905.841	27
905.943	699
906.044	-775
906.145	685
906.247	-314
906.348	612
906.449	198
906.550	-275
906.651	176
906.752	1734
906.854	270
906.955	-133
907.056	-179
907.157	876
907.258	325
907.359	439
907.460	-171
907.561	461
907.662	134
907.762	515
907.863	-297
907.964	551
908.065	582
908.166	691
908.267	820
908.367	878
908.468	783
908.569	-87
908.670	123
908.770	1201
908.871	822
908.971	1312
909.072	1037
909.173	1075
909.273	1025
909.374	558
909.474	190
909.575	966
909.675	661
909.776	780
909.876	449
909.977	330
910.077	298
910.177	1277
910.278	425
910.378	-446
910.478	-487
910.579	606
910.679	-188
910.779	721
910.879	-39
910.980	388
911.080	373
911.180	-55
911.280	-180
911.380	855
911.480	-39
911.580	411
911.680	37
911.780	687
911.880	951
911.980	356
912.080	-75
912.180	1193
912.280	696
912.380	848
912.480	-207
912.580	240
912.679	-214
912.779	525
912.879	1046
912.979	268
913.078	169
913.178	370
913.278	1012
913.377	542
913.477	-326
913.577	316
913.676	510
913.776	101
913.875	262
913.975	128
914.074	456
914.174	329
914.273	-252
914.373	1022
914.472	-178
914.572	595
914.671	906
914.770	902
914.870	272
914.969	198
915.068	472
915.167	672
915.267	404
915.366	872
915.465	-28
915.564	353
915.663	68
915.763	1170
915.862	764
915.961	-63
916.060	566
916.159	662
916.258	141
916.357	1037
916.456	164
916.555	874
916.654	329
916.752	613
916.851	588
916.950	358
917.049	-351
917.148	-40
917.247	318
917.345	-416
917.444	198
917.543	466
917.642	136
917.740	487
917.839	-82
917.937	1924
918.036	801
918.135	521
918.233	784
918.332	92
918.430	380
918.529	1021
918.627	1036
918.726	563
918.824	884
918.923	387
919.021	378
919.119	363
919.218	-296
919.316	968
919.414	502
919.512	1055
919.611	946
919.709	962
919.807	870
919.905	1221
920.003	632
920.102	274
920.200	664
920.298	597
920.396	970
920.494	751
920.592	1265
920.690	637
920.788	522
920.886	1135
920.984	1307
921.082	-151
921.180	1073
921.277	663
921.375	827
921.473	1472
921.571	449
921.669	1175
921.766	440
921.864	974
921.962	1093
922.060	677
922.157	1264
922.255	858
922.352	1023
922.450	1411
922.548	596
922.645	735
922.743	1812
922.840	1221
922.938	2431
923.035	2408
923.133	1962
923.230	2595
923.327	2688
923.425	2456
923.522	2540
923.619	1891
923.717	1814
923.814	2012
923.911	1600
924.008	2325
924.106	1986
924.203	2815
924.300	1690
924.397	1227
924.494	1946
924.591	2051
924.688	1384
924.786	2608
924.883	1971
924.979	1865
925.077	2342
925.173	1708
925.270	1619
925.367	1778
925.464	1722
925.561	3056
925.658	2047
925.755	1869
925.852	2454
925.948	1958
926.045	2071
926.142	1829
926.239	2588
926.335	1689
926.432	2343
926.529	1571
926.625	1673
926.722	1755
926.818	1073
926.915	3342
927.011	1192
927.108	1437
927.204	1804
927.301	1953
927.397	1664
927.494	1430
927.590	1082
927.687	1389
927.783	1577
927.879	2131
927.976	1968
928.072	1797
928.168	2114
928.264	1973
928.361	1110
928.457	2430
928.553	1600
928.649	1181
928.745	1754
928.841	1908
928.937	1306
929.033	1863
929.129	833
929.225	2204
929.321	808
929.417	1001
929.513	1319
929.609	1268
929.705	77
929.801	1679
929.897	885
929.993	1257
930.089	1319
930.184	970
930.280	1091
930.376	1773
930.471	1233
930.567	2234
930.663	1867
930.758	1649
930.854	682
930.950	782
931.045	1209
931.141	1553
931.236	523
931.332	1714
931.427	929
931.523	1710
931.618	1023
931.714	1398
931.809	904
931.905	1516
932.000	741
932.095	798
932.191	466
932.286	1251
932.381	1116
932.476	886
932.572	1009
932.667	1975
932.762	1248
932.857	1600
932.952	1614
933.047	2347
933.142	654
933.237	443
933.332	1069
933.427	1595
933.522	1266
933.617	1447
933.712	1401
933.807	1367
933.902	1934
933.997	2225
934.092	1125
934.187	1010
934.282	848
934.376	1500
934.471	874
934.566	1080
934.661	418
934.755	1823
934.850	1538
934.945	915
935.039	1231
935.134	967
935.228	-416
935.323	1769
935.417	716
935.512	1005
935.606	-215
935.701	484
935.795	1048
935.890	1263
935.984	321
936.079	-28
936.173	1056
936.267	398
936.362	1145
936.456	1199
936.550	1594
936.644	1586
936.738	784
936.833	1309
936.927	226
937.021	1207
937.115	540
937.209	119
937.303	1117
937.397	148
937.491	565
937.585	867
937.679	1434
937.773	958
937.867	385
937.961	-220
938.055	605
938.149	1714
938.243	449
938.337	753
938.430	743
938.524	805
938.618	1012
938.712	847
938.805	101
938.899	685
938.993	836
939.086	265
939.180	181
939.274	789
939.367	1068
939.461	620
939.554	486
939.648	824
939.741	-42
939.835	1015
939.928	1158
940.022	1014
940.115	743
940.208	1545
940.302	603
940.395	1358
940.488	309
940.582	1134
940.675	-381
940.768	736
940.861	120
940.954	829
941.048	-61
941.141	386
941.234	438
941.327	1441
941.420	1153
941.513	1241
941.606	299
941.699	960
941.792	780
941.885	1769
941.978	702
942.071	1742
942.164	-16
942.257	139
942.349	113
942.442	621
942.535	1012
942.628	-121
942.721	1021
942.813	261
942.906	842
942.999	494
943.091	-957
943.184	266
943.277	-23
943.369	728
943.462	-213
943.554	833
943.647	40
943.739	817
943.832	743
943.924	-872
944.017	76
944.109	738
944.201	249
944.294	29
944.386	311
944.478	647
944.571	-245
944.663	820
944.755	410
944.847	1025
944.940	-91
945.032	87
945.124	-210
945.216	1160
945.308	233
945.400	499
945.492	-159
945.584	290
945.676	460
945.768	-16
945.860	202
945.952	806
946.044	609
946.136	613
946.228	673
946.320	453
946.412	435
946.503	1036
946.595	986
946.687	497
946.779	-251
946.870	830
946.962	261
947.054	705
947.145	997
947.237	573
947.329	-242
947.420	333
947.512	-119
947.603	347
947.695	257
947.786	163
947.878	-726
947.969	716
948.061	-143
948.152	233
948.243	125
948.335	398
948.426	-238
948.517	271
948.609	-83
948.700	582
948.791	965
948.882	12
948.973	-368
949.065	322
949.156	-607
949.247	-218
949.338	827
949.429	-204
949.520	-470
949.611	-357
949.702	186
949.793	-152
949.884	-223
949.975	349
950.066	-198
950.157	1065
950.247	771
950.338	703
950.429	251
950.520	-84
950.611	523
950.701	184
950.792	630
950.883	843
950.973	-334
951.064	295
951.155	59
951.245	1124
951.336	257
951.427	21
951.517	310
951.608	544
951.698	-682
951.788	226
951.879	-398
951.969	-285
952.060	574
952.150	-188
952.240	-58
952.331	-977
952.421	228
952.511	271
952.602	-174
952.692	31
952.782	-1218
952.872	-238
952.962	166
953.052	595
953.143	60
953.233	402
953.323	502
953.413	752
953.503	-38
953.593	7
953.683	159
953.773	542
953.863	-1102
953.953	-461
954.042	16
954.132	-164
954.222	305
954.312	-281
954.402	-678
954.492	357
954.581	381
954.671	195
954.761	-207
954.850	638
954.940	-23
955.030	21
955.119	-260
955.209	-282
955.298	-527
955.388	-142
955.477	794
955.567	-211
955.656	647
955.746	-328
955.835	203
955.925	-258
956.014	-526
956.103	540
956.193	170
956.282	-693
956.371	-676
956.461	44
956.550	-212
956.639	-145
956.728	-480
956.817	-15
956.906	-1456
956.995	-152
957.085	-1194
957.174	661
957.263	-390
957.352	760
957.441	254
957.530	-768
957.619	99
957.708	-266
957.796	-424
957.885	-639
957.974	-586
958.063	73
958.152	-1096
958.241	-359
958.329	-502
958.418	-334
958.507	-1041
958.596	923
958.684	-966
958.773	283
958.861	-153
958.950	-600
959.039	385
959.127	397
959.216	130
959.304	-354
959.393	-775
959.481	0
959.570	75
959.658	-96
959.746	-24
959.835	-468
959.923	226
960.011	419
960.100	-275
960.188	731
960.276	-159
960.365	-360
960.453	-548
960.541	-223
960.629	-936
960.717	-1012
960.805	-996
960.893	-132
960.981	-458
961.069	532
961.158	-208
961.245	-227
961.333	-552
961.421	88
961.509	-583
961.597	449
961.685	338
961.773	-321
961.861	-314
961.949	549
962.036	-929
962.124	-329
962.212	-1350
962.299	-447
962.387	-415
962.475	-26
962.562	-1470
962.650	652
962.738	-293
962.825	172
962.913	-1102
963.000	-178
963.088	-324
963.175	341
963.263	16
963.350	276
963.438	-448
963.525	-329
963.612	234
963.700	1932
963.787	5865
963.874	4929
963.962	994
964.049	335
964.136	-1167
964.223	-1052
964.310	-624
964.398	58
964.485	-99
964.572	31
964.659	523
964.746	1298
964.833	-462
964.920	-717
965.007	-492
965.094	465
965.181	-590
965.268	40
965.355	209
965.441	-73
965.528	-582
965.615	466
965.702	178
965.789	-495
965.875	-362
965.962	242
966.049	-198
966.136	604
966.222	-663
966.309	357
966.395	-779
966.482	261
966.569	-687
966.655	-341
966.742	-165
966.828	-546
966.915	-854
967.001	-859
967.087	-1095
967.174	174
967.260	718
967.347	495
967.433	752
967.519	4727
967.605	1119
967.692	393
967.778	-314
967.864	-752
967.950	-883
968.036	110
968.123	-213
968.209	-243
968.295	-2305
968.381	40
968.467	114
968.553	-1468
968.639	-20
968.725	-1217
968.811	699
968.897	918
968.983	-845
969.069	-840
969.154	-131
969.240	36
969.326	-1606
969.412	-751
969.497	-72
969.583	-991
969.669	421
969.755	667
969.840	-796
969.926	330
970.012	-313
970.097	1246
970.183	25
970.268	157
970.354	129
970.439	1
970.525	1898
970.610	1143
970.696	437
970.781	-346
970.866	-880
970.952	1465
971.037	-1549
971.122	323
971.208	80
971.293	-632
971.378	-806
971.463	-579
971.549	304
971.634	-815
971.719	-903
971.804	27
971.889	-62
971.974	-496
972.059	-837
972.144	-202
972.229	-727
972.314	-206
972.399	-357
972.484	-500
972.569	-444
972.654	216
972.739	1321
972.824	948
972.908	-241
972.993	-363
973.078	-619
973.163	-311
973.247	-205
973.332	-625
973.417	286
973.501	-977
973.586	-1080
973.671	467
973.755	-567
973.840	163
973.924	-332
974.009	-544
974.093	-199
974.178	209
974.262	105
974.346	1647
974.431	-656
974.515	-639
974.600	-245
974.684	-88
974.768	-617
974.852	10
974.937	-711
975.021	614
975.105	6
975.189	-682
975.273	-87
975.358	-646
975.442	-517
975.526	501
975.610	-1024
975.694	-679
975.778	-101
975.862	-199
975.946	-1426
976.030	755
976.114	-653
976.198	-170
976.281	-1063
976.365	426
976.449	-678
976.533	-98
976.617	-804
976.700	-437
976.784	-63
976.868	-91
976.951	-344
977.035	435
977.119	-125
977.202	456
977.286	-577
977.369	358
977.453	282
977.536	466
977.620	-904
977.703	513
977.787	-613
977.870	626
977.953	16
978.037	-898
978.120	-116
978.203	429
978.287	848
978.370	387
978.453	-750
978.536	-499
978.620	709
978.703	497
978.786	-179
978.869	194
978.952	-1550
979.035	1136
979.118	370
979.201	335
979.284	-686
979.367	-335
979.450	-1112
979.533	-1247
979.616	-797
979.699	-6
979.782	-537
979.865	111
979.948	-732
980.030	-1653
980.113	-272
980.196	-263
980.279	-433
980.361	-1067
980.444	-382
980.526	395
980.609	-1018
980.692	277
980.774	-7
980.857	-675
980.939	-118
981.022	-1115
981.104	-134
981.187	-627
981.269	459
981.352	-551
981.434	-672
981.516	-1246
981.599	350
981.681	102
981.763	-178
981.846	-974
981.928	-1119
982.010	-313
982.092	-790
982.174	-71
982.256	-407
982.339	-450
982.421	-225
982.503	-553
982.585	-664
982.667	-239
982.749	-1163
982.831	222
982.913	-981
982.995	483
983.077	-892
983.158	689
983.240	-947
983.322	231
983.404	575
983.486	-298
983.568	-88
983.649	-266
983.731	225
983.813	-463
983.894	-928
983.976	-298
984.058	-1070
984.139	554
984.221	-1260
984.302	450
984.384	-722
984.465	-250
984.547	-370
984.628	-202
984.710	114
984.791	-500
984.872	-176
984.954	414
985.035	-46
985.116	-435
985.198	-772
985.279	309
985.360	-687
985.441	-373
985.522	-135
985.604	-449
985.685	-1798
985.766	405
985.847	443
985.928	-288
986.009	-870
986.090	-320
986.171	40
986.252	-320
986.333	-1262
986.414	188
986.495	-22
986.576	-148
986.656	-234
986.737	-174
986.818	-864
986.899	-495
986.980	-536
987.060	547
987.141	-924
987.222	-245
987.302	802
987.383	730
987.464	-233
987.544	670
987.625	-102
987.705	158
987.786	489
987.866	113
987.947	-146
988.027	-76
988.108	-306
988.188	604
988.268	-256
988.349	-182
988.429	-56
988.509	346
988.589	-362
988.670	-1275
988.750	1176
988.830	197
988.910	-1093
988.990	-407
989.070	-929
989.151	156
989.231	-160
989.311	334
989.391	-722
989.471	-221
989.551	-451
989.631	-595
989.711	138
989.791	-313
989.870	-523
989.950	1532
990.030	-1410
990.110	-782
990.190	-1096
990.269	-820
990.349	-586
990.429	-169
990.509	-98
990.588	-697
990.668	-1050
990.747	-453
990.827	-838
990.907	-231
990.986	-793
991.066	621
991.145	-1108
991.225	517
991.304	-929
991.383	285
991.463	-1305
991.542	-162
991.622	-988
991.701	-234
991.780	-1087
991.859	-615
991.939	-1028
992.018	-236
992.097	-1026
992.176	75
992.256	-798
992.335	-535
992.414	-781
992.493	-879
992.572	-1011
992.651	-97
992.730	-782
992.809	-867
992.888	-1033
992.967	-620
993.046	-26
993.125	-1029
993.203	-934
993.282	199
993.361	-925
993.440	51
993.519	-965
993.597	-221
993.676	-716
993.755	573
993.834	-721
993.912	-515
993.991	226
994.069	-1011
994.148	-908
994.226	-1173
994.305	-584
994.384	-1118
994.462	-199
994.540	-970
994.619	-1226
994.697	158
994.776	-1129
994.854	-600
994.932	-1892
995.011	345
995.089	-916
995.167	-907
995.245	234
995.324	-1372
995.402	13
995.480	-1020
995.558	-818
995.636	-1019
995.714	-1673
995.792	236
995.870	-1295
995.948	-609
996.026	-797
996.104	-1240
996.182	-724
996.260	-788
996.338	-690
996.416	-1491
996.494	-877
996.572	262
996.649	-1004
996.727	-794
996.805	-1258
996.883	-1443
996.960	-1445
997.038	-224
997.116	-164
997.193	-1010
997.271	-444
997.348	-1434
997.426	-809
997.504	-1316
997.581	-514
997.658	-40
997.736	-2081
997.813	-1221
997.891	367
997.968	-1971
998.046	-1186
998.123	-1185
998.200	-705
998.277	-654
998.355	-39
998.432	-1935
998.509	-1556
998.586	-89
998.663	-319
998.741	-944
998.818	-843
998.895	-843
998.972	-1254
999.049	42
999.126	-925
999.203	-714
999.280	-862
999.357	-751
999.434	-1491
999.511	-887
999.587	-71
999.664	8
999.741	-1089
999.818	-216
999.895	-844
999.971	-104
1000.048	-1620
1000.125	-438
1000.202	-1138
1000.278	-1406
1000.355	-512
1000.431	-950
1000.508	-1582
1000.584	-964
1000.661	-718
1000.738	-609
1000.814	-866
1000.890	-684
1000.967	-992
1001.043	-944
1001.120	-1659
1001.196	-993
1001.272	-1674
1001.349	-829
1001.425	-718
1001.501	-153
1001.577	-1764
1001.654	-351
1001.730	-1876
1001.806	-400
1001.882	-1794
1001.958	-412
1002.034	-1416
1002.110	-618
1002.186	-1388
1002.262	-1482
1002.338	-1730
1002.414	485
1002.490	-272
1002.566	-1258
1002.642	-1097
1002.718	-1120
1002.794	-1535
1002.870	-1349
1002.945	-1830
1003.021	-988
1003.097	-1031
1003.173	-853
1003.248	-1115
1003.324	-961
1003.400	-1605
1003.475	-1662
1003.551	-1119
1003.626	-766
1003.702	-1618
1003.777	-396
1003.853	-1248
1003.928	-1012
1004.004	-1040
1004.079	-649
1004.155	-1218
1004.230	-1876
1004.305	-712
1004.381	-1874
1004.456	-1265
1004.531	-1624
1004.607	-1152
1004.682	-1657
1004.757	-1240
1004.832	-1435
1004.907	-1057
1004.982	-798
1005.057	-1452
1005.133	-949
1005.208	-1376
1005.283	-1085
1005.358	-1410
1005.433	-1343
1005.508	-1056
1005.583	-1672
1005.657	-1414
1005.732	-779
1005.807	-1854
1005.882	-448
1005.957	-1437
1006.032	-1028
1006.106	-1635
1006.181	-278
1006.256	-1916
1006.331	-1296
1006.405	-1656
1006.480	-687
1006.554	-1194
1006.629	-1672
1006.704	-2159
1006.778	-1080
1006.853	-1428
1006.927	-1275
1007.002	-1865
1007.076	-1257
1007.150	-693
1007.225	-900
1007.299	-1439
1007.373	-1585
1007.448	-948
1007.522	-978
1007.596	-1316
1007.671	-1406
1007.745	-1479
1007.819	-931
1007.893	-1298
1007.967	-257
1008.041	-1174
1008.115	-17
1008.190	-2174
1008.264	-1632
1008.338	-2022
1008.412	-1314
1008.486	-1876
1008.560	-666
1008.633	-2031
1008.707	-2019
1008.781	-718
1008.855	-1773
1008.929	-1832
1009.003	-1214
1009.076	-1796
1009.150	-855
1009.224	-939
1009.298	-1124
1009.371	-1239
1009.445	-653
1009.519	-1586
1009.592	-1644
1009.666	-1795
1009.739	-1461
1009.813	-1833
1009.886	-688
1009.960	-2295
1010.033	-1354
1010.107	-1204
1010.180	-2686
1010.253	-1285
1010.327	-1543
1010.400	-1862
1010.473	-2020
1010.547	-387
1010.620	-1402
1010.693	-1605
1010.766	-1309
1010.840	-1377
1010.913	-1362
1010.986	-2156
1011.059	-802
1011.132	-1744
1011.205	-979
1011.278	-1730
1011.351	-1299
1011.424	-1863
1011.497	-1857
1011.570	-1730
1011.643	-1019
1011.716	-1774
1011.789	-1343
1011.862	-1643
1011.934	-1017
1012.007	-1690
1012.080	-599
1012.153	-1638
1012.225	-580
1012.298	-1127
1012.371	-1750
1012.443	-1403
1012.516	-2289
1012.588	-1609
1012.661	-373
1012.733	-2592
1012.806	-1169
1012.879	-2124
1012.951	-1837
1013.023	-1298
1013.096	-1199
1013.168	-1265
1013.241	-1264
1013.313	-1753
1013.385	-1691
1013.458	-1746
1013.530	-575
1013.602	-1625
1013.674	-170
1013.746	-2323
1013.819	-2072
1013.891	-1720
1013.963	-2084
1014.035	-1115
1014.107	-1430
1014.179	-1267
1014.251	-1346
1014.323	-1959
1014.395	-872
1014.467	-1847
1014.539	-679
1014.611	-1855
1014.683	-1459
1014.754	-1332
1014.826	-1838
1014.898	-1416
1014.970	-2690
1015.042	-866
1015.113	-974
1015.185	-1758
1015.257	-2150
1015.328	-1450
1015.400	-1873
1015.471	-2034
1015.543	-2105
1015.615	-1935
1015.686	-920
1015.757	-2029
1015.829	-1291
1015.901	-2013
1015.972	-1611
1016.043	-2455
1016.115	-1220
1016.186	-1521
1016.257	-1726
1016.328	-1311
1016.400	-911
1016.471	-2125
1016.542	-1554
1016.613	-1166
1016.685	-1100
1016.756	-1000
1016.827	-836
1016.898	-2400
1016.969	-1285
1017.040	-2120
1017.111	-1201
1017.182	-1904
1017.253	-1094
1017.324	-1772
1017.395	-1742
1017.466	-1635
1017.537	-2080
1017.608	-1928
1017.678	-1919
1017.749	-2024
1017.820	-859
1017.891	-2381
1017.961	-1950
1018.032	-2337
1018.103	-1347
1018.173	-2101
1018.244	-1817
1018.315	-1868
1018.385	-1166
1018.456	-1814
1018.526	-2057
1018.597	-1384
1018.667	-1975
1018.738	-1677
1018.808	-1168
1018.878	-1409
1018.949	-1770
1019.019	-2237
1019.089	-1230
1019.160	-1812
1019.230	-2020
1019.300	-2178
1019.371	-1969
1019.441	-1502
1019.511	-1398
1019.581	-1704
1019.651	-1438
1019.721	-2383
1019.791	-1634
1019.861	-1569
1019.931	-2399
1020.001	-1977
1020.071	-1519
1020.141	-1838
1020.211	-1551
1020.281	-1976
1020.351	-1794
1020.421	-1792
1020.491	-1215
1020.560	-1533
1020.630	-1393
1020.700	-1936
1020.770	-1583
1020.839	-1536
1020.909	-1913
1020.979	-2318
1021.048	-984
1021.118	-1453
1021.187	-1574
1021.257	-2081
1021.326	-1566
1021.396	-2167
1021.465	-1676
1021.535	-1781
1021.604	-2728
1021.674	-1393
1021.743	-1980
1021.812	-2145
1021.882	-1842
1021.951	-1951
1022.020	-1577
1022.089	-1813
1022.159	-1417
1022.228	-2171
1022.297	-1208
1022.366	-1945
1022.435	-767
1022.504	-2323
1022.573	-2570
1022.642	-1696
1022.711	-1710
1022.781	-1529
1022.849	-1889
1022.918	-2441
1022.987	-1495
1023.056	-2947
1023.125	-1865
1023.194	-2131
1023.263	-1751
1023.331	-2503
1023.400	-1245
1023.469	-2227
1023.538	-1548
1023.606	-1619
1023.675	-1970
1023.744	-2216
1023.812	-1801
1023.881	-2208
1023.949	-1688
1024.018	-1571
1024.086	-1919
1024.155	-1929
1024.223	-2337
1024.292	-1713
1024.360	-1361
1024.429	-1863
1024.497	-2002
1024.565	-1796
1024.634	-1864
1024.702	-1000
1024.770	-1340
1024.838	-1404
1024.907	-1052
1024.975	-1772
1025.043	-1393
1025.111	-1956
1025.179	-1893
1025.247	-1950
1025.315	-1278
1025.383	-1904
1025.451	-1452
1025.519	-2428
1025.587	-1455
1025.655	-2903
1025.723	-2378
1025.791	-1540
1025.859	-1676
1025.927	-2250
1025.995	-2133
1026.062	-1801
1026.130	-1551
1026.198	-1790
1026.266	-1692
1026.333	-1984
1026.401	-1352
1026.469	-2266
1026.536	-2537
1026.604	-2014
1026.671	-3143
1026.739	-2327
1026.806	-2000
1026.874	-1739
1026.941	-2328
1027.009	-1904
1027.076	-1571
1027.144	-1821
1027.211	-2386
1027.278	-3247
1027.345	-2129
1027.413	-2186
1027.480	-1803
1027.547	-1987
1027.614	-1403
1027.682	-2489
1027.749	-1907
1027.816	-1835
1027.883	-1264
1027.950	-2234
1028.017	-1915
1028.084	-1968
1028.151	-2301
1028.218	-1932
1028.285	-1732
1028.352	-1736
1028.419	-2177
1028.486	-1656
1028.553	-2032
1028.619	-2273
1028.686	-1758
1028.753	-1972
1028.820	-2670
1028.886	-2936
1028.953	-2218
1029.020	-948
1029.086	-2211
1029.153	-1994
1029.220	-1702
1029.286	-1688
1029.353	-2813
1029.419	-2015
1029.486	-2052
1029.552	-1892
1029.619	-2183
1029.685	-1807
1029.751	-1770
1029.818	-967
1029.884	-1343
1029.951	-1864
1030.017	-2142
1030.083	-2326
1030.149	-2124
1030.216	-1782
1030.282	-2125
1030.348	-1454
1030.414	-1456
1030.480	-3160
1030.546	-1597
1030.612	-2318
1030.678	-2312
1030.744	-2271
1030.810	-1897
1030.876	-2213
1030.942	-1622
1031.008	-2399
1031.074	-2182
1031.140	-2447
1031.206	-1860
1031.272	-2454
1031.337	-2060
1031.403	-2324
1031.469	-2301
1031.534	-1921
1031.600	-1352
1031.666	-2520
1031.731	-2855
1031.797	-2144
1031.863	-2306
1031.928	-1945
1031.994	-1875
1032.059	-2166
1032.125	-2004
1032.190	-2088
1032.256	-2077
1032.321	-2537
1032.386	-2373
1032.452	-1342
1032.517	-2141
1032.582	-2473
1032.647	-2479
1032.713	-1358
1032.778	-1949
1032.843	-2468
1032.908	-2071
1032.974	-1879
1033.039	-1886
1033.104	-1875
1033.169	-2272
1033.234	-2426
1033.299	-780
1033.364	-2160
1033.429	-2131
1033.494	-2196
1033.559	-2311
1033.624	-2623
1033.688	-1407
1033.753	-2047
1033.818	-1731
1033.883	-2495
1033.948	-2136
1034.013	-2114
1034.077	-1119
1034.142	-1529
1034.207	-1294
1034.271	-1151
1034.336	-243
1034.400	-704
1034.465	-1766
1034.530	-1352
1034.594	-2241
1034.658	-2484
1034.723	-2417
1034.787	-1928
1034.852	-1907
1034.916	-2400
1034.981	-2317
1035.045	-2860
1035.109	-1791
1035.173	-1040
1035.238	-2576
1035.302	-1992
1035.366	-1701
1035.430	-2533
1035.495	-2368
1035.559	-1669
1035.623	-2240
1035.687	-2528
1035.751	-1380
1035.815	-2940
1035.879	-2095
1035.943	-2607
1036.007	-2495
1036.071	-2168
1036.135	-2009
1036.198	-2321
1036.262	-2265
1036.326	-1747
1036.390	-1487
1036.454	-2027
1036.517	-1441
1036.581	-2673
1036.645	-1224
1036.709	-1715
1036.772	-1355
1036.836	-2025
1036.900	-1524
1036.963	-1830
1037.026	-1951
1037.090	-1894
1037.154	-1569
1037.217	-1870
1037.280	-2417
1037.344	-2749
1037.407	-2171
1037.471	-1905
1037.534	-2502
1037.597	-2226
1037.661	-1637
1037.724	-2064
1037.787	-2268
1037.850	-1348
1037.913	-1412
1037.977	-1714
1038.040	-1741
1038.103	-1700
1038.166	-2062
1038.229	-2109
1038.292	-1943
1038.355	-1705
1038.418	-1532
1038.481	-2098
1038.544	-1931
1038.607	-2631
1038.670	-1917
1038.732	-1964
1038.795	-2123
1038.858	-2004
1038.921	-2201
1038.984	-2351
1039.046	-1830
1039.109	-2252
1039.172	-1756
1039.234	-2435
1039.297	-2050
1039.360	-2534
1039.422	-1899
1039.485	-2170
1039.547	-2326
1039.610	-1694
1039.672	-1715
1039.734	-1899
1039.797	-1415
1039.859	-2263
1039.922	-1964
1039.984	-2389
1040.046	-2539
1040.109	-1397
1040.171	-1652
1040.233	-2165
1040.295	-2359
1040.358	-2776
1040.420	-2420
1040.482	-2973
1040.544	-2005
1040.606	-3127
1040.668	-1796
1040.730	-2310
1040.792	-2152
1040.854	-2468
1040.916	-1562
1040.978	-3043
1041.040	-1775
1041.102	-1993
1041.164	-1895
1041.225	-2118
1041.287	-2071
1041.349	-1940
1041.411	-2384
1041.472	-2521
1041.534	-961
1041.596	-2776
1041.657	-2402
1041.719	-2854
1041.781	-2381
1041.842	-2206
1041.904	-2407
1041.965	-2595
1042.027	-1453
1042.088	-1877
1042.150	-1753
1042.211	-1960
1042.272	-1778
1042.334	-2339
1042.395	-935
1042.456	-2375
1042.518	-1446
1042.579	-1939
1042.640	-2274
1042.701	-1855
1042.763	-2544
1042.824	-2000
1042.885	-2323
1042.946	-2076
1043.007	-2129
1043.068	-2305
1043.129	-2389
1043.190	-2304
1043.251	-1659
1043.312	-1452
1043.373	-1677
1043.434	-2012
1043.495	-2030
1043.556	-1873
1043.616	-2051
1043.677	-2192
1043.738	-2369
1043.799	-2655
1043.859	-2139
1043.920	-1992
1043.981	-2345
1044.041	-2737
1044.102	-1903
1044.162	-2348
1044.223	-2070
1044.284	-2286
1044.344	-2069
1044.405	-1736
1044.465	-1897
1044.525	-2591
1044.586	-2226
1044.646	-2559
1044.707	-1033
1044.767	-2175
1044.827	-1502
1044.887	-1862
1044.948	-2085
1045.008	-1964
1045.068	-1684
1045.128	-1356
1045.188	-1583
1045.249	-2409
1045.309	-1346
1045.369	-1750
1045.429	-2315
1045.489	-1959
1045.549	-2201
1045.609	-2457
1045.669	-2085
1045.729	-1984
1045.789	-2729
1045.848	-2192
1045.908	-1040
1045.968	-1862
1046.028	-1564
1046.088	-1681
1046.147	-1015
1046.207	-2687
1046.267	-1432
1046.326	-1968
1046.386	-1356
1046.446	-1523
1046.505	-1203
1046.565	-1017
1046.624	-1262
1046.684	-763
1046.743	-188
1046.803	-1295
1046.862	-121
1046.922	0
