'Start Wavelength	183.907
'End Wavelength	1046.922
'Gate Delay	5.000
'Gate Width (ms)	1.050
'Laser Output Level	0.000
'X Position	0.000
'Y Position	0.000
'Z Position	0.000
'Grid Point Number	1.000
'Shot Number	100.000
183.907	49.000
183.977	32.000
184.047	-331
184.116	682
184.186	-1
184.256	97
184.325	-890
184.395	-820
184.465	120
184.534	-523
184.604	-1598
184.674	598
184.743	-567
184.813	29
184.883	-855
184.952	403
185.022	-58
185.092	-53
185.161	-244
185.231	102
185.301	-377
185.370	606
185.440	28
185.509	87
185.579	-837
185.649	407
185.718	-121
185.788	174
185.857	-180
185.927	543
185.996	-505
186.066	203
186.136	-186
186.205	-210
186.275	-432
186.344	343
186.414	-453
186.483	-80
186.553	349
186.622	18
186.692	-149
186.761	-488
186.831	-212
186.900	-370
186.970	-100
187.039	606
187.109	391
187.178	417
187.248	180
187.317	-11
187.387	-441
187.456	-84
187.526	-217
187.595	339
187.664	-337
187.734	-259
187.803	113
187.873	441
187.942	-319
188.012	1366
188.081	-132
188.150	-571
188.220	-25
188.289	347
188.358	-140
188.428	203
188.497	-490
188.567	88
188.636	-209
188.705	25
188.775	-558
188.844	-704
188.913	538
188.983	720
189.052	-242
189.121	-24
189.191	-267
189.260	428
189.329	-656
189.399	1008
189.468	-278
189.537	107
189.606	565
189.676	-14
189.745	-359
189.814	201
189.883	-511
189.953	720
190.022	-133
190.091	-322
190.161	146
190.230	515
190.299	156
190.368	-431
190.437	-897
190.507	378
190.576	-426
190.645	18
190.714	-243
190.783	-374
190.853	364
190.922	889
190.991	-210
191.060	237
191.129	-597
191.198	906
191.268	126
191.337	-70
191.406	499
191.475	257
191.544	-414
191.613	-633
191.682	-578
191.752	144
191.821	-40
191.890	-99
191.959	-116
192.028	-470
192.097	-407
192.166	447
192.235	-293
192.304	-134
192.373	-814
192.442	314
192.511	-598
192.580	635
192.650	510
192.719	-106
192.788	527
192.857	917
192.926	151
192.995	335
193.064	-406
193.133	570
193.202	5
193.271	482
193.340	41
193.409	839
193.478	364
193.547	1032
193.615	66
193.684	1397
193.753	485
193.822	1339
193.891	-467
193.960	285
194.029	-590
194.098	379
194.167	-428
194.236	668
194.305	-1166
194.374	543
194.443	-335
194.512	1084
194.580	29
194.649	599
194.718	178
194.787	564
194.856	-911
194.925	208
194.994	390
195.062	563
195.131	411
195.200	549
195.269	67
195.338	433
195.407	566
195.475	60
195.544	199
195.613	-174
195.682	-159
195.751	20
195.819	-465
195.888	421
195.957	445
196.026	616
196.094	808
196.163	730
196.232	176
196.301	155
196.369	-70
196.438	560
196.507	-130
196.576	-218
196.644	105
196.713	305
196.782	-22
196.850	1216
196.919	55
196.988	-161
197.056	-654
197.125	-300
197.194	-453
197.262	477
197.331	79
197.400	-168
197.468	-93
197.537	27
197.606	537
197.674	649
197.743	766
197.812	629
197.880	-48
197.949	44
198.017	79
198.086	970
198.155	-263
198.223	319
198.292	278
198.360	279
198.429	-566
198.497	989
198.566	254
198.635	1511
198.703	-136
198.772	747
198.840	1255
198.909	977
198.977	-92
199.046	570
199.114	-551
199.183	662
199.251	141
199.320	730
199.388	-83
199.457	238
199.525	312
199.594	172
199.662	-61
199.731	832
199.799	-172
199.867	528
199.936	163
200.004	293
200.073	-863
200.141	515
200.210	-419
200.278	635
200.346	-876
200.415	859
200.483	581
200.552	591
200.620	-824
200.688	766
200.757	339
200.825	641
200.893	-17
200.962	-283
201.030	-1116
201.098	25
201.167	23
201.235	924
201.303	174
201.372	681
201.440	453
201.508	677
201.577	109
201.645	456
201.713	404
201.781	458
201.850	175
201.918	302
201.986	-184
202.055	1567
202.123	-225
202.191	-167
202.259	166
202.327	1061
202.396	53
202.464	246
202.532	315
202.600	2110
202.669	52
202.737	914
202.805	469
202.873	606
202.941	671
203.009	69
203.078	-352
203.146	-57
203.214	67
203.282	-423
203.350	99
203.418	758
203.487	992
203.555	510
203.623	-45
203.691	559
203.759	-249
203.827	416
203.895	-26
203.963	440
204.031	-324
204.099	387
204.168	-22
204.236	623
204.304	-163
204.372	374
204.440	193
204.508	520
204.576	-326
204.644	-434
204.712	-198
204.780	481
204.848	156
204.916	15
204.984	-445
205.052	119
205.120	-59
205.188	201
205.256	-429
205.324	557
205.392	231
205.460	621
205.528	-678
205.596	851
205.664	-56
205.732	401
205.799	624
205.867	2266
205.935	-138
206.003	919
206.071	-148
206.139	31
206.207	-258
206.275	795
206.343	-246
206.411	967
206.478	394
206.546	663
206.614	-262
206.682	34
206.750	342
206.818	642
206.885	630
206.953	-170
207.021	1139
207.089	388
207.157	-39
207.225	1247
207.292	245
207.360	568
207.428	379
207.496	747
207.563	30
207.631	1105
207.699	-529
207.767	553
207.834	-129
207.902	731
207.970	127
208.038	405
208.105	-223
208.173	826
208.241	551
208.309	1080
208.376	108
208.444	2066
208.512	173
208.579	106
208.647	443
208.715	1100
208.782	271
208.850	19
208.918	264
208.985	646
209.053	-20
209.120	534
209.188	-82
209.256	323
209.323	708
209.391	1340
209.459	1548
209.526	1180
209.594	38
209.661	771
209.729	644
209.796	1425
209.864	-26
209.932	465
209.999	1255
210.067	980
210.134	685
210.202	875
210.269	827
210.337	1492
210.404	626
210.472	583
210.539	93
210.607	1116
210.674	966
210.742	349
210.809	72
210.877	710
210.944	1625
211.012	-118
211.079	1926
211.146	945
211.214	234
211.281	1771
211.349	977
211.416	1509
211.484	468
211.551	492
211.618	316
211.686	736
211.753	129
211.821	935
211.888	221
211.955	464
212.023	-325
212.090	1886
212.157	713
212.225	1054
212.292	1986
212.359	2688
212.427	4260
212.494	2926
212.561	554
212.629	502
212.696	466
212.763	1169
212.831	202
212.898	1953
212.965	609
213.032	1879
213.100	77
213.167	1400
213.234	601
213.301	1107
213.369	937
213.436	1035
213.503	276
213.570	1487
213.638	103
213.705	663
213.772	-478
213.839	733
213.906	1310
213.973	1006
214.041	226
214.108	1632
214.175	730
214.242	1181
214.309	620
214.376	1687
214.444	936
214.511	1675
214.578	824
214.645	1371
214.712	986
214.779	656
214.846	773
214.913	1974
214.980	1341
215.048	1736
215.115	1214
215.182	1893
215.249	723
215.316	688
215.383	1243
215.450	820
215.517	1001
215.584	1120
215.651	174
215.718	1161
215.785	1448
215.852	285
215.919	1593
215.986	669
216.053	1123
216.120	487
216.187	1069
216.254	1288
216.321	1236
216.388	1686
216.455	1285
216.522	1353
216.589	932
216.656	2008
216.722	1159
216.789	1762
216.856	1922
216.923	1419
216.990	949
217.057	1557
217.124	2046
217.191	1174
217.258	1710
217.324	3247
217.391	2108
217.458	2031
217.525	1730
217.592	1088
217.659	-2
217.725	2653
217.792	1447
217.859	2527
217.926	1429
217.993	997
218.059	1370
218.126	1789
218.193	592
218.260	788
218.327	718
218.393	1116
218.460	419
218.527	1165
218.594	177
218.660	955
218.727	1655
218.794	973
218.860	1306
218.927	491
218.994	623
219.061	1476
219.127	443
219.194	2005
219.261	493
219.327	-189
219.394	1010
219.461	-236
219.527	1217
219.594	1148
219.661	953
219.727	64
219.794	893
219.860	324
219.927	925
219.994	2063
220.060	2379
220.127	2162
220.193	1792
220.260	1308
220.326	2185
220.393	3066
220.460	3608
220.526	2696
220.593	1132
220.659	3896
220.726	1635
220.792	3356
220.859	3125
220.925	5041
220.992	5810
221.058	6184
221.125	4801
221.191	3241
221.258	1071
221.324	1639
221.391	979
221.457	944
221.524	1787
221.590	2581
221.657	3481
221.723	2849
221.789	1395
221.856	3614
221.922	1432
221.989	2115
222.055	1080
222.121	652
222.188	2239
222.254	2338
222.321	937
222.387	476
222.453	666
222.520	1851
222.586	66
222.652	1435
222.719	-21
222.785	1800
222.851	508
222.918	1369
222.984	916
223.050	834
223.116	-389
223.183	2330
223.249	-210
223.315	-409
223.382	851
223.448	1452
223.514	86
223.580	436
223.647	236
223.713	672
223.779	991
223.845	483
223.911	2170
223.978	538
224.044	288
224.110	1001
224.176	736
224.242	456
224.309	-473
224.375	1168
224.441	726
224.507	844
224.573	416
224.639	1474
224.705	408
224.772	1354
224.838	25
224.904	1382
224.970	269
225.036	699
225.102	-174
225.168	962
225.234	1263
225.300	851
225.366	1198
225.432	1073
225.499	197
225.565	631
225.631	548
225.697	890
225.763	1982
225.829	1836
225.895	1786
225.961	2469
226.027	1840
226.093	1706
226.159	2000
226.225	4008
226.291	6807
226.357	10282
226.423	5133
226.489	3692
226.554	2484
226.620	1809
226.686	2510
226.752	5021
226.818	5384
226.884	11688
226.950	10608
227.016	4889
227.082	2315
227.148	2151
227.214	2435
227.279	1972
227.345	1130
227.411	2453
227.477	1136
227.543	4802
227.609	4055
227.674	3468
227.740	831
227.806	1722
227.872	583
227.938	1609
228.003	2124
228.069	1284
228.135	514
228.201	1559
228.267	689
228.332	2006
228.398	517
228.464	935
228.530	787
228.595	1345
228.661	514
228.727	1311
228.792	2353
228.858	1696
228.924	-928
228.990	3590
229.055	-376
229.121	1778
229.187	533
229.252	867
229.318	395
229.384	1434
229.449	504
229.515	-925
229.581	541
229.646	2141
229.712	1001
229.777	2540
229.843	1212
229.909	2088
229.974	2155
230.040	2238
230.105	1377
230.171	1036
230.236	2404
230.302	3520
230.368	2397
230.433	817
230.499	1576
230.564	3134
230.630	601
230.695	1033
230.761	1063
230.826	375
230.892	2397
230.957	1548
231.023	437
231.088	1217
231.154	1444
231.219	1509
231.284	1827
231.350	2849
231.415	675
231.481	2052
231.546	865
231.612	803
231.677	656
231.742	491
231.808	1379
231.873	1053
231.939	-430
232.004	2705
232.069	1930
232.135	1201
232.200	99
232.265	1370
232.331	690
232.396	1213
232.461	1220
232.527	842
232.592	472
232.657	1208
232.723	836
232.788	707
232.853	874
232.918	1687
232.984	1044
233.049	1588
233.114	82
233.179	1468
233.245	1358
233.310	2399
233.375	171
233.440	1010
233.506	313
233.571	-39
233.636	144
233.701	940
233.766	577
233.832	1258
233.897	144
233.962	-140
234.027	1581
234.092	1614
234.157	874
234.222	969
234.288	460
234.353	2845
234.418	3083
234.483	2910
234.548	2023
234.613	1592
234.678	830
234.743	1511
234.808	4297
234.873	1506
234.938	2440
235.004	1244
235.069	1616
235.134	767
235.199	1822
235.264	2050
235.329	-292
235.394	2435
235.459	1827
235.524	764
235.589	1608
235.654	1640
235.719	-20
235.784	1535
235.849	1430
235.913	2378
235.978	2140
236.043	2349
236.108	1080
236.173	1456
236.238	1497
236.303	782
236.368	965
236.433	2113
236.498	1500
236.563	2465
236.627	3900
236.692	14538
236.757	12995
236.822	6007
236.887	2437
236.952	4606
237.017	1915
237.081	4059
237.146	2038
237.211	7923
237.276	13806
237.341	22616
237.405	10727
237.470	5479
237.535	2612
237.600	2704
237.664	2228
237.729	1670
237.794	1615
237.859	4632
237.923	3114
237.988	1616
238.053	2641
238.118	1724
238.182	4508
238.247	5461
238.312	1667
238.376	2315
238.441	8
238.506	2546
238.570	-450
238.635	2222
238.700	963
238.764	1116
238.829	2304
238.893	2087
238.958	1932
239.023	1687
239.087	1527
239.152	1728
239.216	711
239.281	1410
239.346	1498
239.410	559
239.475	647
239.539	4564
239.604	2682
239.668	2266
239.733	431
239.797	2205
239.862	6807
239.926	5941
239.991	2845
240.055	2002
240.120	889
240.184	1078
240.249	-118
240.313	1528
240.378	716
240.442	3087
240.507	3566
240.571	1660
240.635	1648
240.700	2073
240.764	1096
240.829	1250
240.893	-139
240.957	1206
241.022	2661
241.086	4179
241.151	1067
241.215	253
241.279	2291
241.344	1072
241.408	2408
241.472	1775
241.537	3716
241.601	2493
241.665	1422
241.730	897
241.794	2298
241.858	1707
241.922	2442
241.987	3008
242.051	1379
242.115	1049
242.179	1722
242.244	1508
242.308	2042
242.372	1800
242.436	1925
242.501	1642
242.565	739
242.629	1764
242.693	2370
242.757	1255
242.822	1105
242.886	2322
242.950	2386
243.014	937
243.078	1829
243.142	1903
243.206	1193
243.271	2003
243.335	1061
243.399	2940
243.463	6028
243.527	18119
243.591	6620
243.655	2749
243.719	983
243.783	2306
243.847	3321
243.911	4154
243.975	4007
244.040	2143
244.104	2904
244.168	1032
244.232	1823
244.296	3002
244.360	3931
244.424	1540
244.488	993
244.552	1875
244.615	-20
244.679	1442
244.743	1618
244.807	1259
244.871	1251
244.935	1532
244.999	-90
245.063	1543
245.127	2060
245.191	2642
245.255	1602
245.319	2593
245.383	1673
245.446	2670
245.510	652
245.574	1901
245.638	1292
245.702	1184
245.766	4311
245.829	3175
245.893	1073
245.957	1656
246.021	1446
246.085	2251
246.149	2017
246.212	6203
246.276	7865
246.340	3708
246.404	3415
246.467	3342
246.531	2256
246.595	2864
246.659	2433
246.722	2103
246.786	3675
246.850	3480
246.913	3269
246.977	926
247.041	1304
247.104	2590
247.168	2658
247.232	6065
247.295	10687
247.359	5583
247.423	1449
247.486	4282
247.550	3013
247.614	2499
247.677	2300
247.741	2705
247.804	1846
247.868	2427
247.932	4090
247.995	9681
248.059	3855
248.122	1649
248.186	3437
248.249	5229
248.313	16128
248.376	17987
248.440	10528
248.503	4363
248.567	4384
248.630	4725
248.694	6589
248.757	9713
248.821	17848
248.884	12357
248.948	9128
249.011	14636
249.075	19550
249.138	17918
249.202	7669
249.265	4483
249.328	4825
249.392	3725
249.455	4262
249.519	3203
249.582	3808
249.645	5924
249.709	4667
249.772	3040
249.835	3011
249.899	3229
249.962	2605
250.025	2927
250.089	5980
250.152	9899
250.215	5067
250.279	3414
250.342	3327
250.405	3444
250.468	2029
250.532	3414
250.595	6393
250.658	17039
250.721	27965
250.785	11448
250.848	6881
250.911	3404
250.974	3433
251.038	5134
251.101	10982
251.164	5580
251.227	6369
251.290	5498
251.354	6969
251.417	23726
251.480	24695
251.543	17384
251.606	42504
251.669	33448
251.732	13204
251.795	14581
251.859	13553
251.922	28565
251.985	16981
252.048	8102
252.111	5425
252.174	4197
252.237	10314
252.300	20047
252.363	19457
252.426	36191
252.489	16554
252.552	8019
252.615	4193
252.678	6342
252.741	15333
252.804	17487
252.867	36495
252.930	23959
252.993	13080
253.056	9285
253.119	5448
253.182	3487
253.245	6109
253.308	5569
253.371	3564
253.434	4265
253.497	3962
253.559	9446
253.622	5422
253.685	7552
253.748	8314
253.811	4023
253.874	4195
253.937	4130
254.000	3766
254.062	6760
254.125	9264
254.188	9958
254.251	7853
254.314	3080
254.376	5797
254.439	8348
254.502	6339
254.565	6615
254.628	12950
254.690	6267
254.753	2881
254.816	3712
254.878	2763
254.941	6574
255.004	7383
255.067	3312
255.129	2896
255.192	1577
255.255	835
255.317	2148
255.380	1835
255.443	1541
255.505	882
255.568	1064
255.631	905
255.693	1984
255.756	965
255.819	2587
255.881	239
255.944	2498
256.006	1232
256.069	1134
256.132	570
256.194	1936
256.257	3202
256.319	2919
256.382	1931
256.444	2947
256.507	2664
256.569	1426
256.632	2369
256.694	2646
256.757	8618
256.819	25690
256.882	10454
256.944	5055
257.007	3534
257.069	3224
257.132	1899
257.194	3472
257.257	2035
257.319	1615
257.381	1863
257.444	7325
257.506	27464
257.569	32726
257.631	14428
257.693	7699
257.756	3317
257.818	2577
257.880	1611
257.943	2213
258.005	578
258.067	1786
258.130	2186
258.192	2389
258.254	4228
258.317	2967
258.379	2044
258.441	5442
258.503	6302
258.566	4312
258.628	5255
258.690	2182
258.753	3497
258.815	4818
258.877	2787
258.939	2529
259.001	1617
259.064	2607
259.126	2121
259.188	2651
259.250	2692
259.312	2246
259.375	5447
259.437	3921
259.499	2569
259.561	1597
259.623	2600
259.685	1519
259.747	1399
259.809	4594
259.872	7681
259.934	12478
259.996	13517
260.058	4684
260.120	699
260.182	1811
260.244	1699
260.306	688
260.368	2509
260.430	1206
260.492	3332
260.554	7912
260.616	3741
260.678	7487
260.740	8694
260.802	3035
260.864	2149
260.926	1904
260.988	2633
261.050	2154
261.112	5292
261.174	12052
261.236	7016
261.298	3215
261.359	3165
261.421	5375
261.483	1717
261.545	2484
261.607	1141
261.669	1837
261.731	2106
261.793	6381
261.854	3138
261.916	3521
261.978	1097
262.040	2867
262.102	1528
262.164	1630
262.225	2004
262.287	2180
262.349	4366
262.411	4121
262.472	2638
262.534	1829
262.596	3474
262.658	2127
262.719	433
262.781	2415
262.843	2782
262.904	2277
262.966	1674
263.028	2216
263.090	7916
263.151	24946
263.213	9975
263.275	6637
263.336	1868
263.398	2203
263.459	553
263.521	1971
263.583	4353
263.644	4180
263.706	1386
263.767	335
263.829	660
263.891	723
263.952	389
264.014	1301
264.075	1596
264.137	7159
264.198	3309
264.260	1090
264.321	1367
264.383	4548
264.444	11815
264.506	3728
264.567	2033
264.629	4325
264.690	7932
264.752	3920
264.813	2148
264.875	1329
264.936	1588
264.998	1495
265.059	639
265.120	1932
265.182	1882
265.243	15007
265.305	14596
265.366	4327
265.427	1719
265.489	2750
265.550	132
265.611	1250
265.673	1006
265.734	1387
265.795	1195
265.857	1139
265.918	535
265.979	4614
266.040	22038
266.102	18903
266.163	6263
266.224	3737
266.286	1724
266.347	1385
266.408	1334
266.469	1248
266.530	523
266.592	2106
266.653	3140
266.714	5369
266.775	1518
266.836	1940
266.898	205
266.959	2763
267.020	1692
267.081	2479
267.142	639
267.203	1495
267.264	-206
267.326	3361
267.387	1265
267.448	678
267.509	353
267.570	1207
267.631	451
267.692	432
267.753	1025
267.814	1106
267.875	3408
267.936	7502
267.997	3488
268.058	3876
268.119	2144
268.180	1730
268.241	582
268.302	1099
268.363	320
268.424	1356
268.485	566
268.546	835
268.607	207
268.668	1210
268.729	602
268.790	1656
268.851	952
268.912	4236
268.972	5079
269.033	2669
269.094	1140
269.155	1191
269.216	206
269.277	1007
269.338	500
269.398	1446
269.459	336
269.520	2366
269.581	2514
269.642	4009
269.702	2278
269.763	2444
269.824	1145
269.885	2341
269.945	3283
270.006	1132
270.067	327
270.128	1431
270.188	978
270.249	578
270.310	481
270.370	2047
270.431	674
270.492	518
270.553	177
270.613	2797
270.674	7335
270.734	2274
270.795	979
270.856	2628
270.916	1456
270.977	1489
271.038	1744
271.098	1826
271.159	2810
271.219	2945
271.280	1223
271.340	1413
271.401	624
271.462	2732
271.522	1606
271.583	2363
271.643	1418
271.704	1423
271.764	1040
271.825	5643
271.885	17080
271.946	23507
272.006	8117
272.066	10073
272.127	17494
272.187	6955
272.248	2948
272.308	3048
272.369	11472
272.429	6178
272.489	4555
272.550	5853
272.610	5657
272.671	4147
272.731	2551
272.791	4343
272.852	3277
272.912	3275
272.972	2090
273.033	1417
273.093	1811
273.153	3889
273.214	2445
273.274	2101
273.334	8336
273.394	17497
273.455	7325
273.515	7084
273.575	14869
273.635	6240
273.696	8025
273.756	15886
273.816	6195
273.876	4695
273.936	3963
273.997	7682
274.057	2910
274.117	2280
274.177	3778
274.237	20542
274.297	17235
274.358	9100
274.418	13352
274.478	10877
274.538	3712
274.598	1942
274.658	4881
274.718	8108
274.778	3260
274.838	1496
274.898	2320
274.958	9541
275.018	14363
275.078	11047
275.138	3605
275.198	1636
275.258	1121
275.318	2989
275.378	5179
275.438	6501
275.498	3260
275.558	4644
275.618	12477
275.678	11250
275.738	7342
275.798	6070
275.858	2358
275.918	1568
275.978	1894
276.038	1382
276.098	1376
276.157	3005
276.217	12468
276.277	5495
276.337	3913
276.397	1639
276.457	2788
276.517	2365
276.576	1010
276.636	776
276.696	2283
276.756	6290
276.815	4669
276.875	2215
276.935	1766
276.995	2362
277.055	1668
277.114	1757
277.174	3252
277.234	10848
277.293	3674
277.353	2192
277.413	1524
277.472	1811
277.532	1920
277.592	2471
277.651	8600
277.711	18371
277.771	5473
277.830	21402
277.890	15167
277.950	10626
278.009	31120
278.069	12400
278.128	11951
278.188	18466
278.248	7016
278.307	19451
278.367	11983
278.426	3413
278.486	2712
278.545	1882
278.605	1463
278.664	1780
278.724	1332
278.783	6261
278.843	17012
278.902	5681
278.962	2695
279.021	3647
279.081	2724
279.140	3750
279.199	3320
279.259	4179
279.318	3370
279.378	5313
279.437	6175
279.496	26154
279.556	65512
279.615	49922
279.675	14891
279.734	8201
279.793	11993
279.853	21463
279.912	8608
279.971	4322
280.031	3790
280.090	8592
280.149	15280
280.208	8769
280.268	42842
280.327	45409
280.386	9985
280.445	9105
280.505	8605
280.564	4225
280.623	2614
280.682	4839
280.742	10012
280.801	3072
280.860	2241
280.919	2023
280.978	1723
281.037	1515
281.097	773
281.156	1662
281.215	1277
281.274	2103
281.333	10431
281.392	8568
281.451	1706
281.510	1169
281.569	1138
281.628	993
281.688	1258
281.747	2007
281.806	1572
281.865	1460
281.924	355
281.983	1622
282.042	169
282.101	1282
282.160	792
282.219	1157
282.278	305
282.337	6958
282.396	3992
282.454	2103
282.513	2084
282.572	10566
282.631	5733
282.690	1695
282.749	655
282.808	2204
282.867	1894
282.926	2283
282.985	489
283.043	1037
283.102	1053
283.161	2034
283.220	4368
283.279	12284
283.338	3303
283.396	1839
283.455	1942
283.514	1854
283.573	4501
283.631	2366
283.690	587
283.749	2042
283.808	5334
283.866	6458
283.925	2286
283.984	2217
284.043	2855
284.101	3555
284.160	1689
284.219	3472
284.277	3285
284.336	4563
284.395	15540
284.453	12281
284.512	5533
284.570	7085
284.629	5465
284.688	6423
284.746	6644
284.805	8591
284.863	9990
284.922	14336
284.981	16579
285.039	25367
285.098	40708
285.156	79199
285.215	95028
285.273	97127
285.332	87513
285.390	52589
285.449	34238
285.507	22325
285.566	15842
285.624	11392
285.683	8106
285.741	7938
285.799	6212
285.858	6177
285.916	4908
285.975	4194
286.033	3757
286.091	3664
286.150	2061
286.208	3112
286.267	2476
286.325	2569
286.383	4784
286.442	4776
286.500	2005
286.558	2129
286.616	1394
286.675	3055
286.733	1979
286.791	2162
286.850	2283
286.908	3362
286.966	5337
287.024	2232
287.083	1336
287.141	883
287.199	1354
287.257	3108
287.315	1524
287.374	2156
287.432	6961
287.490	5517
287.548	2332
287.606	1498
287.664	816
287.723	2238
287.781	3848
287.839	1931
287.897	2534
287.955	2464
288.013	2740
288.071	6774
288.129	35342
288.187	103817
288.245	47163
288.303	16487
288.361	8558
288.419	5344
288.477	2644
288.535	2556
288.593	1791
288.651	1584
288.709	741
288.767	1563
288.825	706
288.883	1379
288.941	171
288.999	912
289.057	662
289.115	377
289.173	574
289.231	1622
289.289	675
289.346	1134
289.404	1030
289.462	3463
289.520	3163
289.578	1907
289.636	299
289.694	861
289.751	781
289.809	256
289.867	1187
289.925	2112
289.983	2007
290.040	1036
290.098	-230
290.156	1656
290.214	1122
290.271	862
290.329	659
290.387	388
290.444	-614
290.502	346
290.560	1014
290.617	1292
290.675	80
290.733	466
290.790	777
290.848	617
290.906	452
290.963	1158
291.021	414
291.078	39
291.136	1068
291.194	5815
291.251	13887
291.309	3049
291.366	1394
291.424	1127
291.481	1028
291.539	1336
291.596	557
291.654	432
291.711	140
291.769	983
291.826	2790
291.884	1942
291.941	42
291.999	1142
292.056	557
292.114	945
292.171	326
292.228	1599
292.286	1315
292.343	2965
292.401	3740
292.458	2215
292.515	564
292.573	2433
292.630	1679
292.687	1470
292.745	689
292.802	1264
292.859	6386
292.917	12290
292.974	7078
293.031	2504
293.089	600
293.146	1068
293.203	67
293.260	820
293.318	473
293.375	3319
293.432	596
293.489	1912
293.546	958
293.604	1813
293.661	6557
293.718	21302
293.775	9547
293.832	4715
293.889	3052
293.947	3272
294.004	2078
294.061	1993
294.118	5300
294.175	14211
294.232	18138
294.289	6646
294.346	2950
294.403	3150
294.460	1407
294.517	1194
294.574	849
294.631	1446
294.688	1486
294.745	5139
294.802	23015
294.859	27199
294.916	9119
294.973	4486
295.030	3158
295.087	2542
295.144	2000
295.201	1743
295.258	565
295.315	2375
295.372	8166
295.429	15973
295.486	7481
295.542	3916
295.599	10845
295.656	19492
295.713	12219
295.770	17066
295.827	5463
295.883	3479
295.940	1910
295.997	4542
296.054	3723
296.111	2703
296.167	1412
296.224	801
296.281	969
296.338	1289
296.394	762
296.451	1249
296.508	6417
296.564	14039
296.621	8853
296.678	19678
296.734	27914
296.791	10410
296.848	4692
296.904	4175
296.961	12223
297.018	18891
297.074	13315
297.131	5574
297.187	2660
297.244	4705
297.301	17374
297.357	31729
297.414	11772
297.470	4612
297.527	2866
297.583	1909
297.640	2257
297.696	1466
297.753	740
297.809	1209
297.866	586
297.922	1349
297.979	153
298.035	1815
298.092	1816
298.148	10433
298.204	9761
298.261	5029
298.317	8122
298.374	23435
298.430	13107
298.486	5270
298.543	2450
298.599	3181
298.656	3029
298.712	7068
298.768	16919
298.824	11055
298.881	3629
298.937	2540
298.993	1861
299.050	3368
299.106	2302
299.162	2527
299.218	1976
299.275	1741
299.331	1869
299.387	5426
299.443	20738
299.500	23405
299.556	9873
299.612	4304
299.668	2666
299.724	6946
299.780	5927
299.837	2694
299.893	3149
299.949	19042
300.005	20724
300.061	17370
300.117	29733
300.173	13885
300.229	6698
300.285	8221
300.341	8414
300.397	4370
300.453	1698
300.510	2475
300.566	1438
300.622	2796
300.678	11935
300.734	23170
300.790	17197
300.845	20158
300.901	13423
300.957	20469
301.013	14373
301.069	5488
301.125	3659
301.181	2949
301.237	2986
301.293	2169
301.349	1491
301.405	1789
301.461	1578
301.516	3352
301.572	2199
301.628	5202
301.684	4141
301.740	6087
301.796	11920
301.851	7592
301.907	12020
301.963	11688
302.019	20155
302.074	55377
302.130	55933
302.186	26246
302.242	10825
302.297	6203
302.353	6208
302.409	11928
302.464	9916
302.520	7948
302.576	19728
302.631	23929
302.687	13769
302.743	6271
302.798	3650
302.854	2424
302.910	1887
302.965	3002
303.021	7674
303.076	5787
303.132	7447
303.187	9536
303.243	4227
303.299	3075
303.354	1493
303.410	2589
303.465	1652
303.521	2162
303.576	1502
303.632	3123
303.687	4929
303.743	19012
303.798	14980
303.853	7133
303.909	3055
303.964	2487
304.020	4479
304.075	7569
304.130	5970
304.186	12012
304.241	13282
304.297	10572
304.352	5549
304.358	5324
304.407	3494
304.449	3051
304.463	2905
304.518	3586
304.539	3216
304.573	2607
304.629	2050
304.630	2082
304.684	3714
304.720	11126
304.739	14826
304.794	21360
304.811	18140
304.850	10403
304.902	4447
304.905	4074
304.960	2931
304.992	2561
305.015	2276
305.071	3269
305.083	3057
305.126	2229
305.173	1830
305.181	1784
305.236	1775
305.264	1767
305.292	1763
305.347	2635
305.354	2733
305.402	3282
305.445	2883
305.457	2783
305.512	4121
305.535	3893
305.567	3625
305.622	3516
305.626	3659
305.678	7100
305.716	16037
305.733	19240
305.788	21066
305.807	18190
305.843	13469
305.897	18180
305.898	18224
305.953	18591
305.988	12298
306.008	8920
306.063	5726
306.078	5105
306.118	3661
306.168	2364
306.173	2263
306.228	1739
306.259	1429
306.283	1154
306.338	1040
306.349	1195
306.393	1984
306.440	2604
306.448	2672
306.503	2603
306.530	2255
306.558	2821
306.613	8319
306.620	9081
306.668	13677
306.711	19267
306.723	19982
306.778	14727
306.801	11601
306.833	8279
306.888	3864
306.892	3697
306.943	2241
306.982	1628
306.997	1512
307.052	2621
307.072	2254
307.107	1812
307.162	2827
307.163	2840
307.217	4707
307.253	6097
307.272	6396
307.327	6261
307.343	5865
307.381	5106
307.434	4536
307.436	4678
307.491	9942
307.524	15140
307.546	16597
307.600	16704
307.614	14989
307.655	9136
307.704	4449
307.710	4308
307.765	4829
307.795	6427
307.819	7932
307.874	12794
307.885	12768
307.929	9966
307.975	7232
307.984	7369
308.038	10388
308.065	12719
308.093	22426
308.148	51271
308.156	57763
308.202	90717
308.246	109017
308.257	105978
308.312	57944
308.336	40297
308.366	30747
308.421	19014
308.426	18077
308.475	11785
308.517	8049
308.530	7289
308.585	6165
308.607	5770
308.639	5775
308.694	6317
308.697	6395
308.748	11283
308.787	16423
308.803	16232
308.857	12003
308.877	10065
308.912	8806
308.967	8778
308.967	8782
309.021	12704
309.058	16121
309.076	20615
309.130	37399
309.148	43958
309.185	75628
309.238	132541
309.239	132955
309.293	142833
309.328	132293
309.348	115059
309.402	57077
309.418	42532
309.457	29837
309.508	18723
309.511	18459
309.566	18054
309.598	18530
309.620	22435
309.674	35146
309.688	38405
309.729	35686
309.778	28354
309.783	27637
309.837	17999
309.868	13336
309.892	15266
309.946	22538
309.959	24843
310.001	31270
310.049	36195
310.055	34951
310.109	20460
310.139	12348
310.163	9829
310.218	6043
310.229	5428
310.272	4768
310.319	4401
310.326	4284
310.381	3370
310.409	3064
310.435	2969
310.489	2731
310.499	2703
310.543	2995
310.589	3400
310.598	3427
310.652	3473
310.679	3476
310.706	3041
310.760	2022
310.769	1873
310.814	1920
310.859	2090
310.868	2100
310.923	2033
310.948	2094
310.977	2422
311.031	2827
311.038	2904
311.085	2856
311.128	2597
311.139	2626
311.193	2863
311.218	3008
311.247	2848
311.301	2459
311.308	2408
311.356	2646
311.398	2873
311.410	2781
311.464	2257
311.488	2022
311.518	2111
311.572	2307
311.578	2336
311.626	3343
311.668	4143
311.680	4185
311.734	4302
311.758	4379
311.788	4177
311.842	3787
311.847	3738
311.896	5324
311.937	6788
311.950	6538
312.004	5316
312.027	4780
312.058	4377
312.112	3661
312.117	3586
312.165	3117
312.207	2712
312.297	4724
312.386	4032
312.476	3171
312.566	6829
312.656	3802
312.745	2405
312.835	3581
312.925	3315
313.015	2369
313.104	3094
313.194	2824
313.284	2663
313.374	3766
313.463	2659
313.553	3252
313.643	2024
313.732	2437
313.822	1808
313.912	3308
314.001	3446
314.091	3943
314.180	5479
314.270	4141
314.360	4472
314.449	3981
314.539	1586
314.628	2760
314.718	2717
314.808	4138
314.897	2712
314.987	3136
315.076	3180
315.166	4751
315.255	4471
315.345	4430
315.434	2902
315.524	3863
315.613	4125
315.703	5788
315.792	7419
315.881	19856
315.971	6898
316.060	7955
316.150	9610
316.239	9637
316.328	3894
316.418	3896
316.507	2188
316.597	4280
316.686	3767
316.775	5482
316.865	10083
316.954	3233
317.043	2869
317.133	2765
317.222	2082
317.311	3268
317.400	1512
317.490	4288
317.579	3766
317.668	3192
317.757	4955
317.847	12095
317.936	34073
318.025	15148
318.114	8215
318.203	5601
318.293	8394
318.382	17524
318.471	12678
318.560	18764
318.649	32434
318.738	6542
318.828	4064
318.917	4358
319.006	5480
319.095	15780
319.184	41016
319.273	19799
319.362	9656
319.451	3092
319.540	3547
319.629	7974
319.718	11894
319.807	5861
319.896	15366
319.985	49855
320.074	15307
320.163	4420
320.252	6549
320.341	6921
320.430	5474
320.519	7346
320.608	4123
320.697	4074
320.786	3187
320.875	4596
320.964	5079
321.053	9526
321.142	12973
321.230	13413
321.319	11005
321.408	24084
321.497	9831
321.586	9820
321.675	11343
321.764	10858
321.852	7283
321.941	13843
322.030	8603
322.119	11032
322.207	24887
322.296	16866
322.385	8373
322.474	11205
322.562	31237
322.651	14366
322.740	10042
322.829	14805
322.917	14506
323.006	8259
323.095	6598
323.183	5068
323.272	6808
323.361	14717
323.449	41861
323.538	13509
323.626	30976
323.715	15791
323.804	6872
323.892	27492
323.981	13840
324.069	4911
324.158	15021
324.246	12965
324.335	5634
324.424	8834
324.512	3678
324.601	5251
324.689	10758
324.778	18104
324.866	9737
324.954	3607
325.043	2824
325.131	5690
325.220	12192
325.308	13159
325.397	9176
325.485	6777
325.574	1810
325.662	2382
325.750	2582
325.839	2966
325.927	2108
326.015	2805
326.104	4560
326.192	6439
326.280	2792
326.369	2717
326.457	3410
326.545	7513
326.634	2935
326.722	2480
326.810	1923
326.898	1995
326.987	2875
327.075	6471
327.163	6204
327.251	3287
327.340	7683
327.428	10167
327.516	1914
327.604	2998
327.692	1784
327.781	3002
327.869	5131
327.957	3447
328.045	3271
328.133	2223
328.221	2476
328.309	2839
328.397	2010
328.485	3067
328.574	4143
328.662	15742
328.750	7509
328.838	3160
328.926	1672
329.014	1680
329.102	3790
329.190	9686
329.278	5365
329.366	2647
329.454	1740
329.542	2541
329.630	2136
329.718	3234
329.806	2818
329.893	3341
329.981	3424
330.069	5886
330.157	28042
330.245	78628
330.333	38242
330.421	6847
330.509	5051
330.597	19086
330.684	11083
330.772	4713
330.860	5381
330.948	8609
331.036	3949
331.123	1292
331.211	1900
331.299	2347
331.387	6825
331.475	12558
331.562	3204
331.650	1796
331.738	2734
331.825	3817
331.913	1249
332.001	1640
332.089	2214
332.176	5796
332.264	13607
332.352	10881
332.439	3422
332.527	2166
332.614	2115
332.702	3084
332.790	2174
332.877	6400
332.965	14233
333.052	4793
333.140	4520
333.228	13640
333.315	3724
333.403	2454
333.490	8178
333.578	8117
333.665	16863
333.753	7245
333.840	1720
333.928	3036
334.015	8766
334.103	15707
334.190	49786
334.278	12023
334.365	5359
334.452	5611
334.540	2579
334.627	4344
334.715	4835
334.802	9341
334.889	52436
334.977	52661
335.064	9339
335.151	4511
335.239	4446
335.326	4604
335.413	26595
335.501	33989
335.588	3852
335.675	3707
335.762	4040
335.850	7885
335.937	5144
336.024	15689
336.111	62153
336.199	29577
336.286	6093
336.373	3569
336.460	1991
336.547	2249
336.635	4055
336.722	3530
336.809	2983
336.896	4026
336.983	14377
337.070	36977
337.157	51622
337.245	34781
337.332	21567
337.419	3105
337.506	2061
337.593	2498
337.680	12210
337.767	38119
337.854	9364
337.941	10443
338.028	11593
338.115	3447
338.202	5235
338.289	9800
338.376	32945
338.463	9696
338.550	21179
338.637	22423
338.724	5857
338.811	9599
338.898	2646
338.984	2210
339.071	2601
339.158	3860
339.245	9521
339.332	5865
339.419	7685
339.506	6601
339.593	-62
339.679	3060
339.766	1775
339.853	2717
339.940	5439
340.027	2601
340.113	2427
340.200	3143
340.287	1549
340.374	3615
340.460	6260
340.547	2562
340.634	5120
340.720	17828
340.807	9340
340.894	2389
340.980	2073
341.067	1436
341.154	2132
341.240	4476
341.327	9470
341.414	3576
341.500	3396
341.587	2483
341.674	1975
341.760	6263
341.847	6918
341.933	2738
342.020	641
342.106	1388
342.193	2405
342.279	4640
342.366	2948
342.452	5721
342.539	3718
342.625	8050
342.712	18965
342.798	7779
342.885	2502
342.971	1402
343.058	904
343.144	1343
343.230	1679
343.317	2086
343.403	869
343.490	1217
343.576	870
343.662	1229
343.749	1904
343.835	2575
343.921	5453
344.008	35258
344.094	78574
344.180	15033
344.267	6015
344.353	22454
344.439	22331
344.525	8416
344.612	3277
344.698	3311
344.784	1175
344.870	2609
344.957	1196
345.043	3593
345.129	1134
345.215	5788
345.301	3487
345.387	1374
345.474	529
345.560	1608
345.646	1114
345.732	1899
345.818	1827
345.904	2398
345.990	2824
346.076	2514
346.162	4494
346.249	3132
346.335	1529
346.421	2089
346.507	8730
346.593	32812
346.679	6122
346.765	2598
346.851	1084
346.937	2008
347.023	2874
347.108	2444
347.194	1497
347.280	1948
347.366	1808
347.452	9857
347.538	38491
347.624	29296
347.710	22838
347.796	3606
347.882	1814
347.967	1995
348.053	2261
348.139	2084
348.225	824
348.311	1801
348.397	1471
348.482	2867
348.568	2276
348.654	1734
348.740	2167
348.825	2614
348.911	3805
348.997	17158
349.083	34656
349.168	5548
349.254	2611
349.340	2860
349.425	1874
349.511	1960
349.597	2100
349.682	6855
349.768	22995
349.854	10461
349.939	2588
350.025	1344
350.110	1860
350.196	1120
350.282	810
350.367	1877
350.453	3164
350.538	3187
350.624	2481
350.709	3060
350.795	1420
350.880	1001
350.966	2833
351.051	3279
351.137	2264
351.222	2544
351.308	6899
351.393	20401
351.479	5015
351.564	1763
351.649	1604
351.735	1063
351.820	648
351.906	1147
351.991	2932
352.076	12194
352.162	18849
352.247	3327
352.332	2039
352.418	5743
352.503	6739
352.588	28630
352.673	21836
352.759	4396
352.844	2034
352.929	3031
353.014	4318
353.100	2813
353.185	4927
353.270	6511
353.355	6710
353.441	2342
353.526	1344
353.611	5654
353.696	7162
353.781	4371
353.866	1472
353.952	2370
354.037	4689
354.122	13683
354.207	11966
354.292	4406
354.377	2073
354.462	2029
354.547	2354
354.632	3503
354.717	4297
354.802	5009
354.887	1481
354.972	2173
355.057	1155
355.142	729
355.227	2006
355.312	3609
355.397	8134
355.482	20884
355.567	9505
355.652	7157
355.737	7885
355.822	26508
355.907	20601
355.991	4647
356.076	1461
356.161	1401
356.246	1827
356.331	2449
356.416	4873
356.501	41838
356.585	42485
356.670	4865
356.755	4137
356.840	5554
356.924	28079
357.009	95766
357.094	34580
357.179	7562
357.263	4746
357.348	5772
357.433	4979
357.517	5401
357.602	3536
357.687	3123
357.771	6293
357.856	19500
357.941	11126
358.025	20994
358.110	90905
358.195	42150
358.279	5551
358.364	4097
358.448	15713
358.533	47918
358.617	33844
358.702	34307
358.787	12459
358.871	6507
358.956	5025
359.040	2741
359.125	1209
359.209	2392
359.294	9552
359.378	16321
359.462	6343
359.547	2894
359.631	2821
359.716	1840
359.800	1712
359.885	4155
359.969	1988
360.053	2640
360.138	1326
360.222	3034
360.306	5862
360.391	4773
360.475	10264
360.559	22916
360.644	16636
360.728	11967
360.812	22181
360.896	62484
360.981	24659
361.065	13237
361.149	3624
361.233	3466
361.318	2368
361.402	3150
361.486	3153
361.570	2811
361.654	2755
361.739	8742
361.823	37483
361.907	62532
361.991	9918
362.075	5742
362.159	12553
362.243	10257
362.327	10793
362.411	17464
362.495	7416
362.580	4053
362.664	2652
362.748	3074
362.832	4411
362.916	6706
363.000	26553
363.084	67953
363.168	76040
363.252	17542
363.336	6824
363.420	8849
363.503	33028
363.587	43093
363.671	7059
363.755	3679
363.839	6807
363.923	2825
364.007	7150
364.091	8801
364.175	13888
364.258	59575
364.342	46686
364.426	62422
364.510	33793
364.594	12874
364.677	13207
364.761	52506
364.845	38838
364.929	11058
365.013	9885
365.096	8691
365.180	8914
365.264	14537
365.347	54881
365.431	23789
365.515	4787
365.598	2365
365.682	3389
365.766	5318
365.849	7034
365.933	3138
366.017	5208
366.100	3251
366.184	722
366.267	2684
366.351	1777
366.435	1684
366.518	1146
366.602	1935
366.685	1893
366.769	2837
366.852	5036
366.936	9139
367.019	4603
367.103	3050
367.186	9061
367.270	1959
367.353	1089
367.436	2106
367.520	897
367.603	2471
367.687	2844
367.770	7523
367.853	4887
367.937	16787
368.020	27141
368.104	6002
368.187	4593
368.270	8824
368.353	7193
368.437	9776
368.520	21194
368.603	13545
368.687	17894
368.770	36236
368.853	9089
368.936	8928
369.020	8025
369.103	3744
369.186	1480
369.269	1991
369.352	4869
369.436	6856
369.519	4131
369.602	2010
369.685	2811
369.768	2415
369.851	2139
369.934	1983
370.018	1829
370.101	5187
370.184	6768
370.267	3909
370.350	6839
370.433	10780
370.516	28363
370.599	37810
370.682	9607
370.765	18662
370.848	23090
370.931	43427
371.014	17435
371.097	2820
371.180	2824
371.263	2690
371.346	79
371.429	1433
371.511	1660
371.594	4296
371.677	7366
371.760	9820
371.843	7909
371.926	33088
372.009	74758
372.091	27194
372.174	16925
372.257	40644
372.340	16297
372.423	11839
372.505	14164
372.588	6475
372.671	14135
372.754	42768
372.836	22510
372.919	16770
373.002	33742
373.085	9539
373.167	6654
373.250	17825
373.332	40431
373.415	51613
373.498	100184
373.580	39558
373.663	49688
373.746	67428
373.828	14073
373.911	6773
373.993	7400
374.076	30642
374.159	29984
374.241	12404
374.324	35425
374.406	24096
374.489	30261
374.571	84806
374.654	36612
374.736	16515
374.819	50767
374.901	74289
374.983	76781
375.066	13437
375.148	5809
375.231	25079
375.313	49412
375.395	17337
375.478	4208
375.560	3130
375.643	4464
375.725	15837
375.807	63497
375.890	54013
375.972	18952
376.054	10558
376.136	16878
376.219	8792
376.301	19938
376.383	56645
376.465	23173
376.548	11702
376.630	16258
376.712	47821
376.794	23363
376.877	2878
376.959	627
377.041	2932
377.123	5348
377.205	8206
377.287	722
377.369	1302
377.452	1016
377.534	1533
377.616	1686
377.698	1871
377.780	1268
377.862	1983
377.944	2592
378.026	1320
378.108	865
378.190	1281
378.272	1512
378.354	1032
378.436	160
378.518	2966
378.600	12768
378.682	12182
378.764	23955
378.846	20939
378.928	5143
379.010	6943
379.091	4031
379.173	1680
379.255	247
379.337	2877
379.419	11403
379.501	35505
379.583	14118
379.664	3713
379.746	6884
379.828	25154
379.910	33257
379.991	29959
380.073	4265
380.155	2975
380.237	1398
380.318	1586
380.400	1825
380.482	4772
380.564	7832
380.645	7215
380.727	7244
380.809	5138
380.890	2373
380.972	1561
381.053	1801
381.135	3846
381.217	7954
381.298	25950
381.380	13538
381.461	10174
381.543	46776
381.624	59774
381.706	11217
381.787	5683
381.869	7038
381.951	20936
382.032	75650
382.113	51953
382.195	9681
382.276	8686
382.358	16191
382.439	43750
382.521	50249
382.602	75184
382.684	37261
382.765	64081
382.846	80942
382.928	127743
383.009	73932
383.090	48941
383.172	169505
383.253	260656
383.334	91749
383.416	72256
383.497	40858
383.578	20505
383.659	41241
383.741	148115
383.822	353722
383.903	197297
383.984	60258
384.066	87322
384.147	54721
384.228	13151
384.309	8316
384.390	6733
384.471	4594
384.553	6110
384.634	6917
384.715	7702
384.796	3634
384.877	6211
384.958	22725
385.039	28510
385.120	10415
385.201	5261
385.282	5175
385.363	6582
385.444	5300
385.525	11735
385.606	34052
385.687	31230
385.768	8096
385.849	9500
385.930	36011
386.011	64307
386.092	16611
386.173	4466
386.254	3414
386.335	5108
386.416	4453
386.496	15760
386.577	26757
386.658	9542
386.739	4308
386.820	5464
386.901	3897
386.981	3772
387.062	3088
387.143	5433
387.224	24048
387.304	24880
387.385	9121
387.466	4692
387.547	7974
387.627	5348
387.708	10148
387.789	42651
387.869	52982
387.950	15445
388.031	2216
388.111	1277
388.192	8730
388.273	12076
388.353	7200
388.434	3553
388.514	8449
388.595	38459
388.676	51844
388.756	25106
388.837	20937
388.917	13778
388.998	1153
389.078	3580
389.159	2383
389.239	1596
389.320	4695
389.400	2571
389.480	10123
389.561	26035
389.641	14113
389.722	4135
389.802	6298
389.883	12165
389.963	31610
390.043	20728
390.124	5526
390.204	9127
390.284	26838
390.365	19059
390.445	20898
390.525	50241
390.605	45843
390.686	13818
390.766	6274
390.846	3297
390.927	1468
391.007	1113
391.087	4506
391.167	4234
391.247	2536
391.328	4392
391.408	7391
391.488	5470
391.568	880
391.648	2868
391.728	5454
391.808	5510
391.888	4744
391.969	14581
392.049	24609
392.129	12177
392.209	12488
392.289	29857
392.369	18117
392.449	15318
392.529	9278
392.609	7650
392.689	10151
392.769	29667
392.849	27528
392.929	19268
393.009	43624
393.089	36748
393.169	32892
393.248	104274
393.328	346185
393.408	386043
393.488	117567
393.568	32234
393.648	15009
393.728	10153
393.807	6284
393.887	7129
393.967	5432
394.047	6582
394.127	6517
394.206	12322
394.286	43754
394.366	177329
394.446	202720
394.525	49447
394.605	11565
394.685	9829
394.764	20398
394.844	34174
394.924	27125
395.003	8130
395.083	5176
395.163	4051
395.242	3506
395.322	5329
395.402	1793
395.481	6288
395.561	13625
395.640	38274
395.720	35126
395.799	42588
395.879	34597
395.958	18256
396.038	63607
396.117	233926
396.197	267657
396.276	82345
396.356	26639
396.435	18163
396.515	13410
396.594	15381
396.673	29579
396.753	106894
396.832	315523
396.912	252834
396.991	63273
397.070	17199
397.150	7927
397.229	7872
397.308	10575
397.388	18745
397.467	10213
397.546	4139
397.625	1536
397.705	5052
397.784	3784
397.863	2295
397.942	1570
398.022	2440
398.101	11278
398.180	35104
398.259	19554
398.338	5332
398.417	2009
398.497	1434
398.576	2545
398.655	1179
398.734	1522
398.813	2308
398.892	11510
398.971	38155
399.050	19659
399.129	1904
399.208	1232
399.287	1716
399.366	-416
399.445	1873
399.524	1412
399.603	847
399.682	2763
399.761	11526
399.840	39860
399.919	33496
399.998	3785
400.077	1060
400.156	152
400.235	4150
400.313	338
400.392	1630
400.471	11963
400.550	21475
400.629	5058
400.708	2253
400.786	2708
400.865	7476
400.944	7542
401.023	5401
401.102	-441
401.180	281
401.259	831
401.338	2183
401.416	2769
401.495	1350
401.574	1966
401.652	1157
401.731	2142
401.810	1258
401.888	25
401.967	219
402.046	1043
402.124	2560
402.203	3062
402.281	1983
402.360	3369
402.438	10476
402.517	6688
402.596	2126
402.674	1450
402.753	803
402.831	1546
402.910	2223
402.988	9907
403.066	33064
403.145	21283
403.223	11225
403.302	27318
403.380	22116
403.459	20815
403.537	8546
403.615	2315
403.694	-159
403.772	432
403.850	643
403.929	-8
404.007	662
404.085	3612
404.164	3068
404.242	1168
404.320	3049
404.398	6669
404.477	14415
404.555	59195
404.633	54893
404.711	9043
404.789	2744
404.868	815
404.946	648
405.024	1015
405.102	161
405.180	-793
405.258	-538
405.336	696
405.415	118
405.493	3249
405.571	3432
405.649	574
405.727	42
405.805	2542
405.883	2060
405.961	2041
406.039	2931
406.117	932
406.195	2881
406.273	12761
406.351	51344
406.429	33737
406.507	5305
406.585	983
406.663	1665
406.740	1574
406.818	1168
406.896	188
406.974	1853
407.052	3852
407.130	29265
407.208	43068
407.285	9068
407.363	473
407.441	1235
407.519	255
407.596	1982
407.674	6980
407.752	25417
407.830	25521
407.907	7560
407.985	1551
408.063	1108
408.141	-203
408.218	3072
408.296	2154
408.373	1680
408.451	908
408.529	1905
408.606	122
408.684	419
408.762	-93
408.839	141
408.917	-432
408.994	350
409.072	-65
409.149	1283
409.227	1894
409.304	2751
409.382	2680
409.459	2974
409.537	4852
409.614	4564
409.692	1855
409.769	2235
409.846	3976
409.924	7383
410.001	3425
410.079	2873
410.156	2445
410.233	2129
410.311	429
410.388	1059
410.465	1867
410.543	1433
410.620	290
410.697	615
410.775	1131
410.852	-169
410.929	1993
411.006	2994
411.083	1272
411.161	4656
411.238	4618
411.315	1988
411.392	400
411.469	2521
411.547	2437
411.624	1276
411.701	1259
411.778	1735
411.855	2587
411.932	1402
412.009	51
412.086	490
412.163	459
412.240	1136
412.317	2918
412.394	1066
412.471	771
412.548	397
412.625	-289
412.702	1061
412.779	2938
412.856	1263
412.933	19
413.010	-22
413.087	1381
413.164	11687
413.241	17048
413.318	2760
413.395	2021
413.471	2856
413.548	752
413.625	1209
413.702	187
413.779	715
413.855	-94
413.932	-375
414.009	-1035
414.086	189
414.162	402
414.239	1695
414.316	10464
414.393	26666
414.469	8336
414.546	206
414.623	-3
414.699	-216
414.776	443
414.853	340
414.929	613
415.006	-185
415.082	35
415.159	946
415.236	573
415.312	900
415.389	1714
415.465	3067
415.542	1418
415.618	376
415.695	2129
415.771	745
415.848	-110
415.924	964
416.000	-720
416.077	958
416.153	-1282
416.230	-944
416.306	-436
416.383	-192
416.459	358
416.535	-163
416.612	-544
416.688	74
416.764	-740
416.841	-713
416.917	403
416.993	819
417.069	825
417.146	1076
417.222	1051
417.298	1028
417.374	181
417.451	895
417.527	-81
417.603	1125
417.679	746
417.755	132
417.831	-687
417.908	504
417.984	-335
418.060	-416
418.136	2285
418.212	3895
418.288	325
418.364	1152
418.440	-68
418.516	1647
418.592	1674
418.668	4743
418.744	6151
418.820	5125
418.896	633
418.972	-647
419.048	108
419.124	4282
419.200	896
419.276	-214
419.352	-284
419.428	411
419.504	-407
419.579	942
419.655	-306
419.731	1013
419.807	4370
419.883	7856
419.959	5690
420.034	1627
420.110	2994
420.186	15284
420.262	12943
420.337	2441
420.413	907
420.489	1059
420.565	1049
420.640	684
420.716	544
420.792	-359
420.867	1476
420.943	94
421.019	2217
421.094	1429
421.170	560
421.245	614
421.321	1004
421.397	1536
421.472	5787
421.548	14478
421.623	10642
421.699	3261
421.774	1887
421.850	1980
421.925	3407
422.001	4113
422.076	3324
422.152	4840
422.227	6975
422.302	10287
422.378	15000
422.453	28666
422.529	69997
422.604	179540
422.679	262139
422.755	194725
422.830	78623
422.905	31763
422.981	16164
423.056	10924
423.131	7886
423.207	5572
423.282	4349
423.357	7250
423.432	4470
423.508	5286
423.583	7873
423.658	7014
423.733	2081
423.808	2707
423.883	2423
423.959	3407
424.034	1947
424.109	1697
424.184	235
424.259	226
424.334	528
424.409	-40
424.484	546
424.559	1482
424.634	-412
424.709	2137
424.784	1642
424.859	650
424.934	2262
425.009	10646
425.084	18333
425.159	7243
425.234	884
425.309	64
425.384	5014
425.459	7450
425.534	2352
425.609	188
425.683	337
425.758	354
425.833	297
425.908	1603
425.983	5962
426.058	18551
426.132	8371
426.207	1756
426.282	3487
426.357	2247
426.431	381
426.506	904
426.581	702
426.655	1206
426.730	136
426.805	-151
426.879	51
426.954	893
427.029	2872
427.103	18400
427.178	44943
427.253	21892
427.327	2044
427.402	2492
427.476	8446
427.551	4666
427.625	209
427.700	858
427.774	-487
427.849	548
427.923	99
427.998	24
428.072	726
428.147	4571
428.221	19184
428.296	58097
428.370	33193
428.444	4059
428.519	3626
428.593	7363
428.667	6732
428.742	8095
428.816	10069
428.890	36230
428.965	61145
429.039	19641
429.113	9227
429.188	3256
429.262	94
429.336	2258
429.410	7880
429.485	6717
429.559	6034
429.633	5553
429.707	1349
429.781	6802
429.855	37041
429.930	61353
430.004	28481
430.078	38671
430.152	39410
430.226	71558
430.300	77632
430.374	12513
430.448	3427
430.522	11640
430.596	35523
430.670	27018
430.744	58264
430.818	85603
430.892	17178
430.966	1813
431.040	1129
431.114	-393
431.188	-763
431.262	-505
431.336	-119
431.410	3756
431.484	8631
431.557	6810
431.631	516
431.705	1420
431.779	10146
431.853	50153
431.927	39044
432.000	4601
432.074	-42
432.148	762
432.222	413
432.295	447
432.369	229
432.443	1628
432.516	17349
432.590	46833
432.664	18551
432.737	1619
432.811	-539
432.885	-1340
432.958	349
433.032	321
433.106	-359
433.179	267
433.253	-407
433.326	-567
433.400	-79
433.473	-521
433.547	-1179
433.620	33
433.694	1102
433.767	1834
433.841	-327
433.914	-569
433.988	-844
434.061	485
434.134	-31
434.208	-170
434.281	-1136
434.355	-1096
434.428	-157
434.501	-371
434.575	-657
434.648	222
434.721	-934
434.795	-664
434.868	-1259
434.941	-548
435.014	-405
435.088	-140
435.161	367
435.234	1658
435.307	1928
435.381	605
435.454	631
435.527	1575
435.600	1599
435.673	1400
435.746	999
435.819	-18
435.892	-78
435.966	541
436.039	-294
436.112	281
436.185	-1090
436.258	225
436.331	-974
436.404	-1059
436.477	-1576
436.550	-750
436.623	-1016
436.696	-353
436.769	294
436.842	-525
436.915	-665
436.987	1014
437.060	444
437.133	-667
437.206	-901
437.279	197
437.352	-521
437.425	-667
437.498	149
437.570	2280
437.643	973
437.716	629
437.789	-462
437.861	1379
437.934	6748
438.007	2899
438.080	-478
438.152	434
438.225	2458
438.298	23305
438.370	65435
438.443	29739
438.516	5353
438.588	436
438.661	-810
438.734	-260
438.806	194
438.879	1133
438.951	1121
439.024	3118
439.096	519
439.169	-91
439.241	-437
439.314	44
439.386	635
439.459	1588
439.531	2386
439.604	569
439.676	-2
439.749	-878
439.821	-976
439.893	437
439.966	-430
440.038	133
440.110	253
440.183	-359
440.255	-1188
440.327	1577
440.400	10033
440.472	40917
440.544	28902
440.617	2762
440.689	2307
440.761	3274
440.833	4948
440.905	2937
440.978	-1139
441.050	-431
441.122	199
441.194	-482
441.266	-589
441.338	-186
441.411	1622
441.483	12063
441.555	19073
441.627	4219
441.699	1795
441.771	2265
441.843	-638
441.915	-718
441.987	-1145
442.059	-1535
442.131	662
442.203	2371
442.275	1741
442.347	1974
442.419	3765
442.491	25446
442.563	67136
442.635	29085
442.706	11673
442.778	8631
442.850	1043
442.922	-121
442.994	947
443.066	2308
443.137	1382
443.209	1183
443.281	2511
443.353	6890
443.425	32612
443.496	116521
443.568	119749
443.640	44097
443.711	6481
443.783	2152
443.855	457
443.926	126
443.998	219
444.070	753
444.141	593
444.213	926
444.285	2558
444.356	1129
444.428	1259
444.499	686
444.571	-833
444.642	-749
444.714	66
444.785	1650
444.857	1920
444.928	7220
445.000	4172
445.071	4752
445.143	5970
445.214	4393
445.285	6345
445.357	23255
445.428	76895
445.500	176799
445.571	114890
445.642	60178
445.714	20168
445.785	15095
445.856	3992
445.928	3986
445.999	2512
446.070	1254
446.141	1911
446.213	2604
446.284	927
446.355	1299
446.426	388
446.497	130
446.569	1343
446.640	3836
446.711	1857
446.782	-183
446.853	512
446.924	1525
446.995	15
447.066	394
447.138	1116
447.209	1185
447.280	-958
447.351	217
447.422	-959
447.493	308
447.564	548
447.635	1788
447.706	-394
447.777	178
447.847	-756
447.918	-954
447.989	43
448.060	1363
448.131	3793
448.202	3878
448.273	2064
448.344	770
448.414	-447
448.485	-642
448.556	-689
448.627	-446
448.698	-410
448.768	-506
448.839	-1123
448.910	1071
448.981	1855
449.051	328
449.122	-1226
449.193	-257
449.263	-397
449.334	-60
449.405	211
449.475	2448
449.546	1650
449.616	2137
449.687	1966
449.758	-175
449.828	-376
449.899	-157
449.969	-366
450.040	-76
450.110	-22
450.181	573
450.251	-797
450.322	9
450.392	-1040
450.463	-293
450.533	-690
450.604	-85
450.674	-250
450.744	-128
450.815	-562
450.885	-8
450.955	133
451.026	289
451.096	-503
451.166	160
451.237	1819
451.307	8691
451.377	3194
451.447	-243
451.518	-106
451.588	2
451.658	-690
451.728	1207
451.799	7974
451.869	10361
451.939	1312
452.009	-282
452.079	-1148
452.149	-283
452.219	1916
452.289	10622
452.360	8786
452.430	820
452.500	-674
452.570	649
452.640	2552
452.710	9633
452.780	13675
452.850	8940
452.920	6225
452.990	2338
453.060	96
453.129	1084
453.199	1742
453.269	11697
453.339	28113
453.409	44573
453.479	39644
453.549	60698
453.619	65612
453.688	28745
453.758	3003
453.828	356
453.898	-350
453.968	-266
454.037	-103
454.087	-72
454.107	-71
454.168	-889
454.177	-1031
454.247	-794
454.249	-793
454.316	-1337
454.330	-935
454.386	427
454.411	1918
454.456	4121
454.492	6254
454.525	8186
454.574	4237
454.595	2539
454.655	936
454.665	688
454.734	763
454.736	861
454.804	2545
454.817	4060
454.873	9291
454.898	10158
454.943	11830
454.979	7209
455.013	3189
455.060	1575
455.082	960
455.141	1305
455.152	1250
455.221	7645
455.222	7806
455.291	13389
455.303	12622
455.360	9465
455.384	9863
455.430	9688
455.465	8973
455.499	8364
455.546	8982
455.569	8898
455.627	6437
455.638	6140
455.707	522
455.708	537
455.777	431
455.789	401
455.846	150
455.869	198
455.916	316
455.950	272
455.985	170
456.031	259
456.054	279
456.112	585
456.124	664
456.193	1147
456.193	1132
456.262	496
456.274	715
456.332	1617
456.355	1321
456.401	655
456.436	772
456.470	743
456.516	29
456.540	-223
456.597	-293
456.609	-329
456.678	55
456.678	42
456.747	-325
456.759	-287
456.817	-180
456.840	-53
456.886	275
456.920	90
456.955	-117
457.001	688
457.024	1073
457.082	759
457.093	676
457.162	1909
457.163	1926
457.232	1386
457.243	1355
457.301	970
457.324	487
457.370	63
457.405	360
457.439	515
457.485	670
457.508	792
457.566	1378
457.577	1540
457.646	1996
457.647	2026
457.715	4359
457.727	4746
457.784	7011
457.808	9226
457.853	11642
457.889	13206
457.922	13625
457.969	9678
457.991	9475
458.050	11226
458.060	11578
458.129	20176
458.130	20429
458.198	19292
458.211	16975
458.267	10133
458.292	7162
458.336	4268
458.372	4456
458.405	6514
458.453	9996
458.474	12051
458.533	20306
458.543	20725
458.611	32421
458.614	32542
458.680	20944
458.694	16383
458.749	7228
458.775	5260
458.818	2853
458.855	2108
458.887	1633
458.936	1911
458.955	2012
459.016	1601
459.024	1578
459.093	2091
459.097	2099
459.162	1722
459.177	1877
459.230	2541
459.257	2528
459.299	2506
459.338	2946
459.368	3173
459.418	3164
459.437	2911
459.499	2420
459.505	2434
459.574	1517
459.579	1556
459.643	2366
459.659	2382
459.711	2158
459.740	2189
459.780	2322
459.820	2437
459.849	2436
459.900	2609
459.917	2692
459.981	2957
459.986	2921
460.054	2888
460.061	2846
460.123	3725
460.141	3914
460.191	3986
460.222	4103
460.260	4361
460.302	5414
460.328	5406
460.382	4720
460.397	4981
460.462	5250
460.465	5474
460.534	11435
460.543	12285
460.602	27787
460.623	33666
460.671	51949
460.703	68500
460.739	55693
460.783	34769
460.808	29935
460.864	7774
460.876	5722
460.944	3039
460.945	3007
461.013	3299
461.024	3268
461.081	2754
461.104	2720
461.150	2498
461.184	2365
461.218	2556
461.264	2511
461.286	2457
461.345	2471
461.355	2444
461.423	2691
461.425	2674
461.491	3054
461.505	3412
461.559	7334
461.585	8812
461.628	13632
461.665	18865
461.696	18832
461.745	20012
461.764	17819
461.825	6966
461.832	6859
461.901	3569
461.905	3589
461.969	2986
461.985	2690
462.037	3263
462.065	3716
462.105	4141
462.145	4703
462.173	6702
462.225	10284
462.241	11067
462.305	15372
462.310	14892
462.378	6943
462.385	5783
462.446	3957
462.465	3717
462.514	3613
462.545	3715
462.582	3564
462.625	3445
462.650	3331
462.705	3081
462.718	3262
462.785	4281
462.786	4313
462.854	5593
462.865	5903
462.922	6622
462.945	7069
462.990	5857
463.025	4290
463.058	3568
463.104	2706
463.126	2748
463.184	2948
463.194	3044
463.262	3464
463.264	3500
463.330	4332
463.344	4349
463.398	4503
463.424	4761
463.466	4702
463.504	4700
463.533	4859
463.583	4958
463.601	5116
463.663	5150
463.669	5247
463.737	7065
463.743	7207
463.805	12005
463.823	13516
463.873	19365
463.903	22799
463.940	21586
463.982	20981
464.008	16989
464.062	6771
464.076	6373
464.142	3757
464.144	3730
464.211	3633
464.221	3664
464.279	4417
464.301	4744
464.347	4935
464.381	5008
464.414	5682
464.461	6664
464.482	6491
464.540	6018
464.550	6001
464.617	5724
464.620	5704
464.685	6464
464.699	6622
464.753	8042
464.779	8799
464.820	9272
464.859	9640
464.888	9438
464.938	9176
464.956	9358
465.018	9653
465.023	9495
465.091	7433
465.098	7188
465.158	7605
465.177	7807
465.226	7811
465.257	7697
465.293	7824
465.336	7957
465.361	8698
465.416	10307
465.428	11205
465.495	16141
465.496	16227
465.563	25361
465.575	26939
465.631	29055
465.654	30102
465.698	19353
465.734	9806
465.765	9264
465.813	8127
465.833	7734
465.893	7231
465.900	7297
465.968	7757
465.972	7773
466.035	7295
466.052	7145
466.102	7815
466.131	8200
466.170	7950
466.210	7609
466.237	8095
466.290	9054
466.304	9260
466.369	10017
466.372	10050
466.439	10495
466.449	10531
466.506	12457
466.528	13172
466.573	17988
466.607	21532
466.641	29111
466.687	39663
466.708	40820
466.766	43883
466.775	40654
466.842	15735
466.845	14519
466.909	12858
466.925	12506
466.977	12375
467.004	12331
467.044	12720
467.083	13086
467.111	14060
467.163	15778
467.178	15824
467.242	15897
467.245	15896
467.312	15253
467.321	15140
467.379	14392
467.400	14081
467.446	14833
467.480	15328
467.559	11988
467.638	12554
467.717	11826
467.796	13066
467.875	12633
467.955	14281
468.034	23240
468.113	44362
468.192	55831
468.271	14160
468.350	12146
468.429	13414
468.508	13716
468.588	11952
468.667	11516
468.746	11052
468.825	9890
468.904	9921
468.983	12860
469.062	18621
469.141	18284
469.220	9742
469.299	10445
469.378	11215
469.456	13267
469.535	11416
469.614	11252
469.693	12533
469.772	14593
469.851	19905
469.930	12459
470.009	11154
470.088	10377
470.166	12825
470.245	15673
470.324	16378
470.403	12551
470.482	11004
470.560	9875
470.639	9483
470.718	11267
470.797	10359
470.875	11766
470.954	15042
471.033	15223
471.111	7965
471.190	9028
471.269	8583
471.347	7752
471.426	9510
471.505	10992
471.583	10895
471.662	10223
471.740	10025
471.819	9319
471.898	8474
471.976	9396
472.055	9791
472.133	11541
472.212	14673
472.290	13146
472.369	9514
472.447	8316
472.526	7684
472.604	9280
472.683	9415
472.761	8841
472.839	8869
472.918	8839
472.996	9860
473.075	11590
473.153	9848
473.231	8802
473.310	9585
473.388	9642
473.466	9997
473.545	10649
473.623	12293
473.701	10170
473.780	9456
473.858	7900
473.936	10323
474.014	8888
474.093	11343
474.171	15290
474.249	18634
474.327	11077
474.405	7179
474.484	7758
474.562	8597
474.640	8299
474.718	9733
474.796	8994
474.874	8949
474.952	7371
475.030	8571
475.108	9497
475.187	10763
475.265	10381
475.343	14441
475.421	13448
475.499	8133
475.577	9712
475.655	12873
475.733	23773
475.811	36421
475.889	31262
475.966	15968
476.044	8869
476.122	9797
476.200	13081
476.278	9656
476.356	7955
476.434	8713
476.512	10068
476.590	12224
476.667	9781
476.745	7309
476.823	8843
476.901	8530
476.979	8223
477.056	9464
477.134	9292
477.212	9788
477.290	8196
477.367	7431
477.445	7571
477.523	8249
477.601	6616
477.678	8757
477.756	10183
477.834	9467
477.911	8064
477.989	8975
478.066	7619
478.144	10052
478.222	9553
478.299	14117
478.377	11157
478.454	7315
478.532	7012
478.609	7491
478.687	7765
478.764	6903
478.842	8187
478.919	7639
478.997	7837
479.074	7199
479.152	9028
479.229	11159
479.307	6644
479.384	6066
479.461	6241
479.539	7119
479.616	8606
479.694	6724
479.771	7513
479.848	8708
479.926	10139
480.003	10844
480.080	6928
480.157	6680
480.235	6174
480.312	6942
480.389	8341
480.467	12817
480.544	14475
480.621	9210
480.698	7419
480.775	9552
480.853	9850
480.930	7720
481.007	8298
481.084	10504
481.161	12481
481.238	9097
481.315	7487
481.392	7171
481.470	6647
481.547	7240
481.624	7098
481.701	6725
481.778	6839
481.855	9137
481.932	12423
482.009	21322
482.086	10932
482.163	8005
482.240	10608
482.317	17317
482.393	11311
482.470	7579
482.547	7785
482.624	7007
482.701	7337
482.778	7268
482.855	6636
482.932	6587
483.009	5914
483.085	8194
483.162	10673
483.239	9405
483.316	6714
483.393	7110
483.469	7078
483.546	9603
483.623	7943
483.699	5977
483.776	6918
483.853	9012
483.930	14825
484.006	34685
484.083	51165
484.160	28745
484.236	41937
484.313	29884
484.389	23333
484.466	22039
484.543	20334
484.619	21562
484.696	22289
484.772	22704
484.849	23165
484.925	19425
485.002	19687
485.078	21223
485.155	20110
485.231	18995
485.308	17206
485.384	19433
485.461	24404
485.537	36925
485.614	34975
485.690	18213
485.766	17724
485.843	18964
485.919	21611
485.995	22441
486.072	16319
486.148	16506
486.224	15739
486.301	17317
486.377	19021
486.453	19620
486.530	19978
486.606	26432
486.682	27662
486.758	32080
486.835	33258
486.911	28862
486.987	44162
487.063	38287
487.139	43834
487.215	32213
487.292	20559
487.368	19399
487.444	20732
487.520	26579
487.596	26443
487.672	43559
487.748	92100
487.824	113607
487.900	35147
487.976	20950
488.052	20266
488.128	23617
488.204	18784
488.280	17981
488.356	21865
488.432	41782
488.508	50795
488.584	18576
488.660	14977
488.736	15125
488.812	16239
488.888	20807
488.964	26233
489.039	44481
489.115	57728
489.191	30496
489.267	16477
489.343	15073
489.418	13376
489.494	13728
489.570	12439
489.646	14616
489.722	14046
489.797	16102
489.873	24969
489.949	45731
490.024	28851
490.100	12600
490.176	13867
490.251	14749
490.327	17368
490.403	12956
490.478	12296
490.554	11614
490.629	11687
490.705	10468
490.781	12256
490.856	12137
490.932	13735
491.007	12901
491.083	12151
491.158	11701
491.234	18481
491.309	33626
491.385	26919
491.460	11675
491.536	12122
491.611	11231
491.686	13196
491.762	15823
491.837	28867
491.913	45442
491.988	60283
492.063	61491
492.139	21918
492.214	14560
492.289	9662
492.365	10118
492.440	12253
492.515	11570
492.590	11116
492.666	10087
492.741	13935
492.816	19492
492.891	10019
492.967	9263
493.042	8627
493.117	9562
493.192	10017
493.267	17536
493.342	35850
493.418	34587
493.493	10113
493.568	7682
493.643	9339
493.718	11570
493.793	15627
493.868	14847
493.943	10402
494.018	9480
494.093	8396
494.168	9218
494.243	8503
494.318	8230
494.393	7966
494.468	7302
494.543	8345
494.618	9146
494.693	8108
494.768	8465
494.842	8785
494.917	7329
494.992	8403
495.067	7494
495.142	6412
495.217	7218
495.292	8089
495.366	9603
495.441	11378
495.516	15250
495.591	23649
495.665	61499
495.740	113682
495.815	34640
495.890	11788
495.964	9724
496.039	13395
496.114	12177
496.188	14562
496.263	12960
496.338	10239
496.412	12784
496.487	13622
496.561	13549
496.636	13817
496.710	12463
496.785	13882
496.860	14945
496.934	11546
497.009	13343
497.083	13453
497.158	15145
497.232	15661
497.307	18893
497.381	17237
497.455	20163
497.530	23400
497.604	18502
497.679	21334
497.753	31459
497.827	36985
497.902	35481
497.976	47047
498.050	113566
498.125	314903
498.199	219378
498.273	47832
498.348	40171
498.422	33924
498.496	30626
498.570	25532
498.645	21197
498.719	19837
498.793	23429
498.867	33289
498.941	50316
499.016	146421
499.090	295086
499.164	60700
499.238	14303
499.312	13730
499.386	17065
499.460	14182
499.534	14441
499.609	18179
499.683	24719
499.757	26327
499.831	73043
499.905	217957
499.979	134040
500.053	24841
500.127	22422
500.201	14530
500.275	13321
500.349	12402
500.422	15419
500.496	23167
500.570	50223
500.644	129549
500.718	182931
500.792	25955
500.866	13334
500.940	16865
501.013	12445
501.087	13796
501.161	23451
501.235	32239
501.309	83479
501.382	195535
501.456	113624
501.530	34493
501.603	54407
501.677	15271
501.751	9487
501.825	14595
501.898	31678
501.972	73719
502.046	28991
502.119	14577
502.193	38593
502.266	76193
502.340	28394
502.413	39909
502.487	61575
502.561	29161
502.634	10522
502.708	9157
502.781	7702
502.855	7741
502.928	6925
503.002	7153
503.075	7475
503.149	8349
503.222	7934
503.295	9010
503.369	11248
503.442	20457
503.516	66045
503.589	127861
503.662	63210
503.736	27576
503.809	62860
503.882	45903
503.956	82431
504.029	56643
504.102	52396
504.175	59724
504.249	19073
504.322	14103
504.395	10951
504.468	8358
504.542	7594
504.615	6818
504.688	7414
504.761	4799
504.834	9003
504.907	10258
504.980	12967
505.053	8378
505.127	9179
505.200	13176
505.273	11339
505.346	6402
505.419	5223
505.492	6992
505.565	4647
505.638	5846
505.711	5413
505.784	4442
505.857	5246
505.930	6848
506.003	4379
506.076	7568
506.149	9825
506.221	10024
506.294	13792
506.367	38606
506.440	99673
506.513	32577
506.586	10630
506.659	5674
506.731	6469
506.804	6692
506.877	8253
506.950	7014
507.022	6865
507.095	7852
507.168	8569
507.241	6184
507.313	4469
507.386	5302
507.459	7518
507.531	5500
507.604	4813
507.677	5109
507.749	3381
507.822	8194
507.894	15056
507.967	17142
508.040	10285
508.112	9364
508.185	8432
508.257	8508
508.330	11848
508.402	8365
508.475	7131
508.547	8526
508.620	9069
508.692	13956
508.765	8721
508.837	5748
508.909	6761
508.982	5840
509.054	7754
509.127	6490
509.199	6755
509.271	5906
509.344	5849
509.416	6302
509.488	6651
509.560	6204
509.633	6087
509.705	7263
509.777	7882
509.849	10086
509.922	6188
509.994	5872
510.066	7695
510.138	7893
510.210	17910
510.283	13046
510.355	11621
510.427	10566
510.499	10215
510.571	10444
510.643	10124
510.715	14828
510.787	9489
510.859	11137
510.931	11501
511.003	12614
511.076	11709
511.148	7238
511.219	9305
511.291	15343
511.363	13578
511.435	8774
511.507	6861
511.579	7759
511.651	8735
511.723	6924
511.795	7422
511.867	7398
511.939	10818
512.010	17657
512.082	12849
512.154	6642
512.226	9018
512.298	14750
512.369	17711
512.441	13738
512.513	11993
512.585	8858
512.656	11174
512.728	10660
512.800	8729
512.871	9927
512.943	9120
513.015	6858
513.086	9394
513.158	9388
513.230	9267
513.301	11426
513.373	12289
513.444	8538
513.516	7962
513.588	8226
513.659	8531
513.731	9299
513.802	9617
513.874	19274
513.945	23829
514.016	8197
514.088	8219
514.159	8032
514.231	12802
514.302	15104
514.374	12873
514.445	12100
514.516	23228
514.588	13850
514.659	13083
514.730	19407
514.802	15099
514.873	12463
514.944	15569
515.016	11068
515.087	12620
515.158	16916
515.229	20111
515.301	15760
515.372	19789
515.443	11356
515.514	9150
515.585	7289
515.656	9197
515.728	8446
515.799	7823
515.870	8672
515.941	9627
516.012	8427
516.083	12996
516.154	11990
516.225	15077
516.296	12936
516.367	11561
516.438	12457
516.509	17978
516.580	33830
516.651	106959
516.722	263724
516.793	78197
516.864	21833
516.935	22455
517.006	27152
517.077	43492
517.148	110499
517.219	364413
517.289	389121
517.360	114228
517.431	29770
517.502	13323
517.573	14643
517.643	13264
517.714	15602
517.785	15078
517.856	14875
517.926	18705
517.997	19691
518.068	23954
518.138	37406
518.209	75438
518.280	276093
518.350	682323
518.421	169489
518.492	24051
518.562	18564
518.633	18697
518.703	19533
518.774	39057
518.845	81680
518.915	63417
518.986	21522
519.056	20826
519.127	29588
519.197	49282
519.268	108790
519.338	46113
519.408	16550
519.479	17447
519.549	11440
519.620	11067
519.690	8622
519.760	9013
519.831	9824
519.901	8551
519.971	8534
520.042	9740
520.112	9490
520.182	11386
520.253	10721
520.323	9309
520.393	11542
520.463	16712
520.534	11232
520.604	20804
520.674	11468
520.744	13420
520.814	24523
520.885	24725
520.955	46659
521.025	121781
521.095	28342
521.165	9421
521.235	7954
521.305	6997
521.375	7146
521.445	7711
521.515	8768
521.585	12012
521.655	8818
521.725	10218
521.795	8956
521.865	6017
521.935	13449
522.005	9177
522.075	6356
522.145	8556
522.215	8479
522.285	13098
522.355	17670
522.424	30569
522.494	20970
522.564	13034
522.634	27582
522.704	59188
522.774	16620
522.843	8115
522.913	7362
522.983	9483
523.053	7146
523.122	8990
523.192	12126
523.262	33780
523.331	21055
523.401	8311
523.471	5446
523.540	6639
523.610	4358
523.680	6295
523.749	7305
523.819	9630
523.888	7381
523.958	5400
524.027	6963
524.097	7398
524.166	6196
524.236	6626
524.305	9035
524.375	5515
524.444	5005
524.514	8709
524.583	6440
524.653	8740
524.722	9256
524.791	5296
524.861	7172
524.930	4873
524.999	6977
525.069	9146
525.138	7564
525.207	9347
525.277	6919
525.346	7364
525.415	7269
525.484	7547
525.554	7518
525.623	7687
525.692	8937
525.761	8351
525.830	9476
525.900	10805
525.969	18684
526.038	29986
526.107	67278
526.176	157653
526.245	100238
526.314	40786
526.383	92425
526.452	105393
526.522	198292
526.591	140092
526.660	33964
526.729	20840
526.797	31488
526.867	77074
526.935	259027
527.004	399896
527.073	150449
527.142	14584
527.211	9341
527.280	10057
527.349	7416
527.418	5298
527.487	6646
527.555	5252
527.624	4208
527.693	4193
527.762	6697
527.831	4746
527.899	5897
527.968	6277
528.037	3741
528.106	6707
528.174	11540
528.243	9338
528.312	14229
528.380	12866
528.449	5144
528.518	6124
528.586	3568
528.655	5363
528.723	4074
528.792	4170
528.861	3317
528.929	4047
528.998	4946
529.066	4262
529.135	4707
529.203	3909
529.272	3506
529.340	5322
529.409	5565
529.477	4992
529.545	5948
529.614	8202
529.682	7656
529.751	8341
529.819	10941
529.887	5582
529.956	3811
530.024	6171
530.092	3951
530.161	6307
530.229	7671
530.297	4028
530.365	4829
530.434	5141
530.502	4315
530.570	5367
530.638	3511
530.707	5381
530.775	5851
530.843	4905
530.911	4739
530.979	5424
531.047	3707
531.115	5363
531.183	4301
531.252	5213
531.320	4690
531.388	3686
531.456	5683
531.524	3296
531.592	5282
531.660	7324
531.728	3901
531.796	3773
531.864	4937
531.932	5260
532.000	4304
532.067	5402
532.135	5309
532.203	7154
532.271	6453
532.339	13340
532.407	22833
532.475	11321
532.542	8557
532.610	10264
532.678	17804
532.746	68112
532.814	111036
532.881	19835
532.949	6467
533.017	5094
533.084	5037
533.152	5855
533.220	4612
533.287	5403
533.355	5292
533.423	6059
533.490	4230
533.558	5357
533.625	5554
533.693	5850
533.761	5994
533.828	6689
533.896	5078
533.963	10906
534.031	12770
534.098	16775
534.166	7638
534.233	5323
534.300	6621
534.368	5911
534.435	5194
534.503	5824
534.570	6833
534.637	6644
534.705	8713
534.772	11344
534.840	20360
534.907	83665
534.974	69128
535.041	9873
535.109	7514
535.176	4876
535.243	6082
535.310	6455
535.378	5215
535.445	5178
535.512	5942
535.579	6271
535.646	5131
535.714	6705
535.781	7599
535.848	7449
535.915	7512
535.982	6271
536.049	6137
536.116	7192
536.183	5672
536.250	5719
536.317	6407
536.384	7766
536.451	9797
536.518	10605
536.585	6318
536.652	10816
536.719	11760
536.786	8139
536.853	7334
536.920	12926
536.987	17018
537.053	21048
537.120	73056
537.187	39903
537.254	7261
537.321	6530
537.388	7122
537.454	5898
537.521	5771
537.588	5790
537.654	8040
537.721	7290
537.788	7890
537.855	6586
537.921	6019
537.988	6508
538.055	7677
538.121	6127
538.188	7078
538.254	10583
538.321	14717
538.388	8948
538.454	7150
538.521	6446
538.587	6703
538.654	5623
538.720	6252
538.787	6818
538.853	7768
538.920	7775
538.986	7448
539.053	6314
539.119	6527
539.185	7167
539.252	8539
539.318	10170
539.385	9396
539.451	8434
539.517	10062
539.583	12712
539.650	26207
539.716	43956
539.782	11897
539.849	6612
539.915	7964
539.981	7925
540.047	7270
540.114	7455
540.180	9067
540.246	7499
540.312	9926
540.378	16645
540.444	16349
540.510	26154
540.576	49407
540.643	12275
540.709	5808
540.775	7407
540.841	7320
540.907	11387
540.973	13893
541.039	10776
541.105	9590
541.171	7192
541.237	6224
541.303	8451
541.369	10233
541.435	10132
541.500	14241
541.566	7133
541.632	6481
541.698	6837
541.764	6724
541.830	6186
541.896	5649
541.961	7412
542.027	6719
542.093	7708
542.159	7109
542.224	8408
542.290	11772
542.356	15723
542.421	14333
542.487	8186
542.553	8114
542.618	9193
542.684	7583
542.750	7569
542.815	11000
542.881	17946
542.947	49845
543.012	25974
543.078	6590
543.143	6310
543.209	7160
543.274	8641
543.340	11103
543.405	22650
543.471	24274
543.536	7523
543.602	7866
543.667	5293
543.732	7737
543.798	6974
543.863	7976
543.928	6388
543.994	5844
544.059	7374
544.124	7328
544.190	6331
544.255	8176
544.320	8085
544.386	6401
544.451	10488
544.516	11077
544.581	13229
544.646	35715
544.712	38985
544.777	10302
544.842	9846
544.907	9530
544.972	9164
545.037	8719
545.102	10785
545.168	9205
545.233	10692
545.298	11516
545.363	12119
545.428	13973
545.493	23574
545.558	36845
545.623	14541
545.688	9245
545.753	10087
545.818	9711
545.883	11066
545.947	10197
546.012	11270
546.077	11026
546.142	11744
546.207	10778
546.272	13783
546.337	12604
546.401	12244
546.466	10876
546.531	10707
546.596	13000
546.661	12683
546.725	12654
546.790	12170
546.855	14022
546.919	13180
546.984	15203
547.049	16702
547.113	18158
547.178	17512
547.243	20815
547.307	24247
547.372	26871
547.436	26547
547.501	25521
547.565	27433
547.630	26989
547.695	26085
547.759	27299
547.823	25138
547.888	24242
547.952	26057
548.017	27477
548.081	30569
548.146	32028
548.210	29342
548.274	28044
548.339	26700
548.403	25072
548.468	24138
548.532	22985
548.596	24649
548.660	24538
548.725	28725
548.789	31804
548.853	30228
548.917	28149
548.982	30492
549.046	26435
549.110	22168
549.174	23617
549.238	25719
549.303	26930
549.367	30136
549.431	26796
549.495	25953
549.559	25380
549.623	30351
549.687	33280
549.751	37416
549.815	38503
549.879	38138
549.943	35460
550.007	37951
550.071	37371
550.135	37120
550.199	32708
550.263	31828
550.327	32811
550.391	35416
550.455	35246
550.519	36085
550.582	38992
550.646	46138
550.710	44529
550.774	41191
550.838	42246
550.901	43497
550.965	45979
551.029	48363
551.093	53576
551.156	60704
551.220	81243
551.284	80154
551.347	57877
551.411	72002
551.475	61782
551.538	46346
551.602	40924
551.666	39793
551.729	36250
551.793	37844
551.856	35839
551.920	35936
551.983	35645
552.047	35274
552.110	35351
552.174	35797
552.237	36225
552.301	34320
552.364	33689
552.428	31467
552.491	32810
552.554	33985
552.618	33171
552.681	35792
552.745	35582
552.808	44387
552.871	47591
552.934	37999
552.998	33589
553.061	33755
553.124	32333
553.187	32272
553.251	33763
553.314	34168
553.377	34440
553.440	41153
553.503	59224
553.567	60366
553.630	35936
553.693	34467
553.756	34839
553.819	33138
553.882	32109
553.945	33538
554.008	32539
554.071	32326
554.134	33046
554.197	30176
554.260	31304
554.323	33425
554.386	32025
554.449	33202
554.512	32541
554.575	31441
554.638	31359
554.701	31495
554.764	29833
554.827	29628
554.889	28279
554.952	26574
555.015	27080
555.078	28061
555.141	27282
555.203	27588
555.266	27321
555.329	28043
555.391	25220
555.454	26167
555.517	25287
555.580	24313
555.642	22855
555.705	23741
555.768	22912
555.830	22126
555.893	21367
555.955	21476
556.018	20774
556.080	21204
556.143	20791
556.206	21171
556.268	21373
556.330	21109
556.393	20533
556.455	20786
556.518	23705
556.580	22302
556.643	17941
556.705	18319
556.767	17111
556.830	18952
556.892	19335
556.955	21007
557.017	18341
557.079	17070
557.142	17954
557.204	18321
557.266	23763
557.328	19116
557.391	14935
557.453	14673
557.515	15808
557.577	17817
557.639	16422
557.701	15576
557.764	15205
557.826	16299
557.888	17465
557.950	17003
558.012	19216
558.074	28234
558.136	60320
558.198	106781
558.260	32459
558.322	17152
558.384	18106
558.446	20721
558.508	21814
558.570	28430
558.632	42776
558.694	60840
558.756	95133
558.818	276414
558.880	473329
558.942	120428
559.003	112208
559.065	42330
559.127	21967
559.189	25063
559.251	35012
559.312	54464
559.374	132262
559.436	335901
559.498	109018
559.559	24003
559.621	24552
559.683	35730
559.744	63194
559.806	184382
559.868	194369
559.929	32714
559.991	28818
560.052	48730
560.114	113556
560.176	60374
560.237	73524
560.299	88145
560.360	17539
560.422	12141
560.483	12506
560.545	11747
560.606	11575
560.667	11169
560.729	10904
560.790	10439
560.852	9565
560.913	10033
560.974	10414
561.036	10328
561.097	10782
561.158	10454
561.220	10766
561.281	9884
561.342	11359
561.403	12655
561.465	14213
561.526	25960
561.587	25039
561.648	10447
561.709	10064
561.771	10339
561.832	9438
561.893	8958
561.954	9033
562.015	9859
562.076	9310
562.137	9402
562.198	9501
562.259	9625
562.320	10374
562.381	11401
562.442	13130
562.503	9988
562.564	9111
562.625	8826
562.686	9464
562.747	10813
562.808	10562
562.869	10063
562.930	11857
562.991	10308
563.051	9973
563.112	9964
563.173	9418
563.234	7950
563.294	9391
563.355	8607
563.416	8725
563.477	8917
563.537	9135
563.598	9805
563.659	8981
563.720	10068
563.780	8708
563.841	9316
563.901	9569
563.962	9580
564.023	9421
564.083	9946
564.144	9833
564.204	9349
564.265	10425
564.325	11998
564.386	19079
564.446	14363
564.507	9025
564.567	8781
564.628	8648
564.688	8837
564.749	8600
564.809	10864
564.869	11541
564.930	9186
564.990	9617
565.050	9233
565.111	8630
565.171	8455
565.231	9282
565.292	9590
565.352	8358
565.412	9617
565.472	9350
565.532	9308
565.593	8494
565.653	9183
565.713	8617
565.773	10138
565.833	10982
565.893	12310
565.953	9326
566.013	10436
566.074	11080
566.134	14652
566.194	18111
566.254	16364
566.314	12548
566.374	10928
566.434	10831
566.494	10206
566.554	12016
566.614	11812
566.673	11462
566.733	13283
566.793	13007
566.853	13852
566.913	14304
566.973	13971
567.033	12818
567.092	13568
567.152	13522
567.212	13451
567.272	13679
567.331	16136
567.391	16143
567.451	17222
567.511	20062
567.570	18478
567.630	14651
567.690	13237
567.749	15610
567.809	14870
567.868	17689
567.928	19415
567.988	23249
568.047	26017
568.107	35258
568.166	49676
568.226	78144
568.285	100260
568.345	76095
568.404	57252
568.464	48400
568.523	45653
568.582	49574
568.642	57716
568.701	76905
568.761	117401
568.820	176591
568.879	152425
568.939	103198
568.998	72477
569.057	54239
569.116	43969
569.176	33939
569.235	29179
569.294	25256
569.353	22026
569.413	20662
569.472	18039
569.531	16672
569.590	16190
569.649	14060
569.708	14336
569.767	14049
569.827	15286
569.886	12753
569.945	11346
570.004	12029
570.063	11453
570.122	11622
570.181	11354
570.240	13688
570.299	13070
570.358	12613
570.417	10603
570.475	9873
570.534	11812
570.593	10036
570.652	11033
570.711	10334
570.770	9983
570.829	10043
570.887	9884
570.946	9788
571.005	8236
571.064	9590
571.122	10560
571.181	10294
571.240	8923
571.299	9134
571.357	9446
571.416	9703
571.475	10965
571.533	10506
571.592	10054
571.650	8728
571.709	8613
571.768	9538
571.826	8703
571.885	8310
571.943	8256
572.002	7961
572.060	8165
572.119	7879
572.177	8924
572.236	7654
572.294	8401
572.352	9387
572.411	7688
572.469	8077
572.528	8107
572.586	7823
572.644	9800
572.703	11311
572.761	8679
572.819	8239
572.877	7423
572.936	7716
572.994	7435
573.052	7219
573.110	7593
573.169	7618
573.227	7898
573.285	7637
573.343	7475
573.401	7170
573.459	8285
573.517	7374
573.576	7512
573.634	7182
573.692	8304
573.750	7967
573.808	7040
573.866	8010
573.924	10189
573.982	8489
574.040	7166
574.098	7510
574.155	6300
574.213	6216
574.271	6890
574.329	6827
574.387	6647
574.445	6872
574.503	6975
574.560	5525
574.618	7063
574.676	5391
574.734	7066
574.792	7840
574.849	6682
574.907	6530
574.965	6318
575.022	6286
575.080	6120
575.138	6035
575.195	6970
575.253	6456
575.311	7146
575.368	6470
575.426	5265
575.483	7185
575.541	6258
575.598	6516
575.656	5929
575.713	6999
575.771	6274
575.828	6533
575.886	6967
575.943	7241
576.001	7027
576.058	6748
576.115	8209
576.173	8225
576.230	8736
576.287	9031
576.345	7634
576.402	7592
576.459	6544
576.517	6839
576.574	7745
576.631	7999
576.688	7009
576.746	6664
576.803	6946
576.860	7044
576.917	6784
576.974	6700
577.031	7372
577.089	7879
577.146	7366
577.203	7116
577.260	7196
577.317	8334
577.374	6974
577.431	7075
577.488	7508
577.545	6387
577.602	7351
577.659	6717
577.716	7171
577.773	7730
577.830	6613
577.886	6818
577.943	7022
578.000	5870
578.057	6237
578.114	7086
578.171	8200
578.227	7229
578.284	6618
578.341	7566
578.398	6880
578.454	7549
578.511	8395
578.568	8817
578.625	7660
578.681	6288
578.738	7120
578.794	6996
578.851	6764
578.908	7784
578.964	7136
579.021	7546
579.077	7280
579.134	7116
579.190	5948
579.247	7384
579.303	6279
579.360	6501
579.416	6566
579.473	5969
579.529	6724
579.586	6317
579.642	7731
579.698	6082
579.755	7379
579.811	6796
579.867	7019
579.924	6262
579.980	6755
580.036	6585
580.093	7864
580.149	8583
580.205	7092
580.261	7897
580.317	7490
580.374	8405
580.430	9584
580.486	8339
580.542	6891
580.598	7808
580.619	7860
580.654	7958
580.692	7496
580.710	7277
580.765	7505
580.767	7518
580.823	7188
580.838	7383
580.879	7918
580.911	7432
580.935	7080
580.984	7622
580.991	7710
581.047	7367
581.057	7420
581.103	7652
581.130	7669
581.159	7698
581.203	8447
581.215	8655
581.270	7923
581.276	7925
581.326	8018
581.349	7958
581.382	7838
581.422	7818
581.438	7825
581.494	7492
581.494	7490
581.550	7720
581.567	7914
581.606	8301
581.640	7754
581.661	7456
581.713	8606
581.717	8696
581.773	8625
581.786	8339
581.829	7461
581.859	8008
581.885	8463
581.932	9046
581.940	9157
581.996	9071
582.004	9054
582.052	8947
582.077	8583
582.107	8200
582.150	8348
582.163	8385
582.219	8559
582.223	8506
582.274	7933
582.296	8310
582.330	8862
582.368	8952
582.386	9035
582.441	8246
582.441	8246
582.497	8551
582.514	8643
582.552	8974
582.587	8970
582.608	8912
582.659	8881
582.663	8879
582.719	8846
582.732	8854
582.774	9064
582.805	9202
582.830	9227
582.877	9085
582.885	9033
582.941	8551
582.950	8518
582.996	8723
583.023	9454
583.052	10179
583.095	9587
583.107	9442
583.162	10101
583.168	10067
583.218	9613
583.240	9536
583.273	9352
583.313	8923
583.328	8873
583.384	8992
583.385	9016
583.439	9189
583.458	8978
583.494	8764
583.531	9465
583.549	9874
583.603	9768
583.605	9758
583.660	9599
583.676	9555
583.715	9528
583.748	9755
583.770	9918
583.820	10215
583.825	10230
583.881	10079
583.893	9920
583.936	9388
583.965	9446
583.991	9485
584.038	9365
584.046	9393
584.101	10011
584.110	10146
584.156	10569
584.183	10390
584.211	10212
584.255	10554
584.266	10671
584.321	10357
584.328	10472
584.376	11213
584.400	11040
584.431	10967
584.472	10962
584.486	10856
584.541	11275
584.545	11263
584.596	11160
584.617	11099
584.651	11345
584.689	11719
584.706	11698
584.761	12242
584.762	12238
584.816	12332
584.834	12785
584.871	13427
584.906	13256
584.926	13073
584.978	13201
584.980	13219
585.035	13759
585.051	13929
585.090	14842
585.123	15672
585.145	16019
585.195	15551
585.200	15549
585.254	17108
585.267	17599
585.309	19044
585.340	19948
585.364	20782
585.412	22438
585.419	22696
585.473	26857
585.484	27907
585.528	33585
585.556	38935
585.583	49163
585.628	71510
585.637	80017
585.692	159307
585.700	170119
585.747	205514
585.772	174705
585.801	105559
585.845	42036
585.856	35663
585.910	23986
585.917	22696
585.965	20437
585.989	19821
586.019	19832
586.061	20062
586.074	20152
586.128	19850
586.133	19866
586.183	20154
586.205	20419
586.237	20936
586.277	21113
586.292	21120
586.346	20799
586.349	20835
586.401	21734
586.421	21888
586.455	22485
586.493	24079
586.509	25275
586.564	28049
586.565	28217
586.618	38360
586.637	38604
586.672	33291
586.709	28887
586.727	27947
586.781	28287
586.781	28301
586.835	26597
586.853	26523
586.889	26594
586.925	26098
586.944	26185
586.996	27751
586.998	27804
587.052	28584
587.068	28762
587.106	29348
587.140	30187
587.161	30834
587.212	32193
587.215	32274
587.269	33654
587.284	33906
587.323	34231
587.356	35048
587.377	36012
587.427	38018
587.431	38172
587.485	39950
587.499	40401
587.539	41770
587.571	43376
587.593	44910
587.643	47042
587.648	47252
587.702	50563
587.715	51296
587.755	54220
587.786	56588
587.810	58397
587.858	62717
587.864	63340
587.917	68457
587.930	69832
587.971	75390
588.001	79301
588.025	82552
588.073	89300
588.079	90510
588.133	101905
588.145	104576
588.187	114469
588.217	121551
588.241	128878
588.288	144564
588.295	147165
588.348	169748
588.360	174852
588.402	196960
588.431	213323
588.456	230560
588.503	268021
588.510	274418
588.564	330154
588.575	342992
588.617	410737
588.646	462082
588.671	524226
588.718	653294
588.725	682383
588.778	921437
588.789	972820
588.832	1221073
588.861	1384134
588.886	1431004
588.932	1418250
588.939	1398175
588.993	1226810
589.004	1216480
589.047	1396709
589.075	1446130
589.100	1302580
589.147	1007930
589.154	976175
589.207	750976
589.218	708681
589.261	651144
589.290	622209
589.314	641098
589.361	690141
589.368	712190
589.421	912889
589.433	958889
589.475	1191206
589.504	1335281
589.528	1338010
589.576	1267286
589.582	1262998
589.635	1279312
589.647	1262161
589.689	987380
589.718	790770
589.742	669394
589.790	446081
589.795	433409
589.849	325015
589.861	301281
589.902	257395
589.932	224982
589.955	206773
590.004	171196
590.009	169025
590.062	145157
590.075	139365
590.115	127439
590.146	118592
590.168	113772
590.218	103004
590.222	102322
590.275	92598
590.289	89925
590.328	85649
590.360	82242
590.381	79722
590.431	73540
590.435	73358
590.488	69343
590.503	68120
590.541	65644
590.574	63365
590.594	61954
590.645	58296
590.647	58258
590.700	55439
590.716	54492
590.753	53368
590.787	52262
590.806	51152
590.859	48186
590.859	48219
590.912	46534
590.930	46003
590.965	45302
591.001	44594
591.018	44077
591.071	41840
591.072	41765
591.124	41608
591.143	41444
591.177	40902
591.214	40195
591.230	40195
591.283	40202
591.285	40141
591.336	38786
591.356	38109
591.389	38218
591.427	38357
591.442	37970
591.495	36192
591.498	36012
591.547	34084
591.569	33161
591.600	33268
591.640	33357
591.653	33445
591.706	33616
591.711	33584
591.759	33407
591.782	33264
591.811	33954
591.853	34879
591.864	34616
591.917	32861
591.924	32574
591.969	32555
591.995	32382
592.022	32145
592.066	31823
592.075	32110
592.127	33447
592.137	33668
592.180	34681
592.208	35155
592.233	33933
592.279	31451
592.285	31368
592.338	30311
592.350	30022
592.390	29385
592.421	28848
592.443	29177
592.491	29753
592.495	29785
592.548	29583
592.562	29488
592.600	28903
592.633	28319
592.653	28411
592.704	28402
592.705	28542
592.775	27340
592.846	28411
592.916	28852
592.987	29149
593.058	29110
593.128	27271
593.199	26201
593.270	27389
593.341	26558
593.411	26713
593.482	27119
593.553	27500
593.623	27327
593.694	27176
593.764	27702
593.835	27195
593.906	26722
593.976	27420
594.047	27648
594.117	30129
594.188	30183
594.258	27220
594.329	26876
594.399	26845
594.470	27747
594.540	28367
594.611	28885
594.681	27943
594.751	28108
594.822	30247
594.892	29101
594.963	30392
595.033	30112
595.103	32274
595.174	32410
595.244	38545
595.314	43562
595.384	33200
595.455	31840
595.525	32538
595.595	32933
595.665	34437
595.736	32423
595.806	33628
595.876	32569
595.946	32856
596.016	33819
596.087	33817
596.157	34322
596.227	33680
596.297	36387
596.367	37556
596.437	41326
596.507	43452
596.577	49091
596.647	40971
596.717	40676
596.787	40737
596.857	41144
596.927	40866
596.997	42097
597.067	41652
597.137	43869
597.207	42717
597.277	42269
597.347	41037
597.417	40594
597.487	41145
597.557	40443
597.626	42018
597.696	43330
597.766	46299
597.836	48910
597.906	39870
597.975	38076
598.045	36699
598.115	38837
598.185	40821
598.254	46202
598.324	49246
598.394	49199
598.464	49136
598.533	47272
598.603	45056
598.672	43099
598.742	45102
598.812	44425
598.881	43858
598.951	45137
599.020	44508
599.090	45984
599.159	46974
599.229	45119
599.299	43226
599.368	45310
599.437	44000
599.507	42045
599.576	41165
599.646	40545
599.715	40607
599.785	39207
599.854	40323
599.924	39894
599.993	39012
600.062	38170
600.132	39541
600.201	40341
600.270	46746
600.340	48851
600.409	48017
600.478	47351
600.547	48313
600.617	44140
600.686	37725
600.755	34599
600.824	33554
600.894	34210
600.963	32529
601.032	31503
601.101	30661
601.170	30875
601.239	30012
601.308	30668
601.378	30758
601.447	29473
601.516	30087
601.585	30371
601.654	32557
601.723	31719
601.792	30832
601.861	31964
601.930	32796
601.999	35455
602.068	32834
602.137	36091
602.206	34832
602.275	34870
602.343	36846
602.412	36037
602.481	35046
602.550	33891
602.619	34957
602.688	36324
602.756	35741
602.825	35425
602.894	36949
602.963	36205
603.032	38173
603.100	37867
603.169	37376
603.238	37018
603.307	37137
603.375	38779
603.444	39813
603.513	39155
603.581	40064
603.650	39941
603.719	39021
603.787	39716
603.856	40505
603.924	41669
603.993	43694
604.061	44035
604.130	45648
604.198	47004
604.267	47212
604.335	47888
604.404	48431
604.472	48394
604.541	49806
604.609	50248
604.678	49987
604.746	49179
604.815	51670
604.883	51969
604.951	52811
605.020	52828
605.088	53907
605.156	54500
605.225	55370
605.293	55906
605.361	56412
605.429	56736
605.498	57808
605.566	58712
605.634	61209
605.702	64118
605.771	64419
605.839	65590
605.907	63623
605.975	61496
606.043	60104
606.111	60365
606.180	60287
606.248	60047
606.316	60856
606.384	59616
606.452	63216
606.520	65016
606.588	63212
606.656	62395
606.724	60384
606.792	57759
606.860	51948
606.928	46720
606.996	46142
607.064	45304
607.132	46439
607.200	49388
607.267	50287
607.335	51793
607.403	51813
607.471	50977
607.539	49136
607.607	49934
607.674	44249
607.742	44729
607.810	45103
607.878	44453
607.946	44215
608.013	46898
608.081	48286
608.149	48563
608.216	49494
608.284	52883
608.352	51733
608.419	50460
608.487	53781
608.555	50252
608.622	50503
608.690	53102
608.757	59033
608.825	60460
608.893	56985
608.960	59388
609.028	57023
609.095	59135
609.163	53678
609.230	47677
609.298	44115
609.365	45148
609.432	49912
609.500	54249
609.567	61035
609.635	69084
609.702	73630
609.769	70545
609.837	56478
609.904	49602
609.971	51346
610.039	61019
610.106	84213
610.173	166043
610.241	392593
610.308	269753
610.375	117253
610.442	61851
610.509	51623
610.577	50328
610.644	51636
610.711	51684
610.778	53808
610.845	54860
610.912	56955
610.980	59992
611.047	61111
611.114	60518
611.181	56277
611.248	55552
611.315	61324
611.382	60544
611.449	61101
611.516	63945
611.583	63451
611.650	63869
611.717	66056
611.784	66924
611.851	70676
611.918	77688
611.984	95010
612.051	143651
612.118	308015
612.185	772379
612.252	478392
612.319	114636
612.386	87919
612.452	78840
612.519	76675
612.586	77777
612.653	75557
612.719	74857
612.786	72494
612.853	65969
612.919	64765
612.986	66109
613.053	61219
613.120	57976
613.186	55393
613.253	58159
613.319	55499
613.386	57514
613.453	58430
613.519	61375
613.586	60539
613.652	69041
613.719	63827
613.785	61961
613.852	59654
613.918	57136
613.985	60521
614.051	62758
614.118	67187
614.184	65862
614.250	58187
614.317	59480
614.383	57316
614.449	58803
614.516	58882
614.582	59849
614.648	58044
614.715	57612
614.781	56981
614.847	57209
614.914	57179
614.980	56434
615.046	56439
615.112	57599
615.179	58092
615.245	60384
615.311	66227
615.377	81845
615.443	86492
615.509	68774
615.575	65059
615.642	63337
615.708	66203
615.774	70473
615.840	77180
615.906	90236
615.972	125306
616.038	218399
616.104	424891
616.170	949040
616.236	792878
616.302	175941
616.368	117735
616.434	85877
616.500	78304
616.565	85996
616.631	106844
616.697	87001
616.763	89458
616.829	135807
616.895	244214
616.961	230705
617.026	96648
617.092	66745
617.158	62033
617.224	60694
617.289	56247
617.355	53853
617.421	52375
617.487	53739
617.552	49911
617.618	49026
617.684	48415
617.749	51732
617.815	46949
617.880	45821
617.946	47345
618.012	48227
618.077	47633
618.143	45949
618.208	46828
618.274	49125
618.339	51005
618.405	42357
618.470	41977
618.536	42017
618.601	42298
618.667	40366
618.732	37468
618.798	37094
618.863	37059
618.928	36676
618.994	37644
619.059	40477
619.124	44098
619.190	38993
619.255	36409
619.320	36620
619.386	37195
619.451	35468
619.516	34574
619.581	36068
619.647	36041
619.712	36682
619.777	35574
619.842	35431
619.907	37572
619.972	36252
620.038	37137
620.103	34327
620.168	35605
620.233	36104
620.298	34165
620.363	35406
620.428	37496
620.493	37956
620.558	37422
620.623	38029
620.688	38070
620.753	37552
620.818	39748
620.883	38499
620.948	38864
621.013	38237
621.078	38557
621.143	37198
621.207	40730
621.272	39650
621.337	39326
621.402	38970
621.467	41842
621.532	42307
621.596	40561
621.661	37763
621.726	36766
621.791	37553
621.855	37422
621.920	38627
621.985	38612
622.049	41241
622.114	38658
622.179	39792
622.243	40809
622.308	40759
622.373	43058
622.437	42639
622.502	39292
622.566	38138
622.631	38765
622.695	40243
622.760	39784
622.824	39108
622.889	40004
622.953	41087
623.018	49513
623.082	48167
623.147	42229
623.211	40538
623.276	39751
623.340	37349
623.404	37621
623.469	37867
623.533	37517
623.597	36734
623.662	37234
623.726	34269
623.790	32416
623.854	32112
623.919	33309
623.983	33684
624.047	33834
624.111	33725
624.176	34638
624.240	35401
624.304	37467
624.368	33729
624.432	35227
624.496	35363
624.560	38294
624.625	39257
624.689	36626
624.753	38350
624.817	35885
624.881	34948
624.945	31710
625.009	30631
625.073	32005
625.137	33738
625.201	38224
625.265	38882
625.329	32884
625.393	34104
625.456	34046
625.520	35604
625.584	37048
625.648	40567
625.712	49604
625.776	79763
625.839	85386
625.903	42952
625.967	31725
626.031	43196
626.095	59503
626.158	36434
626.222	25644
626.286	25450
626.349	23418
626.413	22490
626.477	24603
626.540	21780
626.604	23297
626.668	22787
626.731	22782
626.795	23274
626.858	23104
626.922	22698
626.986	22828
627.049	20675
627.113	21900
627.176	20879
627.240	21393
627.303	22026
627.366	21036
627.430	22414
627.493	22103
627.557	20247
627.620	22010
627.684	22839
627.747	22672
627.810	19790
627.874	19033
627.937	19220
628.000	20835
628.064	20084
628.127	17262
628.190	17985
628.253	18439
628.317	16438
628.380	16456
628.443	15285
628.506	16148
628.569	15351
628.632	14716
628.696	14960
628.759	14167
628.822	13913
628.885	13343
628.948	13791
629.011	13918
629.074	13852
629.137	13117
629.200	12928
629.263	14558
629.326	11630
629.389	12845
629.452	12895
629.515	12902
629.578	12924
629.641	13341
629.704	12652
629.767	13197
629.830	12220
629.892	12154
629.955	11207
630.018	14241
630.081	12796
630.144	15046
630.207	11481
630.269	14493
630.332	13996
630.395	12661
630.458	12011
630.520	11044
630.583	13562
630.646	12056
630.708	10933
630.771	11135
630.834	12685
630.896	11742
630.959	11271
631.021	11464
631.084	10582
631.146	12633
631.209	14923
631.272	11508
631.334	11636
631.397	11587
631.459	12164
631.522	13357
631.584	12382
631.646	14397
631.709	14928
631.771	15608
631.834	14494
631.896	12716
631.958	10407
632.021	12911
632.083	10663
632.145	11431
632.208	10865
632.270	12559
632.332	10040
632.395	9703
632.457	11038
632.519	10190
632.581	11985
632.643	9768
632.706	10863
632.768	10276
632.830	11560
632.892	10861
632.954	10193
633.016	11503
633.078	10537
633.141	10444
633.203	10529
633.265	11394
633.327	10441
633.389	9583
633.451	11841
633.513	12792
633.575	12954
633.637	12106
633.698	11655
633.760	11330
633.822	12539
633.884	12072
633.946	11068
634.008	12522
634.070	11899
634.132	12813
634.193	14722
634.255	15406
634.317	14657
634.379	15179
634.441	14274
634.502	12213
634.564	11466
634.626	11087
634.687	10239
634.749	11348
634.811	10173
634.873	9733
634.934	9975
634.996	10359
635.057	10327
635.119	8678
635.181	10215
635.242	10695
635.304	8926
635.365	11517
635.427	9573
635.488	9597
635.550	9826
635.611	10279
635.673	8642
635.734	12167
635.796	10824
635.857	12996
635.918	12231
635.980	14461
636.041	14722
636.102	15802
636.164	15812
636.225	16180
636.286	12565
636.348	11958
636.409	11038
636.470	9729
636.531	10130
636.593	10428
636.654	10092
636.715	8858
636.776	8570
636.838	8241
636.899	8913
636.960	8668
637.021	7907
637.082	7637
637.143	9249
637.204	7256
637.265	7798
637.326	7777
637.387	7590
637.448	7473
637.509	9267
637.570	8052
637.631	8329
637.692	6564
637.753	7036
637.814	7706
637.875	6906
637.936	7822
637.997	7169
638.058	6278
638.119	8152
638.179	6801
638.240	6885
638.301	7172
638.362	6206
638.423	6426
638.483	8039
638.544	5571
638.605	7741
638.666	7026
638.726	6158
638.787	7685
638.848	6898
638.908	6680
638.969	7804
639.030	6949
639.090	5572
639.151	6595
639.211	7048
639.272	9712
639.332	12393
639.393	8336
639.453	7116
639.514	7202
639.574	7169
639.635	5932
639.695	7547
639.756	5269
639.816	7103
639.877	7761
639.937	11963
639.997	13205
640.058	6181
640.118	6176
640.178	7216
640.239	5672
640.299	6039
640.359	5523
640.420	5930
640.480	7645
640.540	8057
640.600	8192
640.661	7882
640.721	6860
640.781	10158
640.841	7459
640.901	6717
640.961	6910
641.021	7703
641.082	7960
641.142	9843
641.202	6760
641.262	4062
641.322	5732
641.382	3592
641.442	5613
641.502	6009
641.562	6613
641.622	5741
641.682	6781
641.742	6302
641.802	7020
641.861	6626
641.921	7392
641.981	7321
642.041	7173
642.101	7674
642.161	4751
642.221	5245
642.280	5106
642.340	4680
642.400	4649
642.460	6511
642.519	5619
642.579	4878
642.639	7507
642.698	3124
642.758	8029
642.818	6531
642.877	5515
642.937	5286
642.997	7016
643.056	9757
643.116	5039
643.175	7063
643.235	5546
643.294	6509
643.354	5939
643.414	7594
643.473	9932
643.532	11296
643.592	16810
643.651	29373
643.711	53204
643.770	108941
643.830	268945
643.889	573969
643.948	127552
644.008	21357
644.067	12151
644.126	8920
644.186	7465
644.245	7475
644.304	5275
644.363	7988
644.423	5653
644.482	5679
644.541	6945
644.600	5282
644.659	9072
644.719	10036
644.778	16283
644.837	28431
644.896	59798
644.955	142195
645.014	44440
645.073	9561
645.132	7982
645.191	7303
645.250	5659
645.309	7654
645.368	7304
645.427	10080
645.486	14836
645.545	26810
645.604	8439
645.663	5967
645.722	5476
645.781	7158
645.840	8825
645.898	10889
645.957	17135
646.016	24959
646.075	50245
646.134	99877
646.192	275564
646.251	406948
646.310	53967
646.369	15581
646.427	11967
646.486	7999
646.545	7464
646.603	5900
646.662	5907
646.721	6673
646.779	5498
646.838	5308
646.896	8895
646.955	10347
647.014	16440
647.072	31783
647.131	88436
647.189	40961
647.248	6071
647.306	6400
647.365	4998
647.423	3250
647.481	5971
647.540	3157
647.598	3898
647.657	4631
647.715	4531
647.773	2336
647.832	3933
647.890	2943
647.948	3198
648.007	4489
648.065	3234
648.123	3831
648.181	5132
648.240	4473
648.298	3416
648.356	2962
648.414	3387
648.472	3313
648.531	3738
648.589	3774
648.647	3381
648.705	3647
648.763	3881
648.821	3547
648.879	3798
648.937	4862
648.995	5644
649.053	7194
649.111	11964
649.169	21750
649.227	39654
649.285	84128
649.343	246155
649.401	114077
649.459	21451
649.516	13321
649.574	6595
649.632	10008
649.690	10118
649.748	9223
649.806	11640
649.863	23115
649.921	62206
649.979	39291
650.037	6981
650.094	2520
650.152	3931
650.210	2411
650.268	3895
650.325	3302
650.383	4520
650.440	2306
650.498	2558
650.556	3554
650.613	2727
650.671	2871
650.728	3181
650.786	3272
650.843	3594
650.901	1803
650.958	2677
651.016	2244
651.073	2414
651.131	1271
651.188	1785
651.246	2443
651.303	1688
651.360	3216
651.418	2132
651.475	1928
651.532	1349
651.590	2441
651.647	2203
651.704	2231
651.762	2332
651.819	1266
651.876	1713
651.933	1857
651.990	2827
652.048	793
652.105	1231
652.162	1882
652.219	1343
652.276	2620
652.333	2231
652.390	1140
652.448	1783
652.505	1717
652.562	1473
652.619	1373
652.676	2559
652.733	3634
652.790	1723
652.847	503
652.904	2323
652.961	952
653.017	707
653.074	3333
653.131	2200
653.188	339
653.245	1453
653.302	1876
653.359	1270
653.415	2471
653.472	1396
653.529	3007
653.586	1503
653.642	947
653.699	1981
653.756	886
653.813	917
653.869	1424
653.926	1710
653.983	1011
654.039	2834
654.096	1460
654.152	2649
654.209	945
654.266	2236
654.322	-322
654.379	2510
654.435	2614
654.492	3018
654.548	3150
654.605	5213
654.661	3430
654.717	1626
654.774	1551
654.830	1630
654.887	1731
654.943	2332
655.000	1883
655.056	2126
655.112	2247
655.168	826
655.225	1710
655.281	2330
655.337	2684
655.394	4846
655.450	3279
655.506	2754
655.562	4763
655.618	4373
655.675	1912
655.731	1188
655.787	1552
655.843	2371
655.899	1538
655.955	2394
656.011	1618
656.067	764
656.123	1751
656.179	1753
656.235	2403
656.291	-143
656.347	2471
656.403	1185
656.459	2114
656.515	2311
656.571	2182
656.627	2272
656.683	1651
656.739	1982
656.795	2177
656.850	2084
656.906	1968
656.962	1851
657.018	825
657.074	1375
657.129	1918
657.185	3528
657.241	7509
657.297	4612
657.352	1749
657.408	1025
657.464	2535
657.519	1316
657.575	590
657.630	1618
657.686	1809
657.742	538
657.797	971
657.853	696
657.908	1726
657.964	984
658.019	1153
658.075	1631
658.130	2338
658.186	794
658.241	1507
658.297	-29
658.352	759
658.407	1199
658.463	1326
658.518	1044
658.573	1181
658.629	182
658.684	1011
658.739	2123
658.795	783
658.850	1823
658.905	857
658.960	1186
659.016	453
659.071	1929
659.126	1718
659.181	1111
659.236	3251
659.291	3975
659.346	1656
659.401	1749
659.457	1780
659.512	995
659.567	1789
659.622	928
659.677	1041
659.732	661
659.787	2020
659.842	1752
659.897	3009
659.952	1626
660.007	523
660.061	1300
660.116	1242
660.171	591
660.226	864
660.281	2366
660.336	672
660.391	1786
660.445	-42
660.500	1553
660.555	1317
660.610	248
660.664	717
660.719	733
660.774	1766
660.828	1530
660.883	1682
660.938	1608
660.992	-74
661.047	779
661.101	708
661.156	790
661.211	969
661.265	1041
661.320	1356
661.374	1170
661.429	812
661.483	1576
661.538	693
661.592	986
661.647	1464
661.701	1787
661.755	1637
661.810	1886
661.864	482
661.919	426
661.973	610
662.027	1361
662.081	397
662.136	666
662.190	1254
662.244	1477
662.299	1616
662.353	1458
662.407	740
662.461	1667
662.515	1418
662.569	785
662.624	1965
662.678	1682
662.732	389
662.786	1146
662.840	1672
662.894	932
662.948	1017
663.002	1336
663.056	1401
663.110	915
663.164	894
663.218	1201
663.272	869
663.326	1280
663.380	841
663.434	1310
663.488	692
663.542	1330
663.595	1213
663.649	545
663.703	1088
663.757	1519
663.811	412
663.864	554
663.918	1300
663.972	853
664.026	1376
664.079	879
664.133	915
664.187	790
664.240	993
664.294	1128
664.348	1034
664.401	578
664.455	758
664.508	1038
664.562	392
664.615	957
664.669	118
664.722	813
664.776	595
664.829	981
664.883	496
664.936	658
664.990	761
665.043	1130
665.097	663
665.150	1937
665.203	908
665.257	761
665.310	1174
665.363	866
665.417	1794
665.470	1631
665.523	486
665.576	909
665.630	858
665.683	804
665.736	1470
665.789	1343
665.842	1030
665.895	1229
665.949	1828
666.002	1819
666.055	1237
666.108	2163
666.161	1560
666.214	1160
666.267	1895
666.320	2426
666.373	1622
666.426	2452
666.479	2035
666.532	1646
666.585	2385
666.638	2797
666.691	2000
666.744	2079
666.796	1313
666.849	2200
666.902	1285
666.955	1369
667.008	1560
667.060	1443
667.113	793
667.166	955
667.219	1590
667.271	843
667.324	1171
667.377	1691
667.430	970
667.482	1518
667.535	2734
667.587	1107
667.640	1873
667.693	1516
667.745	2475
667.798	3924
667.850	1610
667.903	1268
667.955	882
668.008	220
668.060	2354
668.113	2232
668.165	1854
668.218	2596
668.270	1508
668.322	1647
668.375	1375
668.427	1584
668.479	2066
668.532	1723
668.584	1313
668.636	1169
668.689	1191
668.741	1505
668.793	2239
668.845	1526
668.898	1990
668.950	2059
669.002	1730
669.054	1403
669.106	754
669.158	1946
669.211	832
669.263	2040
669.315	2614
669.367	2534
669.419	600
669.471	2903
669.523	2151
669.575	2808
669.627	2821
669.679	1322
669.731	2491
669.783	2409
669.835	2438
669.886	1838
669.938	1448
669.990	2903
670.042	2121
670.094	2960
670.146	2950
670.197	4069
670.249	4963
670.301	5780
670.353	8649
670.404	12608
670.456	20050
670.508	30744
670.560	50928
670.611	85009
670.663	149311
670.715	347562
670.766	539998
670.818	183263
670.869	34187
670.921	16726
670.972	10282
671.024	7865
671.075	6303
671.127	4859
671.178	3453
671.230	3920
671.281	3069
671.333	3204
671.384	3353
671.436	3240
671.487	4976
671.538	5747
671.590	8166
671.641	12339
671.692	19926
671.744	39083
671.795	24569
671.846	8778
671.897	5029
671.949	3314
672.000	2711
672.051	2060
672.102	2903
672.153	1570
672.204	1943
672.256	1791
672.307	2144
672.358	1435
672.409	1334
672.460	1865
672.511	1509
672.562	1383
672.613	1024
672.664	734
672.715	1546
672.766	1635
672.817	339
672.868	451
672.919	1534
672.970	642
673.021	1954
673.071	551
673.122	1169
673.173	1449
673.224	497
673.275	1981
673.326	437
673.376	1516
673.427	814
673.478	560
673.528	1573
673.579	663
673.630	1338
673.680	1587
673.731	167
673.782	691
673.832	1199
673.883	1917
673.934	981
673.984	661
674.035	1269
674.085	729
674.136	997
674.186	1091
674.237	1187
674.287	3455
674.338	1656
674.388	168
674.438	400
674.489	1613
674.539	539
674.589	1195
674.640	879
674.690	1177
674.740	720
674.791	990
674.841	1210
674.891	1137
674.942	1236
674.992	964
675.042	858
675.092	68
675.142	794
675.193	414
675.243	112
675.293	566
675.343	694
675.393	248
675.443	1095
675.493	457
675.543	-371
675.593	1571
675.643	1127
675.693	635
675.743	1098
675.793	892
675.843	305
675.893	1215
675.943	1137
675.993	443
676.043	408
676.093	548
676.142	501
676.192	806
676.242	684
676.292	514
676.341	740
676.391	750
676.441	-72
676.491	658
676.540	-219
676.590	693
676.640	481
676.689	564
676.739	462
676.789	32
676.838	237
676.888	831
676.937	158
676.987	-251
677.037	863
677.086	-718
677.136	985
677.185	659
677.235	1082
677.284	602
677.333	276
677.383	-791
677.432	-230
677.482	390
677.531	566
677.580	468
677.630	313
677.679	217
677.728	821
677.778	875
677.827	13
677.876	893
677.925	403
677.975	533
678.024	1158
678.073	642
678.122	620
678.171	1010
678.220	326
678.269	1636
678.319	1644
678.368	219
678.417	1429
678.466	1331
678.515	1040
678.564	1092
678.613	835
678.662	698
678.711	-293
678.760	257
678.809	745
678.857	1234
678.906	538
678.955	284
679.004	760
679.053	880
679.102	445
679.151	379
679.199	353
679.248	956
679.297	820
679.346	-504
679.394	574
679.443	473
679.492	689
679.540	553
679.589	341
679.638	1075
679.686	88
679.735	458
679.784	419
679.832	246
679.881	135
679.929	303
679.978	563
680.026	557
680.075	316
680.123	550
680.172	471
680.220	-233
680.268	211
680.317	173
680.365	57
680.414	-73
680.462	220
680.510	611
680.559	617
680.607	149
680.655	374
680.703	336
680.752	251
680.800	189
680.848	1594
680.896	196
680.945	273
680.993	-132
681.041	-95
681.089	862
681.137	825
681.185	57
681.233	596
681.258	353
681.281	103
681.329	-296
681.377	165
681.380	212
681.425	674
681.473	1330
681.502	1055
681.521	826
681.569	969
681.617	1142
681.624	1090
681.665	618
681.713	693
681.745	919
681.761	990
681.809	561
681.857	646
681.867	809
681.904	1305
681.952	524
681.989	583
682.000	577
682.048	1149
682.096	945
682.111	921
682.143	806
682.191	262
682.233	1580
682.239	1752
682.286	562
682.334	493
682.354	520
682.382	522
682.430	1279
682.476	1487
682.477	1476
682.525	612
682.572	930
682.598	1250
682.620	1484
682.667	822
682.715	1364
682.720	1405
682.763	1650
682.810	704
682.841	933
682.857	997
682.905	545
682.952	1347
682.963	1366
683.000	1418
683.047	1751
683.085	2358
683.095	2484
683.142	545
683.190	1550
683.206	1818
683.237	2341
683.284	2352
683.328	1794
683.332	1728
683.379	2257
683.426	1477
683.449	1646
683.473	1811
683.521	1878
683.568	2616
683.571	2568
683.615	1644
683.662	2130
683.693	2149
683.709	2167
683.757	1174
683.804	2141
683.814	2163
683.851	2186
683.898	2095
683.936	2228
683.945	2245
683.992	2357
684.039	2636
684.057	2665
684.086	2697
684.133	3212
684.179	2706
684.180	2673
684.227	2690
684.274	2523
684.300	2665
684.321	2801
684.368	2339
684.415	2711
684.422	2668
684.462	2287
684.509	2019
684.543	2823
684.556	3103
684.603	3292
684.649	2301
684.665	2283
684.696	2270
684.743	3287
684.786	3267
684.790	3260
684.837	3114
684.883	3439
684.908	3767
684.930	3997
684.977	3779
685.023	3368
685.029	3409
685.070	3527
685.117	3261
685.150	3586
685.164	3744
685.210	3062
685.257	3904
685.272	3802
685.303	3569
685.350	3453
685.393	3632
685.396	3647
685.443	3972
685.490	4469
685.514	4527
685.536	4426
685.583	4413
685.629	4303
685.636	4307
685.675	4295
685.722	3498
685.757	3673
685.768	3795
685.815	4391
685.861	4753
685.878	4360
685.908	3550
685.954	4293
686.000	4761
686.000	4769
686.047	4354
686.093	5734
686.121	6382
686.139	6511
686.185	4783
686.232	4721
686.242	4670
686.278	4580
686.324	4377
686.363	4157
686.370	4137
686.416	4274
686.463	4497
686.484	4338
686.509	4224
686.555	4783
686.601	4665
686.606	4688
686.647	4600
686.693	4191
686.727	3977
686.739	3996
686.785	4218
686.831	4438
686.848	4580
686.877	4778
686.923	5018
686.969	4522
686.969	4518
687.015	4409
687.061	4456
687.090	4822
687.107	5013
687.153	5216
687.199	4699
687.211	4655
687.245	4574
687.291	4570
687.332	5065
687.336	5116
687.382	5330
687.428	5217
687.453	5132
687.474	4905
687.520	4603
687.565	4573
687.574	4443
687.611	4474
687.657	4954
687.695	5780
687.702	5927
687.748	6279
687.794	6492
687.816	6591
687.839	6277
687.885	5878
687.931	5219
687.937	5115
687.976	4971
688.022	5063
688.058	5293
688.067	5348
688.113	5211
688.158	5370
688.179	5225
688.204	5014
688.249	5407
688.295	5494
688.300	5469
688.340	5574
688.386	5682
688.421	5687
688.431	5612
688.477	5685
688.522	5213
688.542	5404
688.567	5904
688.613	5847
688.658	6023
688.663	6037
688.703	5825
688.749	5598
688.784	5887
688.794	6013
688.839	5971
688.884	5853
688.905	6093
688.930	6344
688.975	6005
689.020	5877
689.026	5786
689.065	5386
689.110	5817
689.146	6369
689.155	6453
689.201	6177
689.246	5804
689.267	5895
689.291	6099
689.336	5885
689.381	5557
689.388	5556
689.426	5500
689.471	5776
689.509	5855
689.516	5889
689.561	5504
689.606	5660
689.630	5647
689.651	5747
689.696	5844
689.741	6209
689.750	6196
689.785	6106
689.830	6180
689.871	6242
689.875	6235
689.920	6212
689.965	5958
689.992	5916
690.010	5905
690.054	5955
690.099	5692
690.112	5585
690.144	5709
690.189	6418
690.233	6415
690.233	6423
690.278	6197
690.323	6150
690.354	6114
690.367	6178
690.412	6334
690.457	6317
690.474	6396
690.501	6437
690.546	6328
690.590	6290
690.595	6233
690.635	6101
690.680	6647
690.716	6653
690.724	6621
690.769	6506
690.813	6737
690.836	6761
690.857	6943
690.902	7139
690.946	7217
690.957	7286
690.991	8095
691.035	9492
691.077	10075
691.080	10072
691.124	10280
691.168	10217
691.198	10000
691.213	9750
691.257	9254
691.301	8454
691.318	8219
691.346	7881
691.390	7721
691.434	6682
691.439	6608
691.478	6876
691.522	7648
691.559	7950
691.567	7959
691.611	7738
691.655	7317
691.680	7251
691.699	7354
691.743	7198
691.787	7324
691.800	7408
691.831	7512
691.875	7291
691.919	7090
691.921	7080
691.964	7513
692.008	7731
692.041	8045
692.052	8152
692.096	7980
692.139	8415
692.162	8395
692.183	8202
692.227	8067
692.271	7585
692.282	7494
692.315	7436
692.359	7456
692.402	7562
692.403	7582
692.447	7937
692.490	7988
692.523	8463
692.534	8523
692.578	8068
692.622	8127
692.643	8001
692.666	7818
692.709	7449
692.753	7003
692.763	6955
692.797	7231
692.840	7414
692.884	7300
692.884	7316
692.928	7493
692.971	7817
693.004	7722
693.015	7661
693.059	7838
693.102	7389
693.124	7281
693.146	7386
693.189	7820
693.233	8126
693.245	8203
693.276	8427
693.320	8291
693.363	8512
693.365	8492
693.407	8382
693.450	8714
693.485	8431
693.493	8437
693.537	9014
693.580	9313
693.605	9431
693.624	9621
693.667	10138
693.710	10718
693.725	10864
693.753	12208
693.797	14180
693.840	16375
693.845	16582
693.883	16195
693.926	15799
693.966	15014
693.970	14822
694.013	13144
694.056	11245
694.086	9763
694.099	9736
694.142	9698
694.185	9680
694.206	9590
694.229	9598
694.272	9878
694.315	10140
694.326	10077
694.358	9778
694.401	9815
694.444	9507
694.446	9470
694.487	9394
694.530	9491
694.566	9310
694.573	9222
694.616	8528
694.659	8162
694.686	7644
694.702	7590
694.745	7929
694.787	7880
694.806	7889
694.830	8060
694.873	8176
694.916	8479
694.926	8457
694.959	8257
695.002	8370
695.044	8253
695.046	8222
695.087	8129
695.130	8383
695.166	8241
695.172	8268
695.215	8548
695.258	8717
695.286	8785
695.301	8821
695.343	8920
695.386	9070
695.406	9083
695.428	9025
695.471	8799
695.514	8737
695.526	8638
695.556	8561
695.599	8663
695.641	8571
695.646	8555
695.684	8577
695.726	8421
695.766	8243
695.769	8277
695.811	8548
695.854	8795
695.886	8959
695.896	8912
695.938	8552
695.981	8298
696.005	7977
696.023	7983
696.065	8198
696.108	8404
696.125	8441
696.150	8594
696.192	8707
696.235	8981
696.245	9000
696.277	8745
696.319	8395
696.361	8087
696.365	8032
696.404	8341
696.446	8892
696.485	9051
696.488	9090
696.530	9433
696.572	9682
696.604	9906
696.614	9890
696.656	9599
696.698	9567
696.724	9394
696.740	9291
696.783	9095
696.825	8730
696.844	8581
696.867	8729
696.909	8923
696.951	9034
696.964	9072
696.992	8988
697.034	8813
697.076	8758
697.083	8702
697.118	8870
697.160	9013
697.202	9176
697.203	9155
697.244	9222
697.286	9324
697.323	9219
697.327	9225
697.369	9248
697.411	9092
697.442	9011
697.453	9134
697.494	9470
697.536	9928
697.562	10180
697.578	10119
697.620	9822
697.661	9390
697.682	9257
697.703	9540
697.744	9944
697.786	10432
697.801	10569
697.828	10742
697.869	10881
697.911	11068
697.921	11095
697.952	10762
697.994	10216
698.035	9709
698.040	9618
698.077	9589
698.118	9533
698.160	9455
698.160	9427
698.201	9482
698.243	9443
698.279	9464
698.284	9515
698.325	9681
698.367	9896
698.399	9985
698.408	10010
698.449	9981
698.491	10020
698.518	9979
698.532	10025
698.573	10134
698.614	10204
698.638	10211
698.656	10174
698.697	10049
698.738	9899
698.757	9798
698.779	9809
698.820	9799
698.862	9764
698.877	9730
698.903	9979
698.944	10328
698.985	10673
698.996	10743
699.026	10496
699.067	10111
699.116	9629
699.235	10358
699.354	10091
699.474	9879
699.593	11354
699.713	12249
699.832	9924
699.951	10749
700.070	11017
700.190	10777
700.309	10658
700.428	10898
700.547	9826
700.667	9931
700.786	10756
700.905	9458
701.024	10352
701.143	9213
701.262	9113
701.381	9132
701.500	10154
701.619	9724
701.738	9268
701.857	9089
701.976	8456
702.095	8619
702.214	9382
702.333	10027
702.452	9489
702.571	9022
702.690	8884
702.809	8978
702.928	8615
703.047	9120
703.165	7867
703.284	8254
703.403	8412
703.522	9727
703.640	9411
703.759	10712
703.878	14293
703.997	8653
704.115	8305
704.234	8852
704.353	9022
704.471	8002
704.590	6802
704.708	7504
704.827	6877
704.946	8494
705.064	9350
705.183	8277
705.301	9373
705.420	13198
705.538	11167
705.656	10575
705.775	9785
705.893	13184
706.012	14812
706.130	10555
706.249	9811
706.367	10083
706.485	9548
706.604	10863
706.722	11105
706.840	12970
706.958	15185
707.077	11500
707.195	8962
707.313	8665
707.431	8705
707.549	9609
707.668	9514
707.786	9485
707.904	9155
708.022	9219
708.140	8258
708.258	9147
708.376	9187
708.494	8176
708.612	10087
708.730	13133
708.848	12423
708.966	11112
709.084	11675
709.202	10383
709.320	11006
709.438	11015
709.556	10476
709.674	9960
709.791	10430
709.909	10905
710.027	10303
710.145	10126
710.263	10657
710.380	9761
710.498	9662
710.616	10282
710.733	10081
710.851	10163
710.969	11256
711.086	9671
711.204	10466
711.322	9973
711.439	10313
711.557	10156
711.674	10484
711.792	9783
711.909	10098
712.027	9253
712.144	8845
712.262	10087
712.379	10495
712.497	14090
712.614	14309
712.732	11857
712.849	11800
712.966	13201
713.084	14968
713.201	12400
713.318	12770
713.436	12138
713.553	13098
713.670	11717
713.787	13479
713.905	14644
714.022	11946
714.139	12631
714.256	14501
714.373	18999
714.490	29986
714.608	74234
714.725	327352
714.842	362520
714.959	27990
715.076	15352
715.193	12740
715.310	11553
715.427	11264
715.544	9783
715.661	9999
715.778	10395
715.895	11683
716.011	11995
716.128	10498
716.245	9966
716.362	11115
716.479	11605
716.596	10187
716.713	10181
716.829	9471
716.946	9452
717.063	8283
717.180	7910
717.296	8281
717.413	8917
717.530	9584
717.646	9833
717.763	9550
717.880	9134
717.996	8370
718.113	8980
718.229	8816
718.346	8448
718.462	8350
718.579	10723
718.695	17199
718.812	14074
718.928	12218
719.045	10232
719.161	8357
719.277	7967
719.394	8644
719.510	8586
719.626	8320
719.743	10712
719.859	14401
719.975	24005
720.092	87546
720.208	219755
720.324	28257
720.440	11101
720.557	10515
720.673	14597
720.789	19450
720.905	41507
721.021	14744
721.137	8074
721.253	7601
721.369	9037
721.486	9859
721.602	12862
721.718	8161
721.834	6600
721.950	7274
722.066	6480
722.181	7145
722.297	7847
722.413	7511
722.529	7450
722.645	7066
722.761	6513
722.877	6606
722.993	6094
723.108	7864
723.224	6355
723.340	7325
723.456	6263
723.571	6379
723.687	6675
723.803	5726
723.918	6332
724.034	6415
724.150	6730
724.265	7356
724.381	15310
724.497	19254
724.612	5758
724.728	6301
724.843	5778
724.959	7093
725.074	13746
725.190	17199
725.305	7111
725.421	6556
725.536	5299
725.651	5397
725.767	5494
725.882	4919
725.997	5504
726.113	5802
726.228	5763
726.343	5813
726.459	5310
726.574	5296
726.689	5065
726.804	5536
726.920	4748
727.035	5488
727.150	6631
727.265	5451
727.380	5665
727.495	4979
727.610	5082
727.725	4547
727.841	5263
727.956	6722
728.071	7275
728.186	4880
728.301	4095
728.416	5004
728.531	5084
728.645	4272
728.760	5343
728.875	4747
728.990	4885
729.105	5025
729.220	5035
729.335	5494
729.449	4861
729.564	3365
729.679	3748
729.794	3991
729.908	5138
730.023	4826
730.138	3344
730.253	4792
730.367	4195
730.482	4334
730.596	4359
730.711	4575
730.826	5022
730.940	4835
731.055	4725
731.169	4569
731.284	4616
731.398	4191
731.513	5250
731.627	5024
731.742	6341
731.856	7047
731.970	5355
732.085	6726
732.199	8285
732.313	14780
732.428	35862
732.542	108030
732.656	65648
732.771	11682
732.885	6378
732.999	6056
733.113	6622
733.227	6292
733.342	5185
733.456	4942
733.570	3883
733.684	5361
733.798	4566
733.912	4690
734.026	4612
734.140	4706
734.254	5787
734.368	8613
734.482	11780
734.596	4673
734.710	4019
734.824	4611
734.938	4491
735.052	4177
735.166	5275
735.280	4766
735.393	4223
735.507	4152
735.621	5853
735.735	10324
735.849	5840
735.962	4978
736.076	4618
736.190	5146
736.303	6155
736.417	8843
736.531	4208
736.644	4140
736.758	3162
736.872	3785
736.985	4113
737.099	3644
737.212	3959
737.326	4021
737.439	3393
737.553	3764
737.666	4389
737.780	3013
737.893	3531
738.007	3527
738.120	3508
738.233	3485
738.347	4545
738.460	3201
738.573	4065
738.687	3882
738.800	4154
738.913	5593
739.026	4023
739.140	3387
739.253	3490
739.366	3177
739.479	3072
739.592	2784
739.705	3793
739.818	4082
739.932	2412
740.045	4147
740.158	3429
740.271	3574
740.384	3036
740.497	4186
740.610	3746
740.723	3602
740.836	3621
740.949	3973
741.062	4459
741.174	3607
741.287	3438
741.400	4254
741.513	3752
741.626	3521
741.739	2528
741.851	3560
741.964	3128
742.077	2942
742.189	2807
742.302	3554
742.415	3933
742.527	3314
742.640	1904
742.753	2946
742.865	2078
742.978	3091
743.090	3783
743.203	2750
743.316	3124
743.428	1839
743.541	2876
743.653	2470
743.766	2074
743.878	2625
743.990	4230
744.103	4145
744.215	3099
744.327	3528
744.440	3880
744.552	6282
744.664	3140
744.777	2814
744.889	2468
745.001	2719
745.113	2353
745.226	2399
745.338	3057
745.450	2339
745.562	2394
745.674	2956
745.786	3060
745.898	2374
746.010	2423
746.122	2032
746.234	2896
746.347	2589
746.459	3307
746.570	2311
746.682	2543
746.794	2304
746.906	2598
747.018	2549
747.130	2315
747.242	2116
747.354	2665
747.466	2847
747.577	1860
747.689	1871
747.801	2491
747.913	2102
748.024	1610
748.136	1567
748.248	1794
748.359	2130
748.471	1898
748.583	2022
748.694	2339
748.806	2558
748.918	3304
749.029	2445
749.141	2975
749.252	2531
749.364	2914
749.475	6504
749.587	4336
749.698	2416
749.809	2643
749.921	2888
750.032	1873
750.144	1496
750.255	1345
750.366	2270
750.478	1268
750.589	2556
750.700	2315
750.811	2018
750.923	3430
751.034	7062
751.145	7310
751.256	1418
751.367	2655
751.479	2466
751.590	1380
751.701	1773
751.812	1710
751.923	2217
752.034	2180
752.145	1834
752.256	1674
752.367	1950
752.478	1642
752.589	1493
752.700	1940
752.811	1125
752.922	1887
753.032	1779
753.143	2974
753.254	1312
753.365	2321
753.476	1897
753.586	1901
753.697	1648
753.808	1226
753.919	1792
754.029	1657
754.140	1980
754.251	1307
754.361	1385
754.472	1882
754.582	1500
754.693	1662
754.804	1750
754.914	1589
755.025	1723
755.135	1439
755.246	1423
755.356	1693
755.466	1497
755.577	1294
755.687	1661
755.798	1283
755.908	1531
756.018	1512
756.129	2329
756.239	1898
756.349	1897
756.460	1760
756.570	2304
756.680	1012
756.790	2088
756.900	3171
757.011	2093
757.121	1858
757.231	1374
757.341	948
757.451	1759
757.561	874
757.671	1262
757.781	1011
757.891	1510
758.001	2018
758.111	1702
758.221	2705
758.331	2539
758.441	2096
758.551	3502
758.661	3220
758.771	1785
758.880	1886
758.990	2514
759.100	1332
759.210	2010
759.320	1992
759.429	2077
759.539	2763
759.649	1323
759.758	1928
759.868	2723
759.978	2537
760.087	3208
760.197	2993
760.307	2574
760.416	2595
760.526	1573
760.635	2216
760.745	2389
760.854	2939
760.964	2537
761.073	2904
761.182	2057
761.292	3209
761.401	3206
761.511	2688
761.620	2402
761.729	2691
761.839	1865
761.948	2286
762.057	2311
762.166	2088
762.276	1408
762.385	3011
762.494	1796
762.603	2171
762.712	2499
762.822	1626
762.931	1542
763.040	1339
763.149	1292
763.258	2239
763.367	2559
763.476	2178
763.585	1546
763.694	2155
763.803	2770
763.912	2826
764.021	2073
764.130	1932
764.238	2665
764.347	2641
764.456	2680
764.565	3092
764.674	2426
764.783	2777
764.891	2298
765.000	4260
765.109	3346
765.217	3855
765.326	5185
765.435	5969
765.543	6720
765.652	6782
765.761	9458
765.869	13413
765.978	20751
766.086	36907
766.195	74538
766.303	187791
766.412	451466
766.520	380949
766.629	125189
766.737	45417
766.846	24798
766.954	15794
767.062	13171
767.171	9486
767.279	8158
767.387	6475
767.496	5255
767.604	4168
767.712	4195
767.820	4570
767.928	4075
768.037	3504
768.145	4045
768.253	3310
768.361	3619
768.469	3244
768.577	3533
768.685	3931
768.793	2581
768.901	3746
769.009	5148
769.117	3988
769.225	6145
769.333	9796
769.441	14220
769.549	28145
769.657	65992
769.765	206967
769.873	378183
769.981	149347
770.088	36404
770.196	17088
770.304	11797
770.412	8536
770.519	6529
770.627	5108
770.735	4187
770.842	4220
770.950	4015
771.058	3487
771.165	2781
771.273	3424
771.380	3181
771.488	2972
771.595	3369
771.703	2653
771.810	3284
771.918	1729
772.025	3200
772.133	3074
772.240	2056
772.348	3806
772.455	3573
772.562	3048
772.670	2456
772.777	2687
772.884	1637
772.991	2712
773.099	2613
773.206	1458
773.313	2799
773.420	2381
773.528	1663
773.635	2566
773.742	3162
773.849	2080
773.956	2797
774.063	2447
774.170	1966
774.277	2725
774.384	2231
774.491	1475
774.598	1713
774.705	1997
774.812	2605
774.919	3765
775.026	1826
775.133	1513
775.239	2553
775.346	1879
775.453	1390
775.560	2290
775.667	2227
775.773	1045
775.880	2003
775.987	2234
776.093	2189
776.200	2824
776.307	1213
776.413	1914
776.520	1262
776.627	2591
776.733	1290
776.840	954
776.946	3130
777.053	2159
777.159	2518
777.266	1007
777.372	3097
777.478	1999
777.585	2342
777.691	2010
777.798	1997
777.904	2618
778.010	3150
778.117	3040
778.223	1211
778.329	886
778.435	1358
778.542	2060
778.648	2053
778.754	1928
778.860	988
778.966	1439
779.072	2130
779.178	1629
779.284	1603
779.391	804
779.497	662
779.603	3486
779.708	1272
779.815	3644
779.920	8861
780.026	14674
780.132	3170
780.238	1111
780.344	1702
780.450	2288
780.556	1491
780.661	399
780.767	2278
780.873	1188
780.979	1787
781.085	735
781.190	956
781.296	1349
781.402	922
781.507	1178
781.613	816
781.719	1069
781.824	1631
781.930	1646
782.035	1050
782.141	1791
782.246	1109
782.352	1315
782.457	-216
782.563	1051
782.668	820
782.773	1701
782.879	1190
782.984	2386
783.090	2442
783.195	4214
783.300	2228
783.405	1594
783.511	1060
783.616	2171
783.721	2049
783.826	1381
783.932	1589
784.037	1128
784.142	1585
784.247	1917
784.352	1507
784.457	1119
784.562	763
784.667	522
784.772	1213
784.877	777
784.982	1457
785.087	734
785.192	1843
785.297	959
785.402	1073
785.507	1189
785.611	1640
785.716	1383
785.821	1798
785.926	332
786.031	611
786.135	1420
786.240	1084
786.345	518
786.450	1480
786.554	927
786.659	391
786.763	301
786.868	1440
786.973	1408
787.077	790
787.182	1299
787.286	1661
787.391	1148
787.495	36
787.600	975
787.704	323
787.809	807
787.913	811
788.017	873
788.122	699
788.226	1071
788.330	316
788.435	405
788.539	1450
788.643	1042
788.747	1124
788.852	886
788.956	227
789.060	942
789.164	295
789.268	444
789.372	755
789.476	128
789.580	151
789.684	-129
789.788	1243
789.892	665
789.996	801
790.100	742
790.204	826
790.308	661
790.412	676
790.516	893
790.620	851
790.724	1943
790.828	187
790.931	-27
791.035	1957
791.139	665
791.242	67
791.346	1019
791.450	335
791.554	-28
791.657	193
791.761	970
791.864	859
791.968	951
792.072	1557
792.175	665
792.279	352
792.382	388
792.486	1039
792.589	3
792.693	888
792.796	-372
792.899	1360
793.003	890
793.106	-544
793.209	243
793.313	1344
793.416	-473
793.519	1462
793.623	1761
793.726	2898
793.829	1328
793.932	510
794.035	254
794.138	1693
794.242	1237
794.345	1245
794.448	1553
794.551	1503
794.654	5522
794.757	6986
794.860	2364
794.963	498
795.066	-638
795.169	1527
795.272	-445
795.375	1044
795.477	-232
795.580	456
795.683	234
795.786	647
795.889	-252
795.991	1357
796.094	1379
796.197	-119
796.300	1471
796.402	135
796.505	96
796.608	49
796.710	1295
796.813	-302
796.915	142
797.018	1045
797.120	498
797.223	-306
797.326	1719
797.428	-139
797.530	250
797.633	322
797.735	1544
797.838	1961
797.940	1801
798.042	-695
798.145	633
798.247	993
798.349	-641
798.452	525
798.554	-373
798.656	-842
798.758	1730
798.860	-12
798.962	49
799.065	-170
799.167	-550
799.269	1744
799.371	315
799.473	980
799.575	357
799.677	823
799.779	2387
799.881	585
799.983	1422
800.085	427
800.187	316
800.289	-13
800.390	139
800.492	586
800.594	1527
800.696	-78
800.798	271
800.899	143
801.001	-218
801.103	871
801.205	-530
801.306	242
801.408	-781
801.509	589
801.611	330
801.713	764
801.814	-238
801.916	308
802.017	12
802.119	-1008
802.220	-248
802.322	-1166
802.423	1878
802.525	-285
802.626	5
802.727	-240
802.829	689
802.930	-2065
803.031	1836
803.133	-130
803.234	103
803.335	472
803.436	-248
803.538	-168
803.639	-847
803.740	329
803.841	-437
803.942	391
804.043	460
804.144	-656
804.245	-23
804.346	-72
804.447	-531
804.548	718
804.649	1335
804.750	331
804.851	-182
804.952	-192
805.053	57
805.154	-968
805.255	1363
805.355	1027
805.456	-219
805.557	-316
805.658	-1073
805.758	551
805.859	446
805.960	-47
806.061	-700
806.161	110
806.262	222
806.362	-587
806.463	-421
806.564	290
806.664	-854
806.765	387
806.865	926
806.966	492
807.066	43
807.166	335
807.267	-151
807.367	-968
807.468	510
807.568	-1112
807.668	-70
807.769	257
807.869	79
807.969	-794
808.069	183
808.170	-10
808.270	-420
808.370	436
808.470	828
808.570	-381
808.670	-632
808.770	104
808.870	-332
808.970	214
809.070	-321
809.170	-470
809.271	465
809.370	-459
809.470	68
809.570	-377
809.670	-218
809.770	149
809.870	139
809.970	-839
810.070	-824
810.169	1312
810.269	-873
810.369	609
810.469	343
810.568	17
810.668	-417
810.768	-643
810.867	-117
810.967	342
811.066	18
811.166	638
811.265	1080
811.365	308
811.464	-378
811.564	-288
811.663	-335
811.763	-878
811.862	222
811.962	263
812.061	-513
812.160	-1273
812.260	196
812.359	467
812.458	727
812.557	4751
812.657	7018
812.756	2274
812.855	-79
812.954	454
813.053	325
813.153	-399
813.252	-956
813.351	-235
813.450	219
813.549	-526
813.648	563
813.747	-160
813.846	518
813.945	-274
814.044	291
814.143	174
814.242	268
814.341	-171
814.439	-172
814.538	188
814.637	-173
814.736	139
814.835	1252
814.933	-167
815.032	559
815.131	296
815.229	436
815.328	1652
815.427	-147
815.525	1096
815.624	1247
815.722	822
815.821	1461
815.919	913
816.018	789
816.116	1491
816.215	572
816.313	1958
816.412	1563
816.510	1218
816.609	2579
816.707	2380
816.805	2205
816.904	1545
817.002	3257
817.100	3496
817.198	4179
817.296	3248
817.395	4778
817.493	5869
817.591	6628
817.689	10384
817.787	12458
817.885	20649
817.983	37576
818.081	77164
818.179	173110
818.277	386622
818.375	358308
818.473	122759
818.571	48199
818.669	31120
818.767	26424
818.865	25311
818.963	30710
819.061	42264
819.158	71316
819.256	141479
819.354	299017
819.452	539731
819.549	405777
819.647	158498
819.745	69303
819.842	39048
819.940	26146
820.038	19077
820.135	14679
820.233	12026
820.330	8894
820.428	6186
820.525	6771
820.623	5703
820.720	3952
820.818	4590
820.915	3820
821.012	3712
821.110	1995
821.207	3130
821.304	1680
821.402	2445
821.499	2408
821.596	2427
821.693	2035
821.791	2261
821.888	2259
821.985	4731
822.082	3327
822.179	2380
822.276	932
822.373	1270
822.470	1300
822.567	841
822.664	770
822.761	1697
822.858	-303
822.955	1117
823.052	388
823.149	668
823.246	810
823.343	420
823.440	1167
823.536	-40
823.633	847
823.730	301
823.827	973
823.923	477
824.020	1253
824.117	828
824.213	-265
824.310	1037
824.407	-192
824.503	-31
824.600	587
824.696	-405
824.793	719
824.889	-357
824.986	-367
825.082	281
825.179	594
825.275	117
825.371	-438
825.468	374
825.564	-332
825.660	444
825.757	722
825.853	984
825.949	-366
826.045	168
826.142	691
826.238	7
826.334	-87
826.430	-982
826.526	477
826.622	-416
826.718	683
826.814	-537
826.910	455
827.006	-358
827.102	-681
827.198	760
827.294	-688
827.390	354
827.486	1176
827.582	-1090
827.678	-892
827.774	642
827.869	-771
827.965	502
828.061	-821
828.157	18
828.252	72
828.348	-693
828.444	520
828.539	-625
828.635	449
828.731	523
828.826	-328
828.922	-34
829.017	112
829.113	99
829.208	-1033
829.304	-613
829.399	783
829.495	-771
829.590	-225
829.685	22
829.781	483
829.876	-684
829.971	-678
830.066	-1054
830.162	-218
830.257	-895
830.352	-717
830.447	-226
830.543	-19
830.638	-273
830.733	357
830.828	-647
830.923	1052
831.018	-819
831.113	-628
831.208	-797
831.303	-852
831.398	-253
831.493	-489
831.588	-724
831.683	-949
831.778	-351
831.873	435
831.967	-355
832.062	-645
832.157	-1383
832.252	409
832.346	-175
832.441	-76
832.536	398
832.631	2323
832.725	1376
832.820	-1022
832.914	-80
833.009	-634
833.104	232
833.198	370
833.293	37
833.387	528
833.482	-411
833.576	-1041
833.670	-68
833.765	-705
833.859	-564
833.954	430
834.048	-1084
834.142	-419
834.237	-406
834.331	-1093
834.425	-598
834.519	-522
834.613	105
834.708	-77
834.802	-352
834.896	-1187
834.990	-423
835.084	-255
835.178	-888
835.272	-823
835.366	-1331
835.460	-121
835.554	-437
835.648	-373
835.742	-790
835.836	-345
835.930	-1411
836.024	-183
836.117	13
836.211	-306
836.305	858
836.399	688
836.493	-1339
836.586	-41
836.680	-756
836.774	-808
836.867	940
836.961	-1257
837.055	-1186
837.148	-664
837.242	49
837.335	-771
837.429	-1100
837.522	-1296
837.616	-556
837.709	1211
837.803	-295
837.896	103
837.989	-290
838.083	1242
838.176	1528
838.269	1236
838.363	281
838.456	244
838.549	-71
838.642	906
838.735	4032
838.829	1692
838.922	-729
839.015	-856
839.108	-1354
839.201	-459
839.294	-950
839.387	120
839.480	-1364
839.573	106
839.666	759
839.759	-1106
839.852	-985
839.945	-772
840.038	-655
840.131	-566
840.223	-1499
840.316	429
840.409	-219
840.502	-1209
840.594	707
840.687	-1732
840.780	-70
840.873	-1262
840.965	15
841.058	731
841.150	2096
841.243	655
841.336	206
841.428	245
841.521	-815
841.613	-1141
841.706	-479
841.798	-239
841.890	-833
841.983	-1748
842.075	-489
842.167	370
842.260	-841
842.352	361
842.444	869
842.537	1797
842.629	3514
842.721	-194
842.813	-213
842.905	-538
842.997	-259
843.090	-202
843.182	468
843.274	1787
843.366	5193
843.458	10796
843.550	7366
843.642	238
843.734	-8
843.826	-543
843.918	350
844.009	-76
844.101	-1376
844.193	-238
844.285	-515
844.377	-717
844.469	-173
844.560	-1323
844.652	-81
844.744	-214
844.835	-980
844.927	-749
845.019	-615
845.110	-792
845.202	-506
845.293	-657
845.385	-1453
845.476	-351
845.568	251
845.659	-1656
845.751	-514
845.842	-582
845.934	-732
846.025	-1215
846.116	-417
846.208	-1149
846.299	-755
846.390	-996
846.482	-119
846.573	-367
846.664	-110
846.755	292
846.846	177
846.937	-1733
847.029	-695
847.120	-1309
847.211	-1483
847.302	27
847.393	-995
847.484	-58
847.575	-1330
847.666	-1630
847.757	-737
847.847	-700
847.938	-296
848.029	-1216
848.120	-1023
848.211	-902
848.302	-1216
848.392	-1274
848.483	-942
848.574	-1575
848.664	-1548
848.755	-814
848.846	-964
848.936	-1142
849.027	-1007
849.118	-929
849.208	-1014
849.299	-605
849.389	618
849.480	2914
849.570	6297
849.661	11920
849.751	24167
849.841	8541
849.932	130
850.022	-798
850.112	-29
850.203	-595
850.293	-284
850.383	-596
850.474	-1606
850.564	-648
850.654	-234
850.744	-879
850.834	-1201
850.924	-953
851.014	-985
851.104	-690
851.194	-682
851.284	67
851.374	-41
851.464	-1357
851.554	-552
851.644	-933
851.734	897
851.824	-711
851.914	-1080
852.004	-188
852.094	-952
852.183	-1064
852.273	-748
852.363	-1060
852.452	-1025
852.542	-555
852.632	-910
852.721	222
852.811	-577
852.901	-720
852.990	-1156
853.080	-346
853.169	-583
853.259	-427
853.348	-1563
853.438	-178
853.527	1021
853.617	1023
853.706	3432
853.795	8676
853.885	22649
853.974	43984
854.063	79621
854.152	136577
854.242	53702
854.331	6825
854.420	2275
854.509	1098
854.598	1366
854.687	474
854.777	402
854.866	-619
854.955	-950
855.044	-1080
855.133	-443
855.222	-1204
855.311	-723
855.400	-88
855.488	-1384
855.577	-1143
855.666	-968
855.755	-620
855.844	-1056
855.933	-815
856.021	-923
856.110	-441
856.199	-1632
856.288	-907
856.376	-1534
856.465	-1645
856.554	-1107
856.642	-744
856.731	-694
856.819	-1030
856.908	-1426
856.996	-1423
857.085	-1720
857.173	-1817
857.262	-735
857.350	-586
857.438	-130
857.527	-977
857.615	-894
857.703	-671
857.792	-1437
857.880	-1618
857.968	-1131
858.056	-606
858.145	-1175
858.233	-413
858.321	-1093
858.409	-96
858.497	-1410
858.585	-1245
858.673	-555
858.761	-1066
858.849	-666
858.937	-756
859.025	-1004
859.113	-282
859.201	-1870
859.289	-605
859.377	-1059
859.465	-381
859.552	-1094
859.640	-974
859.728	-464
859.816	-1305
859.903	-880
859.991	-1102
860.079	-729
860.166	-917
860.254	-815
860.342	-266
860.429	-761
860.517	-1487
860.604	-541
860.692	-1069
860.779	-1587
860.867	-804
860.954	-1012
861.042	-1273
861.129	-1308
861.216	-1130
861.304	-1433
861.391	-1152
861.478	-1129
861.565	-542
861.653	-1033
861.740	-1458
861.827	-1070
861.914	-1099
862.001	-1342
862.089	-670
862.176	-521
862.263	-574
862.350	-1444
862.437	-1381
862.524	-1249
862.611	-803
862.698	-1176
862.785	-574
862.871	-923
862.958	-2437
863.045	-1032
863.132	-1309
863.219	-1028
863.306	-1357
863.392	-107
863.479	-1128
863.566	-707
863.652	-1278
863.739	-1190
863.826	-521
863.912	-620
863.999	-803
864.086	-768
864.172	-81
864.259	-906
864.345	-659
864.432	-709
864.518	-1158
864.604	-1233
864.691	-756
864.777	-670
864.863	-710
864.950	6
865.036	-1185
865.122	411
865.209	-94
865.295	96
865.381	473
865.467	366
865.553	1164
865.639	1242
865.726	3793
865.812	9454
865.898	21882
865.984	31481
866.070	60994
866.156	73823
866.242	17642
866.328	3704
866.414	733
866.499	488
866.585	694
866.671	122
866.757	-314
866.843	-288
866.928	-146
867.014	-33
867.100	-587
867.186	259
867.271	-181
867.357	332
867.442	91
867.528	129
867.614	-932
867.699	-950
867.785	467
867.870	-608
867.956	-931
868.041	-141
868.127	186
868.212	26
868.297	-425
868.383	-122
868.468	-221
868.553	709
868.639	1503
868.724	3746
868.809	3767
868.894	61
868.979	-578
869.065	-39
869.150	-1223
869.235	-971
869.320	-907
869.405	-150
869.490	-683
869.575	-801
869.660	-263
869.745	-666
869.830	-1118
869.915	-478
870.000	-793
870.085	-1019
870.169	-637
870.254	-454
870.339	-1518
870.424	-1002
870.509	-802
870.593	-519
870.678	-941
870.763	-1776
870.847	-589
870.932	-1404
871.016	-593
871.101	-1071
871.186	-1081
871.270	-1065
871.355	-89
871.439	-422
871.523	-1358
871.608	-931
871.692	-1450
871.777	309
871.861	-376
871.945	-1003
872.030	-830
872.114	-451
872.198	-562
872.282	-1473
872.367	-835
872.451	-587
872.535	-1068
872.619	-1056
872.703	-1977
872.787	-439
872.871	-502
872.955	-1364
873.039	-652
873.123	-1652
873.207	-363
873.291	-1273
873.375	-1576
873.459	-536
873.543	-977
873.627	-1237
873.711	-1246
873.794	-399
873.878	-1102
873.962	-1959
874.045	-910
874.129	-799
874.137	-799
874.213	-802
874.245	-623
874.296	-337
874.352	-1124
874.380	-1508
874.460	-1435
874.464	-1433
874.547	-1206
874.568	-1127
874.631	-892
874.676	-773
874.714	-693
874.784	-500
874.798	-451
874.881	-282
874.892	-410
874.965	-1353
874.999	-1160
875.048	-862
875.107	-1019
875.131	-1105
875.215	-585
875.215	-584
875.298	-213
875.323	-349
875.381	-720
875.430	-721
875.465	-720
875.538	-644
875.548	-622
875.631	-1205
875.646	-1158
875.714	-1028
875.753	-999
875.798	-930
875.861	-571
875.881	-469
875.964	-647
875.968	-652
876.047	-747
876.076	-598
876.130	-306
876.183	-273
876.213	-244
876.291	169
876.296	192
876.379	-949
876.398	-902
876.462	-701
876.506	-536
876.545	-396
876.613	-688
876.628	-753
876.711	-282
876.721	-324
876.794	-524
876.828	-595
876.877	-842
876.935	-901
876.960	-855
877.043	-199
877.043	-200
877.125	-382
877.150	-196
877.208	321
877.258	201
877.291	47
877.365	-248
877.374	-261
877.456	-586
877.472	-371
877.539	444
877.579	156
877.622	-125
877.687	-133
877.704	-131
877.787	148
877.794	127
877.869	-103
877.901	-167
877.952	-347
878.008	-271
878.034	-170
878.115	-172
878.117	-170
878.199	-113
878.222	-106
878.282	-132
878.329	227
878.364	418
878.437	468
878.447	482
878.529	-545
878.544	-581
878.611	-675
878.651	-413
878.694	-101
878.758	-298
878.776	-395
878.858	-683
878.865	-697
878.941	-642
878.972	-707
879.023	-882
879.078	-632
879.105	-448
879.185	538
879.187	558
879.269	524
879.292	303
879.351	-433
879.399	-606
879.433	-569
879.506	-260
879.516	-241
879.598	-662
879.613	-573
879.680	-113
879.720	39
879.762	151
879.827	-2
879.844	-18
879.926	-542
879.933	-477
880.007	-139
880.040	-157
880.089	199
880.147	588
880.171	727
880.253	1663
880.254	1669
880.335	2880
880.360	3076
880.417	3833
880.467	5509
880.499	6670
880.574	8928
880.580	8982
880.662	2366
880.680	1863
880.744	419
880.787	96
880.825	45
880.893	31
880.907	89
880.989	393
881.000	413
881.070	397
881.106	429
881.152	234
881.213	89
881.233	181
881.315	-302
881.319	-279
881.396	149
881.426	190
881.478	16
881.532	-117
881.559	54
881.639	681
881.641	682
881.722	-41
881.745	-135
881.803	18
881.852	174
881.885	139
881.958	23
881.966	32
882.047	348
882.064	312
882.129	343
882.171	457
882.210	640
882.277	1276
882.291	1297
882.372	-76
882.383	-55
882.454	577
882.489	511
882.535	139
882.596	-118
882.616	-114
882.697	-124
882.702	-127
882.778	151
882.808	170
882.859	128
882.914	414
882.940	410
883.020	9
883.021	15
883.102	455
883.127	443
883.183	284
883.233	243
883.264	237
883.339	618
883.345	626
883.426	-57
883.445	-54
883.507	157
883.551	-24
883.587	-16
883.657	312
883.668	382
883.749	555
883.763	615
883.830	219
883.869	-58
883.910	-34
883.975	-104
883.991	-82
884.072	156
884.081	180
884.152	132
884.187	72
884.233	162
884.292	344
884.314	334
884.394	190
884.398	178
884.475	179
884.504	93
884.555	44
884.610	247
884.636	282
884.716	379
884.716	385
884.797	313
884.821	440
884.877	603
884.927	264
884.958	204
885.033	593
885.038	604
885.118	507
885.139	506
885.199	508
885.244	375
885.279	267
885.350	99
885.359	129
885.439	591
885.456	616
885.520	620
885.561	619
885.600	379
885.667	216
885.680	276
885.760	363
885.773	374
885.840	236
885.878	125
885.920	306
885.984	579
886.000	442
886.080	-43
886.089	-124
886.160	857
886.195	1324
886.240	1065
886.300	703
886.320	734
886.400	1003
886.406	1001
886.480	505
886.511	371
886.560	593
886.616	717
886.640	795
886.720	876
886.722	875
886.800	1151
886.827	1248
886.879	1096
886.932	806
886.959	948
887.038	1275
887.039	1284
887.119	1239
887.143	1172
887.198	1073
887.248	1007
887.278	901
887.354	443
887.358	463
887.437	989
887.459	1061
887.517	829
887.564	665
887.596	816
887.669	970
887.676	937
887.755	729
887.774	615
887.835	472
887.880	454
887.914	870
887.985	1616
887.994	1591
888.073	1166
888.090	1102
888.153	988
888.195	891
888.232	885
888.300	847
888.311	899
888.391	1178
888.405	1220
888.470	575
888.510	203
888.549	326
888.615	487
888.628	596
888.708	1274
888.720	1359
888.787	1252
888.825	1176
888.866	1164
888.930	1213
888.945	1216
889.024	1084
889.035	1073
889.103	1151
889.140	1126
889.182	1207
889.245	1377
889.261	1370
889.340	1260
889.349	1242
889.419	754
889.454	511
889.498	575
889.559	643
889.577	706
889.656	971
889.664	995
889.735	1639
889.768	1937
889.814	1720
889.873	1416
889.978	1560
890.083	1280
890.187	1136
890.292	737
890.397	530
890.501	1451
890.606	1250
890.710	2095
890.815	1768
890.919	1178
891.024	1503
891.128	262
891.233	430
891.337	1202
891.442	1100
891.546	1493
891.650	1004
891.755	1038
891.859	2212
891.963	1891
892.068	1718
892.172	767
892.276	1652
892.380	1230
892.484	659
892.589	774
892.693	1349
892.797	482
892.901	1720
893.005	740
893.109	964
893.213	1523
893.317	1525
893.421	891
893.525	1015
893.629	620
893.733	693
893.837	532
893.941	975
894.045	1533
894.148	1770
894.252	1530
894.356	1159
894.460	1456
894.564	1298
894.667	1037
894.771	1001
894.875	485
894.978	934
895.082	176
895.186	1577
895.289	884
895.393	1197
895.496	618
895.600	1394
895.703	888
895.807	495
895.910	1098
896.014	1181
896.117	362
896.221	1236
896.324	1889
896.427	1195
896.531	822
896.634	1095
896.737	645
896.840	1327
896.944	505
897.047	1450
897.150	1264
897.253	1084
897.356	1498
897.460	1203
897.563	901
897.666	734
897.769	628
897.872	885
897.975	648
898.078	1390
898.181	325
898.284	416
898.387	696
898.490	1429
898.593	1135
898.695	1700
898.798	949
898.901	741
899.004	1815
899.107	1092
899.209	1229
899.312	1152
899.415	482
899.518	1000
899.620	1091
899.723	664
899.826	1052
899.928	1813
900.031	386
900.133	543
900.236	915
900.338	557
900.441	991
900.543	633
900.646	97
900.748	1343
900.851	924
900.953	63
901.055	1023
901.158	503
901.260	1068
901.362	302
901.465	445
901.567	578
901.669	1051
901.771	1212
901.873	708
901.976	711
902.078	819
902.180	707
902.282	643
902.384	660
902.486	-517
902.588	1520
902.690	1855
902.792	709
902.894	1617
902.996	691
903.098	508
903.200	301
903.302	879
903.404	1470
903.505	200
903.607	1040
903.709	515
903.811	779
903.913	238
904.014	726
904.116	-173
904.218	385
904.319	440
904.421	1900
904.523	795
904.624	728
904.726	645
904.827	1280
904.929	654
905.030	371
905.132	1152
905.233	301
905.335	174
905.436	657
905.537	1097
905.639	335
905.740	482
905.841	536
905.943	852
906.044	876
906.145	599
906.247	60
906.348	289
906.449	808
906.550	479
906.651	782
906.752	739
906.854	837
906.955	776
907.056	970
907.157	697
907.258	845
907.359	567
907.460	1226
907.561	1072
907.662	630
907.762	-47
907.863	844
907.964	324
908.065	1562
908.166	1194
908.267	743
908.367	288
908.468	751
908.569	454
908.670	656
908.770	734
908.871	438
908.971	1378
909.072	973
909.173	1243
909.273	1068
909.374	229
909.474	792
909.575	856
909.675	518
909.776	1108
909.876	750
909.977	-66
910.077	475
910.177	591
910.278	678
910.378	1443
910.478	820
910.579	453
910.679	636
910.779	74
910.879	949
910.980	440
911.080	895
911.180	213
911.280	856
911.380	102
911.480	347
911.580	275
911.680	824
911.780	375
911.880	1236
911.980	389
912.080	499
912.180	701
912.280	514
912.380	792
912.480	403
912.580	317
912.679	1160
912.779	682
912.879	880
912.979	353
913.078	165
913.178	351
913.278	784
913.377	647
913.477	411
913.577	166
913.676	601
913.776	912
913.875	577
913.975	669
914.074	174
914.174	562
914.273	847
914.373	844
914.472	1124
914.572	32
914.671	995
914.770	544
914.870	741
914.969	-280
915.068	348
915.167	1448
915.267	-52
915.366	534
915.465	1350
915.564	35
915.663	791
915.763	-183
915.862	291
915.961	850
916.060	972
916.159	585
916.258	743
916.357	-30
916.456	893
916.555	911
916.654	123
916.752	160
916.851	406
916.950	513
917.049	884
917.148	552
917.247	131
917.345	-50
917.444	279
917.543	-9
917.642	-413
917.740	422
917.839	702
917.937	1134
918.036	1139
918.135	-28
918.233	46
918.332	-45
918.430	434
918.529	43
918.627	705
918.726	-365
918.824	478
918.923	1120
919.021	642
919.119	503
919.218	-521
919.316	661
919.414	1035
919.512	503
919.611	732
919.709	305
919.807	800
919.905	576
920.003	1006
920.102	548
920.200	1098
920.298	1165
920.396	1143
920.494	899
920.592	1767
920.690	892
920.788	1123
920.886	352
920.984	842
921.082	356
921.180	800
921.277	1094
921.375	996
921.473	1178
921.571	881
921.669	757
921.766	1426
921.864	1485
921.962	1094
922.060	875
922.157	1200
922.255	797
922.352	1039
922.450	704
922.548	1052
922.645	434
922.743	1895
922.840	2516
922.938	1869
923.035	1804
923.133	1493
923.230	2664
923.327	3035
923.425	2573
923.522	2327
923.619	1333
923.717	2098
923.814	1532
923.911	1491
924.008	2703
924.106	1656
924.203	1370
924.300	1752
924.397	1982
924.494	1167
924.591	2583
924.688	1864
924.786	1674
924.883	2402
924.979	1375
925.077	1892
925.173	1868
925.270	1576
925.367	1340
925.464	2212
925.561	2335
925.658	1856
925.755	1483
925.852	2290
925.948	1900
926.045	1709
926.142	1512
926.239	2545
926.335	2002
926.432	1408
926.529	1539
926.625	1640
926.722	1546
926.818	1979
926.915	1274
927.011	1422
927.108	974
927.204	1269
927.301	1325
927.397	2140
927.494	1833
927.590	1777
927.687	1134
927.783	2191
927.879	1984
927.976	1774
928.072	897
928.168	1351
928.264	1855
928.361	1120
928.457	1818
928.553	967
928.649	1721
928.745	1511
928.841	1395
928.937	1409
929.033	2071
929.129	1343
929.225	1324
929.321	1222
929.417	1506
929.513	1685
929.609	1573
929.705	1511
929.801	1581
929.897	1189
929.993	1252
930.089	1673
930.184	407
930.280	1828
930.376	2208
930.471	1284
930.567	614
930.663	1711
930.758	400
930.854	1590
930.950	849
931.045	1633
931.141	835
931.236	2367
931.332	1550
931.427	1296
931.523	1414
931.618	1360
931.714	504
931.809	1418
931.905	247
932.000	693
932.095	682
932.191	467
932.286	1469
932.381	1585
932.476	910
932.572	1636
932.667	1363
932.762	1424
932.857	1479
932.952	849
933.047	2019
933.142	1424
933.237	1436
933.332	1879
933.427	1536
933.522	896
933.617	834
933.712	985
933.807	1731
933.902	283
933.997	1636
934.092	1770
934.187	319
934.282	1501
934.376	1247
934.471	1004
934.566	1182
934.661	1112
934.755	1509
934.850	1037
934.945	1184
935.039	791
935.134	1242
935.228	1514
935.323	1380
935.417	1199
935.512	947
935.606	751
935.701	1086
935.795	750
935.890	654
935.984	1770
936.079	1074
936.173	1678
936.267	367
936.362	626
936.456	1360
936.550	1870
936.644	774
936.738	420
936.833	634
936.927	894
937.021	483
937.115	817
937.209	234
937.303	1455
937.397	460
937.491	1072
937.585	1554
937.679	1482
937.773	1378
937.867	782
937.961	214
938.055	1061
938.149	1015
938.243	467
938.337	-216
938.430	491
938.524	951
938.618	740
938.712	773
938.805	967
938.899	577
938.993	1677
939.086	1186
939.180	154
939.274	-139
939.367	969
939.461	1136
939.554	705
939.648	792
939.741	323
939.835	89
939.928	1147
940.022	595
940.115	456
940.208	638
940.302	1126
940.395	1472
940.488	477
940.582	1201
940.675	-149
940.768	545
940.861	449
940.954	1006
941.048	765
941.141	522
941.234	58
941.327	701
941.420	926
941.513	815
941.606	157
941.699	418
941.792	1058
941.885	403
941.978	1426
942.071	1231
942.164	546
942.257	644
942.349	708
942.442	955
942.535	690
942.628	26
942.721	582
942.813	-177
942.906	977
942.999	184
943.091	45
943.184	218
943.277	-121
943.369	419
943.462	677
943.554	694
943.647	583
943.739	915
943.832	702
943.924	7
944.017	1093
944.109	762
944.201	1242
944.294	83
944.386	728
944.478	220
944.571	1375
944.663	733
944.755	482
944.847	886
944.940	1726
945.032	-781
945.124	-215
945.216	512
945.308	810
945.400	967
945.492	1072
945.584	574
945.676	751
945.768	-147
945.860	1299
945.952	617
946.044	1425
946.136	815
946.228	378
946.320	409
946.412	683
946.503	371
946.595	1381
946.687	336
946.779	1049
946.870	594
946.962	426
947.054	568
947.145	1148
947.237	411
947.329	754
947.420	-43
947.512	351
947.603	-719
947.695	539
947.786	-482
947.878	-28
947.969	665
948.061	509
948.152	187
948.243	612
948.335	-749
948.426	-207
948.517	-120
948.609	69
948.700	108
948.791	167
948.882	894
948.973	407
949.065	520
949.156	1041
949.247	18
949.338	147
949.429	-838
949.520	285
949.611	-268
949.702	451
949.793	400
949.884	174
949.975	-69
950.066	284
950.157	396
950.247	548
950.338	-117
950.429	-151
950.520	705
950.611	259
950.701	274
950.792	-88
950.883	738
950.973	444
951.064	78
951.155	242
951.245	378
951.336	588
951.427	-534
951.517	1320
951.608	46
951.698	644
951.788	434
951.879	41
951.969	-813
952.060	161
952.150	31
952.240	932
952.331	-898
952.421	920
952.511	-126
952.602	101
952.692	586
952.782	10
952.872	-24
952.962	-503
953.052	265
953.143	111
953.233	-129
953.323	289
953.413	285
953.503	-367
953.593	-553
953.683	-313
953.773	-341
953.863	-2
953.953	-514
954.042	148
954.132	-395
954.222	356
954.312	-498
954.402	-66
954.492	261
954.581	550
954.671	-89
954.761	267
954.850	1154
954.940	-280
955.030	-764
955.119	-234
955.209	19
955.298	163
955.388	223
955.477	331
955.567	-319
955.656	903
955.746	1267
955.835	438
955.925	-898
956.014	482
956.103	482
956.193	871
956.282	-893
956.371	348
956.461	622
956.550	-175
956.639	374
956.728	-245
956.817	-457
956.906	-20
956.995	344
957.085	-95
957.174	-398
957.263	462
957.352	632
957.441	955
957.530	-559
957.619	65
957.708	-713
957.796	712
957.885	534
957.974	-184
958.063	-373
958.152	-686
958.241	442
958.329	-23
958.418	44
958.507	523
958.596	561
958.684	-544
958.773	201
958.861	-409
958.950	116
959.039	159
959.127	607
959.216	973
959.304	-152
959.393	-384
959.481	-4
959.570	8
959.658	13
959.746	-162
959.835	348
959.923	502
960.011	-1150
960.100	989
960.188	375
960.276	7
960.365	-337
960.453	62
960.541	-589
960.629	385
960.717	-403
960.805	-359
960.893	-139
960.981	-475
961.069	1205
961.158	-164
961.245	270
961.333	584
961.421	-476
961.509	1
961.597	-594
961.685	235
961.773	-47
961.861	140
961.949	875
962.036	60
962.124	484
962.212	248
962.299	-39
962.387	-130
962.475	-19
962.562	-727
962.650	186
962.738	119
962.825	-93
962.913	-155
963.000	-983
963.088	-372
963.175	-2
963.263	234
963.350	-515
963.438	-930
963.525	-143
963.612	1376
963.700	537
963.787	4749
963.874	1621
963.962	396
964.049	287
964.136	448
964.223	-428
964.310	-599
964.398	-352
964.485	-97
964.572	205
964.659	201
964.746	981
964.833	132
964.920	989
965.007	-168
965.094	-748
965.181	-302
965.268	370
965.355	-541
965.441	368
965.528	-1016
965.615	590
965.702	-203
965.789	352
965.875	-212
965.962	369
966.049	-584
966.136	425
966.222	271
966.309	425
966.395	-998
966.482	-445
966.569	-696
966.655	-887
966.742	-388
966.828	519
966.915	-974
967.001	519
967.087	-538
967.174	-101
967.260	48
967.347	353
967.433	983
967.519	3116
967.605	840
967.692	-347
967.778	217
967.864	-517
967.950	-205
968.036	-732
968.123	-301
968.209	-1004
968.295	-584
968.381	1003
968.467	-708
968.553	-516
968.639	302
968.725	-378
968.811	468
968.897	804
968.983	36
969.069	-584
969.154	364
969.240	-188
969.326	-937
969.412	-169
969.497	212
969.583	-447
969.669	1070
969.755	10
969.840	-651
969.926	72
970.012	-525
970.097	416
970.183	-433
970.268	-349
970.354	377
970.439	-871
970.525	1728
970.610	-165
970.696	725
970.781	-233
970.866	-1279
970.952	197
971.037	-761
971.122	-373
971.208	-864
971.293	-470
971.378	-947
971.463	-913
971.549	214
971.634	-351
971.719	171
971.804	-933
971.889	1092
971.974	-492
972.059	-464
972.144	1093
972.229	-114
972.314	-685
972.399	-378
972.484	-905
972.569	747
972.654	-786
972.739	1305
972.824	459
972.908	-407
972.993	-259
973.078	534
973.163	-1046
973.247	-365
973.332	-1786
973.417	735
973.501	-169
973.586	-327
973.671	-158
973.755	-640
973.840	334
973.924	-182
974.009	64
974.093	-849
974.178	554
974.262	214
974.346	414
974.431	-215
974.515	-1185
974.600	281
974.684	-155
974.768	-570
974.852	883
974.937	-768
975.021	-80
975.105	-389
975.189	-161
975.273	0
975.358	-545
975.442	-864
975.526	358
975.610	-1026
975.694	-850
975.778	153
975.862	-225
975.946	-1656
976.030	535
976.114	-711
976.198	280
976.281	-268
976.365	816
976.449	-710
976.533	-115
976.617	-488
976.700	-1213
976.784	-286
976.868	-999
976.951	-69
977.035	180
977.119	13
977.202	-501
977.286	-260
977.369	-307
977.453	396
977.536	-265
977.620	-298
977.703	-190
977.787	-819
977.870	747
977.953	633
978.037	-2097
978.120	892
978.203	-184
978.287	491
978.370	-562
978.453	-149
978.536	-754
978.620	18
978.703	-238
978.786	-749
978.869	-1235
978.952	-1669
979.035	337
979.118	621
979.201	-1487
979.284	-202
979.367	-2044
979.450	48
979.533	-889
979.616	-665
979.699	-716
979.782	-102
979.865	-737
979.948	-918
980.030	-644
980.113	-311
980.196	-1403
980.279	-902
980.361	-720
980.444	-353
980.526	-510
980.609	-562
980.692	-1158
980.774	24
980.857	-1437
980.939	-207
981.022	-827
981.104	-302
981.187	-638
981.269	680
981.352	-110
981.434	-1002
981.516	-589
981.599	-6
981.681	-259
981.763	-131
981.846	-1069
981.928	67
982.010	-98
982.092	-995
982.174	-470
982.256	-1191
982.339	-517
982.421	-511
982.503	-242
982.585	-921
982.667	-780
982.749	-632
982.831	-206
982.913	-682
982.995	66
983.077	-958
983.158	601
983.240	-1063
983.322	-84
983.404	-329
983.486	-1298
983.568	-1103
983.649	-196
983.731	-321
983.813	-590
983.894	-39
983.976	-1228
984.058	-112
984.139	781
984.221	-1262
984.302	40
984.384	-681
984.465	-982
984.547	571
984.628	-1620
984.710	-19
984.791	-903
984.872	-1207
984.954	-1248
985.035	490
985.116	-651
985.198	-109
985.279	958
985.360	-1140
985.441	-1250
985.522	-56
985.604	-724
985.685	-1440
985.766	200
985.847	597
985.928	-1005
986.009	-283
986.090	-545
986.171	339
986.252	-1367
986.333	-680
986.414	48
986.495	-436
986.576	-345
986.656	-432
986.737	-264
986.818	-286
986.899	-611
986.980	-554
987.060	-141
987.141	-138
987.222	-696
987.302	7
987.383	-325
987.464	-995
987.544	121
987.625	-216
987.705	502
987.786	94
987.866	-1105
987.947	11
988.027	-609
988.108	-382
988.188	-1122
988.268	-188
988.349	-582
988.429	-617
988.509	167
988.589	-534
988.670	-1750
988.750	497
988.830	-656
988.910	-294
988.990	-669
989.070	-611
989.151	-1072
989.231	-1388
989.311	-223
989.391	-778
989.471	-798
989.551	-456
989.631	-424
989.711	496
989.791	-1008
989.870	-612
989.950	-312
990.030	-860
990.110	-35
990.190	-752
990.269	-460
990.349	-491
990.429	-376
990.509	273
990.588	-1495
990.668	-681
990.747	-623
990.827	-740
990.907	-105
990.986	-158
991.066	-183
991.145	-1597
991.225	581
991.304	-276
991.383	-377
991.463	-877
991.542	-209
991.622	151
991.701	-1251
991.780	-1567
991.859	-1190
991.939	-769
992.018	-327
992.097	-351
992.176	-711
992.256	-654
992.335	-771
992.414	496
992.493	-657
992.572	-922
992.651	-115
992.730	-1236
992.809	-218
992.888	-1325
992.967	-1392
993.046	-330
993.125	-1565
993.203	-939
993.282	-1328
993.361	-1519
993.440	-641
993.519	-727
993.597	-416
993.676	-1123
993.755	117
993.834	-366
993.912	-2187
993.991	-10
994.069	-1701
994.148	-1030
994.226	-802
994.305	-686
994.384	-1254
994.462	-440
994.540	-1319
994.619	-1155
994.697	-243
994.776	-787
994.854	-1105
994.932	-952
995.011	-1239
995.089	-893
995.167	-981
995.245	-492
995.324	-1134
995.402	-897
995.480	-1807
995.558	-969
995.636	-1761
995.714	-784
995.792	-192
995.870	-1936
995.948	-1289
996.026	-142
996.104	-2233
996.182	-921
996.260	-866
996.338	-10
996.416	-2702
996.494	-1339
996.572	-673
996.649	-486
996.727	-1973
996.805	-297
996.883	-1400
996.960	-1940
997.038	-706
997.116	-233
997.193	-1070
997.271	-134
997.348	-833
997.426	-1016
997.504	-1058
997.581	-536
997.658	-118
997.736	-1515
997.813	-1722
997.891	-351
997.968	-1951
998.046	-1464
998.123	-1444
998.200	-382
998.277	-1282
998.355	-1115
998.432	-1467
998.509	-1017
998.586	-447
998.663	-1328
998.741	-422
998.818	-1340
998.895	-1247
998.972	-131
999.049	-1111
999.126	-1479
999.203	-411
999.280	-1098
999.357	-1247
999.434	-1134
999.511	-1405
999.587	-376
999.664	-1689
999.741	-1117
999.818	-764
999.895	-1700
999.971	-1845
1000.048	-1276
1000.125	-660
1000.202	-1870
1000.278	-1083
1000.355	-610
1000.431	-1310
1000.508	-1060
1000.584	-1182
1000.661	-1100
1000.738	-2002
1000.814	-1381
1000.890	-1117
1000.967	-974
1001.043	-1699
1001.120	-2306
1001.196	-1120
1001.272	-2056
1001.349	-1308
1001.425	-115
1001.501	-879
1001.577	-1464
1001.654	-425
1001.730	-593
1001.806	-1037
1001.882	-1508
1001.958	-666
1002.034	-539
1002.110	-657
1002.186	-1580
1002.262	-997
1002.338	-1267
1002.414	-1343
1002.490	130
1002.566	-654
1002.642	-1347
1002.718	-189
1002.794	-1528
1002.870	-709
1002.945	-962
1003.021	-1255
1003.097	-1154
1003.173	-846
1003.248	-1443
1003.324	-1883
1003.400	-1183
1003.475	-1162
1003.551	-986
1003.626	-1268
1003.702	-1459
1003.777	-1476
1003.853	-1133
1003.928	-2149
1004.004	-1097
1004.079	-1002
1004.155	-854
1004.230	-2156
1004.305	-749
1004.381	-1374
1004.456	-1105
1004.531	-1213
1004.607	-894
1004.682	-1822
1004.757	-1118
1004.832	-1329
1004.907	-1751
1004.982	-1626
1005.057	-1158
1005.133	-1102
1005.208	-1886
1005.283	-1876
1005.358	-304
1005.433	-1563
1005.508	-886
1005.583	-2371
1005.657	-1882
1005.732	-784
1005.807	-1566
1005.882	-856
1005.957	-1050
1006.032	-965
1006.106	-480
1006.181	-1091
1006.256	-1541
1006.331	-1864
1006.405	-2024
1006.480	-1742
1006.554	-862
1006.629	-1311
1006.704	-1448
1006.778	-962
1006.853	-529
1006.927	-1385
1007.002	-2139
1007.076	-1194
1007.150	-1229
1007.225	-2296
1007.299	-700
1007.373	-1753
1007.448	-1746
1007.522	-1713
1007.596	-1337
1007.671	-1836
1007.745	-1187
1007.819	-1862
1007.893	-1863
1007.967	-1423
1008.041	-2252
1008.115	-560
1008.190	-979
1008.264	-958
1008.338	-2105
1008.412	-1423
1008.486	-1193
1008.560	-1012
1008.633	-1736
1008.707	-1024
1008.781	-797
1008.855	-1222
1008.929	-1195
1009.003	-1895
1009.076	-1925
1009.150	-1492
1009.224	-505
1009.298	-1521
1009.371	-1691
1009.445	-1106
1009.519	-1294
1009.592	-2269
1009.666	-1033
1009.739	-1516
1009.813	-2691
1009.886	-463
1009.960	-2072
1010.033	-1413
1010.107	-504
1010.180	-2220
1010.253	-1764
1010.327	-2116
1010.400	-1916
1010.473	-1427
1010.547	-950
1010.620	-1187
1010.693	-1414
1010.766	-2280
1010.840	-1585
1010.913	-1919
1010.986	-1576
1011.059	-1576
1011.132	-1544
1011.205	-1761
1011.278	-1194
1011.351	-1041
1011.424	-1133
1011.497	-1831
1011.570	-1355
1011.643	-935
1011.716	-1668
1011.789	-1507
1011.862	-1044
1011.934	-1485
1012.007	-2037
1012.080	-1762
1012.153	-1319
1012.225	-364
1012.298	-1900
1012.371	-1617
1012.443	-1391
1012.516	-2208
1012.588	-1483
1012.661	-1342
1012.733	-1936
1012.806	-1816
1012.879	-2455
1012.951	-2190
1013.023	-1401
1013.096	-1712
1013.168	-2279
1013.241	-823
1013.313	-1430
1013.385	-1579
1013.458	-1790
1013.530	-1162
1013.602	-1897
1013.674	-455
1013.746	-1843
1013.819	-2272
1013.891	-1631
1013.963	-2361
1014.035	-1542
1014.107	-1581
1014.179	-1801
1014.251	-2106
1014.323	-1313
1014.395	-1452
1014.467	-744
1014.539	-953
1014.611	-1328
1014.683	-996
1014.754	-1036
1014.826	-2593
1014.898	-1261
1014.970	-2663
1015.042	-566
1015.113	-1559
1015.185	-1301
1015.257	-2712
1015.328	-694
1015.400	-1686
1015.471	-1097
1015.543	-2091
1015.615	-1223
1015.686	-1481
1015.757	-2593
1015.829	-1177
1015.901	-2091
1015.972	-1928
1016.043	-1783
1016.115	-1361
1016.186	-1115
1016.257	-1579
1016.328	-1280
1016.400	-928
1016.471	-1728
1016.542	-1492
1016.613	-838
1016.685	-1841
1016.756	-1123
1016.827	-1623
1016.898	-1680
1016.969	-530
1017.040	-2026
1017.111	-1524
1017.182	-1790
1017.253	-2043
1017.324	-1725
1017.395	-2719
1017.466	-1141
1017.537	-1144
1017.608	-1129
1017.678	-1709
1017.749	-1276
1017.820	-2263
1017.891	-1992
1017.961	-1972
1018.032	-1830
1018.103	-1743
1018.173	-2051
1018.244	-1980
1018.315	-2512
1018.385	-1424
1018.456	-1670
1018.526	-3080
1018.597	-1662
1018.667	-1687
1018.738	-2275
1018.808	-1564
1018.878	-1340
1018.949	-1262
1019.019	-2121
1019.089	-2284
1019.160	-1183
1019.230	-2229
1019.300	-2329
1019.371	-2841
1019.441	-1628
1019.511	-1897
1019.581	-1612
1019.651	-848
1019.721	-1920
1019.791	-2025
1019.861	-1780
1019.931	-2484
1020.001	-1775
1020.071	-1691
1020.141	-1691
1020.211	-1630
1020.281	-1784
1020.351	-2275
1020.421	-1342
1020.491	-2382
1020.560	-2716
1020.630	-2179
1020.700	-1928
1020.770	-2223
1020.839	-2334
1020.909	-1723
1020.979	-2140
1021.048	-2251
1021.118	-1776
1021.187	-1685
1021.257	-1498
1021.326	-1944
1021.396	-2443
1021.465	-2615
1021.535	-1861
1021.604	-2774
1021.674	-2196
1021.743	-1834
1021.812	-2012
1021.882	-2769
1021.951	-2707
1022.020	-1677
1022.089	-1666
1022.159	-1168
1022.228	-1713
1022.297	-2484
1022.366	-2086
1022.435	-1374
1022.504	-1510
1022.573	-2044
1022.642	-1636
1022.711	-2644
1022.781	-1554
1022.849	-2079
1022.918	-2039
1022.987	-2090
1023.056	-2020
1023.125	-1810
1023.194	-2540
1023.263	-2966
1023.331	-1583
1023.400	-2420
1023.469	-2602
1023.538	-1366
1023.606	-2038
1023.675	-2476
1023.744	-2427
1023.812	-2599
1023.881	-2539
1023.949	-2286
1024.018	-2347
1024.086	-2261
1024.155	-1463
1024.223	-2561
1024.292	-2567
1024.360	-1990
1024.429	-2212
1024.497	-1871
1024.565	-1896
1024.634	-2066
1024.702	-1901
1024.770	-2179
1024.838	-2310
1024.907	-2337
1024.975	-2337
1025.043	-2144
1025.111	-2463
1025.179	-1741
1025.247	-2476
1025.315	-2708
1025.383	-2384
1025.451	-1948
1025.519	-2093
1025.587	-2291
1025.655	-1894
1025.723	-1867
1025.791	-1951
1025.859	-2766
1025.927	-1546
1025.995	-2557
1026.062	-1673
1026.130	-2655
1026.198	-2583
1026.266	-2670
1026.333	-1823
1026.401	-1739
1026.469	-2453
1026.536	-1767
1026.604	-2253
1026.671	-2711
1026.739	-2005
1026.806	-1886
1026.874	-1968
1026.941	-2951
1027.009	-2594
1027.076	-2660
1027.144	-689
1027.211	-2003
1027.278	-2701
1027.345	-2545
1027.413	-2154
1027.480	-3047
1027.547	-2034
1027.614	-1856
1027.682	-2579
1027.749	-2314
1027.816	-1851
1027.883	-2255
1027.950	-2046
1028.017	-2567
1028.084	-1423
1028.151	-2825
1028.218	-2281
1028.285	-2238
1028.352	-2862
1028.419	-3177
1028.486	-1695
1028.553	-3095
1028.619	-2027
1028.686	-2558
1028.753	-2310
1028.820	-1837
1028.886	-1258
1028.953	-1999
1029.020	-2312
1029.086	-2399
1029.153	-2269
1029.220	-2509
1029.286	-1952
1029.353	-2409
1029.419	-2263
1029.486	-2675
1029.552	-2145
1029.619	-3096
1029.685	-2143
1029.751	-2914
1029.818	-1618
1029.884	-2431
1029.951	-1428
1030.017	-2870
1030.083	-2057
1030.149	-1986
1030.216	-2628
1030.282	-2885
1030.348	-2575
1030.414	-3030
1030.480	-1996
1030.546	-1322
1030.612	-1367
1030.678	-2162
1030.744	-2498
1030.810	-1819
1030.876	-2387
1030.942	-2640
1031.008	-1979
1031.074	-2290
1031.140	-2375
1031.206	-1486
1031.272	-3055
1031.337	-2547
1031.403	-1833
1031.469	-2815
1031.534	-3073
1031.600	-2415
1031.666	-2093
1031.731	-2723
1031.797	-3216
1031.863	-2655
1031.928	-2390
1031.994	-2940
1032.059	-1872
1032.125	-2659
1032.190	-2495
1032.256	-2991
1032.321	-2868
1032.386	-3361
1032.452	-2345
1032.517	-2096
1032.582	-1772
1032.647	-2326
1032.713	-2678
1032.778	-2603
1032.843	-1910
1032.908	-2663
1032.974	-2339
1033.039	-2881
1033.104	-1999
1033.169	-3027
1033.234	-2430
1033.299	-1159
1033.364	-2076
1033.429	-2329
1033.494	-1742
1033.559	-3440
1033.624	-2580
1033.688	-2342
1033.753	-2300
1033.818	-2151
1033.883	-2691
1033.948	-3043
1034.013	-1926
1034.077	-2114
1034.142	-1959
1034.207	-2486
1034.271	-1387
1034.336	-994
1034.400	-749
1034.465	-1162
1034.530	-2311
1034.594	-2231
1034.658	-1892
1034.723	-2565
1034.787	-2320
1034.852	-2444
1034.916	-2630
1034.981	-2705
1035.045	-1528
1035.109	-2789
1035.173	-1611
1035.238	-2780
1035.302	-2432
1035.366	-3040
1035.430	-2418
1035.495	-2564
1035.559	-1529
1035.623	-2783
1035.687	-2650
1035.751	-2786
1035.815	-2906
1035.879	-1976
1035.943	-2480
1036.007	-2441
1036.071	-2455
1036.135	-1877
1036.198	-2218
1036.262	-2517
1036.326	-1796
1036.390	-2444
1036.454	-2225
1036.517	-2474
1036.581	-3061
1036.645	-2259
1036.709	-1880
1036.772	-2754
1036.836	-1323
1036.900	-2731
1036.963	-3394
1037.026	-1696
1037.090	-2791
1037.154	-2558
1037.217	-2090
1037.280	-2547
1037.344	-2417
1037.407	-2124
1037.471	-2838
1037.534	-3006
1037.597	-2418
1037.661	-2577
1037.724	-2748
1037.787	-3215
1037.850	-2241
1037.913	-2171
1037.977	-2288
1038.040	-2531
1038.103	-2821
1038.166	-2084
1038.229	-2587
1038.292	-1900
1038.355	-1729
1038.418	-2314
1038.481	-1325
1038.544	-1943
1038.607	-2345
1038.670	-2869
1038.732	-2708
1038.795	-2751
1038.858	-2246
1038.921	-1474
1038.984	-2369
1039.046	-2322
1039.109	-2897
1039.172	-2604
1039.234	-2387
1039.297	-2778
1039.360	-2712
1039.422	-2513
1039.485	-2173
1039.547	-2463
1039.610	-2343
1039.672	-2256
1039.734	-2028
1039.797	-2822
1039.859	-2356
1039.922	-2193
1039.984	-2836
1040.046	-2769
1040.109	-2148
1040.171	-2209
1040.233	-2670
1040.295	-2745
1040.358	-2451
1040.420	-2625
1040.482	-2394
1040.544	-2274
1040.606	-2034
1040.668	-2408
1040.730	-1501
1040.792	-2627
1040.854	-1884
1040.916	-1814
1040.978	-2361
1041.040	-1752
1041.102	-2722
1041.164	-1928
1041.225	-2519
1041.287	-2356
1041.349	-2951
1041.411	-2260
1041.472	-1994
1041.534	-2602
1041.596	-2066
1041.657	-2314
1041.719	-2171
1041.781	-2736
1041.842	-3406
1041.904	-2622
1041.965	-2576
1042.027	-2079
1042.088	-1922
1042.150	-3748
1042.211	-1693
1042.272	-2166
1042.334	-2643
1042.395	-1959
1042.456	-2999
1042.518	-1132
1042.579	-1912
1042.640	-2443
1042.701	-1830
1042.763	-2134
1042.824	-2469
1042.885	-2514
1042.946	-2153
1043.007	-1685
1043.068	-1952
1043.129	-2877
1043.190	-2621
1043.251	-1462
1043.312	-2359
1043.373	-1478
1043.434	-1807
1043.495	-2891
1043.556	-1599
1043.616	-1615
1043.677	-2108
1043.738	-1971
1043.799	-2094
1043.859	-1936
1043.920	-1544
1043.981	-2237
1044.041	-1457
1044.102	-2189
1044.162	-1787
1044.223	-2801
1044.284	-2136
1044.344	-2431
1044.405	-2097
1044.465	-2475
1044.525	-2233
1044.586	-2253
1044.646	-2939
1044.707	-2238
1044.767	-1442
1044.827	-1641
1044.887	-2100
1044.948	-1035
1045.008	-1020
1045.068	-2525
1045.128	-834
1045.188	-2157
1045.249	-618
1045.309	-1776
1045.369	-1586
1045.429	-1914
1045.489	-2013
1045.549	-1963
1045.609	-1930
1045.669	-2827
1045.729	-1195
1045.789	-2136
1045.848	-2019
1045.908	-1977
1045.968	-1415
1046.028	-1572
1046.088	-1184
1046.147	-1361
1046.207	-2017
1046.267	-2010
1046.326	-1206
1046.386	-1090
1046.446	-1034
1046.505	-1348
1046.565	-1272
1046.624	-1441
1046.684	-714
1046.743	-265
1046.803	-204
1046.862	-312
1046.922	0
