'Start Wavelength	183.907
'End Wavelength	1046.922
'Gate Delay	5.000
'Gate Width (ms)	1.050
'Laser Output Level	0.000
'X Position	0.000
'Y Position	0.000
'Z Position	0.000
'Grid Point Number	1.000
'Shot Number	100.000
183.907	102.000
183.977	-202.000
184.047	454
184.116	11
184.186	18
184.256	102
184.325	-377
184.395	-118
184.465	-494
184.534	-541
184.604	-820
184.674	554
184.743	-449
184.813	671
184.883	622
184.952	307
185.022	29
185.092	126
185.161	-629
185.231	575
185.301	-537
185.370	443
185.440	-158
185.509	73
185.579	-389
185.649	44
185.718	644
185.788	725
185.857	-852
185.927	45
185.996	-94
186.066	297
186.136	-480
186.205	-259
186.275	-300
186.344	346
186.414	-368
186.483	-113
186.553	182
186.622	1079
186.692	14
186.761	249
186.831	-635
186.900	-99
186.970	171
187.039	129
187.109	630
187.178	475
187.248	471
187.317	529
187.387	-664
187.456	262
187.526	455
187.595	710
187.664	-119
187.734	-2
187.803	75
187.873	835
187.942	441
188.012	158
188.081	-206
188.150	336
188.220	367
188.289	394
188.358	346
188.428	-18
188.497	-650
188.567	519
188.636	-255
188.705	61
188.775	438
188.844	774
188.913	81
188.983	162
189.052	-588
189.121	213
189.191	215
189.260	728
189.329	119
189.399	-1
189.468	245
189.537	512
189.606	-167
189.676	300
189.745	261
189.814	381
189.883	-146
189.953	-32
190.022	350
190.091	1326
190.161	525
190.230	526
190.299	-693
190.368	-692
190.437	-32
190.507	127
190.576	202
190.645	-213
190.714	-251
190.783	-57
190.853	50
190.922	191
190.991	151
191.060	832
191.129	100
191.198	708
191.268	171
191.337	535
191.406	280
191.475	426
191.544	351
191.613	-121
191.682	265
191.752	813
191.821	273
191.890	44
191.959	-434
192.028	365
192.097	-112
192.166	-154
192.235	-88
192.304	272
192.373	-207
192.442	553
192.511	-198
192.580	105
192.650	-111
192.719	532
192.788	57
192.857	458
192.926	278
192.995	454
193.064	700
193.133	940
193.202	357
193.271	1025
193.340	-138
193.409	1082
193.478	223
193.547	903
193.615	1418
193.684	1247
193.753	485
193.822	1017
193.891	63
193.960	1128
194.029	-496
194.098	575
194.167	-404
194.236	79
194.305	-372
194.374	510
194.443	210
194.512	80
194.580	466
194.649	35
194.718	137
194.787	944
194.856	-268
194.925	584
194.994	218
195.062	246
195.131	420
195.200	-125
195.269	778
195.338	494
195.407	664
195.475	404
195.544	-217
195.613	809
195.682	424
195.751	660
195.819	513
195.888	449
195.957	773
196.026	467
196.094	112
196.163	1322
196.232	-119
196.301	585
196.369	159
196.438	64
196.507	396
196.576	685
196.644	176
196.713	500
196.782	172
196.850	215
196.919	-27
196.988	391
197.056	-75
197.125	-194
197.194	668
197.262	210
197.331	288
197.400	158
197.468	15
197.537	377
197.606	115
197.674	902
197.743	986
197.812	706
197.880	251
197.949	310
198.017	1731
198.086	653
198.155	168
198.223	275
198.292	1777
198.360	874
198.429	175
198.497	476
198.566	860
198.635	1118
198.703	687
198.772	1102
198.840	1248
198.909	883
198.977	363
199.046	502
199.114	-251
199.183	856
199.251	-379
199.320	-110
199.388	177
199.457	123
199.525	893
199.594	627
199.662	-134
199.731	-435
199.799	-598
199.867	811
199.936	148
200.004	226
200.073	284
200.141	-24
200.210	53
200.278	333
200.346	178
200.415	793
200.483	373
200.552	311
200.620	870
200.688	550
200.757	-749
200.825	1126
200.893	541
200.962	285
201.030	119
201.098	207
201.167	-91
201.235	1103
201.303	-91
201.372	552
201.440	167
201.508	447
201.577	639
201.645	439
201.713	-39
201.781	168
201.850	1128
201.918	553
201.986	-44
202.055	990
202.123	147
202.191	1472
202.259	124
202.327	463
202.396	-45
202.464	163
202.532	85
202.600	2541
202.669	942
202.737	779
202.805	-254
202.873	522
202.941	400
203.009	1167
203.078	155
203.146	761
203.214	-28
203.282	372
203.350	381
203.418	959
203.487	-706
203.555	405
203.623	108
203.691	1255
203.759	-696
203.827	375
203.895	595
203.963	202
204.031	662
204.099	799
204.168	-57
204.236	545
204.304	559
204.372	853
204.440	677
204.508	308
204.576	51
204.644	-120
204.712	229
204.780	716
204.848	458
204.916	422
204.984	-366
205.052	373
205.120	-77
205.188	360
205.256	521
205.324	608
205.392	182
205.460	983
205.528	423
205.596	1157
205.664	219
205.732	1294
205.799	1800
205.867	2277
205.935	622
206.003	1260
206.071	352
206.139	698
206.207	45
206.275	328
206.343	296
206.411	338
206.478	546
206.546	626
206.614	49
206.682	1017
206.750	452
206.818	1258
206.885	352
206.953	-289
207.021	583
207.089	506
207.157	290
207.225	1174
207.292	-107
207.360	839
207.428	-14
207.496	945
207.563	133
207.631	693
207.699	213
207.767	707
207.834	522
207.902	770
207.970	-412
208.038	1233
208.105	1255
208.173	1208
208.241	534
208.309	1278
208.376	1061
208.444	2262
208.512	831
208.579	73
208.647	1043
208.715	1146
208.782	-13
208.850	1306
208.918	716
208.985	423
209.053	184
209.120	1462
209.188	962
209.256	971
209.323	193
209.391	1278
209.459	875
209.526	1518
209.594	707
209.661	1331
209.729	507
209.796	582
209.864	-129
209.932	553
209.999	869
210.067	1399
210.134	237
210.202	1434
210.269	1098
210.337	1472
210.404	462
210.472	801
210.539	770
210.607	679
210.674	657
210.742	792
210.809	709
210.877	1625
210.944	458
211.012	538
211.079	1245
211.146	809
211.214	1097
211.281	738
211.349	536
211.416	1305
211.484	749
211.551	1305
211.618	638
211.686	852
211.753	399
211.821	1254
211.888	1352
211.955	854
212.023	1526
212.090	1238
212.157	614
212.225	1125
212.292	1812
212.359	3787
212.427	7118
212.494	2880
212.561	1216
212.629	1192
212.696	441
212.763	1394
212.831	1181
212.898	1339
212.965	929
213.032	-272
213.100	875
213.167	1396
213.234	590
213.301	1221
213.369	802
213.436	1280
213.503	822
213.570	1191
213.638	1210
213.705	524
213.772	12
213.839	1566
213.906	897
213.973	1435
214.041	-135
214.108	973
214.175	1581
214.242	857
214.309	649
214.376	1259
214.444	851
214.511	1464
214.578	1008
214.645	2164
214.712	1162
214.779	1107
214.846	906
214.913	1383
214.980	1609
215.048	2104
215.115	1350
215.182	1529
215.249	727
215.316	1351
215.383	885
215.450	1180
215.517	503
215.584	1427
215.651	530
215.718	2103
215.785	920
215.852	1059
215.919	908
215.986	1628
216.053	749
216.120	-278
216.187	480
216.254	1316
216.321	794
216.388	652
216.455	1430
216.522	1695
216.589	1175
216.656	2729
216.722	2045
216.789	2166
216.856	2532
216.923	1438
216.990	1554
217.057	1933
217.124	2396
217.191	1611
217.258	2519
217.324	3462
217.391	3211
217.458	3361
217.525	1128
217.592	1779
217.659	740
217.725	2230
217.792	2048
217.859	1571
217.926	620
217.993	790
218.059	1087
218.126	456
218.193	138
218.260	190
218.327	83
218.393	906
218.460	482
218.527	596
218.594	940
218.660	2272
218.727	1884
218.794	1087
218.860	894
218.927	445
218.994	432
219.061	551
219.127	31
219.194	1761
219.261	103
219.327	580
219.394	562
219.461	549
219.527	686
219.594	937
219.661	280
219.727	126
219.794	447
219.860	741
219.927	1236
219.994	1844
220.060	2578
220.127	2149
220.193	534
220.260	956
220.326	1962
220.393	4628
220.460	5467
220.526	3704
220.593	1538
220.659	2374
220.726	1246
220.792	4988
220.859	4065
220.925	8325
220.992	9234
221.058	8034
221.125	4959
221.191	5269
221.258	2398
221.324	1690
221.391	762
221.457	1056
221.524	1151
221.590	1996
221.657	5246
221.723	3017
221.789	3163
221.856	3175
221.922	753
221.989	1461
222.055	1180
222.121	1108
222.188	2032
222.254	1331
222.321	1005
222.387	514
222.453	728
222.520	922
222.586	118
222.652	1394
222.719	952
222.785	662
222.851	121
222.918	509
222.984	651
223.050	531
223.116	96
223.183	899
223.249	213
223.315	692
223.382	444
223.448	325
223.514	-73
223.580	722
223.647	307
223.713	746
223.779	-279
223.845	865
223.911	589
223.978	558
224.044	164
224.110	665
224.176	82
224.242	923
224.309	753
224.375	1040
224.441	623
224.507	433
224.573	85
224.639	555
224.705	350
224.772	499
224.838	325
224.904	1451
224.970	177
225.036	661
225.102	360
225.168	1502
225.234	487
225.300	909
225.366	289
225.432	726
225.499	-49
225.565	469
225.631	598
225.697	506
225.763	934
225.829	2041
225.895	1010
225.961	1891
226.027	1211
226.093	1363
226.159	2281
226.225	4383
226.291	9114
226.357	13098
226.423	5660
226.489	3547
226.554	1855
226.620	2348
226.686	2718
226.752	3638
226.818	7957
226.884	17956
226.950	12474
227.016	4943
227.082	2442
227.148	2850
227.214	1923
227.279	2390
227.345	1268
227.411	1342
227.477	2060
227.543	4922
227.609	3682
227.674	2345
227.740	1067
227.806	1420
227.872	839
227.938	1382
228.003	1623
228.069	741
228.135	507
228.201	1242
228.267	1301
228.332	969
228.398	1160
228.464	1091
228.530	530
228.595	777
228.661	694
228.727	1461
228.792	446
228.858	908
228.924	-72
228.990	2363
229.055	674
229.121	1446
229.187	233
229.252	889
229.318	-80
229.384	1254
229.449	779
229.515	455
229.581	-877
229.646	1408
229.712	792
229.777	2593
229.843	1990
229.909	2659
229.974	1935
230.040	1874
230.105	1035
230.171	1574
230.236	2067
230.302	3641
230.368	1775
230.433	1808
230.499	1440
230.564	2591
230.630	184
230.695	1182
230.761	668
230.826	386
230.892	2636
230.957	1240
231.023	203
231.088	368
231.154	325
231.219	1275
231.284	1894
231.350	726
231.415	464
231.481	1459
231.546	854
231.612	384
231.677	-47
231.742	67
231.808	777
231.873	-172
231.939	-239
232.004	2413
232.069	1046
232.135	1823
232.200	947
232.265	1733
232.331	1052
232.396	881
232.461	-187
232.527	9
232.592	-39
232.657	951
232.723	610
232.788	1234
232.853	475
232.918	616
232.984	34
233.049	323
233.114	698
233.179	2054
233.245	1961
233.310	2082
233.375	414
233.440	727
233.506	370
233.571	981
233.636	890
233.701	-554
233.766	1725
233.832	1873
233.897	406
233.962	174
234.027	854
234.092	673
234.157	789
234.222	928
234.288	1862
234.353	5455
234.418	4266
234.483	3217
234.548	1492
234.613	2027
234.678	1446
234.743	1717
234.808	5386
234.873	2681
234.938	1250
235.004	1172
235.069	1745
235.134	1093
235.199	1096
235.264	1232
235.329	1198
235.394	1398
235.459	1709
235.524	1084
235.589	1151
235.654	1055
235.719	-409
235.784	1115
235.849	664
235.913	2412
235.978	3067
236.043	2548
236.108	1329
236.173	1376
236.238	1791
236.303	1204
236.368	631
236.433	2753
236.498	3038
236.563	2588
236.627	6044
236.692	20690
236.757	13973
236.822	5913
236.887	2937
236.952	2589
237.017	1759
237.081	3719
237.146	3589
237.211	8881
237.276	23129
237.341	30236
237.405	12290
237.470	5373
237.535	3371
237.600	2890
237.664	929
237.729	1262
237.794	3827
237.859	6053
237.923	3438
237.988	2042
238.053	3317
238.118	3103
238.182	7889
238.247	5480
238.312	2279
238.376	2259
238.441	1450
238.506	2101
238.570	200
238.635	1681
238.700	1266
238.764	1516
238.829	4205
238.893	3297
238.958	1731
239.023	2487
239.087	680
239.152	1686
239.216	841
239.281	1625
239.346	570
239.410	1168
239.475	1890
239.539	7898
239.604	4131
239.668	1740
239.733	128
239.797	2175
239.862	7292
239.926	6573
239.991	2313
240.055	1314
240.120	1181
240.184	1537
240.249	838
240.313	858
240.378	1317
240.442	4839
240.507	5573
240.571	1328
240.635	3648
240.700	3540
240.764	1112
240.829	994
240.893	87
240.957	361
241.022	4311
241.086	6273
241.151	1730
241.215	353
241.279	1902
241.344	2488
241.408	1612
241.472	1441
241.537	1834
241.601	1467
241.665	906
241.730	1466
241.794	1180
241.858	1454
241.922	857
241.987	1298
242.051	743
242.115	882
242.179	980
242.244	595
242.308	1855
242.372	1250
242.436	1323
242.501	1469
242.565	91
242.629	1187
242.693	1295
242.757	307
242.822	1181
242.886	1286
242.950	846
243.014	498
243.078	749
243.142	1373
243.206	599
243.271	1525
243.335	1977
243.399	2759
243.463	11291
243.527	23502
243.591	6246
243.655	2475
243.719	1585
243.783	3185
243.847	3416
243.911	4463
243.975	4649
244.040	2465
244.104	2748
244.168	1967
244.232	3094
244.296	3436
244.360	2919
244.424	1826
244.488	1501
244.552	1896
244.615	-417
244.679	917
244.743	2230
244.807	1541
244.871	1550
244.935	1684
244.999	197
245.063	1351
245.127	1399
245.191	2444
245.255	2337
245.319	2359
245.383	446
245.446	2694
245.510	475
245.574	2237
245.638	761
245.702	1339
245.766	4968
245.829	2593
245.893	863
245.957	1064
246.021	1479
246.085	1095
246.149	1564
246.212	7113
246.276	7431
246.340	2923
246.404	2256
246.467	3516
246.531	3027
246.595	2970
246.659	2376
246.722	1761
246.786	1948
246.850	3084
246.913	3204
246.977	1366
247.041	1805
247.104	1725
247.168	2587
247.232	6035
247.295	11184
247.359	4199
247.423	2170
247.486	4883
247.550	2726
247.614	1939
247.677	3460
247.741	1166
247.804	1205
247.868	2084
247.932	6178
247.995	9599
248.059	2996
248.122	843
248.186	2798
248.249	6057
248.313	18743
248.376	16699
248.440	9617
248.503	3102
248.567	4587
248.630	5461
248.694	7845
248.757	10051
248.821	17683
248.884	9600
248.948	10031
249.011	14348
249.075	21453
249.138	16469
249.202	6784
249.265	4239
249.328	5158
249.392	3709
249.455	3786
249.519	2478
249.582	3589
249.645	6290
249.709	4074
249.772	2326
249.835	2164
249.899	2754
249.962	2786
250.025	2723
250.089	8077
250.152	8761
250.215	4998
250.279	3734
250.342	3644
250.405	3388
250.468	3273
250.532	4227
250.595	5774
250.658	29343
250.721	33873
250.785	11680
250.848	7727
250.911	4323
250.974	3130
251.038	6571
251.101	10354
251.164	5840
251.227	5838
251.290	4541
251.354	9640
251.417	38060
251.480	26671
251.543	23436
251.606	64365
251.669	36512
251.732	14925
251.795	15741
251.859	16799
251.922	39220
251.985	16620
252.048	8171
252.111	6070
252.174	5413
252.237	11678
252.300	21075
252.363	27648
252.426	47479
252.489	17271
252.552	9715
252.615	5537
252.678	7202
252.741	15584
252.804	26009
252.867	48166
252.930	25883
252.993	13849
253.056	8810
253.119	5949
253.182	5079
253.245	7743
253.308	5046
253.371	5393
253.434	5233
253.497	5676
253.559	10476
253.622	6921
253.685	9306
253.748	7879
253.811	3130
253.874	5342
253.937	3614
254.000	3658
254.062	7868
254.125	8675
254.188	11999
254.251	7192
254.314	3772
254.376	7826
254.439	8381
254.502	6038
254.565	7509
254.628	12013
254.690	6654
254.753	3272
254.816	3731
254.878	3346
254.941	8166
255.004	6104
255.067	3755
255.129	3077
255.192	1650
255.255	1420
255.317	2396
255.380	1326
255.443	1583
255.505	905
255.568	1258
255.631	530
255.693	1716
255.756	373
255.819	2370
255.881	1206
255.944	926
256.006	420
256.069	1187
256.132	1039
256.194	2799
256.257	5870
256.319	3815
256.382	2313
256.444	2670
256.507	1517
256.569	1205
256.632	1329
256.694	3494
256.757	13970
256.819	30356
256.882	10507
256.944	4289
257.007	4081
257.069	3488
257.132	2429
257.194	2819
257.257	1612
257.319	1554
257.381	1940
257.444	8450
257.506	41997
257.569	34200
257.631	15541
257.693	8617
257.756	3282
257.818	3327
257.880	1480
257.943	2201
258.005	943
258.067	1484
258.130	1839
258.192	2654
258.254	3709
258.317	2552
258.379	2485
258.441	6882
258.503	5564
258.566	9277
258.628	9124
258.690	2890
258.753	2713
258.815	4331
258.877	2119
258.939	2055
259.001	1519
259.064	1737
259.126	1140
259.188	2813
259.250	2371
259.312	2482
259.375	7698
259.437	4763
259.499	1628
259.561	1780
259.623	2521
259.685	2122
259.747	1409
259.809	8854
259.872	11704
259.934	24113
259.996	16906
260.058	4771
260.120	2344
260.182	1874
260.244	983
260.306	1535
260.368	1836
260.430	1495
260.492	5205
260.554	8693
260.616	4474
260.678	13329
260.740	12275
260.802	3995
260.864	2500
260.926	1353
260.988	1570
261.050	2073
261.112	8353
261.174	18818
261.236	9190
261.298	3339
261.359	6404
261.421	7646
261.483	1875
261.545	1935
261.607	1622
261.669	1682
261.731	4484
261.793	8775
261.854	2588
261.916	2726
261.978	2209
262.040	1743
262.102	1900
262.164	3292
262.225	2057
262.287	1815
262.349	5661
262.411	3648
262.472	1734
262.534	3971
262.596	7275
262.658	2355
262.719	982
262.781	3291
262.843	7516
262.904	2368
262.966	2480
263.028	2420
263.090	21059
263.151	37774
263.213	12250
263.275	6291
263.336	1904
263.398	2520
263.459	1136
263.521	1782
263.583	4964
263.644	2162
263.706	1429
263.767	1176
263.829	1159
263.891	811
263.952	115
264.014	1184
264.075	3761
264.137	8439
264.198	2965
264.260	1377
264.321	891
264.383	6611
264.444	12967
264.506	3547
264.567	2030
264.629	7145
264.690	10150
264.752	3947
264.813	2067
264.875	867
264.936	1890
264.998	1615
265.059	931
265.120	1107
265.182	2867
265.243	20917
265.305	13017
265.366	3760
265.427	1562
265.489	2171
265.550	-171
265.611	1637
265.673	880
265.734	1439
265.795	1122
265.857	977
265.918	769
265.979	5327
266.040	32497
266.102	16764
266.163	5574
266.224	3962
266.286	2103
266.347	1073
266.408	1430
266.469	2176
266.530	-38
266.592	357
266.653	3088
266.714	4710
266.775	1319
266.836	1659
266.898	33
266.959	2702
267.020	1531
267.081	1965
267.142	1307
267.203	774
267.264	-14
267.326	1856
267.387	736
267.448	244
267.509	947
267.570	936
267.631	929
267.692	-36
267.753	952
267.814	-200
267.875	4237
267.936	6364
267.997	4526
268.058	2945
268.119	922
268.180	1144
268.241	743
268.302	346
268.363	-544
268.424	1137
268.485	1215
268.546	226
268.607	33
268.668	490
268.729	122
268.790	1311
268.851	1257
268.912	5109
268.972	3787
269.033	2848
269.094	416
269.155	1354
269.216	361
269.277	963
269.338	306
269.398	797
269.459	594
269.520	1913
269.581	2384
269.642	3279
269.702	1368
269.763	2005
269.824	767
269.885	1733
269.945	2658
270.006	1518
270.067	332
270.128	41
270.188	467
270.249	390
270.310	-338
270.370	1196
270.431	571
270.492	220
270.553	623
270.613	3562
270.674	6768
270.734	1805
270.795	1191
270.856	2334
270.916	819
270.977	1474
271.038	1605
271.098	1240
271.159	2020
271.219	2358
271.280	897
271.340	956
271.401	1259
271.462	3564
271.522	1791
271.583	1509
271.643	1157
271.704	672
271.764	1235
271.825	5809
271.885	20073
271.946	19590
272.006	6282
272.066	12437
272.127	14853
272.187	5129
272.248	2764
272.308	4014
272.369	12703
272.429	5962
272.489	5320
272.550	4824
272.610	5223
272.671	2801
272.731	4155
272.791	4984
272.852	1873
272.912	2221
272.972	1775
273.033	1904
273.093	2072
273.153	2963
273.214	2567
273.274	2308
273.334	12895
273.394	18165
273.455	6027
273.515	9558
273.575	16839
273.635	5334
273.696	10052
273.756	15825
273.816	5412
273.876	3192
273.936	9917
273.997	12632
274.057	2927
274.117	2012
274.177	4950
274.237	25445
274.297	15825
274.358	11424
274.418	14889
274.478	9111
274.538	2739
274.598	2619
274.658	12464
274.718	12295
274.778	4425
274.838	2214
274.898	8158
274.958	18426
275.018	17440
275.078	8905
275.138	3064
275.198	1675
275.258	540
275.318	1911
275.378	4341
275.438	5344
275.498	2836
275.558	11609
275.618	19457
275.678	10809
275.738	8572
275.798	6141
275.858	2355
275.918	797
275.978	2429
276.038	2103
276.098	1134
276.157	4555
276.217	12605
276.277	5222
276.337	3024
276.397	1590
276.457	1744
276.517	2180
276.576	989
276.636	1070
276.696	3196
276.756	8855
276.815	4257
276.875	2327
276.935	2395
276.995	2698
277.055	1083
277.114	1263
277.174	3056
277.234	10134
277.293	3536
277.353	2065
277.413	1439
277.472	2057
277.532	1406
277.592	2589
277.651	13247
277.711	17014
277.771	6490
277.830	27633
277.890	13885
277.950	16599
278.009	37216
278.069	10927
278.128	17509
278.188	18246
278.248	8230
278.307	25018
278.367	10720
278.426	4487
278.486	2160
278.545	2114
278.605	1905
278.664	930
278.724	1415
278.783	10020
278.843	17445
278.902	4725
278.962	3290
279.021	3037
279.081	3255
279.140	3337
279.199	2957
279.259	3892
279.318	3635
279.378	4739
279.437	8450
279.496	37639
279.556	113473
279.615	65126
279.675	18048
279.734	11576
279.793	17822
279.853	24299
279.912	7126
279.971	4101
280.031	4001
280.090	12218
280.149	15361
280.208	15911
280.268	85450
280.327	59765
280.386	14798
280.445	12888
280.505	8678
280.564	5532
280.623	3746
280.682	7963
280.742	8832
280.801	2815
280.860	1402
280.919	1929
280.978	2395
281.037	1802
281.097	1882
281.156	2062
281.215	1122
281.274	2788
281.333	15632
281.392	7627
281.451	1790
281.510	1571
281.569	1318
281.628	1409
281.688	965
281.747	1927
281.806	1695
281.865	1017
281.924	1050
281.983	1120
282.042	526
282.101	598
282.160	1175
282.219	1380
282.278	1468
282.337	7979
282.396	3857
282.454	848
282.513	2516
282.572	12633
282.631	4778
282.690	2272
282.749	1216
282.808	1266
282.867	2563
282.926	2278
282.985	1150
283.043	1306
283.102	1284
283.161	1407
283.220	7811
283.279	12236
283.338	2841
283.396	1899
283.455	1745
283.514	2685
283.573	3900
283.631	2559
283.690	1107
283.749	1785
283.808	5571
283.866	5187
283.925	1506
283.984	2541
284.043	3175
284.101	3167
284.160	1653
284.219	3591
284.277	2660
284.336	5784
284.395	18628
284.453	12296
284.512	5479
284.570	7147
284.629	5400
284.688	5533
284.746	5743
284.805	7763
284.863	9309
284.922	12585
284.981	13474
285.039	21046
285.098	38458
285.156	91431
285.215	126099
285.273	124039
285.332	79512
285.390	44024
285.449	26248
285.507	17605
285.566	11975
285.624	9414
285.683	6959
285.741	5989
285.799	4683
285.858	4268
285.916	4462
285.975	3669
286.033	3466
286.091	3028
286.150	2112
286.208	3309
286.267	2843
286.325	2516
286.383	4789
286.442	2896
286.500	1707
286.558	1448
286.616	1251
286.675	3080
286.733	2237
286.791	1338
286.850	2705
286.908	4531
286.966	6056
287.024	1777
287.083	2219
287.141	1668
287.199	1297
287.257	3249
287.315	1594
287.374	2295
287.432	7145
287.490	3594
287.548	2183
287.606	2065
287.664	2484
287.723	3032
287.781	3583
287.839	1544
287.897	2445
287.955	2502
288.013	3201
288.071	10808
288.129	70137
288.187	145991
288.245	50772
288.303	18479
288.361	10482
288.419	8063
288.477	5164
288.535	3367
288.593	1752
288.651	2033
288.709	1694
288.767	2243
288.825	1482
288.883	1181
288.941	386
288.999	1284
289.057	298
289.115	2167
289.173	747
289.231	1988
289.289	1015
289.346	1320
289.404	1865
289.462	3117
289.520	3634
289.578	1285
289.636	829
289.694	758
289.751	1253
289.809	770
289.867	1597
289.925	2392
289.983	1651
290.040	978
290.098	1063
290.156	1296
290.214	1091
290.271	681
290.329	1083
290.387	638
290.444	303
290.502	623
290.560	464
290.617	1134
290.675	1183
290.733	1011
290.790	662
290.848	571
290.906	1340
290.963	431
291.021	1682
291.078	1158
291.136	687
291.194	11066
291.251	16337
291.309	4362
291.366	891
291.424	1498
291.481	1557
291.539	1517
291.596	897
291.654	902
291.711	686
291.769	1559
291.826	3204
291.884	1356
291.941	606
291.999	486
292.056	964
292.114	1857
292.171	419
292.228	1740
292.286	2317
292.343	4293
292.401	5230
292.458	3059
292.515	2173
292.573	2694
292.630	1817
292.687	2270
292.745	983
292.802	3437
292.859	11079
292.917	16742
292.974	7521
293.031	3003
293.089	1092
293.146	1087
293.203	823
293.260	1213
293.318	1572
293.375	4516
293.432	1587
293.489	1265
293.546	772
293.604	2583
293.661	10868
293.718	24585
293.775	10574
293.832	6229
293.889	4646
293.947	4700
294.004	2231
294.061	2563
294.118	7555
294.175	19806
294.232	23658
294.289	7873
294.346	3468
294.403	3451
294.460	2632
294.517	1674
294.574	1363
294.631	1346
294.688	1482
294.745	9002
294.802	35824
294.859	33031
294.916	12349
294.973	6264
295.030	5513
295.087	4030
295.144	2319
295.201	1939
295.258	1390
295.315	3346
295.372	13057
295.429	19818
295.486	6739
295.542	5323
295.599	21150
295.656	26326
295.713	19419
295.770	19317
295.827	7382
295.883	3769
295.940	3196
295.997	6936
296.054	5050
296.111	3128
296.167	1371
296.224	1633
296.281	1886
296.338	1824
296.394	1227
296.451	2759
296.508	11796
296.564	16806
296.621	10416
296.678	26477
296.734	29125
296.791	11349
296.848	5462
296.904	6944
296.961	15138
297.018	26068
297.074	15734
297.131	5893
297.187	4355
297.244	6113
297.301	29051
297.357	35823
297.414	12141
297.470	5636
297.527	3464
297.583	3294
297.640	3368
297.696	3446
297.753	1394
297.809	1528
297.866	1733
297.922	1506
297.979	825
298.035	2190
298.092	3681
298.148	15330
298.204	10849
298.261	5537
298.317	13672
298.374	27990
298.430	13883
298.486	6720
298.543	4750
298.599	4931
298.656	4842
298.712	10764
298.768	23567
298.824	14548
298.881	4956
298.937	3495
298.993	2790
299.050	3979
299.106	3269
299.162	3429
299.218	2425
299.275	1782
299.331	2053
299.387	7288
299.443	28213
299.500	25339
299.556	11136
299.612	5416
299.668	5096
299.724	9647
299.780	6510
299.837	4103
299.893	6332
299.949	25857
300.005	23952
300.061	27253
300.117	35204
300.173	15879
300.229	7262
300.285	10272
300.341	10044
300.397	5500
300.453	2876
300.510	3102
300.566	3410
300.622	5224
300.678	19605
300.734	27055
300.790	24216
300.845	24134
300.901	19235
300.957	27510
301.013	16776
301.069	6856
301.125	4943
301.181	4354
301.237	4247
301.293	2588
301.349	1501
301.405	2066
301.461	3257
301.516	3591
301.572	3971
301.628	7063
301.684	5818
301.740	12511
301.796	14874
301.851	10567
301.907	17245
301.963	13588
302.019	32032
302.074	73748
302.130	60780
302.186	29107
302.242	11812
302.297	7610
302.353	9297
302.409	16591
302.464	11121
302.520	11860
302.576	29173
302.631	28226
302.687	15311
302.743	7255
302.798	4753
302.854	3161
302.910	3859
302.965	5915
303.021	8937
303.076	7800
303.132	12076
303.187	11829
303.243	6105
303.299	3674
303.354	2746
303.410	4080
303.465	2648
303.521	2393
303.576	1950
303.632	3642
303.687	9219
303.743	25112
303.798	15880
303.853	8242
303.909	3897
303.964	3511
304.020	6619
304.075	8743
304.130	9202
304.186	16437
304.241	16252
304.297	12732
304.352	6675
304.358	6408
304.407	4242
304.449	4095
304.463	4047
304.518	3699
304.539	3471
304.573	3113
304.629	3454
304.630	3510
304.684	6175
304.720	16044
304.739	21065
304.794	23913
304.811	20564
304.850	12391
304.902	6287
304.905	5907
304.960	4526
304.992	4386
305.015	4287
305.071	4839
305.083	4467
305.126	3097
305.173	2278
305.181	2149
305.236	1988
305.264	2667
305.292	3381
305.347	3947
305.354	4090
305.402	4936
305.445	5408
305.457	5557
305.512	5332
305.535	4886
305.567	4223
305.622	4840
305.626	5154
305.678	11357
305.716	23996
305.733	28902
305.788	25730
305.807	23033
305.843	18138
305.897	25376
305.898	25466
305.953	21418
305.988	15496
306.008	12113
306.063	7820
306.078	6995
306.118	5155
306.168	3340
306.173	3195
306.228	2391
306.259	2343
306.283	2313
306.338	2320
306.349	2526
306.393	3438
306.440	3290
306.448	3219
306.503	3054
306.530	3883
306.558	5821
306.613	15727
306.620	16668
306.668	21798
306.711	26262
306.723	26787
306.778	18596
306.801	15002
306.833	10706
306.888	5193
306.892	5033
306.943	3923
306.982	3069
306.997	2817
307.052	2811
307.072	2969
307.107	3653
307.162	5505
307.163	5541
307.217	9337
307.253	12041
307.272	12937
307.327	12756
307.343	11667
307.381	8595
307.434	7004
307.436	7157
307.491	16513
307.524	24064
307.546	26814
307.600	22315
307.614	19957
307.655	11885
307.704	6326
307.710	6083
307.765	6570
307.795	9844
307.819	13911
307.874	23288
307.885	23099
307.929	15803
307.975	9715
307.984	9476
308.038	10859
308.065	13486
308.093	21562
308.148	53712
308.156	61521
308.202	111601
308.246	128555
308.257	123152
308.312	65764
308.336	46380
308.366	36213
308.421	21807
308.426	20901
308.475	14247
308.517	9820
308.530	8910
308.585	7512
308.607	7147
308.639	6930
308.694	7548
308.697	7785
308.748	16926
308.787	25941
308.803	26674
308.857	19461
308.877	16764
308.912	13039
308.967	9557
308.967	9544
309.021	12847
309.058	16166
309.076	19745
309.130	34926
309.148	42099
309.185	74684
309.238	140500
309.239	141258
309.293	167174
309.328	158656
309.348	134134
309.402	63085
309.418	45390
309.457	30651
309.508	18471
309.511	18070
309.566	16442
309.598	17270
309.620	20325
309.674	31692
309.688	34247
309.729	33501
309.778	26592
309.783	25729
309.837	16870
309.868	12786
309.892	13535
309.946	19333
309.959	21482
310.001	30265
310.049	36278
310.055	35112
310.109	21427
310.139	13942
310.163	11065
310.218	6835
310.229	6226
310.272	5175
310.319	4451
310.326	4351
310.381	3671
310.409	3536
310.435	3476
310.489	3099
310.499	3103
310.543	3730
310.589	4357
310.598	4326
310.652	4170
310.679	4028
310.706	3637
310.760	2853
310.769	2715
310.814	2408
310.859	2264
310.868	2294
310.923	2473
310.948	2659
310.977	2970
311.031	3459
311.038	3542
311.085	3716
311.128	3654
311.139	3521
311.193	3057
311.218	2766
311.247	2615
311.301	2471
311.308	2439
311.356	2074
311.398	1919
311.410	1949
311.464	1940
311.488	1985
311.518	2008
311.572	2060
311.578	2080
311.626	2822
311.668	3413
311.680	3520
311.734	4077
311.758	4307
311.788	4503
311.842	4854
311.847	4896
311.896	5230
311.937	5616
311.950	5591
312.004	5455
312.027	5404
312.058	4248
312.112	2215
312.117	2026
312.165	2465
312.207	2865
312.297	4111
312.386	4311
312.476	3330
312.566	5553
312.656	2503
312.745	2886
312.835	2348
312.925	2679
313.015	2774
313.104	3586
313.194	1797
313.284	2832
313.374	2735
313.463	2645
313.553	2906
313.643	2121
313.732	2162
313.822	2382
313.912	2298
314.001	3057
314.091	3802
314.180	5255
314.270	3942
314.360	5352
314.449	3566
314.539	2478
314.628	2349
314.718	3098
314.808	4688
314.897	2864
314.987	2613
315.076	3278
315.166	4423
315.255	4302
315.345	3958
315.434	4198
315.524	3713
315.613	4854
315.703	4890
315.792	7450
315.881	19240
315.971	8779
316.060	7329
316.150	12665
316.239	13928
316.328	6748
316.418	2472
316.507	2612
316.597	3054
316.686	3956
316.775	5513
316.865	15871
316.954	3718
317.043	2190
317.133	2060
317.222	2721
317.311	1765
317.400	1493
317.490	3266
317.579	2904
317.668	2795
317.757	4193
317.847	10341
317.936	34811
318.025	14736
318.114	7829
318.203	5444
318.293	6731
318.382	14578
318.471	12094
318.560	17327
318.649	33386
318.738	9216
318.828	3345
318.917	3587
319.006	5617
319.095	17288
319.184	38799
319.273	23516
319.362	9285
319.451	3358
319.540	3099
319.629	5699
319.718	10975
319.807	5250
319.896	12294
319.985	48966
320.074	20274
320.163	4358
320.252	9337
320.341	6578
320.430	6260
320.519	5757
320.608	4594
320.697	3361
320.786	3098
320.875	4014
320.964	4795
321.053	7304
321.142	9810
321.230	10910
321.319	8031
321.408	20256
321.497	10469
321.586	8143
321.675	12321
321.764	12736
321.852	7619
321.941	11124
322.030	7808
322.119	7797
322.207	20981
322.296	20997
322.385	10010
322.474	9379
322.562	24080
322.651	15324
322.740	9379
322.829	15263
322.917	19296
323.006	9713
323.095	7012
323.183	6328
323.272	8277
323.361	15239
323.449	59759
323.538	21809
323.626	38051
323.715	29842
323.804	8504
323.892	35700
323.981	21678
324.069	5289
324.158	19657
324.246	22950
324.335	5181
324.424	7041
324.512	3569
324.601	4329
324.689	10874
324.778	28118
324.866	15150
324.954	4407
325.043	2475
325.131	7525
325.220	16522
325.308	18642
325.397	12349
325.485	9133
325.574	2504
325.662	1732
325.750	2657
325.839	1700
325.927	2012
326.015	3022
326.104	5997
326.192	9881
326.280	2924
326.369	2291
326.457	3425
326.545	6243
326.634	3615
326.722	2264
326.810	2155
326.898	1526
326.987	2903
327.075	5330
327.163	7871
327.251	3746
327.340	7700
327.428	15150
327.516	3034
327.604	2450
327.692	3018
327.781	3525
327.869	6038
327.957	3674
328.045	2985
328.133	1312
328.221	3060
328.309	2397
328.397	1678
328.485	2838
328.574	3324
328.662	11692
328.750	9260
328.838	3864
328.926	2223
329.014	1008
329.102	2275
329.190	7568
329.278	6420
329.366	1528
329.454	1794
329.542	1739
329.630	1390
329.718	1706
329.806	2368
329.893	1983
329.981	2932
330.069	2683
330.157	13928
330.245	50609
330.333	31280
330.421	4293
330.509	3943
330.597	13729
330.684	11150
330.772	4475
330.860	6399
330.948	8087
331.036	4261
331.123	1476
331.211	2000
331.299	2348
331.387	6180
331.475	13526
331.562	4454
331.650	2019
331.738	2621
331.825	3766
331.913	1648
332.001	898
332.089	2791
332.176	6704
332.264	18321
332.352	17582
332.439	2872
332.527	2826
332.614	2399
332.702	4329
332.790	3110
332.877	6696
332.965	20728
333.052	4778
333.140	4541
333.228	11328
333.315	3694
333.403	2477
333.490	10752
333.578	9926
333.665	11675
333.753	5629
333.840	1533
333.928	2436
334.015	10611
334.103	15249
334.190	56755
334.278	17074
334.365	5636
334.452	5698
334.540	2979
334.627	3546
334.715	5616
334.802	8890
334.889	62459
334.977	85965
335.064	11391
335.151	3695
335.239	3496
335.326	5029
335.413	22422
335.501	42277
335.588	5010
335.675	3292
335.762	3739
335.850	7708
335.937	5588
336.024	13289
336.111	73661
336.199	41588
336.286	7085
336.373	3716
336.460	2337
336.547	1975
336.635	3558
336.722	2478
336.809	2643
336.896	3168
336.983	11625
337.070	35549
337.157	57483
337.245	45243
337.332	41445
337.419	3952
337.506	2537
337.593	2843
337.680	9720
337.767	39095
337.854	11176
337.941	10137
338.028	15993
338.115	6371
338.202	4148
338.289	9694
338.376	46349
338.463	18017
338.550	18456
338.637	27396
338.724	6788
338.811	16593
338.898	3437
338.984	1561
339.071	2567
339.158	2593
339.245	7482
339.332	5352
339.419	7648
339.506	10765
339.593	1420
339.679	1333
339.766	1385
339.853	2274
339.940	5632
340.027	1946
340.113	1579
340.200	2554
340.287	1858
340.374	1816
340.460	4884
340.547	2192
340.634	3237
340.720	13282
340.807	10009
340.894	1578
340.980	2450
341.067	2001
341.154	881
341.240	2254
341.327	7023
341.414	2850
341.500	2370
341.587	1888
341.674	1006
341.760	3807
341.847	5421
341.933	1612
342.020	395
342.106	795
342.193	1546
342.279	2796
342.366	2846
342.452	4095
342.539	2749
342.625	4313
342.712	14779
342.798	6640
342.885	2782
342.971	-169
343.058	1107
343.144	593
343.230	898
343.317	2272
343.403	1560
343.490	998
343.576	1334
343.662	1082
343.749	1209
343.835	2697
343.921	3808
344.008	25403
344.094	86442
344.180	22050
344.267	4723
344.353	17442
344.439	27405
344.525	8078
344.612	3098
344.698	2920
344.784	1455
344.870	1129
344.957	1345
345.043	2814
345.129	2173
345.215	3812
345.301	2631
345.387	1597
345.474	944
345.560	253
345.646	2067
345.732	1126
345.818	2214
345.904	763
345.990	1865
346.076	2901
346.162	5402
346.249	2485
346.335	619
346.421	1348
346.507	5738
346.593	31064
346.679	9669
346.765	2070
346.851	2077
346.937	1422
347.023	1380
347.108	1068
347.194	1355
347.280	1093
347.366	2144
347.452	6669
347.538	36422
347.624	27703
347.710	24923
347.796	3975
347.882	1879
347.967	1330
348.053	2749
348.139	1229
348.225	586
348.311	1509
348.397	689
348.482	1404
348.568	2141
348.654	687
348.740	1953
348.825	2088
348.911	3420
348.997	11668
349.083	39027
349.168	7652
349.254	1650
349.340	1735
349.425	185
349.511	1424
349.597	2196
349.682	3980
349.768	18116
349.854	11666
349.939	2602
350.025	641
350.110	904
350.196	655
350.282	266
350.367	123
350.453	2630
350.538	3883
350.624	2505
350.709	1612
350.795	995
350.880	762
350.966	1887
351.051	3185
351.137	3164
351.222	1089
351.308	4349
351.393	16131
351.479	4619
351.564	1052
351.649	996
351.735	973
351.820	1232
351.906	262
351.991	2340
352.076	7066
352.162	17159
352.247	2576
352.332	1801
352.418	3302
352.503	4760
352.588	18709
352.673	21200
352.759	3692
352.844	1305
352.929	925
353.014	2910
353.100	1889
353.185	3282
353.270	4510
353.355	6278
353.441	1666
353.526	2027
353.611	3969
353.696	5572
353.781	2295
353.866	1015
353.952	1725
354.037	3095
354.122	9999
354.207	8925
354.292	5102
354.377	1148
354.462	899
354.547	2128
354.632	1317
354.717	2862
354.802	4868
354.887	2044
354.972	791
355.057	1039
355.142	1041
355.227	1051
355.312	2693
355.397	5799
355.482	14336
355.567	9276
355.652	4703
355.737	6188
355.822	18686
355.907	22260
355.991	3197
356.076	1532
356.161	1820
356.246	1281
356.331	911
356.416	3806
356.501	32610
356.585	52301
356.670	6605
356.755	3911
356.840	3422
356.924	18863
357.009	91518
357.094	47736
357.179	6783
357.263	5412
357.348	4270
357.433	5369
357.517	3827
357.602	3644
357.687	2359
357.771	4113
357.856	13854
357.941	10642
358.025	13217
358.110	85378
358.195	53774
358.279	6384
358.364	3538
358.448	9968
358.533	38084
358.617	31313
358.702	28332
358.787	13210
358.871	5362
358.956	4524
359.040	1759
359.125	740
359.209	1813
359.294	5842
359.378	12120
359.462	5614
359.547	3245
359.631	2946
359.716	619
359.800	1031
359.885	3015
359.969	1660
360.053	1541
360.138	1851
360.222	1873
360.306	4012
360.391	5151
360.475	6731
360.559	17347
360.644	14066
360.728	11834
360.812	16130
360.896	62632
360.981	28354
361.065	12636
361.149	3801
361.233	2487
361.318	2141
361.402	2620
361.486	2926
361.570	1540
361.654	1856
361.739	6178
361.823	29707
361.907	68677
361.991	14444
362.075	3948
362.159	9475
362.243	9213
362.327	8010
362.411	13130
362.495	7121
362.580	3010
362.664	2281
362.748	2215
362.832	2332
362.916	4053
363.000	15397
363.084	49634
363.168	83213
363.252	21938
363.336	6079
363.420	7494
363.503	28722
363.587	51459
363.671	8627
363.755	3244
363.839	6098
363.923	2618
364.007	4974
364.091	7810
364.175	10218
364.258	54730
364.342	45304
364.426	43829
364.510	31395
364.594	10659
364.677	10700
364.761	46355
364.845	47728
364.929	10151
365.013	8402
365.096	5176
365.180	8841
365.264	10966
365.347	56256
365.431	33721
365.515	6255
365.598	2677
365.682	2023
365.766	3766
365.849	7900
365.933	2839
366.017	4846
366.100	3909
366.184	1496
366.267	2372
366.351	1541
366.435	774
366.518	1207
366.602	1217
366.685	1067
366.769	1214
366.852	4185
366.936	7625
367.019	4270
367.103	2947
367.186	8122
367.270	2571
367.353	809
367.436	1878
367.520	1444
367.603	1694
367.687	2231
367.770	5621
367.853	4400
367.937	10876
368.020	26121
368.104	7089
368.187	3946
368.270	6089
368.353	6309
368.437	8597
368.520	29101
368.603	19754
368.687	14036
368.770	33441
368.853	9956
368.936	5853
369.020	8283
369.103	2612
369.186	1328
369.269	2065
369.352	3733
369.436	5560
369.519	4459
369.602	858
369.685	2128
369.768	1842
369.851	1510
369.934	1428
370.018	2374
370.101	4263
370.184	5268
370.267	2920
370.350	5770
370.433	8436
370.516	22719
370.599	39595
370.682	11094
370.765	12900
370.848	18452
370.931	38463
371.014	20733
371.097	3341
371.180	2365
371.263	1257
371.346	1360
371.429	892
371.511	1478
371.594	3918
371.677	6360
371.760	8833
371.843	5832
371.926	22212
372.009	75164
372.091	31207
372.174	13575
372.257	40009
372.340	20871
372.423	9904
372.505	15224
372.588	6056
372.671	9347
372.754	35658
372.836	25931
372.919	13470
373.002	35394
373.085	13225
373.167	6371
373.250	13458
373.332	36169
373.415	43411
373.498	104860
373.580	48316
373.663	40114
373.746	79045
373.828	18785
373.911	6516
373.993	6651
374.076	27186
374.159	37596
374.241	11898
374.324	27757
374.406	25206
374.489	22459
374.571	85065
374.654	47419
374.736	14548
374.819	47840
374.901	71081
374.983	90875
375.066	19359
375.148	5684
375.231	20325
375.313	55230
375.395	22722
375.478	4825
375.560	3332
375.643	4125
375.725	12253
375.807	60934
375.890	69284
375.972	32720
376.054	12884
376.136	24219
376.219	13741
376.301	14585
376.383	55911
376.465	29673
376.548	10266
376.630	12185
376.712	42969
376.794	29389
376.877	3076
376.959	2003
377.041	2457
377.123	6011
377.205	9067
377.287	2120
377.369	1215
377.452	1839
377.534	629
377.616	1430
377.698	480
377.780	1445
377.862	1907
377.944	1919
378.026	1344
378.108	1069
378.190	1337
378.272	1892
378.354	-290
378.436	964
378.518	1947
378.600	11723
378.682	9940
378.764	18552
378.846	19421
378.928	4405
379.010	6047
379.091	3869
379.173	1167
379.255	1392
379.337	2012
379.419	7131
379.501	29424
379.583	17076
379.664	3382
379.746	5667
379.828	17330
379.910	27394
379.991	28327
380.073	5952
380.155	2416
380.237	2423
380.318	1074
380.400	2407
380.482	3167
380.564	6811
380.645	7097
380.727	6905
380.809	4318
380.890	2234
380.972	1227
381.053	1503
381.135	2864
381.217	5654
381.298	20091
381.380	13774
381.461	8648
381.543	37879
381.624	66795
381.706	14740
381.787	5499
381.869	6276
381.951	14937
382.032	74098
382.113	64575
382.195	12243
382.276	7561
382.358	12481
382.439	40225
382.521	48350
382.602	81270
382.684	41971
382.765	50841
382.846	65945
382.928	87499
383.009	61981
383.090	29571
383.172	99600
383.253	208669
383.334	83284
383.416	66768
383.497	45728
383.578	15663
383.659	26005
383.741	81280
383.822	269169
383.903	190788
383.984	48296
384.066	74896
384.147	57404
384.228	13831
384.309	7333
384.390	6280
384.471	5222
384.553	4286
384.634	5961
384.715	7261
384.796	3834
384.877	3897
384.958	16079
385.039	26639
385.120	9743
385.201	4651
385.282	5127
385.363	5660
385.444	5445
385.525	7605
385.606	29420
385.687	36350
385.768	8476
385.849	6828
385.930	27272
386.011	66880
386.092	24971
386.173	4347
386.254	4183
386.335	3720
386.416	3369
386.496	10802
386.577	21890
386.658	11301
386.739	5270
386.820	5370
386.901	4116
386.981	4191
387.062	2014
387.143	4242
387.224	17662
387.304	24047
387.385	9032
387.466	4332
387.547	6811
387.627	4825
387.708	6412
387.789	31217
387.869	53893
387.950	19982
388.031	2769
388.111	1526
388.192	8466
388.273	13012
388.353	8996
388.434	3687
388.514	6214
388.595	31865
388.676	54969
388.756	25688
388.837	18310
388.917	13325
388.998	3227
389.078	3830
389.159	2418
389.239	1205
389.320	4214
389.400	1958
389.480	7096
389.561	21265
389.641	16178
389.722	3157
389.802	5648
389.883	8714
389.963	27618
390.043	24746
390.124	7780
390.204	6906
390.284	21216
390.365	18566
390.445	18036
390.525	47845
390.605	47589
390.686	15713
390.766	5647
390.846	2987
390.927	2101
391.007	1877
391.087	3698
391.167	3939
391.247	3013
391.328	4424
391.408	8152
391.488	6526
391.568	1365
391.648	2271
391.728	4823
391.808	3807
391.888	5274
391.969	10655
392.049	22226
392.129	13395
392.209	9592
392.289	25986
392.369	19155
392.449	15116
392.529	10516
392.609	6815
392.689	8610
392.769	23375
392.849	29015
392.929	16271
393.009	39412
393.089	38573
393.169	28433
393.248	74588
393.328	301187
393.408	445728
393.488	145449
393.568	33859
393.648	16741
393.728	10191
393.807	7595
393.887	7452
393.967	5487
394.047	6269
394.127	7536
394.206	10985
394.286	30376
394.366	148961
394.446	224330
394.525	61010
394.605	12328
394.685	8944
394.764	18133
394.844	34021
394.924	31054
395.003	9641
395.083	5386
395.163	4332
395.242	3835
395.322	4173
395.402	2427
395.481	5377
395.561	11108
395.640	37314
395.720	35050
395.799	41259
395.879	43134
395.958	17341
396.038	42987
396.117	193824
396.197	295147
396.276	95811
396.356	26755
396.435	19107
396.515	14181
396.594	13458
396.673	24254
396.753	78789
396.832	295981
396.912	300131
396.991	74802
397.070	19284
397.150	9599
397.229	7413
397.308	7669
397.388	15200
397.467	9725
397.546	3958
397.625	1534
397.705	4510
397.784	4662
397.863	2571
397.942	2422
398.022	2537
398.101	9393
398.180	34769
398.259	26346
398.338	5550
398.417	2713
398.497	2473
398.576	2535
398.655	998
398.734	2443
398.813	2048
398.892	7828
398.971	37550
399.050	29445
399.129	3062
399.208	1216
399.287	1586
399.366	588
399.445	1024
399.524	1196
399.603	-106
399.682	3218
399.761	7852
399.840	36852
399.919	42888
399.998	7223
400.077	1764
400.156	490
400.235	2716
400.313	987
400.392	1440
400.471	7830
400.550	17730
400.629	6126
400.708	2182
400.786	2655
400.865	6227
400.944	9536
401.023	4744
401.102	24
401.180	53
401.259	886
401.338	1349
401.416	1628
401.495	1117
401.574	1878
401.652	1173
401.731	1401
401.810	1943
401.888	852
401.967	388
402.046	655
402.124	2281
402.203	2906
402.281	1354
402.360	1944
402.438	8211
402.517	8187
402.596	2576
402.674	2028
402.753	1190
402.831	1331
402.910	1400
402.988	5314
403.066	26192
403.145	22129
403.223	7732
403.302	19913
403.380	18846
403.459	17184
403.537	8660
403.615	2679
403.694	-220
403.772	1086
403.850	406
403.929	786
404.007	-434
404.085	3165
404.164	2862
404.242	693
404.320	1537
404.398	4295
404.477	8772
404.555	49859
404.633	66047
404.711	12534
404.789	2888
404.868	1471
404.946	1471
405.024	329
405.102	570
405.180	-24
405.258	-576
405.336	773
405.415	-283
405.493	2130
405.571	3458
405.649	566
405.727	287
405.805	2691
405.883	1031
405.961	1841
406.039	2663
406.117	773
406.195	1818
406.273	8062
406.351	44193
406.429	40186
406.507	5900
406.585	1382
406.663	754
406.740	1139
406.818	1986
406.896	719
406.974	1050
407.052	1957
407.130	20898
407.208	43742
407.285	12852
407.363	1249
407.441	460
407.519	145
407.596	1704
407.674	6108
407.752	28491
407.830	35978
407.907	10746
407.985	2077
408.063	977
408.141	608
408.218	2061
408.296	2225
408.373	1315
408.451	651
408.529	729
408.606	147
408.684	-48
408.762	89
408.839	-172
408.917	-890
408.994	246
409.072	-333
409.149	-1
409.227	1225
409.304	2542
409.382	2332
409.459	1631
409.537	3814
409.614	3303
409.692	1864
409.769	1298
409.846	3518
409.924	5521
410.001	2740
410.079	2186
410.156	1630
410.233	1099
410.311	840
410.388	552
410.465	838
410.543	1976
410.620	952
410.697	930
410.775	1165
410.852	-412
410.929	1037
411.006	2274
411.083	1441
411.161	3317
411.238	4886
411.315	2598
411.392	573
411.469	929
411.547	1851
411.624	-34
411.701	658
411.778	465
411.855	2345
411.932	920
412.009	-276
412.086	59
412.163	579
412.240	837
412.317	2142
412.394	1145
412.471	1433
412.548	17
412.625	331
412.702	-42
412.779	2797
412.856	2681
412.933	18
413.010	374
413.087	1856
413.164	6936
413.241	15039
413.318	4668
413.395	2473
413.471	2625
413.548	1901
413.625	275
413.702	541
413.779	1007
413.855	-183
413.932	-1352
414.009	-129
414.086	-479
414.162	-420
414.239	1098
414.316	7336
414.393	21866
414.469	10916
414.546	279
414.623	876
414.699	-384
414.776	293
414.853	127
414.929	251
415.006	387
415.082	747
415.159	-199
415.236	-43
415.312	347
415.389	1326
415.465	2011
415.542	1844
415.618	-414
415.695	1574
415.771	175
415.848	686
415.924	620
416.000	749
416.077	531
416.153	-228
416.230	-1618
416.306	-400
416.383	-939
416.459	444
416.535	-692
416.612	-711
416.688	431
416.764	-112
416.841	463
416.917	280
416.993	167
417.069	511
417.146	-7
417.222	1193
417.298	653
417.374	-309
417.451	38
417.527	250
417.603	355
417.679	768
417.755	-358
417.831	-222
417.908	-54
417.984	-299
418.060	-852
418.136	2254
418.212	2087
418.288	1178
418.364	734
418.440	-136
418.516	603
418.592	2257
418.668	4326
418.744	5914
418.820	5998
418.896	1520
418.972	-505
419.048	594
419.124	2064
419.200	1679
419.276	331
419.352	-682
419.428	365
419.504	-235
419.579	697
419.655	825
419.731	-213
419.807	2460
419.883	6911
419.959	6634
420.034	1483
420.110	2397
420.186	10996
420.262	15123
420.337	2863
420.413	1865
420.489	674
420.565	1478
420.640	616
420.716	1450
420.792	-1125
420.867	1048
420.943	-672
421.019	1054
421.094	1053
421.170	568
421.245	234
421.321	-162
421.397	985
421.472	4937
421.548	16271
421.623	16285
421.699	4302
421.774	2538
421.850	1883
421.925	3836
422.001	3471
422.076	3637
422.152	3890
422.227	6197
422.302	8792
422.378	11636
422.453	20116
422.529	45082
422.604	126637
422.679	241021
422.755	198966
422.830	82892
422.905	30197
422.981	16397
423.056	9754
423.131	7799
423.207	5512
423.282	4602
423.357	6190
423.432	5007
423.508	3981
423.583	7144
423.658	8120
423.733	2894
423.808	2977
423.883	2934
423.959	2586
424.034	1920
424.109	2090
424.184	1310
424.259	122
424.334	679
424.409	401
424.484	755
424.559	1045
424.634	161
424.709	905
424.784	2022
424.859	840
424.934	1630
425.009	7526
425.084	17225
425.159	9754
425.234	1680
425.309	672
425.384	3413
425.459	6816
425.534	3122
425.609	1047
425.683	287
425.758	-321
425.833	938
425.908	1961
425.983	4041
426.058	16006
426.132	11741
426.207	1741
426.282	2832
426.357	3191
426.431	825
426.506	798
426.581	569
426.655	1287
426.730	87
426.805	-71
426.879	1554
426.954	718
427.029	2909
427.103	13071
427.178	43298
427.253	31129
427.327	4425
427.402	1760
427.476	8431
427.551	7001
427.625	2796
427.700	1467
427.774	698
427.849	1137
427.923	630
427.998	85
428.072	1278
428.147	3123
428.221	12664
428.296	48643
428.370	44903
428.444	7611
428.519	4163
428.593	8620
428.667	10666
428.742	9012
428.816	11206
428.890	26439
428.965	63522
429.039	28783
429.113	13030
429.188	7265
429.262	1738
429.336	3255
429.410	7831
429.485	8794
429.559	6633
429.633	8576
429.707	3227
429.781	5990
429.855	29851
429.930	66364
430.004	39798
430.078	43368
430.152	49102
430.226	60172
430.300	91547
430.374	24162
430.448	5040
430.522	9548
430.596	39938
430.670	37714
430.744	43117
430.818	95356
430.892	33823
430.966	4062
431.040	1552
431.114	665
431.188	698
431.262	-22
431.336	367
431.410	3488
431.484	9961
431.557	11354
431.631	2508
431.705	1568
431.779	6088
431.853	38675
431.927	51073
432.000	8699
432.074	1692
432.148	1854
432.222	2220
432.295	913
432.369	215
432.443	831
432.516	12159
432.590	48118
432.664	32822
432.737	3385
432.811	-656
432.885	-517
432.958	296
433.032	-483
433.106	-561
433.179	-582
433.253	-194
433.326	-160
433.400	-954
433.473	524
433.547	-1283
433.620	68
433.694	987
433.767	1966
433.841	411
433.914	-124
433.988	473
434.061	706
434.134	320
434.208	-98
434.281	-821
434.355	-1127
434.428	90
434.501	144
434.575	1
434.648	-478
434.721	-302
434.795	-335
434.868	-575
434.941	-24
435.014	-1200
435.088	-307
435.161	1137
435.234	1867
435.307	3269
435.381	1550
435.454	745
435.527	1558
435.600	2613
435.673	1882
435.746	1570
435.819	312
435.892	929
435.966	912
436.039	616
436.112	206
436.185	-512
436.258	-547
436.331	-974
436.404	-865
436.477	-1021
436.550	-699
436.623	-159
436.696	-263
436.769	-267
436.842	-106
436.915	114
436.987	302
437.060	1034
437.133	-370
437.206	-963
437.279	330
437.352	-228
437.425	-272
437.498	129
437.570	1147
437.643	2988
437.716	590
437.789	316
437.861	1396
437.934	8592
438.007	9364
438.080	1538
438.152	1272
438.225	2322
438.298	15701
438.370	74986
438.443	60440
438.516	15691
438.588	4880
438.661	-180
438.734	761
438.806	867
438.879	1659
438.951	1640
439.024	5536
439.096	3207
439.169	724
439.241	-760
439.314	-484
439.386	1479
439.459	3047
439.531	5468
439.604	3881
439.676	696
439.749	25
439.821	-292
439.893	-46
439.966	344
440.038	579
440.110	1846
440.183	561
440.255	374
440.327	1307
440.400	7643
440.472	40518
440.544	53747
440.617	10716
440.689	4112
440.761	5003
440.833	9050
440.905	8928
440.978	2773
441.050	-158
441.122	714
441.194	289
441.266	175
441.338	600
441.411	1745
441.483	9083
441.555	28537
441.627	13418
441.699	3362
441.771	4054
441.843	2997
441.915	262
441.987	814
442.059	659
442.131	1222
442.203	3436
442.275	4680
442.347	5361
442.419	5446
442.491	18909
442.563	72792
442.635	66453
442.706	22690
442.778	20037
442.850	7257
442.922	1747
442.994	2414
443.066	3687
443.137	4499
443.209	3820
443.281	4551
443.353	9214
443.425	28409
443.496	111543
443.568	179332
443.640	99651
443.711	25184
443.783	6433
443.855	4107
443.926	2724
443.998	1660
444.070	3182
444.141	3441
444.213	3946
444.285	5015
444.356	4740
444.428	4752
444.499	2758
444.571	1465
444.642	821
444.714	2228
444.785	2791
444.857	5404
444.928	10384
445.000	12545
445.071	8377
445.143	13204
445.214	10921
445.285	10773
445.357	27622
445.428	74460
445.500	207087
445.571	207255
445.642	118898
445.714	51813
445.785	31663
445.856	18019
445.928	6774
445.999	7006
446.070	5988
446.141	4667
446.213	5142
446.284	4212
446.355	3255
446.426	2907
446.497	1661
446.569	2892
446.640	6552
446.711	7022
446.782	3101
446.853	2004
446.924	3397
446.995	2007
447.066	2665
447.138	5063
447.209	5243
447.280	220
447.351	981
447.422	537
447.493	2038
447.564	3487
447.635	3702
447.706	2625
447.777	1155
447.847	490
447.918	-263
447.989	1747
448.060	3102
448.131	7163
448.202	10598
448.273	7675
448.344	4014
448.414	1608
448.485	1014
448.556	926
448.627	418
448.698	1068
448.768	-227
448.839	665
448.910	2865
448.981	6130
449.051	2435
449.122	1034
449.193	692
449.263	435
449.334	549
449.405	1738
449.475	3949
449.546	6336
449.616	5017
449.687	7412
449.758	3738
449.828	1541
449.899	420
449.969	1398
450.040	438
450.110	1560
450.181	3631
450.251	1354
450.322	854
450.392	1493
450.463	1844
450.533	1139
450.604	1289
450.674	987
450.744	953
450.815	730
450.885	1130
450.955	2268
451.026	1255
451.096	887
451.166	2818
451.237	5601
451.307	14823
451.377	16746
451.447	3133
451.518	738
451.588	1690
451.658	1872
451.728	2812
451.799	10940
451.869	26959
451.939	14140
452.009	2221
452.079	2063
452.149	903
452.219	2789
452.289	13635
452.360	26487
452.430	10198
452.500	2747
452.570	3622
452.640	5367
452.710	12153
452.780	27804
452.850	24081
452.920	17276
452.990	11591
453.060	4259
453.129	4309
453.199	6407
453.269	13105
453.339	61238
453.409	109418
453.479	72034
453.549	110362
453.619	134922
453.688	102318
453.758	22794
453.828	3965
453.898	2530
453.968	2592
454.037	2470
454.087	1438
454.107	999
454.168	1913
454.177	2028
454.247	1163
454.249	1196
454.316	1476
454.330	1514
454.386	1484
454.411	3755
454.456	7039
454.492	12923
454.525	18180
454.574	15053
454.595	13803
454.655	4626
454.665	3151
454.734	3113
454.736	3237
454.804	5407
454.817	7270
454.873	13360
454.898	19062
454.943	29163
454.979	23412
455.013	18709
455.060	10179
455.082	6512
455.141	5146
455.152	4757
455.221	10858
455.222	11202
455.291	27418
455.303	27175
455.360	27117
455.384	25562
455.430	21585
455.465	21936
455.499	22378
455.546	19357
455.569	17190
455.627	20050
455.638	20926
455.707	7283
455.708	7268
455.777	2554
455.789	2590
455.846	2627
455.869	2477
455.916	2100
455.950	2044
455.985	1959
456.031	2150
456.054	2187
456.112	2746
456.124	2901
456.193	2144
456.193	2121
456.262	2635
456.274	2828
456.332	3439
456.355	3958
456.401	4458
456.436	3710
456.470	3177
456.516	2121
456.540	1614
456.597	2116
456.609	2195
456.678	1928
456.678	1913
456.747	1599
456.759	1625
456.817	1839
456.840	1768
456.886	1534
456.920	2002
456.955	2561
457.001	2285
457.024	2226
457.082	3320
457.093	3515
457.162	4904
457.163	4936
457.232	5910
457.243	5648
457.301	4446
457.324	3738
457.370	2596
457.405	2412
457.439	2461
457.485	2741
457.508	2973
457.566	4114
457.577	4352
457.646	5468
457.647	5508
457.715	9514
457.727	10349
457.784	16039
457.808	19458
457.853	22192
457.889	26083
457.922	26418
457.969	22904
457.991	25303
458.050	26502
458.060	27020
458.129	39824
458.130	40357
458.198	36051
458.211	33482
458.267	28657
458.292	22093
458.336	15742
458.372	13434
458.405	14605
458.453	20474
458.474	25397
458.533	41446
458.543	42114
458.611	58628
458.614	59411
458.680	46372
458.694	38624
458.749	26930
458.775	19551
458.818	9982
458.855	7977
458.887	6368
458.936	5516
458.955	5258
459.016	4914
459.024	4901
459.093	5321
459.097	5324
459.162	4613
459.177	4639
459.230	5436
459.257	5914
459.299	6084
459.338	6354
459.368	6817
459.418	7615
459.437	7206
459.499	6283
459.505	6387
459.574	4859
459.579	4832
459.643	3868
459.659	3809
459.711	4238
459.740	4528
459.780	4695
459.820	5100
459.849	5450
459.900	5299
459.917	5070
459.981	5721
459.986	5812
460.054	5574
460.061	5595
460.123	5671
460.141	5618
460.191	6304
460.222	7133
460.260	7699
460.302	8242
460.328	7693
460.382	7051
460.397	7502
460.462	7669
460.465	7882
460.534	13985
460.543	14802
460.602	33167
460.623	40043
460.671	63995
460.703	84043
460.739	69207
460.783	56001
460.808	53296
460.864	21067
460.876	18335
460.944	6378
460.945	6235
461.013	5192
461.024	5087
461.081	5266
461.104	5374
461.150	5074
461.184	5145
461.218	5327
461.264	5272
461.286	5283
461.345	5324
461.355	5328
461.423	5180
461.425	5189
461.491	6672
461.505	6948
461.559	12290
461.585	14771
461.628	22682
461.665	30437
461.696	31637
461.745	37155
461.764	32992
461.825	16978
461.832	17347
461.901	8776
461.905	8612
461.969	6021
461.985	6092
462.037	6491
462.065	6378
462.105	7521
462.145	8689
462.173	11492
462.225	16799
462.241	18289
462.305	26016
462.310	25206
462.378	14568
462.385	12795
462.446	10080
462.465	8580
462.514	6161
462.545	6094
462.582	5909
462.625	6091
462.650	6033
462.705	5643
462.718	5868
462.785	7035
462.786	7092
462.854	10724
462.865	11269
462.922	12475
462.945	13377
462.990	10438
463.025	7608
463.058	7682
463.104	6527
463.126	5888
463.184	5309
463.194	5508
463.262	6874
463.264	6928
463.330	6377
463.344	6293
463.398	6955
463.424	7082
463.466	6964
463.504	7121
463.533	7600
463.583	8210
463.601	8254
463.663	8214
463.669	8529
463.737	12085
463.743	12456
463.805	19004
463.823	20969
463.873	32445
463.903	39272
463.940	38563
463.982	39442
464.008	32161
464.062	15813
464.076	15554
464.142	7922
464.144	7814
464.211	6732
464.221	6837
464.279	7007
464.301	7026
464.347	7671
464.381	8234
464.414	9125
464.461	10384
464.482	10762
464.540	11844
464.550	11512
464.617	9395
464.620	9286
464.685	10425
464.699	10687
464.753	11597
464.779	12137
464.820	13255
464.859	14388
464.888	14150
464.938	13514
464.956	13762
465.018	14595
465.023	14359
465.091	11293
465.098	10930
465.158	10678
465.177	10532
465.226	10016
465.257	9887
465.293	10874
465.336	11962
465.361	12971
465.416	15100
465.428	16286
465.495	22758
465.496	22896
465.563	39398
465.575	42221
465.631	46390
465.654	48618
465.698	30544
465.734	14986
465.765	14239
465.813	10963
465.833	10309
465.893	10168
465.900	10182
465.968	10595
465.972	10609
466.035	9880
466.052	9655
466.102	10299
466.131	10667
466.170	10645
466.210	10609
466.237	11173
466.290	12213
466.304	12254
466.369	12332
466.372	12405
466.439	14116
466.449	14341
466.506	16102
466.528	16741
466.573	23920
466.607	29270
466.641	42138
466.687	59965
466.708	63397
466.766	72768
466.775	67164
466.842	24688
466.845	22628
466.909	17615
466.925	16371
466.977	15575
467.004	15438
467.044	15997
467.083	16546
467.111	17480
467.163	19171
467.178	19615
467.242	21324
467.245	21220
467.312	18391
467.321	17990
467.379	18415
467.400	18522
467.446	20265
467.480	21471
467.559	17247
467.638	15543
467.717	15851
467.796	17024
467.875	18166
467.955	18749
468.034	30959
468.113	68006
468.192	92864
468.271	22086
468.350	18549
468.429	22968
468.508	23001
468.588	17131
468.667	17559
468.746	16739
468.825	15356
468.904	12236
468.983	16958
469.062	26574
469.141	28979
469.220	13093
469.299	13585
469.378	14366
469.456	18106
469.535	15704
469.614	15345
469.693	16571
469.772	21359
469.851	30083
469.930	18459
470.009	14086
470.088	14947
470.166	17787
470.245	25433
470.324	28013
470.403	19311
470.482	14567
470.560	13509
470.639	14230
470.718	16497
470.797	13253
470.875	18189
470.954	24614
471.033	25103
471.111	11484
471.190	10639
471.269	10390
471.347	12357
471.426	12468
471.505	15491
471.583	14361
471.662	13754
471.740	12004
471.819	13498
471.898	11671
471.976	12039
472.055	12107
472.133	14594
472.212	19743
472.290	19958
472.369	12388
472.447	11898
472.526	9553
472.604	12341
472.683	12186
472.761	13050
472.839	12156
472.918	12091
472.996	12644
473.075	14821
473.153	12734
473.231	11559
473.310	14097
473.388	13212
473.466	12668
473.545	14175
473.623	18210
473.701	16209
473.780	12340
473.858	12443
473.936	13979
474.014	12469
474.093	14999
474.171	21869
474.249	28838
474.327	16865
474.405	11099
474.484	11043
474.562	10944
474.640	11521
474.718	12427
474.796	13469
474.874	11396
474.952	10235
475.030	9475
475.108	11330
475.187	13488
475.265	14030
475.343	18943
475.421	18335
475.499	11082
475.577	12459
475.655	17425
475.733	35351
475.811	59637
475.889	53456
475.966	28412
476.044	12434
476.122	15455
476.200	18049
476.278	13460
476.356	10682
476.434	12503
476.512	14551
476.590	18280
476.667	14682
476.745	10131
476.823	12162
476.901	11568
476.979	12001
477.056	11950
477.134	11945
477.212	12585
477.290	11168
477.367	8995
477.445	10663
477.523	10157
477.601	10715
477.678	10764
477.756	13899
477.834	14108
477.911	9833
477.989	9869
478.066	10725
478.144	12007
478.222	14279
478.299	21993
478.377	17809
478.454	10077
478.532	9370
478.609	9621
478.687	10722
478.764	9009
478.842	11099
478.919	11215
478.997	10244
479.074	9315
479.152	12966
479.229	16054
479.307	9622
479.384	7612
479.461	9664
479.539	9902
479.616	12691
479.694	10381
479.771	11083
479.848	12325
479.926	17406
480.003	17507
480.080	9482
480.157	8883
480.235	9767
480.312	9093
480.389	12861
480.467	19424
480.544	23666
480.621	12646
480.698	11837
480.775	12939
480.853	13641
480.930	10477
481.007	11605
481.084	13983
481.161	17302
481.238	12483
481.315	8901
481.392	8756
481.470	10761
481.547	10223
481.624	10039
481.701	8819
481.778	11337
481.855	12106
481.932	19160
482.009	33686
482.086	19210
482.163	12036
482.240	16667
482.317	26622
482.393	18049
482.470	11488
482.547	11001
482.624	9919
482.701	11570
482.778	9919
482.855	8451
482.932	8603
483.009	9592
483.085	11773
483.162	15818
483.239	13309
483.316	11351
483.393	9749
483.469	9944
483.546	11866
483.623	12651
483.699	9150
483.776	9912
483.853	11691
483.930	21373
484.006	51865
484.083	85333
484.160	36988
484.236	51043
484.313	37193
484.389	28822
484.466	25985
484.543	26218
484.619	26740
484.696	29241
484.772	28883
484.849	31049
484.925	23202
485.002	24418
485.078	25706
485.155	25895
485.231	23188
485.308	22624
485.384	24265
485.461	31480
485.537	52055
485.614	56621
485.690	22772
485.766	21626
485.843	23374
485.919	30826
485.995	29031
486.072	18698
486.148	19433
486.224	19889
486.301	21439
486.377	24884
486.453	26432
486.530	24551
486.606	31144
486.682	34311
486.758	43156
486.835	49371
486.911	39723
486.987	65776
487.063	57613
487.139	64252
487.215	47630
487.292	25138
487.368	23397
487.444	27623
487.520	36422
487.596	37716
487.672	66254
487.748	167514
487.824	222528
487.900	61378
487.976	28954
488.052	28839
488.128	35328
488.204	26334
488.280	21989
488.356	30699
488.432	61118
488.508	85625
488.584	25353
488.660	19162
488.736	19281
488.812	21343
488.888	25215
488.964	35413
489.039	66266
489.115	93831
489.191	48499
489.267	20603
489.343	20050
489.418	16986
489.494	16479
489.570	15898
489.646	15965
489.722	17217
489.797	18789
489.873	32894
489.949	68409
490.024	48439
490.100	16231
490.176	16628
490.251	20095
490.327	25270
490.403	15811
490.478	15154
490.554	13352
490.629	13710
490.705	13206
490.781	15354
490.856	14481
490.932	16641
491.007	15928
491.083	16487
491.158	15577
491.234	24672
491.309	51460
491.385	46760
491.460	15952
491.536	16013
491.611	13099
491.686	16476
491.762	21856
491.837	42925
491.913	68519
491.988	96943
492.063	105096
492.139	35471
492.214	21433
492.289	12319
492.365	12529
492.440	15856
492.515	15536
492.590	15371
492.666	12307
492.741	19488
492.816	27331
492.891	14284
492.967	10994
493.042	10345
493.117	11327
493.192	12097
493.267	18832
493.342	42756
493.418	49386
493.493	13094
493.568	9448
493.643	11465
493.718	15916
493.793	24386
493.868	22693
493.943	14317
494.018	10577
494.093	11275
494.168	10648
494.243	10084
494.318	8928
494.393	9884
494.468	8661
494.543	9697
494.618	11581
494.693	9568
494.768	11014
494.842	10679
494.917	8624
494.992	10271
495.067	8970
495.142	8148
495.217	9337
495.292	9489
495.366	11357
495.441	15038
495.516	18761
495.591	30693
495.665	91558
495.740	191196
495.815	58034
495.890	15661
495.964	12752
496.039	15684
496.114	14492
496.188	19407
496.263	15650
496.338	13731
496.412	15758
496.487	17980
496.561	18583
496.636	17795
496.710	15148
496.785	18278
496.860	20181
496.934	14239
497.009	15154
497.083	15243
497.158	15613
497.232	19756
497.307	23119
497.381	19959
497.455	24158
497.530	30669
497.604	20563
497.679	23488
497.753	37472
497.827	47441
497.902	42243
497.976	57015
498.050	139326
498.125	444246
498.199	363937
498.273	62901
498.348	48113
498.422	38823
498.496	34643
498.570	30023
498.645	22865
498.719	23510
498.793	28133
498.867	45474
498.941	68661
499.016	190684
499.090	458997
499.164	113438
499.238	16951
499.312	16516
499.386	19888
499.460	18268
499.534	16586
499.609	22657
499.683	33672
499.757	35295
499.831	91407
499.905	320629
499.979	239918
500.053	40554
500.127	36345
500.201	22896
500.275	16023
500.349	16581
500.422	18913
500.496	31411
500.570	69752
500.644	179123
500.718	303150
500.792	47383
500.866	15908
500.940	22963
501.013	17379
501.087	17911
501.161	30733
501.235	48633
501.309	116921
501.382	296853
501.456	203593
501.530	50365
501.603	90590
501.677	26827
501.751	12371
501.825	18528
501.898	41956
501.972	116900
502.046	54352
502.119	20348
502.193	52366
502.266	123010
502.340	48080
502.413	56815
502.487	101598
502.561	52815
502.634	14821
502.708	13589
502.781	11353
502.855	9632
502.928	8325
503.002	9138
503.075	9111
503.149	9606
503.222	9496
503.295	11754
503.369	15153
503.442	27926
503.516	92462
503.589	213217
503.662	116483
503.736	41488
503.809	100283
503.882	75204
503.956	122663
504.029	101575
504.102	92775
504.175	112159
504.249	33435
504.322	20431
504.395	15355
504.468	11577
504.542	11043
504.615	9337
504.688	8534
504.761	7933
504.834	11165
504.907	13099
504.980	19242
505.053	11188
505.127	13101
505.200	15754
505.273	17260
505.346	9714
505.419	8515
505.492	7151
505.565	6120
505.638	6962
505.711	6238
505.784	7050
505.857	5109
505.930	7870
506.003	6209
506.076	8322
506.149	11833
506.221	14480
506.294	16146
506.367	51664
506.440	156535
506.513	60167
506.586	14716
506.659	8369
506.731	7999
506.804	10064
506.877	13767
506.950	10439
507.022	7344
507.095	10973
507.168	12225
507.241	8131
507.313	5818
507.386	7310
507.459	10518
507.531	6988
507.604	5368
507.677	6129
507.749	5762
507.822	9879
507.894	18083
507.967	20187
508.040	10914
508.112	11423
508.185	10495
508.257	9326
508.330	13961
508.402	10148
508.475	10497
508.547	10660
508.620	11655
508.692	19692
508.765	9359
508.837	7841
508.909	7382
508.982	8617
509.054	8816
509.127	8254
509.199	7529
509.271	7031
509.344	7381
509.416	7485
509.488	6791
509.560	7313
509.633	7822
509.705	9978
509.777	9657
509.849	12538
509.922	8135
509.994	7043
510.066	7704
510.138	9399
510.210	18288
510.283	16007
510.355	12974
510.427	10688
510.499	10539
510.571	10620
510.643	11580
510.715	17230
510.787	14111
510.859	10723
510.931	13078
511.003	15492
511.076	13361
511.148	9266
511.219	10338
511.291	19085
511.363	19067
511.435	8600
511.507	7112
511.579	8108
511.651	8715
511.723	9104
511.795	7370
511.867	9199
511.939	12916
512.010	27714
512.082	17779
512.154	8478
512.226	9557
512.298	15317
512.369	19512
512.441	15427
512.513	14289
512.585	11517
512.656	11571
512.728	14170
512.800	9741
512.871	10350
512.943	10320
513.015	8726
513.086	9404
513.158	11507
513.230	11508
513.301	16526
513.373	16361
513.444	11058
513.516	8717
513.588	9342
513.659	9911
513.731	13608
513.802	11880
513.874	25104
513.945	35329
514.016	12330
514.088	9797
514.159	11227
514.231	13827
514.302	19047
514.374	12973
514.445	15967
514.516	31181
514.588	20263
514.659	14777
514.730	27865
514.802	18177
514.873	15100
514.944	14979
515.016	13314
515.087	14816
515.158	21385
515.229	27230
515.301	17123
515.372	20717
515.443	12941
515.514	10668
515.585	10056
515.656	9600
515.728	9946
515.799	8412
515.870	9956
515.941	9285
516.012	10448
516.083	13591
516.154	14942
516.225	19445
516.296	16984
516.367	13717
516.438	17699
516.509	24849
516.580	46423
516.651	139945
516.722	409532
516.793	129697
516.864	28637
516.935	27633
517.006	37199
517.077	61826
517.148	157061
517.219	505180
517.289	631798
517.360	186647
517.431	50260
517.502	17596
517.573	17894
517.643	16736
517.714	18653
517.785	17306
517.856	19249
517.926	20800
517.997	24490
518.068	32334
518.138	50732
518.209	106757
518.280	357687
518.350	1005165
518.421	294772
518.492	36926
518.562	26858
518.633	27820
518.703	32608
518.774	61456
518.845	143562
518.915	116955
518.986	35440
519.056	28113
519.127	44791
519.197	70751
519.268	159923
519.338	83295
519.408	22725
519.479	24774
519.549	17470
519.620	12814
519.690	11292
519.760	11218
519.831	11857
519.901	10832
519.971	10751
520.042	11512
520.112	13493
520.182	14541
520.253	14908
520.323	11911
520.393	18524
520.463	25966
520.534	19334
520.604	37004
520.674	16456
520.744	20310
520.814	44958
520.885	38745
520.955	60390
521.025	186258
521.095	54253
521.165	12636
521.235	10964
521.305	9343
521.375	10333
521.445	9617
521.515	13343
521.585	15018
521.655	13183
521.725	13255
521.795	11530
521.865	8857
521.935	17441
522.005	12747
522.075	8049
522.145	10371
522.215	13314
522.285	17781
522.355	26764
522.424	47676
522.494	37244
522.564	19483
522.634	35876
522.704	85963
522.774	25638
522.843	10373
522.913	10055
522.983	11502
523.053	10218
523.122	11010
523.192	17154
523.262	47617
523.331	39512
523.401	10041
523.471	7718
523.540	8888
523.610	6496
523.680	7397
523.749	7503
523.819	11871
523.888	10749
523.958	7385
524.027	9491
524.097	8730
524.166	7940
524.236	8566
524.305	9719
524.375	8034
524.444	7480
524.514	8759
524.583	9113
524.653	11842
524.722	13296
524.791	8482
524.861	8936
524.930	7250
524.999	8855
525.069	12743
525.138	11269
525.207	12650
525.277	9695
525.346	8828
525.415	9024
525.484	9483
525.554	12068
525.623	11568
525.692	10919
525.761	10652
525.830	11861
525.900	15809
525.969	27288
526.038	49695
526.107	108223
526.176	269701
526.245	188045
526.314	67410
526.383	150896
526.452	191397
526.522	316643
526.591	257374
526.660	56379
526.729	32198
526.797	47020
526.867	107394
526.935	352152
527.004	631547
527.073	284182
527.142	24633
527.211	14316
527.280	13353
527.349	12611
527.418	7963
527.487	8750
527.555	7187
527.624	7052
527.693	6528
527.762	7516
527.831	6456
527.899	6855
527.968	6565
528.037	6791
528.106	8991
528.174	16430
528.243	13668
528.312	21034
528.380	21518
528.449	8010
528.518	6924
528.586	4708
528.655	6234
528.723	6231
528.792	5102
528.861	6290
528.929	4936
528.998	5837
529.066	5081
529.135	5827
529.203	4495
529.272	5831
529.340	5565
529.409	7135
529.477	5826
529.545	9241
529.614	10939
529.682	11713
529.751	12320
529.819	13597
529.887	8493
529.956	6860
530.024	7073
530.092	5986
530.161	7221
530.229	11857
530.297	6383
530.365	6450
530.434	4878
530.502	5073
530.570	5986
530.638	4321
530.707	6359
530.775	8240
530.843	6303
530.911	6436
530.979	5986
531.047	5834
531.115	6847
531.183	5841
531.252	6018
531.320	6030
531.388	4983
531.456	6824
531.524	4279
531.592	7043
531.660	6930
531.728	6052
531.796	4836
531.864	6363
531.932	7068
532.000	5678
532.067	6339
532.135	6507
532.203	8385
532.271	9920
532.339	15445
532.407	35901
532.475	17403
532.542	9809
532.610	13562
532.678	23365
532.746	77871
532.814	153869
532.881	31703
532.949	9242
533.017	7084
533.084	6164
533.152	6703
533.220	8235
533.287	7072
533.355	7265
533.423	6841
533.490	6546
533.558	6617
533.625	7583
533.693	8122
533.761	7591
533.828	7773
533.896	7988
533.963	14582
534.031	17098
534.098	22456
534.166	11086
534.233	6987
534.300	9183
534.368	8943
534.435	8473
534.503	8364
534.570	9829
534.637	8746
534.705	12715
534.772	18403
534.840	36344
534.907	127837
534.974	132494
535.041	15971
535.109	12252
535.176	7801
535.243	7476
535.310	8059
535.378	7846
535.445	6892
535.512	7679
535.579	8067
535.646	7180
535.714	7446
535.781	10233
535.848	8608
535.915	9200
535.982	6846
536.049	8578
536.116	8270
536.183	7507
536.250	8467
536.317	8514
536.384	9363
536.451	13369
536.518	12792
536.585	9857
536.652	12824
536.719	17147
536.786	12204
536.853	11339
536.920	17417
536.987	27426
537.053	28762
537.120	86444
537.187	61574
537.254	9652
537.321	7285
537.388	9344
537.454	6808
537.521	8306
537.588	8389
537.654	10157
537.721	9972
537.788	10624
537.855	8359
537.921	8488
537.988	7769
538.055	9116
538.121	8130
538.188	9949
538.254	13776
538.321	24245
538.388	14275
538.454	9956
538.521	9268
538.587	8561
538.654	8223
538.720	8000
538.787	7992
538.853	9154
538.920	10917
538.986	11677
539.053	9198
539.119	9921
539.185	8909
539.252	11459
539.318	14699
539.385	12884
539.451	11456
539.517	12945
539.583	15497
539.650	30310
539.716	61491
539.782	16499
539.849	8383
539.915	9976
539.981	9534
540.047	10998
540.114	9824
540.180	11172
540.246	10628
540.312	14297
540.378	23842
540.444	25213
540.510	30333
540.576	67322
540.643	19143
540.709	9329
540.775	8699
540.841	9845
540.907	13306
540.973	19456
541.039	15654
541.105	16132
541.171	9867
541.237	9012
541.303	10906
541.369	12803
541.435	14444
541.500	20455
541.566	12617
541.632	7944
541.698	7755
541.764	9499
541.830	8469
541.896	7987
541.961	8879
542.027	9904
542.093	10131
542.159	9640
542.224	9812
542.290	14622
542.356	20652
542.421	23297
542.487	11214
542.553	9398
542.618	11298
542.684	10406
542.750	10313
542.815	14492
542.881	23359
542.947	62477
543.012	39161
543.078	9676
543.143	8175
543.209	10144
543.274	9626
543.340	13128
543.405	26229
543.471	34403
543.536	10849
543.602	9955
543.667	8439
543.732	9969
543.798	7821
543.863	10053
543.928	8417
543.994	8202
544.059	8376
544.124	9368
544.190	8236
544.255	8880
544.320	9368
544.386	9730
544.451	13302
544.516	16127
544.581	18829
544.646	41391
544.712	54187
544.777	13947
544.842	11478
544.907	13395
544.972	10828
545.037	12028
545.102	12419
545.168	12308
545.233	12223
545.298	13732
545.363	16127
545.428	18337
545.493	27588
545.558	48683
545.623	20435
545.688	12632
545.753	12183
545.818	13282
545.883	12877
545.947	13187
546.012	14450
546.077	15421
546.142	14305
546.207	15038
546.272	17706
546.337	17782
546.401	15584
546.466	15840
546.531	14173
546.596	18064
546.661	15976
546.725	17451
546.790	15474
546.855	17470
546.919	18401
546.984	21458
547.049	22275
547.113	26228
547.178	25283
547.243	30117
547.307	35040
547.372	38358
547.436	39005
547.501	35900
547.565	38439
547.630	38736
547.695	36642
547.759	41013
547.823	37203
547.888	35054
547.952	36042
548.017	38728
548.081	42927
548.146	46936
548.210	42017
548.274	40272
548.339	39171
548.403	37394
548.468	33930
548.532	34273
548.596	34726
548.660	36390
548.725	40073
548.789	45929
548.853	43973
548.917	39908
548.982	43338
549.046	42189
549.110	31625
549.174	33070
549.238	36030
549.303	38210
549.367	40538
549.431	37637
549.495	36066
549.559	36970
549.623	42308
549.687	48169
549.751	51168
549.815	54737
549.879	54415
549.943	50824
550.007	53551
550.071	54344
550.135	51255
550.199	47083
550.263	45760
550.327	45955
550.391	50666
550.455	50452
550.519	51138
550.582	56104
550.646	64348
550.710	65343
550.774	60297
550.838	59727
550.901	62627
550.965	67544
551.029	71062
551.093	78299
551.156	89897
551.220	118483
551.284	131513
551.347	88660
551.411	102993
551.475	100941
551.538	66198
551.602	60090
551.666	57173
551.729	53400
551.793	52438
551.856	52230
551.920	49894
551.983	50354
552.047	49849
552.110	50863
552.174	52040
552.237	52057
552.301	47375
552.364	47371
552.428	44892
552.491	47308
552.554	48946
552.618	48165
552.681	50053
552.745	51743
552.808	61601
552.871	71184
552.934	53891
552.998	48493
553.061	48125
553.124	44510
553.187	45197
553.251	47165
553.314	47805
553.377	48880
553.440	54272
553.503	68997
553.567	79569
553.630	52492
553.693	48983
553.756	49759
553.819	47350
553.882	46293
553.945	45432
554.008	45505
554.071	45332
554.134	48059
554.197	44785
554.260	44303
554.323	45533
554.386	45974
554.449	45846
554.512	47677
554.575	44935
554.638	43856
554.701	44406
554.764	43631
554.827	41486
554.889	40660
554.952	38068
555.015	38670
555.078	38609
555.141	39426
555.203	37247
555.266	38974
555.329	38092
555.391	35799
555.454	36468
555.517	35901
555.580	33763
555.642	33059
555.705	31791
555.768	32745
555.830	31876
555.893	30554
555.955	29022
556.018	28906
556.080	29488
556.143	30442
556.206	28637
556.268	31068
556.330	29524
556.393	29500
556.455	28906
556.518	34420
556.580	32070
556.643	25617
556.705	25559
556.767	23248
556.830	25145
556.892	25419
556.955	29455
557.017	25149
557.079	23261
557.142	23592
557.204	24798
557.266	34193
557.328	28450
557.391	20152
557.453	19163
557.515	21266
557.577	21072
557.639	22610
557.701	19767
557.764	19205
557.826	20465
557.888	23848
557.950	23927
558.012	30417
558.074	42192
558.136	80968
558.198	170805
558.260	52636
558.322	22502
558.384	23494
558.446	25401
558.508	29395
558.570	40152
558.632	61498
558.694	97597
558.756	141694
558.818	332107
558.880	695828
558.942	204203
559.003	173723
559.065	73850
559.127	31223
559.189	36738
559.251	53491
559.312	84375
559.374	167142
559.436	476785
559.498	201163
559.559	35703
559.621	37428
559.683	54651
559.744	94521
559.806	237956
559.868	321645
559.929	58667
559.991	45923
560.052	69481
560.114	173902
560.176	106352
560.237	98223
560.299	147474
560.360	30962
560.422	16087
560.483	15810
560.545	14900
560.606	15373
560.667	13017
560.729	13474
560.790	11967
560.852	13708
560.913	12926
560.974	12335
561.036	12305
561.097	13592
561.158	12361
561.220	12854
561.281	12631
561.342	13683
561.403	16399
561.465	18793
561.526	32306
561.587	38226
561.648	13735
561.709	13224
561.771	12261
561.832	12074
561.893	12233
561.954	11480
562.015	11260
562.076	11142
562.137	11547
562.198	11797
562.259	11947
562.320	12828
562.381	12946
562.442	17760
562.503	13807
562.564	12489
562.625	12344
562.686	11514
562.747	13960
562.808	12826
562.869	12252
562.930	15005
562.991	13325
563.051	11956
563.112	11566
563.173	12895
563.234	10984
563.294	12101
563.355	11489
563.416	12131
563.477	10568
563.537	11697
563.598	12580
563.659	12139
563.720	11998
563.780	11679
563.841	11182
563.901	11857
563.962	11115
564.023	10963
564.083	11832
564.144	12216
564.204	12301
564.265	13815
564.325	15100
564.386	25622
564.446	21882
564.507	11714
564.567	11965
564.628	12005
564.688	11499
564.749	11891
564.809	12952
564.869	15462
564.930	11192
564.990	11299
565.050	10898
565.111	11925
565.171	10676
565.231	11263
565.292	10791
565.352	11219
565.412	10940
565.472	11597
565.532	11705
565.593	11197
565.653	11315
565.713	12723
565.773	13190
565.833	13704
565.893	16902
565.953	12551
566.013	12330
566.074	14274
566.134	17074
566.194	24667
566.254	24390
566.314	16717
566.374	12329
566.434	13313
566.494	12496
566.554	14531
566.614	13243
566.673	14543
566.733	14638
566.793	16230
566.853	15579
566.913	15411
566.973	15631
567.033	17268
567.092	16820
567.152	17307
567.212	16666
567.272	17333
567.331	17917
567.391	18038
567.451	18882
567.511	23693
567.570	22725
567.630	17885
567.690	15573
567.749	16475
567.809	16266
567.868	19786
567.928	21811
567.988	25417
568.047	29754
568.107	38187
568.166	50777
568.226	74951
568.285	102116
568.345	79735
568.404	60476
568.464	50960
568.523	48793
568.582	53569
568.642	64439
568.701	81072
568.761	114238
568.820	177762
568.879	162758
568.939	113723
568.998	78445
569.057	59388
569.116	47282
569.176	39767
569.235	32653
569.294	29015
569.353	24897
569.413	24452
569.472	22125
569.531	19671
569.590	18004
569.649	17794
569.708	16664
569.767	17204
569.827	19373
569.886	17499
569.945	13930
570.004	14573
570.063	14080
570.122	14843
570.181	15663
570.240	16995
570.299	16060
570.358	16770
570.417	13206
570.475	12264
570.534	12210
570.593	12981
570.652	14227
570.711	14163
570.770	12163
570.829	14968
570.887	13059
570.946	14009
571.005	11986
571.064	12632
571.122	13630
571.181	14687
571.240	11509
571.299	11236
571.357	11854
571.416	12487
571.475	14331
571.533	15419
571.592	11798
571.650	12755
571.709	10972
571.768	11602
571.826	11775
571.885	10683
571.943	10532
572.002	10315
572.060	11387
572.119	10007
572.177	10007
572.236	8974
572.294	9479
572.352	10827
572.411	10270
572.469	11031
572.528	10230
572.586	11946
572.644	11598
572.703	15444
572.761	11318
572.819	10259
572.877	9714
572.936	10148
572.994	9424
573.052	10282
573.110	9551
573.169	10259
573.227	8881
573.285	9326
573.343	8843
573.401	9111
573.459	9717
573.517	9241
573.576	9557
573.634	9362
573.692	10743
573.750	10304
573.808	10432
573.866	9996
573.924	12460
573.982	13270
574.040	9841
574.098	10065
574.155	9681
574.213	9934
574.271	9136
574.329	9884
574.387	8336
574.445	8901
574.503	8530
574.560	7911
574.618	8945
574.676	8928
574.734	7786
574.792	8014
574.849	7839
574.907	7777
574.965	7935
575.022	7421
575.080	7577
575.138	9393
575.195	9259
575.253	8792
575.311	8678
575.368	8935
575.426	7464
575.483	8001
575.541	8008
575.598	8791
575.656	8627
575.713	9261
575.771	8687
575.828	8157
575.886	7801
575.943	9414
576.001	9212
576.058	9413
576.115	9312
576.173	11321
576.230	12374
576.287	11786
576.345	10957
576.402	9522
576.459	9025
576.517	9725
576.574	11326
576.631	12004
576.688	9953
576.746	9215
576.803	9472
576.860	9351
576.917	9129
576.974	9281
577.031	9199
577.089	8788
577.146	8647
577.203	9985
577.260	10378
577.317	10382
577.374	11727
577.431	10665
577.488	9958
577.545	9242
577.602	8367
577.659	9714
577.716	8894
577.773	9460
577.830	8715
577.886	9201
577.943	7879
578.000	8219
578.057	10159
578.114	9524
578.171	8215
578.227	10047
578.284	8937
578.341	10295
578.398	9353
578.454	10694
578.511	11163
578.568	12787
578.625	10029
578.681	10169
578.738	7111
578.794	9587
578.851	8313
578.908	9704
578.964	9247
579.021	8619
579.077	9014
579.134	9773
579.190	9278
579.247	8534
579.303	8169
579.360	8143
579.416	8289
579.473	9264
579.529	8498
579.586	9320
579.642	9687
579.698	9249
579.755	8961
579.811	9272
579.867	8374
579.924	9638
579.980	8731
580.036	9328
580.093	8795
580.149	10617
580.205	10523
580.261	10154
580.317	10249
580.374	11666
580.430	11720
580.486	11980
580.542	9871
580.598	10379
580.619	10345
580.654	10294
580.692	9963
580.710	9817
580.765	9731
580.767	9738
580.823	9850
580.838	9914
580.879	10127
580.911	9622
580.935	9263
580.984	9622
580.991	9679
581.047	9879
581.057	9830
581.103	9720
581.130	10317
581.159	10913
581.203	10457
581.215	10365
581.270	10835
581.276	10778
581.326	10245
581.349	10586
581.382	11152
581.422	10758
581.438	10584
581.494	10524
581.494	10518
581.550	10788
581.567	10843
581.606	10994
581.640	10804
581.661	10670
581.713	11236
581.717	11289
581.773	11286
581.786	10972
581.829	10046
581.859	10225
581.885	10314
581.932	10621
581.940	10697
581.996	11030
582.004	11056
582.052	11265
582.077	11175
582.107	11145
582.150	10860
582.163	10702
582.219	10802
582.223	10800
582.274	11024
582.296	11081
582.330	11161
582.368	11824
582.386	12139
582.441	10991
582.441	10992
582.497	10807
582.514	10884
582.552	11190
582.587	11627
582.608	11853
582.659	11011
582.663	10952
582.719	11635
582.732	11460
582.774	10860
582.805	11386
582.830	11880
582.877	11329
582.885	11204
582.941	11239
582.950	11189
582.996	11149
583.023	11825
583.052	12567
583.095	11802
583.107	11599
583.162	11648
583.168	11712
583.218	12029
583.240	11808
583.273	11644
583.313	10829
583.328	10459
583.384	11555
583.385	11521
583.439	10815
583.458	11000
583.494	11167
583.531	11236
583.549	11342
583.603	12119
583.605	12133
583.660	11695
583.676	11529
583.715	11595
583.748	12166
583.770	12352
583.820	12508
583.825	12529
583.881	12052
583.893	12104
583.936	12205
583.965	11928
583.991	11745
584.038	12569
584.046	12704
584.101	12044
584.110	12139
584.156	12599
584.183	12318
584.211	11992
584.255	12302
584.266	12411
584.321	12174
584.328	12193
584.376	12198
584.400	12375
584.431	12731
584.472	12715
584.486	12625
584.541	13370
584.545	13335
584.596	13054
584.617	13235
584.651	13481
584.689	14078
584.706	14367
584.761	14380
584.762	14384
584.816	14312
584.834	14469
584.871	14977
584.906	15202
584.926	15169
584.978	14804
584.980	14817
585.035	16012
585.051	16400
585.090	16945
585.123	17355
585.145	17800
585.195	18680
585.200	18780
585.254	19876
585.267	20429
585.309	22194
585.340	24351
585.364	26040
585.412	28382
585.419	28682
585.473	35353
585.484	37366
585.528	46726
585.556	53910
585.583	63579
585.628	82707
585.637	90592
585.692	174990
585.700	192092
585.747	285874
585.772	253088
585.801	164808
585.845	68906
585.856	54160
585.910	30365
585.917	28062
585.965	24474
585.989	23507
586.019	23202
586.061	22002
586.074	21669
586.128	22022
586.133	22066
586.183	23081
586.205	23507
586.237	23810
586.277	23646
586.292	23490
586.346	23267
586.349	23307
586.401	24430
586.421	24960
586.455	26176
586.493	27667
586.509	28718
586.564	32356
586.565	32585
586.618	45776
586.637	46902
586.672	43117
586.709	36553
586.727	33268
586.781	30326
586.781	30320
586.835	28544
586.853	28259
586.889	27676
586.925	27230
586.944	27272
586.996	27919
586.998	27946
587.052	28881
587.068	29247
587.106	29738
587.140	30295
587.161	30715
587.212	31536
587.215	31591
587.269	33242
587.284	33621
587.323	34388
587.356	35524
587.377	36202
587.427	37481
587.431	37561
587.485	38273
587.499	38781
587.539	40781
587.571	42295
587.593	43446
587.643	45627
587.648	45807
587.702	48305
587.715	49083
587.755	52069
587.786	54000
587.810	55118
587.858	57879
587.864	58330
587.917	63501
587.930	64815
587.971	69553
588.001	73186
588.025	76475
588.073	82571
588.079	83383
588.133	92160
588.145	94376
588.187	103534
588.217	110280
588.241	116504
588.288	130309
588.295	132584
588.348	153308
588.360	158512
588.402	178563
588.431	193882
588.456	209655
588.503	245426
588.510	251290
588.564	305092
588.575	318289
588.617	377244
588.646	423125
588.671	475688
588.718	585737
588.725	609804
588.778	815825
588.789	862416
588.832	1130628
588.861	1315984
588.886	1455921
588.932	1626829
588.939	1609676
588.993	1387466
589.004	1381136
589.047	1531916
589.075	1564044
589.100	1422179
589.147	1089084
589.154	1049279
589.207	770255
589.218	720053
589.261	640691
589.290	598425
589.314	604127
589.361	632786
589.368	649240
589.421	807388
589.433	847412
589.475	1113148
589.504	1291603
589.528	1388022
589.576	1474616
589.582	1461025
589.635	1406483
589.647	1375527
589.689	1095364
589.718	877520
589.742	727848
589.790	458340
589.795	443238
589.849	321053
589.861	295146
589.902	252851
589.932	222659
589.955	202960
590.004	163081
590.009	160587
590.062	137983
590.075	132546
590.115	119071
590.146	109380
590.168	105085
590.218	96099
590.222	95440
590.275	87058
590.289	85137
590.328	80394
590.360	76311
590.381	73772
590.431	68126
590.435	67880
590.488	63932
590.503	62988
590.541	60287
590.574	57898
590.594	57057
590.645	55105
590.647	54972
590.700	51421
590.716	50391
590.753	49225
590.787	48156
590.806	47191
590.859	44784
590.859	44760
590.912	43738
590.930	43433
590.965	42697
591.001	41860
591.018	41451
591.071	40312
591.072	40299
591.124	39521
591.143	39292
591.177	39174
591.214	38860
591.230	38309
591.283	36703
591.285	36636
591.336	37306
591.356	37594
591.389	36897
591.427	35964
591.442	35769
591.495	35048
591.498	34992
591.547	33292
591.569	32518
591.600	32423
591.640	32243
591.653	32172
591.706	32013
591.711	31979
591.759	32518
591.782	32896
591.811	33732
591.853	34857
591.864	34600
591.917	33077
591.924	32867
591.969	31195
591.995	30210
592.022	30660
592.066	31428
592.075	31525
592.127	32141
592.137	32260
592.180	35159
592.208	37011
592.233	35035
592.279	31099
592.285	31012
592.338	30403
592.350	30245
592.390	29021
592.421	28155
592.443	28587
592.491	29489
592.495	29439
592.548	28694
592.562	28492
592.600	28168
592.633	27880
592.653	27624
592.704	26824
592.705	26976
592.775	26978
592.846	27833
592.916	28552
592.987	28555
593.058	28451
593.128	26960
593.199	27604
593.270	25789
593.341	25886
593.411	26206
593.482	27091
593.553	27519
593.623	27173
593.694	27357
593.764	29525
593.835	27551
593.906	27211
593.976	26845
594.047	28119
594.117	30613
594.188	33872
594.258	27709
594.329	27459
594.399	28006
594.470	28414
594.540	27497
594.611	28806
594.681	27492
594.751	28215
594.822	29172
594.892	30770
594.963	30126
595.033	30950
595.103	31471
595.174	32343
595.244	36426
595.314	48858
595.384	35264
595.455	31930
595.525	33818
595.595	33592
595.665	34984
595.736	32875
595.806	33232
595.876	33548
595.946	33256
596.016	33871
596.087	34648
596.157	34686
596.227	34180
596.297	35934
596.367	38474
596.437	40888
596.507	44947
596.577	54206
596.647	44117
596.717	41097
596.787	40828
596.857	41705
596.927	41223
596.997	41692
597.067	42500
597.137	44212
597.207	43768
597.277	43519
597.347	41762
597.417	42698
597.487	41263
597.557	42477
597.626	42606
597.696	44404
597.766	46519
597.836	53288
597.906	45254
597.975	39224
598.045	38203
598.115	40002
598.185	41007
598.254	45604
598.324	48282
598.394	51362
598.464	50238
598.533	48882
598.603	45865
598.672	43937
598.742	45066
598.812	44993
598.881	45640
598.951	44430
599.020	43888
599.090	46827
599.159	47890
599.229	45897
599.299	44608
599.368	46284
599.437	44838
599.507	44485
599.576	41561
599.646	42202
599.715	40853
599.785	40787
599.854	40782
599.924	42209
599.993	41338
600.062	40464
600.132	38829
600.201	41565
600.270	47580
600.340	50306
600.409	48551
600.478	48694
600.547	48305
600.617	48441
600.686	39922
600.755	36133
600.824	35249
600.894	34492
600.963	32959
601.032	32685
601.101	32863
601.170	31376
601.239	30724
601.308	32284
601.378	30470
601.447	31660
601.516	30985
601.585	30546
601.654	32924
601.723	32887
601.792	31742
601.861	33111
601.930	34978
601.999	36778
602.068	34775
602.137	36138
602.206	36882
602.275	35462
602.343	37390
602.412	38986
602.481	34832
602.550	35636
602.619	36081
602.688	36705
602.756	35881
602.825	37101
602.894	37024
602.963	38300
603.032	38173
603.100	39144
603.169	37800
603.238	38874
603.307	39388
603.375	39403
603.444	39257
603.513	40448
603.581	39564
603.650	42708
603.719	39868
603.787	39657
603.856	41196
603.924	43122
603.993	43818
604.061	45014
604.130	44975
604.198	48583
604.267	48033
604.335	48604
604.404	48391
604.472	49509
604.541	49750
604.609	51014
604.678	50400
604.746	50991
604.815	51882
604.883	54583
604.951	53781
605.020	53914
605.088	53879
605.156	55599
605.225	55062
605.293	56201
605.361	55792
605.429	57948
605.498	57661
605.566	59870
605.634	61287
605.702	63949
605.771	65333
605.839	65675
605.907	64420
605.975	62062
606.043	60724
606.111	60503
606.180	61897
606.248	61209
606.316	59956
606.384	60853
606.452	63180
606.520	66592
606.588	64130
606.656	62606
606.724	61574
606.792	59262
606.860	53403
606.928	48660
606.996	46120
607.064	45382
607.132	46229
607.200	48638
607.267	50609
607.335	50204
607.403	52767
607.471	51627
607.539	48957
607.607	50635
607.674	44415
607.742	45497
607.810	45421
607.878	45708
607.946	44731
608.013	46092
608.081	48077
608.149	48582
608.216	48786
608.284	51768
608.352	50075
608.419	53462
608.487	54954
608.555	53725
608.622	49307
608.690	51782
608.757	56733
608.825	60115
608.893	58523
608.960	58986
609.028	58639
609.095	60466
609.163	55504
609.230	50832
609.298	44962
609.365	45361
609.432	48046
609.500	51649
609.567	59193
609.635	66307
609.702	72904
609.769	71823
609.837	62357
609.904	50080
609.971	48782
610.039	55984
610.106	70925
610.173	127568
610.241	308032
610.308	305148
610.375	106781
610.442	61365
610.509	51132
610.577	49677
610.644	49034
610.711	51241
610.778	51162
610.845	54101
610.912	56652
610.980	60449
611.047	60186
611.114	61571
611.181	58233
611.248	56214
611.315	58724
611.382	60584
611.449	62475
611.516	64063
611.583	62859
611.650	63830
611.717	65602
611.784	66353
611.851	71645
611.918	76557
611.984	89440
612.051	122974
612.118	239635
612.185	613637
612.252	661993
612.319	143269
612.386	90013
612.452	80977
612.519	76155
612.586	79303
612.653	77860
612.719	74420
612.786	73971
612.853	68793
612.919	64579
612.986	66437
613.053	62513
613.120	59261
613.186	56067
613.253	57564
613.319	56415
613.386	57395
613.453	58797
613.519	60877
613.586	60440
613.652	67645
613.719	64511
613.785	64776
613.852	58580
613.918	60220
613.985	59000
614.051	64438
614.118	73093
614.184	80399
614.250	61534
614.317	60643
614.383	58153
614.449	59588
614.516	59714
614.582	59976
614.648	59166
614.715	57185
614.781	58056
614.847	58042
614.914	57059
614.980	57410
615.046	55407
615.112	57902
615.179	58620
615.245	61372
615.311	62693
615.377	75965
615.443	87456
615.509	69786
615.575	65189
615.642	64533
615.708	66808
615.774	69460
615.840	74536
615.906	84206
615.972	107511
616.038	179375
616.104	334482
616.170	736329
616.236	1013464
616.302	237956
616.368	123712
616.434	93004
616.500	78677
616.565	83915
616.631	104536
616.697	92611
616.763	85759
616.829	115647
616.895	212596
616.961	257547
617.026	122466
617.092	71103
617.158	64140
617.224	61619
617.289	57303
617.355	55824
617.421	53067
617.487	54861
617.552	51422
617.618	50666
617.684	49671
617.749	51618
617.815	48671
617.880	46966
617.946	47183
618.012	48075
618.077	50550
618.143	48520
618.208	47742
618.274	51655
618.339	53053
618.405	45938
618.470	43289
618.536	44665
618.601	44747
618.667	43703
618.732	40230
618.798	38778
618.863	38466
618.928	39666
618.994	39848
619.059	40821
619.124	44956
619.190	43098
619.255	37691
619.320	38813
619.386	37481
619.451	38462
619.516	36750
619.581	37597
619.647	37991
619.712	38369
619.777	36919
619.842	36970
619.907	38248
619.972	39426
620.038	38283
620.103	36428
620.168	36213
620.233	38093
620.298	37229
620.363	38040
620.428	39172
620.493	38769
620.558	39452
620.623	40294
620.688	39616
620.753	39385
620.818	40463
620.883	40501
620.948	40583
621.013	40676
621.078	39861
621.143	40077
621.207	42594
621.272	41593
621.337	41313
621.402	41503
621.467	43463
621.532	47944
621.596	42745
621.661	41188
621.726	38899
621.791	39481
621.855	39305
621.920	41884
621.985	40868
622.049	45252
622.114	42659
622.179	42539
622.243	42761
622.308	43965
622.373	45050
622.437	44777
622.502	41770
622.566	41330
622.631	40564
622.695	43196
622.760	41934
622.824	41245
622.889	42454
622.953	43487
623.018	48578
623.082	54121
623.147	45089
623.211	43512
623.276	42489
623.340	42629
623.404	39669
623.469	39003
623.533	39151
623.597	39279
623.662	38985
623.726	37952
623.790	34815
623.854	34234
623.919	35367
623.983	34242
624.047	35397
624.111	35068
624.176	35756
624.240	37439
624.304	40304
624.368	38063
624.432	35707
624.496	37197
624.560	38456
624.625	41552
624.689	39508
624.753	38718
624.817	38341
624.881	37638
624.945	35052
625.009	32646
625.073	34994
625.137	35035
625.201	39054
625.265	41679
625.329	34643
625.393	35183
625.456	36045
625.520	36853
625.584	39518
625.648	43234
625.712	51112
625.776	81709
625.839	106086
625.903	68721
625.967	34303
626.031	41771
626.095	65397
626.158	46868
626.222	29525
626.286	25498
626.349	25994
626.413	23715
626.477	25136
626.540	24045
626.604	23952
626.668	23661
626.731	22672
626.795	23671
626.858	24352
626.922	23600
626.986	22709
627.049	22555
627.113	23359
627.176	22935
627.240	22054
627.303	21733
627.366	21968
627.430	22191
627.493	22334
627.557	22389
627.620	22746
627.684	23161
627.747	23102
627.810	22546
627.874	19542
627.937	19153
628.000	20161
628.064	20821
628.127	17873
628.190	17327
628.253	17859
628.317	17594
628.380	16518
628.443	16207
628.506	17467
628.569	17256
628.632	14795
628.696	15486
628.759	14417
628.822	14195
628.885	13457
628.948	14161
629.011	13861
629.074	14017
629.137	14199
629.200	13862
629.263	15205
629.326	13595
629.389	13653
629.452	13513
629.515	13342
629.578	13610
629.641	14196
629.704	14171
629.767	13473
629.830	13102
629.892	12299
629.955	12464
630.018	13472
630.081	13823
630.144	16211
630.207	13288
630.269	14697
630.332	14100
630.395	13938
630.458	12984
630.520	11790
630.583	12735
630.646	11080
630.708	11968
630.771	11533
630.834	11652
630.896	11603
630.959	11877
631.021	11753
631.084	12453
631.146	11877
631.209	14876
631.272	11584
631.334	12015
631.397	11550
631.459	12604
631.522	11737
631.584	13530
631.646	13070
631.709	14057
631.771	16356
631.834	15167
631.896	13368
631.958	12409
632.021	11134
632.083	11590
632.145	11584
632.208	11658
632.270	11065
632.332	10946
632.395	9395
632.457	12046
632.519	11646
632.581	11777
632.643	10309
632.706	10958
632.768	9326
632.830	10844
632.892	9904
632.954	10360
633.016	11694
633.078	11300
633.141	10336
633.203	10157
633.265	10991
633.327	11183
633.389	10201
633.451	11152
633.513	12137
633.575	13730
633.637	12373
633.698	12694
633.760	11573
633.822	11549
633.884	11782
633.946	11482
634.008	12819
634.070	12370
634.132	12865
634.193	14303
634.255	14760
634.317	14980
634.379	15178
634.441	13974
634.502	12412
634.564	11895
634.626	11209
634.687	9919
634.749	11028
634.811	10649
634.873	9244
634.934	10149
634.996	10197
635.057	10649
635.119	8681
635.181	10030
635.242	10468
635.304	9609
635.365	10108
635.427	9376
635.488	9975
635.550	9926
635.611	10836
635.673	9127
635.734	11195
635.796	11794
635.857	12672
635.918	11839
635.980	14125
636.041	14917
636.102	15869
636.164	16034
636.225	15079
636.286	14263
636.348	12630
636.409	10983
636.470	9158
636.531	10883
636.593	9969
636.654	11394
636.715	8386
636.776	8582
636.838	7630
636.899	8954
636.960	8344
637.021	8502
637.082	8091
637.143	8086
637.204	7939
637.265	8530
637.326	8133
637.387	8561
637.448	7108
637.509	8545
637.570	7712
637.631	8030
637.692	6906
637.753	7140
637.814	6929
637.875	7469
637.936	8470
637.997	7364
638.058	7461
638.119	8681
638.179	7236
638.240	6830
638.301	7132
638.362	7136
638.423	7413
638.483	7732
638.544	6249
638.605	7077
638.666	6729
638.726	8490
638.787	7488
638.848	7026
638.908	5683
638.969	7030
639.030	5577
639.090	6246
639.151	5999
639.211	7637
639.272	8266
639.332	11975
639.393	10810
639.453	7455
639.514	7680
639.574	7785
639.635	5963
639.695	7360
639.756	6231
639.816	7102
639.877	6737
639.937	9740
639.997	14243
640.058	8575
640.118	5721
640.178	5851
640.239	4973
640.299	5924
640.359	5149
640.420	6665
640.480	6253
640.540	7406
640.600	8324
640.661	7734
640.721	6257
640.781	9539
640.841	9017
640.901	7575
640.961	6496
641.021	6830
641.082	7590
641.142	9653
641.202	8123
641.262	4903
641.322	5541
641.382	5140
641.442	5895
641.502	5938
641.562	6544
641.622	6035
641.682	6122
641.742	7138
641.802	6485
641.861	6963
641.921	5135
641.981	7703
642.041	6751
642.101	7363
642.161	6609
642.221	5914
642.280	4663
642.340	5401
642.400	5289
642.460	5853
642.519	4443
642.579	5263
642.639	5702
642.698	4383
642.758	6020
642.818	6355
642.877	5054
642.937	5874
642.997	5330
643.056	8408
643.116	5986
643.175	6847
643.235	4851
643.294	6416
643.354	6366
643.414	7318
643.473	8570
643.532	10917
643.592	14798
643.651	23280
643.711	42881
643.770	81648
643.830	174728
643.889	527040
643.948	272405
644.008	29984
644.067	14321
644.126	10385
644.186	8627
644.245	8428
644.304	5385
644.363	8466
644.423	4474
644.482	6443
644.541	6291
644.600	5584
644.659	7697
644.719	9221
644.778	13386
644.837	22577
644.896	41682
644.955	114828
645.014	80520
645.073	13344
645.132	7564
645.191	7657
645.250	5971
645.309	7138
645.368	7281
645.427	8430
645.486	11109
645.545	26431
645.604	12622
645.663	6055
645.722	5486
645.781	7488
645.840	7019
645.898	9598
645.957	13420
646.016	21576
646.075	38988
646.134	76744
646.192	169859
646.251	436138
646.310	128149
646.369	18150
646.427	11680
646.486	9425
646.545	7271
646.603	6438
646.662	6208
646.721	5601
646.779	4959
646.838	5412
646.896	6934
646.955	9140
647.014	14085
647.072	23506
647.131	64400
647.189	67442
647.248	9482
647.306	6713
647.365	4992
647.423	3700
647.481	5603
647.540	3478
647.598	4017
647.657	4287
647.715	4040
647.773	3444
647.832	3387
647.890	3104
647.948	3767
648.007	4698
648.065	2571
648.123	4224
648.181	4459
648.240	3839
648.298	3303
648.356	4320
648.414	3546
648.472	4245
648.531	3666
648.589	4007
648.647	2982
648.705	3890
648.763	3090
648.821	3696
648.879	3935
648.937	4722
648.995	5282
649.053	6741
649.111	10598
649.169	17882
649.227	31667
649.285	58217
649.343	177217
649.401	192229
649.459	28645
649.516	16820
649.574	7331
649.632	11189
649.690	16773
649.748	10292
649.806	9684
649.863	19651
649.921	42393
649.979	58378
650.037	9807
650.094	3332
650.152	3959
650.210	3210
650.268	3352
650.325	4316
650.383	4806
650.440	2850
650.498	2802
650.556	3017
650.613	2239
650.671	3168
650.728	2312
650.786	3735
650.843	3432
650.901	2368
650.958	2579
651.016	2541
651.073	1831
651.131	1742
651.188	1059
651.246	2634
651.303	722
651.360	2749
651.418	1355
651.475	2361
651.532	1084
651.590	2345
651.647	954
651.704	2324
651.762	2184
651.819	3105
651.876	1905
651.933	1944
651.990	2023
652.048	1316
652.105	1456
652.162	2000
652.219	1418
652.276	2055
652.333	2489
652.390	1733
652.448	630
652.505	1105
652.562	1220
652.619	2162
652.676	1653
652.733	3975
652.790	1169
652.847	1046
652.904	1477
652.961	1386
653.017	-319
653.074	2301
653.131	893
653.188	1016
653.245	1476
653.302	2005
653.359	164
653.415	2953
653.472	1194
653.529	1595
653.586	1333
653.642	1243
653.699	1681
653.756	1112
653.813	773
653.869	2322
653.926	1280
653.983	947
654.039	985
654.096	1649
654.152	2122
654.209	621
654.266	2197
654.322	1194
654.379	2159
654.435	2607
654.492	1503
654.548	3266
654.605	5280
654.661	4863
654.717	2211
654.774	2349
654.830	2380
654.887	2437
654.943	816
655.000	2241
655.056	2010
655.112	2469
655.168	1004
655.225	1640
655.281	2521
655.337	3243
655.394	5017
655.450	5330
655.506	3092
655.562	4348
655.618	7024
655.675	2012
655.731	1783
655.787	1835
655.843	973
655.899	742
655.955	1985
656.011	1563
656.067	1195
656.123	1782
656.179	1821
656.235	2751
656.291	649
656.347	1705
656.403	935
656.459	1904
656.515	2412
656.571	2457
656.627	1509
656.683	1809
656.739	2045
656.795	1139
656.850	1574
656.906	1812
656.962	3015
657.018	1435
657.074	937
657.129	2483
657.185	2944
657.241	5806
657.297	5527
657.352	2153
657.408	266
657.464	2432
657.519	1395
657.575	1494
657.630	570
657.686	1485
657.742	385
657.797	1080
657.853	1253
657.908	2879
657.964	748
658.019	750
658.075	1423
658.130	1675
658.186	1354
658.241	1673
658.297	733
658.352	968
658.407	1271
658.463	859
658.518	640
658.573	983
658.629	1014
658.684	659
658.739	1416
658.795	-204
658.850	1588
658.905	1264
658.960	885
659.016	240
659.071	568
659.126	1000
659.181	774
659.236	2769
659.291	3902
659.346	1715
659.401	1810
659.457	1190
659.512	1024
659.567	2202
659.622	1716
659.677	768
659.732	822
659.787	1680
659.842	1043
659.897	3075
659.952	2387
660.007	1600
660.061	971
660.116	1374
660.171	895
660.226	402
660.281	2310
660.336	537
660.391	1378
660.445	707
660.500	510
660.555	813
660.610	901
660.664	1598
660.719	1195
660.774	1308
660.828	874
660.883	1602
660.938	54
660.992	752
661.047	1433
661.101	1225
661.156	1047
661.211	695
661.265	1242
661.320	1469
661.374	1173
661.429	1227
661.483	1524
661.538	1204
661.592	402
661.647	1819
661.701	1387
661.755	1709
661.810	116
661.864	650
661.919	890
661.973	1411
662.027	1186
662.081	1255
662.136	-772
662.190	1028
662.244	1725
662.299	1157
662.353	1207
662.407	898
662.461	415
662.515	2124
662.569	820
662.624	2413
662.678	789
662.732	1547
662.786	167
662.840	1057
662.894	949
662.948	1233
663.002	637
663.056	1213
663.110	-265
663.164	1515
663.218	514
663.272	1223
663.326	1423
663.380	2282
663.434	774
663.488	581
663.542	1283
663.595	1125
663.649	982
663.703	2339
663.757	1140
663.811	178
663.864	1101
663.918	2521
663.972	832
664.026	888
664.079	912
664.133	2068
664.187	580
664.240	1208
664.294	646
664.348	1600
664.401	1009
664.455	976
664.508	162
664.562	1464
664.615	935
664.669	18
664.722	671
664.776	841
664.829	487
664.883	222
664.936	683
664.990	1506
665.043	1538
665.097	1071
665.150	2006
665.203	581
665.257	1113
665.310	1080
665.363	836
665.417	928
665.470	1358
665.523	1856
665.576	941
665.630	1678
665.683	836
665.736	1549
665.789	1917
665.842	1234
665.895	725
665.949	1404
666.002	859
666.055	1569
666.108	1190
666.161	1779
666.214	888
666.267	1424
666.320	1944
666.373	2361
666.426	1246
666.479	1130
666.532	2015
666.585	2087
666.638	2064
666.691	1726
666.744	1509
666.796	1976
666.849	1314
666.902	1656
666.955	697
667.008	1228
667.060	1280
667.113	589
667.166	351
667.219	1764
667.271	574
667.324	804
667.377	785
667.430	1026
667.482	765
667.535	1809
667.587	1296
667.640	1964
667.693	1120
667.745	3015
667.798	4314
667.850	2089
667.903	1454
667.955	1412
668.008	214
668.060	2099
668.113	2365
668.165	2000
668.218	1436
668.270	1440
668.322	1503
668.375	1812
668.427	1495
668.479	1113
668.532	1145
668.584	1610
668.636	1463
668.689	1254
668.741	1154
668.793	1809
668.845	629
668.898	1685
668.950	958
669.002	1271
669.054	1619
669.106	1234
669.158	1455
669.211	1375
669.263	1547
669.315	1830
669.367	1179
669.419	2289
669.471	1915
669.523	2702
669.575	2605
669.627	3282
669.679	1477
669.731	1879
669.783	1638
669.835	2909
669.886	1614
669.938	1880
669.990	1415
670.042	1427
670.094	1809
670.146	2154
670.197	2540
670.249	3952
670.301	2996
670.353	5300
670.404	6465
670.456	9957
670.508	14896
670.560	27376
670.611	45723
670.663	80475
670.715	157750
670.766	390845
670.818	225029
670.869	31102
670.921	11510
670.972	7168
671.024	4549
671.075	5026
671.127	3108
671.178	2687
671.230	2949
671.281	2167
671.333	1919
671.384	2181
671.436	2344
671.487	4276
671.538	3797
671.590	6025
671.641	10222
671.692	14717
671.744	32464
671.795	36457
671.846	12474
671.897	5524
671.949	3200
672.000	3116
672.051	1387
672.102	2679
672.153	1113
672.204	2698
672.256	2050
672.307	1784
672.358	1553
672.409	2123
672.460	1004
672.511	2114
672.562	761
672.613	1183
672.664	1412
672.715	1287
672.766	1054
672.817	1272
672.868	683
672.919	1275
672.970	1327
673.021	938
673.071	413
673.122	1830
673.173	1109
673.224	1183
673.275	1211
673.326	1279
673.376	1163
673.427	601
673.478	627
673.528	1199
673.579	754
673.630	1171
673.680	1308
673.731	901
673.782	346
673.832	1318
673.883	1441
673.934	1104
673.984	1012
674.035	761
674.085	583
674.136	1381
674.186	1244
674.237	1743
674.287	2465
674.338	3620
674.388	769
674.438	1010
674.489	1406
674.539	1300
674.589	1506
674.640	1330
674.690	1301
674.740	928
674.791	1119
674.841	1901
674.891	1193
674.942	1468
674.992	-260
675.042	1412
675.092	206
675.142	1818
675.193	551
675.243	983
675.293	693
675.343	750
675.393	610
675.443	1666
675.493	506
675.543	951
675.593	496
675.643	1371
675.693	436
675.743	968
675.793	755
675.843	978
675.893	-65
675.943	1052
675.993	609
676.043	777
676.093	1237
676.142	417
676.192	1050
676.242	718
676.292	791
676.341	879
676.391	1059
676.441	1331
676.491	-497
676.540	503
676.590	1042
676.640	87
676.689	-86
676.739	-355
676.789	1001
676.838	76
676.888	338
676.937	276
676.987	-349
677.037	115
677.086	-741
677.136	606
677.185	651
677.235	630
677.284	173
677.333	199
677.383	234
677.432	-31
677.482	-49
677.531	1058
677.580	164
677.630	422
677.679	-185
677.728	834
677.778	781
677.827	507
677.876	-54
677.925	256
677.975	-135
678.024	673
678.073	-395
678.122	725
678.171	491
678.220	1305
678.269	584
678.319	1849
678.368	829
678.417	916
678.466	1022
678.515	530
678.564	438
678.613	714
678.662	21
678.711	321
678.760	625
678.809	966
678.857	95
678.906	474
678.955	50
679.004	1129
679.053	502
679.102	735
679.151	397
679.199	756
679.248	480
679.297	562
679.346	473
679.394	564
679.443	-372
679.492	378
679.540	449
679.589	121
679.638	518
679.686	1014
679.735	201
679.784	711
679.832	-119
679.881	-95
679.929	-48
679.978	945
680.026	-70
680.075	1126
680.123	752
680.172	1159
680.220	-348
680.268	96
680.317	-113
680.365	585
680.414	-127
680.462	532
680.510	70
680.559	541
680.607	-333
680.655	321
680.703	-928
680.752	39
680.800	860
680.848	299
680.896	-89
680.945	-90
680.993	-239
681.041	258
681.089	-579
681.137	486
681.185	-89
681.233	335
681.258	63
681.281	-242
681.329	225
681.377	-201
681.380	-78
681.425	1287
681.473	247
681.502	656
681.521	864
681.569	1194
681.617	1217
681.624	1155
681.665	347
681.713	1377
681.745	1249
681.761	1116
681.809	1078
681.857	610
681.867	836
681.904	1451
681.952	1118
681.989	1542
682.000	1609
682.048	1641
682.096	1139
682.111	1353
682.143	1661
682.191	1689
682.233	2036
682.239	2040
682.286	1809
682.334	1713
682.354	2046
682.382	2404
682.430	2185
682.476	2851
682.477	2823
682.525	2299
682.572	2304
682.598	2165
682.620	1986
682.667	3482
682.715	3538
682.720	3559
682.763	3383
682.810	3218
682.841	3639
682.857	3768
682.905	3626
682.952	2880
682.963	3099
683.000	3747
683.047	4128
683.085	4199
683.095	4169
683.142	3687
683.190	2918
683.206	3273
683.237	3823
683.284	3705
683.328	4596
683.332	4636
683.379	3831
683.426	4410
683.449	4449
683.473	4409
683.521	4636
683.568	4290
683.571	4337
683.615	4527
683.662	4462
683.693	4749
683.709	4858
683.757	4957
683.804	5324
683.814	5256
683.851	4888
683.898	5575
683.936	5128
683.945	5000
683.992	5597
684.039	5618
684.057	5977
684.086	6466
684.133	6123
684.179	6968
684.180	6963
684.227	6584
684.274	7043
684.300	6739
684.321	6421
684.368	6396
684.415	6406
684.422	6504
684.462	6859
684.509	6047
684.543	6510
684.556	6700
684.603	6633
684.649	6542
684.665	6488
684.696	6280
684.743	6815
684.786	7025
684.790	7030
684.837	7722
684.883	7251
684.908	7985
684.930	8624
684.977	8472
685.023	8069
685.029	8192
685.070	8571
685.117	8554
685.150	8175
685.164	8117
685.210	8677
685.257	9075
685.272	9261
685.303	9453
685.350	8843
685.393	9426
685.396	9461
685.443	9086
685.490	10108
685.514	9902
685.536	9696
685.583	10451
685.629	9644
685.636	9750
685.675	9960
685.722	9503
685.757	9924
685.768	10112
685.815	9725
685.861	9857
685.878	9907
685.908	10020
685.954	9893
686.000	10228
686.000	10230
686.047	11979
686.093	12173
686.121	13015
686.139	13297
686.185	12089
686.232	13104
686.242	12997
686.278	11770
686.324	11535
686.363	10039
686.370	9892
686.416	9765
686.463	10770
686.484	10618
686.509	10568
686.555	10197
686.601	10869
686.606	10908
686.647	10959
686.693	11111
686.727	10154
686.739	9850
686.785	10966
686.831	10721
686.848	10839
686.877	11008
686.923	10359
686.969	11202
686.969	11204
687.015	10653
687.061	10521
687.090	10888
687.107	11083
687.153	11263
687.199	11656
687.211	11526
687.245	11240
687.291	10734
687.332	11108
687.336	11185
687.382	12194
687.428	12974
687.453	12819
687.474	12226
687.520	12533
687.565	11424
687.574	11290
687.611	11301
687.657	11712
687.695	12337
687.702	12527
687.748	12666
687.794	14796
687.816	14721
687.839	14393
687.885	14190
687.931	14182
687.937	14217
687.976	13824
688.022	13130
688.058	13111
688.067	13229
688.113	12050
688.158	12460
688.179	12297
688.204	12205
688.249	12737
688.295	12811
688.300	12899
688.340	13834
688.386	13560
688.421	14137
688.431	14176
688.477	13666
688.522	14004
688.542	13594
688.567	13274
688.613	14133
688.658	13501
688.663	13525
688.703	13751
688.749	12937
688.784	13745
688.794	13973
688.839	13512
688.884	13996
688.905	13583
688.930	13108
688.975	13698
689.020	12924
689.026	12993
689.065	13838
689.110	13310
689.146	14302
689.155	14515
689.201	13711
689.246	13998
689.267	13879
689.291	13741
689.336	13677
689.381	13517
689.388	13592
689.426	14355
689.471	14263
689.509	14461
689.516	14449
689.561	13961
689.606	13798
689.630	13502
689.651	13357
689.696	13776
689.741	13776
689.750	13796
689.785	14152
689.830	13663
689.871	14054
689.875	14085
689.920	14279
689.965	14056
689.992	13532
690.010	13277
690.054	14147
690.099	14250
690.112	14217
690.144	14207
690.189	14233
690.233	14392
690.233	14413
690.278	13910
690.323	14397
690.354	14291
690.367	14273
690.412	14294
690.457	14075
690.474	14224
690.501	14482
690.546	14368
690.590	14570
690.595	14531
690.635	14387
690.680	14268
690.716	14053
690.724	14110
690.769	14983
690.813	15134
690.836	15334
690.857	15420
690.902	15115
690.946	15339
690.957	15318
690.991	16149
691.035	17417
691.077	18299
691.080	18396
691.124	20161
691.168	21155
691.198	22119
691.213	21790
691.257	20636
691.301	19501
691.318	18975
691.346	18468
691.390	17876
691.434	16588
691.439	16506
691.478	16542
691.522	16016
691.559	15596
691.567	15663
691.611	16229
691.655	16572
691.680	16473
691.699	16303
691.743	16798
691.787	16581
691.800	16614
691.831	16901
691.875	16931
691.919	17283
691.921	17250
691.964	17614
692.008	18319
692.041	18325
692.052	18226
692.096	18166
692.139	17875
692.162	17879
692.183	17854
692.227	17586
692.271	17253
692.282	17029
692.315	16892
692.359	17196
692.402	17287
692.403	17321
692.447	17405
692.490	17245
692.523	17157
692.534	17341
692.578	17491
692.622	18183
692.643	18298
692.666	18142
692.709	18302
692.753	18039
692.763	17875
692.797	17666
692.840	17691
692.884	17760
692.884	17798
692.928	17472
692.971	17639
693.004	17380
693.015	17371
693.059	17719
693.102	17516
693.124	17535
693.146	17731
693.189	17725
693.233	18184
693.245	18227
693.276	18781
693.320	19633
693.363	19944
693.365	19913
693.407	19428
693.450	19459
693.485	19188
693.493	19251
693.537	19327
693.580	19439
693.605	19541
693.624	19940
693.667	20487
693.710	21244
693.725	21489
693.753	22872
693.797	24621
693.840	26972
693.845	27151
693.883	29295
693.926	31659
693.966	33606
693.970	33332
694.013	29991
694.056	26415
694.086	24074
694.099	23765
694.142	22276
694.185	21380
694.206	20586
694.229	20517
694.272	20702
694.315	20625
694.326	20606
694.358	20901
694.401	20924
694.444	21331
694.446	21287
694.487	21285
694.530	21476
694.566	21459
694.573	21334
694.616	20141
694.659	18819
694.686	18244
694.702	18212
694.745	17713
694.787	17147
694.806	16903
694.830	17234
694.873	17702
694.916	18153
694.926	18280
694.959	18465
695.002	18356
695.044	18234
695.046	18185
695.087	18233
695.130	18393
695.166	18165
695.172	18200
695.215	18565
695.258	18599
695.286	18683
695.301	18891
695.343	19219
695.386	19709
695.406	19871
695.428	19697
695.471	19171
695.514	18875
695.526	18690
695.556	18862
695.599	19056
695.641	19297
695.646	19255
695.684	19261
695.726	19410
695.766	19392
695.769	19437
695.811	19555
695.854	19369
695.886	19372
695.896	19446
695.938	19230
695.981	19465
696.005	19268
696.023	19182
696.065	19104
696.108	18974
696.125	18919
696.150	19360
696.192	19873
696.235	20443
696.245	20521
696.277	20330
696.319	19971
696.361	19777
696.365	19697
696.404	19653
696.446	19677
696.485	19567
696.488	19635
696.530	19771
696.572	20008
696.604	20055
696.614	20133
696.656	20361
696.698	20499
696.724	20521
696.740	20393
696.783	19931
696.825	19585
696.844	19335
696.867	19582
696.909	19909
696.951	20217
696.964	20300
696.992	20306
697.034	20076
697.076	19910
697.083	19837
697.118	20136
697.160	20428
697.202	20593
697.203	20544
697.244	20664
697.286	20675
697.323	20564
697.327	20580
697.369	20305
697.411	20000
697.442	19681
697.453	19812
697.494	20125
697.536	20516
697.562	20704
697.578	20867
697.620	21064
697.661	21319
697.682	21368
697.703	21549
697.744	21848
697.786	22121
697.801	22146
697.828	22864
697.869	23879
697.911	24946
697.921	25137
697.952	24262
697.994	23048
698.035	21742
698.040	21534
698.077	21158
698.118	20605
698.160	20042
698.160	19982
698.201	20376
698.243	20722
698.279	20957
698.284	21052
698.325	21421
698.367	21744
698.399	21956
698.408	21932
698.449	21526
698.491	21147
698.518	20797
698.532	20903
698.573	21082
698.614	21251
698.638	21292
698.656	21436
698.697	21621
698.738	21816
698.757	21847
698.779	21939
698.820	21996
698.862	22041
698.877	22004
698.903	22392
698.944	22893
698.985	23412
698.996	23489
699.026	23573
699.067	23606
699.116	23579
699.235	23163
699.354	22458
699.474	21578
699.593	23564
699.713	26060
699.832	21142
699.951	22497
700.070	22264
700.190	20854
700.309	21232
700.428	22338
700.547	22248
700.667	20974
700.786	22806
700.905	22985
701.024	20362
701.143	23954
701.262	18788
701.381	19755
701.500	19949
701.619	21558
701.738	19923
701.857	19892
701.976	18635
702.095	18627
702.214	19146
702.333	21132
702.452	19881
702.571	19211
702.690	19273
702.809	18700
702.928	18328
703.047	18726
703.165	17893
703.284	17144
703.403	18193
703.522	18689
703.640	20443
703.759	19732
703.878	29584
703.997	23385
704.115	17464
704.234	17594
704.353	17517
704.471	17255
704.590	15696
704.708	15980
704.827	15487
704.946	16965
705.064	19227
705.183	17815
705.301	19162
705.420	24297
705.538	27932
705.656	23273
705.775	21014
705.893	23562
706.012	33498
706.130	24150
706.249	22424
706.367	22165
706.485	23098
706.604	22746
706.722	22575
706.840	25434
706.958	29777
707.077	27621
707.195	21431
707.313	19849
707.431	19813
707.549	19613
707.668	19658
707.786	20984
707.904	19998
708.022	19896
708.140	18062
708.258	18767
708.376	18970
708.494	18576
708.612	20854
708.730	25364
708.848	31827
708.966	25849
709.084	25457
709.202	23432
709.320	24405
709.438	24618
709.556	24950
709.674	23980
709.791	24908
709.909	22920
710.027	22743
710.145	22742
710.263	22296
710.380	22493
710.498	23476
710.616	22062
710.733	21463
710.851	23213
710.969	24401
711.086	23138
711.204	22632
711.322	21766
711.439	22310
711.557	23359
711.674	22168
711.792	21509
711.909	22215
712.027	21245
712.144	20989
712.262	19801
712.379	21401
712.497	28308
712.614	35008
712.732	30324
712.849	25953
712.966	26534
713.084	31173
713.201	30314
713.318	26921
713.436	25997
713.553	27166
713.670	27001
713.787	29180
713.905	32641
714.022	27127
714.139	25193
714.256	29893
714.373	33811
714.490	47269
714.608	79807
714.725	287711
714.842	834764
714.959	132425
715.076	34329
715.193	27990
715.310	26449
715.427	24274
715.544	22312
715.661	21874
715.778	22139
715.895	24450
716.011	24780
716.128	23863
716.245	22006
716.362	24066
716.479	28293
716.596	23131
716.713	22095
716.829	22075
716.946	21590
717.063	19723
717.180	20116
717.296	19077
717.413	20147
717.530	19047
717.646	19996
717.763	20145
717.880	19200
717.996	18318
718.113	19414
718.229	18596
718.346	18955
718.462	18583
718.579	20586
718.695	28597
718.812	33342
718.928	26377
719.045	25774
719.161	17614
719.277	17707
719.394	17737
719.510	17143
719.626	17551
719.743	22223
719.859	26456
719.975	34886
720.092	86088
720.208	336279
720.324	155531
720.440	24577
720.557	20753
720.673	24667
720.789	35771
720.905	65657
721.021	64324
721.137	18750
721.253	17045
721.369	16717
721.486	18884
721.602	26151
721.718	21355
721.834	14670
721.950	15706
722.066	14509
722.181	15061
722.297	15022
722.413	16044
722.529	14871
722.645	14382
722.761	14473
722.877	14588
722.993	14025
723.108	15669
723.224	15792
723.340	15199
723.456	14036
723.571	14020
723.687	13709
723.803	13375
723.918	14421
724.034	13847
724.150	14272
724.265	14113
724.381	21718
724.497	50502
724.612	19294
724.728	13388
724.843	13232
724.959	14938
725.074	20742
725.190	45235
725.305	17577
725.421	15118
725.536	12131
725.651	12093
725.767	11622
725.882	11709
725.997	11575
726.113	11779
726.228	11562
726.343	11242
726.459	9849
726.574	11159
726.689	12775
726.804	11683
726.920	12143
727.035	10769
727.150	11907
727.265	11065
727.380	11554
727.495	11775
727.610	10744
727.725	9906
727.841	10725
727.956	12805
728.071	16700
728.186	13085
728.301	9838
728.416	10883
728.531	10424
728.645	10358
728.760	9681
728.875	12138
728.990	10844
729.105	11092
729.220	11285
729.335	11511
729.449	10128
729.564	10139
729.679	9080
729.794	8837
729.908	10095
730.023	10631
730.138	8483
730.253	9175
730.367	9362
730.482	9226
730.596	9706
730.711	9687
730.826	10291
730.940	10854
731.055	10379
731.169	10467
731.284	8838
731.398	9787
731.513	11016
731.627	12108
731.742	11249
731.856	15774
731.970	11446
732.085	12745
732.199	16173
732.313	21416
732.428	41654
732.542	125142
732.656	190116
732.771	38075
732.885	15997
732.999	12576
733.113	13187
733.227	12794
733.342	11299
733.456	10539
733.570	9840
733.684	10379
733.798	9756
733.912	10459
734.026	8717
734.140	9575
734.254	10052
734.368	13009
734.482	27260
734.596	11933
734.710	9635
734.824	8889
734.938	8949
735.052	9090
735.166	10172
735.280	10618
735.393	8605
735.507	8481
735.621	10996
735.735	17422
735.849	18001
735.962	8139
736.076	8906
736.190	9619
736.303	10701
736.417	19064
736.531	10638
736.644	8450
736.758	9069
736.872	7699
736.985	7449
737.099	7648
737.212	7326
737.326	8522
737.439	8204
737.553	7726
737.666	8365
737.780	7712
737.893	7155
738.007	7606
738.120	7076
738.233	7480
738.347	7388
738.460	7752
738.573	7768
738.687	8365
738.800	7616
738.913	8577
739.026	9447
739.140	6912
739.253	7275
739.366	7300
739.479	6849
739.592	6612
739.705	6691
739.818	7882
739.932	7058
740.045	6601
740.158	7379
740.271	7787
740.384	7491
740.497	6980
740.610	8222
740.723	6868
740.836	7970
740.949	8341
741.062	7958
741.174	10220
741.287	8036
741.400	7084
741.513	6038
741.626	7871
741.739	7670
741.851	6980
741.964	6515
742.077	7418
742.189	7013
742.302	7648
742.415	8030
742.527	7463
742.640	6955
742.753	5850
742.865	6044
742.978	5670
743.090	5765
743.203	5602
743.316	6166
743.428	5464
743.541	5344
743.653	6197
743.766	5865
743.878	6807
743.990	6730
744.103	9916
744.215	6756
744.327	5595
744.440	6574
744.552	9883
744.664	9279
744.777	5666
744.889	5092
745.001	5673
745.113	5497
745.226	6279
745.338	4979
745.450	5990
745.562	5523
745.674	5557
745.786	4434
745.898	5028
746.010	4710
746.122	5268
746.234	5505
746.347	5146
746.459	5581
746.570	4844
746.682	4247
746.794	4812
746.906	5956
747.018	5152
747.130	5854
747.242	4435
747.354	5353
747.466	5851
747.577	5061
747.689	4560
747.801	4846
747.913	4870
748.024	4316
748.136	4749
748.248	5202
748.359	5010
748.471	4329
748.583	4173
748.694	4307
748.806	5629
748.918	6705
749.029	6438
749.141	4709
749.252	5720
749.364	5348
749.475	9236
749.587	12462
749.698	6392
749.809	5375
749.921	4264
750.032	4698
750.144	4804
750.255	3637
750.366	4078
750.478	4716
750.589	4734
750.700	5354
750.811	4909
750.923	5658
751.034	8352
751.145	17683
751.256	7707
751.367	4388
751.479	3438
751.590	4648
751.701	4774
751.812	4420
751.923	4004
752.034	4322
752.145	4663
752.256	4527
752.367	4063
752.478	3820
752.589	4934
752.700	4543
752.811	4035
752.922	3866
753.032	4576
753.143	5396
753.254	4294
753.365	4342
753.476	4533
753.586	4388
753.697	4308
753.808	4148
753.919	4086
754.029	4245
754.140	4005
754.251	4236
754.361	4029
754.472	4534
754.582	3748
754.693	4793
754.804	4432
754.914	3453
755.025	3986
755.135	3278
755.246	3482
755.356	3492
755.466	3790
755.577	3443
755.687	4831
755.798	3890
755.908	3560
756.018	3374
756.129	3727
756.239	3123
756.349	3837
756.460	3655
756.570	3796
756.680	3714
756.790	4411
756.900	4923
757.011	4041
757.121	3142
757.231	3847
757.341	4033
757.451	3502
757.561	3376
757.671	4500
757.781	3090
757.891	4743
758.001	4277
758.111	4344
758.221	4118
758.331	4570
758.441	4843
758.551	5692
758.661	6899
758.771	5758
758.880	4736
758.990	4990
759.100	3865
759.210	3885
759.320	4265
759.429	4926
759.539	4293
759.649	4565
759.758	5458
759.868	5851
759.978	4829
760.087	6158
760.197	5580
760.307	5720
760.416	6037
760.526	4959
760.635	5515
760.745	4914
760.854	5153
760.964	5947
761.073	6213
761.182	5226
761.292	5636
761.401	5830
761.511	5851
761.620	4296
761.729	4693
761.839	5202
761.948	4974
762.057	5233
762.166	5864
762.276	4149
762.385	4800
762.494	3999
762.603	3707
762.712	4562
762.822	5163
762.931	4700
763.040	4365
763.149	4458
763.258	4110
763.367	4795
763.476	4699
763.585	3726
763.694	4995
763.803	4806
763.912	5839
764.021	5615
764.130	5313
764.238	4894
764.347	4804
764.456	5415
764.565	5870
764.674	6422
764.783	5707
764.891	5786
765.000	6468
765.109	6989
765.217	6510
765.326	8216
765.435	9257
765.543	11080
765.652	11512
765.761	12815
765.869	17401
765.978	25273
766.086	42406
766.195	77032
766.303	173781
766.412	485883
766.520	786983
766.629	368924
766.737	101547
766.846	49903
766.954	31152
767.062	23811
767.171	17608
767.279	15737
767.387	11600
767.496	10121
767.604	8848
767.712	8877
767.820	7860
767.928	8147
768.037	7106
768.145	6909
768.253	7689
768.361	7070
768.469	6707
768.577	6912
768.685	7060
768.793	7104
768.901	8031
769.009	8884
769.117	8264
769.225	10239
769.333	12680
769.441	18327
769.549	32641
769.657	62872
769.765	172059
769.873	525508
769.981	462797
770.088	101536
770.196	34595
770.304	21050
770.412	15247
770.519	12530
770.627	9898
770.735	8245
770.842	7414
770.950	7522
771.058	6682
771.165	6316
771.273	5887
771.380	6409
771.488	5834
771.595	6737
771.703	6438
771.810	6552
771.918	6366
772.025	6041
772.133	6574
772.240	6872
772.348	6579
772.455	6112
772.562	5447
772.670	5724
772.777	5331
772.884	6116
772.991	5514
773.099	4961
773.206	4896
773.313	5347
773.420	4227
773.528	4727
773.635	4939
773.742	4920
773.849	4872
773.956	4725
774.063	4725
774.170	4803
774.277	4661
774.384	6352
774.491	4856
774.598	5277
774.705	5004
774.812	6285
774.919	6673
775.026	5844
775.133	5401
775.239	5242
775.346	5192
775.453	5089
775.560	4820
775.667	4792
775.773	5264
775.880	5068
775.987	5158
776.093	4226
776.200	4075
776.307	4743
776.413	4605
776.520	4216
776.627	4748
776.733	4848
776.840	4239
776.946	4897
777.053	4568
777.159	5052
777.266	5400
777.372	5197
777.478	4628
777.585	5320
777.691	4696
777.798	4561
777.904	5184
778.010	5337
778.117	7501
778.223	4825
778.329	5214
778.435	4471
778.542	5005
778.648	4062
778.754	3435
778.860	3752
778.966	4355
779.072	3996
779.178	4031
779.284	3978
779.391	3592
779.497	3360
779.603	6023
779.708	4290
779.815	5312
779.920	6819
780.026	19609
780.132	11864
780.238	4520
780.344	3928
780.450	4612
780.556	3658
780.661	3697
780.767	3847
780.873	3956
780.979	4185
781.085	3202
781.190	4376
781.296	3975
781.402	4356
781.507	3353
781.613	3368
781.719	3566
781.824	4058
781.930	3537
782.035	3787
782.141	3480
782.246	3621
782.352	3289
782.457	3915
782.563	3401
782.668	3664
782.773	3618
782.879	3775
782.984	3663
783.090	4726
783.195	5166
783.300	6795
783.405	4563
783.511	4063
783.616	3620
783.721	3651
783.826	3693
783.932	2580
784.037	4076
784.142	3606
784.247	3189
784.352	4234
784.457	3626
784.562	3775
784.667	4094
784.772	3340
784.877	2742
784.982	3350
785.087	3015
785.192	3355
785.297	3495
785.402	3279
785.507	3479
785.611	3299
785.716	3107
785.821	3376
785.926	3227
786.031	4253
786.135	2698
786.240	3231
786.345	3309
786.450	3544
786.554	2879
786.659	2845
786.763	1916
786.868	3449
786.973	2644
787.077	3597
787.182	2951
787.286	3139
787.391	2771
787.495	2734
787.600	2401
787.704	3175
787.809	2948
787.913	3139
788.017	2338
788.122	3488
788.226	3386
788.330	2593
788.435	2462
788.539	3815
788.643	2770
788.747	2061
788.852	2738
788.956	2619
789.060	2718
789.164	2165
789.268	2787
789.372	2848
789.476	1676
789.580	2438
789.684	2026
789.788	1844
789.892	2214
789.996	2815
790.100	2682
790.204	2737
790.308	2995
790.412	3285
790.516	3087
790.620	2608
790.724	2676
790.828	3268
790.931	1949
791.035	2642
791.139	2521
791.242	1842
791.346	2211
791.450	2722
791.554	2104
791.657	2283
791.761	3013
791.864	2616
791.968	2414
792.072	3243
792.175	3018
792.279	2752
792.382	2464
792.486	2906
792.589	3154
792.693	3874
792.796	1942
792.899	2518
793.003	2219
793.106	2076
793.209	2595
793.313	2867
793.416	1243
793.519	2392
793.623	3727
793.726	5802
793.829	4554
793.932	3337
794.035	1881
794.138	3079
794.242	2581
794.345	2953
794.448	4066
794.551	4539
794.654	7475
794.757	9737
794.860	7416
794.963	4747
795.066	2148
795.169	2281
795.272	1867
795.375	2811
795.477	1649
795.580	1563
795.683	969
795.786	1190
795.889	1826
795.991	2734
796.094	2734
796.197	2721
796.300	2193
796.402	1712
796.505	1210
796.608	1601
796.710	1725
796.813	2007
796.915	2172
797.018	1620
797.120	2331
797.223	1419
797.326	2115
797.428	2030
797.530	1938
797.633	1568
797.735	2960
797.838	2411
797.940	7116
798.042	2376
798.145	2253
798.247	2086
798.349	1912
798.452	1716
798.554	1197
798.656	1811
798.758	2245
798.860	2035
798.962	1311
799.065	2172
799.167	1785
799.269	2774
799.371	2176
799.473	2696
799.575	2871
799.677	4106
799.779	3423
799.881	3800
799.983	4236
800.085	2682
800.187	1796
800.289	1577
800.390	1636
800.492	1435
800.594	2430
800.696	1146
800.798	2211
800.899	1566
801.001	1289
801.103	1807
801.205	1982
801.306	1952
801.408	1186
801.509	1174
801.611	1910
801.713	2036
801.814	1039
801.916	1427
802.017	537
802.119	1586
802.220	1398
802.322	896
802.423	3002
802.525	3982
802.626	1814
802.727	1754
802.829	1789
802.930	551
803.031	2462
803.133	955
803.234	763
803.335	1711
803.436	1210
803.538	1160
803.639	653
803.740	1531
803.841	1274
803.942	1537
804.043	1349
804.144	1232
804.245	1369
804.346	1734
804.447	857
804.548	1826
804.649	3322
804.750	1703
804.851	444
804.952	1103
805.053	1493
805.154	-58
805.255	1708
805.355	1281
805.456	952
805.557	1384
805.658	429
805.758	1398
805.859	1532
805.960	872
806.061	474
806.161	971
806.262	1002
806.362	1477
806.463	1368
806.564	792
806.664	1289
806.765	1542
806.865	3276
806.966	1525
807.066	1436
807.166	1760
807.267	946
807.367	749
807.468	1633
807.568	701
807.668	1690
807.769	1105
807.869	1436
807.969	1139
808.069	1292
808.170	1316
808.270	942
808.370	1588
808.470	2328
808.570	2292
808.670	1037
808.770	1047
808.870	844
808.970	653
809.070	810
809.170	805
809.271	1832
809.370	881
809.470	205
809.570	1584
809.670	291
809.770	1224
809.870	1799
809.970	933
810.070	841
810.169	806
810.269	549
810.369	1765
810.469	1565
810.568	481
810.668	346
810.768	1497
810.867	1055
810.967	1588
811.066	1206
811.166	725
811.265	1511
811.365	888
811.464	909
811.564	750
811.663	1580
811.763	1331
811.862	1232
811.962	1296
812.061	1161
812.160	1693
812.260	1609
812.359	786
812.458	1616
812.557	3283
812.657	7051
812.756	5657
812.855	2409
812.954	1411
813.053	1110
813.153	2339
813.252	1487
813.351	1871
813.450	1551
813.549	2243
813.648	670
813.747	598
813.846	2254
813.945	1301
814.044	1730
814.143	1449
814.242	1904
814.341	1662
814.439	1163
814.538	1358
814.637	1101
814.736	2047
814.835	2331
814.933	1986
815.032	2302
815.131	2349
815.229	3209
815.328	3045
815.427	3702
815.525	3442
815.624	3028
815.722	2621
815.821	3163
815.919	3040
816.018	4029
816.116	4124
816.215	4084
816.313	4314
816.412	4655
816.510	4705
816.609	5220
816.707	5483
816.805	4893
816.904	4931
817.002	6337
817.100	7414
817.198	7845
817.296	9263
817.395	9381
817.493	10810
817.591	11685
817.689	16846
817.787	21129
817.885	29898
817.983	48539
818.081	90217
818.179	189966
818.277	418476
818.375	670306
818.473	363618
818.571	133407
818.669	69434
818.767	51202
818.865	47181
818.963	50796
819.061	63824
819.158	95510
819.256	166748
819.354	328856
819.452	650497
819.549	795633
819.647	426380
819.745	181076
819.842	94094
819.940	60225
820.038	42500
820.135	31607
820.233	25011
820.330	19728
820.428	16730
820.525	14501
820.623	12319
820.720	10573
820.818	9617
820.915	8966
821.012	7465
821.110	7174
821.207	7393
821.304	5433
821.402	5467
821.499	5974
821.596	6146
821.693	5273
821.791	5991
821.888	4573
821.985	6958
822.082	8217
822.179	5821
822.276	3649
822.373	3665
822.470	2728
822.567	3450
822.664	2908
822.761	4114
822.858	2319
822.955	2947
823.052	2201
823.149	2797
823.246	2989
823.343	3016
823.440	3044
823.536	2018
823.633	2471
823.730	1898
823.827	2274
823.923	2704
824.020	2865
824.117	2310
824.213	1840
824.310	2005
824.407	1443
824.503	2379
824.600	1917
824.696	2224
824.793	2091
824.889	1695
824.986	1377
825.082	1588
825.179	1911
825.275	1441
825.371	1308
825.468	2122
825.564	651
825.660	1892
825.757	2101
825.853	2431
825.949	978
826.045	800
826.142	583
826.238	1373
826.334	2270
826.430	1287
826.526	1333
826.622	1056
826.718	1018
826.814	2086
826.910	1522
827.006	1235
827.102	1027
827.198	1106
827.294	862
827.390	1291
827.486	1166
827.582	1190
827.678	468
827.774	1293
827.869	361
827.965	1833
828.061	830
828.157	1278
828.252	994
828.348	868
828.444	1870
828.539	943
828.635	514
828.731	1823
828.826	549
828.922	1452
829.017	608
829.113	1810
829.208	239
829.304	645
829.399	1929
829.495	781
829.590	1932
829.685	347
829.781	391
829.876	830
829.971	1245
830.066	900
830.162	1189
830.257	1116
830.352	1445
830.447	1861
830.543	718
830.638	932
830.733	1496
830.828	1070
830.923	1388
831.018	1317
831.113	1389
831.208	1206
831.303	839
831.398	914
831.493	783
831.588	1661
831.683	-9
831.778	951
831.873	710
831.967	515
832.062	906
832.157	1306
832.252	2055
832.346	1436
832.441	1975
832.536	1971
832.631	3152
832.725	7030
832.820	2363
832.914	1469
833.009	1426
833.104	434
833.198	2117
833.293	1721
833.387	1312
833.482	1034
833.576	433
833.670	789
833.765	563
833.859	1073
833.954	2263
834.048	1615
834.142	621
834.237	1145
834.331	362
834.425	787
834.519	533
834.613	1413
834.708	768
834.802	1300
834.896	874
834.990	922
835.084	2016
835.178	704
835.272	806
835.366	-80
835.460	608
835.554	176
835.648	820
835.742	-74
835.836	875
835.930	-77
836.024	792
836.117	1497
836.211	1108
836.305	1949
836.399	2595
836.493	2155
836.586	1880
836.680	552
836.774	503
836.867	834
836.961	197
837.055	527
837.148	284
837.242	395
837.335	1084
837.429	1081
837.522	180
837.616	1495
837.709	2112
837.803	4265
837.896	1763
837.989	948
838.083	1770
838.176	2809
838.269	5021
838.363	2838
838.456	428
838.549	1902
838.642	2541
838.735	4768
838.829	5980
838.922	1033
839.015	339
839.108	-17
839.201	854
839.294	853
839.387	857
839.480	172
839.573	923
839.666	3222
839.759	1845
839.852	1286
839.945	-208
840.038	1069
840.131	865
840.223	313
840.316	1187
840.409	-7
840.502	-65
840.594	1168
840.687	109
840.780	905
840.873	462
840.965	751
841.058	1125
841.150	3222
841.243	5029
841.336	2767
841.428	60
841.521	1023
841.613	388
841.706	1774
841.798	435
841.890	544
841.983	98
842.075	833
842.167	749
842.260	1462
842.352	1848
842.444	2045
842.537	3648
842.629	8462
842.721	5024
842.813	945
842.905	84
842.997	1319
843.090	478
843.182	2077
843.274	3570
843.366	9087
843.458	19140
843.550	25629
843.642	8513
843.734	981
843.826	838
843.918	2085
844.009	920
844.101	565
844.193	265
844.285	557
844.377	859
844.469	1421
844.560	802
844.652	1191
844.744	877
844.835	848
844.927	416
845.019	1134
845.110	1775
845.202	1334
845.293	789
845.385	286
845.476	503
845.568	638
845.659	-80
845.751	808
845.842	-57
845.934	-667
846.025	-193
846.116	416
846.208	634
846.299	370
846.390	-480
846.482	471
846.573	1159
846.664	1769
846.755	2310
846.846	3193
846.937	851
847.029	368
847.120	-31
847.211	43
847.302	921
847.393	44
847.484	651
847.575	-30
847.666	-306
847.757	22
847.847	679
847.938	810
848.029	407
848.120	696
848.211	103
848.302	-176
848.392	48
848.483	-316
848.574	579
848.664	108
848.755	645
848.846	955
848.936	640
849.027	255
849.118	560
849.208	17
849.299	1981
849.389	2340
849.480	3808
849.570	8420
849.661	15666
849.751	30552
849.841	29791
849.932	5667
850.022	1151
850.112	1128
850.203	689
850.293	842
850.383	-376
850.474	-18
850.564	419
850.654	597
850.744	-467
850.834	359
850.924	242
851.014	-133
851.104	853
851.194	412
851.284	420
851.374	1171
851.464	1447
851.554	608
851.644	978
851.734	1553
851.824	1443
851.914	260
852.004	841
852.094	-202
852.183	-280
852.273	782
852.363	1080
852.452	820
852.542	159
852.632	-14
852.721	361
852.811	-151
852.901	609
852.990	751
853.080	222
853.169	675
853.259	705
853.348	1159
853.438	1353
853.527	2257
853.617	3075
853.706	5987
853.795	10411
853.885	23307
853.974	51082
854.063	83162
854.152	165816
854.242	155720
854.331	34048
854.420	8439
854.509	4013
854.598	3345
854.687	2793
854.777	2567
854.866	1671
854.955	1933
855.044	371
855.133	119
855.222	1068
855.311	-8
855.400	842
855.488	1047
855.577	126
855.666	965
855.755	878
855.844	859
855.933	721
856.021	1008
856.110	-9
856.199	327
856.288	68
856.376	376
856.465	-563
856.554	938
856.642	288
856.731	539
856.819	498
856.908	-175
856.996	-436
857.085	297
857.173	-633
857.262	88
857.350	433
857.438	658
857.527	1396
857.615	-258
857.703	291
857.792	404
857.880	246
857.968	-199
858.056	390
858.145	193
858.233	-332
858.321	-658
858.409	524
858.497	11
858.585	96
858.673	45
858.761	-836
858.849	-218
858.937	-467
859.025	-530
859.113	322
859.201	-481
859.289	96
859.377	-408
859.465	20
859.552	842
859.640	-949
859.728	1193
859.816	370
859.903	-185
859.991	-612
860.079	96
860.166	35
860.254	-49
860.342	241
860.429	-1060
860.517	512
860.604	662
860.692	-31
860.779	163
860.867	108
860.954	-87
861.042	428
861.129	189
861.216	128
861.304	171
861.391	-239
861.478	-503
861.565	-271
861.653	810
861.740	-252
861.827	-311
861.914	259
862.001	-333
862.089	138
862.176	254
862.263	-933
862.350	416
862.437	-355
862.524	-694
862.611	53
862.698	-48
862.785	-2
862.871	-3
862.958	-335
863.045	-390
863.132	-107
863.219	574
863.306	-218
863.392	348
863.479	-190
863.566	-294
863.652	143
863.739	27
863.826	-71
863.912	402
863.999	391
864.086	368
864.172	-230
864.259	495
864.345	-145
864.432	652
864.518	-109
864.604	-530
864.691	294
864.777	823
864.863	951
864.950	763
865.036	876
865.122	1224
865.209	2038
865.295	1698
865.381	1706
865.467	2017
865.553	3225
865.639	3470
865.726	6177
865.812	11858
865.898	25554
865.984	41990
866.070	61476
866.156	117527
866.242	71831
866.328	14065
866.414	4048
866.499	2916
866.585	2360
866.671	2019
866.757	1351
866.843	1580
866.928	1511
867.014	876
867.100	1801
867.186	1517
867.271	2326
867.357	2072
867.442	2719
867.528	2709
867.614	938
867.699	1218
867.785	262
867.870	1480
867.956	1270
868.041	1970
868.127	1887
868.212	2110
868.297	2051
868.383	1462
868.468	1589
868.553	3200
868.639	4135
868.724	5407
868.809	10672
868.894	4672
868.979	747
869.065	875
869.150	890
869.235	1336
869.320	546
869.405	230
869.490	-394
869.575	972
869.660	717
869.745	251
869.830	260
869.915	555
870.000	1119
870.085	-17
870.169	329
870.254	1038
870.339	477
870.424	386
870.509	411
870.593	891
870.678	820
870.763	456
870.847	64
870.932	116
871.016	272
871.101	544
871.186	63
871.270	1201
871.355	626
871.439	911
871.523	371
871.608	554
871.692	64
871.777	599
871.861	672
871.945	646
872.030	64
872.114	402
872.198	356
872.282	956
872.367	333
872.451	-695
872.535	490
872.619	-78
872.703	-119
872.787	479
872.871	1104
872.955	137
873.039	37
873.123	-502
873.207	1082
873.291	775
873.375	144
873.459	731
873.543	501
873.627	683
873.711	322
873.794	637
873.878	629
873.962	-9
874.045	-274
874.129	449
874.137	459
874.213	555
874.245	391
874.296	126
874.352	414
874.380	557
874.460	534
874.464	532
874.547	339
874.568	312
874.631	256
874.676	169
874.714	82
874.784	398
874.798	465
874.881	949
874.892	866
874.965	245
874.999	245
875.048	297
875.107	405
875.131	431
875.215	673
875.215	672
875.298	-185
875.323	-133
875.381	89
875.430	684
875.465	1105
875.538	468
875.548	361
875.631	35
875.646	-11
875.714	-93
875.753	224
875.798	553
875.861	203
875.881	75
875.964	522
875.968	492
876.047	71
876.076	91
876.130	105
876.183	-19
876.213	-76
876.291	480
876.296	512
876.379	291
876.398	380
876.462	626
876.506	29
876.545	-417
876.613	526
876.628	718
876.711	277
876.721	273
876.794	252
876.828	289
876.877	263
876.935	399
876.960	496
877.043	-327
877.043	-322
877.125	962
877.150	974
877.208	936
877.258	1090
877.291	1186
877.365	628
877.374	575
877.456	993
877.472	1005
877.539	954
877.579	1045
877.622	1135
877.687	906
877.704	866
877.787	534
877.794	563
877.869	808
877.901	779
877.952	664
878.008	18
878.034	-250
878.115	-5
878.117	3
878.199	447
878.222	373
878.282	22
878.329	-57
878.364	6
878.437	455
878.447	515
878.529	69
878.544	60
878.611	-206
878.651	295
878.694	984
878.758	286
878.776	30
878.858	569
878.865	556
878.941	487
878.972	368
879.023	166
879.078	19
879.105	6
879.185	239
879.187	243
879.269	814
879.292	773
879.351	565
879.399	330
879.433	249
879.506	289
879.516	277
879.598	93
879.613	133
879.680	348
879.720	264
879.762	194
879.827	240
879.844	246
879.926	352
879.933	365
880.007	477
880.040	712
880.089	1137
880.147	930
880.171	822
880.253	2401
880.254	2411
880.335	3879
880.360	4242
880.417	5284
880.467	6212
880.499	7080
880.574	13509
880.580	13880
880.662	9400
880.680	7793
880.744	2246
880.787	1180
880.825	471
880.893	240
880.907	328
880.989	643
881.000	680
881.070	393
881.106	318
881.152	255
881.213	-55
881.233	-90
881.315	394
881.319	378
881.396	290
881.426	419
881.478	154
881.532	7
881.559	176
881.639	223
881.641	223
881.722	-122
881.745	52
881.803	512
881.852	634
881.885	643
881.958	809
881.966	814
882.047	636
882.064	618
882.129	721
882.171	710
882.210	668
882.277	885
882.291	1010
882.372	2082
882.383	1968
882.454	706
882.489	547
882.535	204
882.596	-12
882.616	75
882.697	118
882.702	126
882.778	131
882.808	195
882.859	454
882.914	434
882.940	241
883.020	-449
883.021	-449
883.102	267
883.127	141
883.183	206
883.233	429
883.264	347
883.339	122
883.345	117
883.426	2
883.445	39
883.507	343
883.551	272
883.587	137
883.657	418
883.668	506
883.749	682
883.763	735
883.830	673
883.869	530
883.910	20
883.975	-425
883.991	-210
884.072	331
884.081	440
884.152	715
884.187	758
884.233	586
884.292	339
884.314	436
884.394	539
884.398	553
884.475	158
884.504	17
884.555	187
884.610	338
884.636	378
884.716	407
884.716	411
884.797	445
884.821	433
884.877	669
884.927	698
884.958	532
885.033	264
885.038	275
885.118	628
885.139	605
885.199	248
885.244	94
885.279	44
885.350	3
885.359	9
885.439	3
885.456	6
885.520	530
885.561	777
885.600	560
885.667	178
885.680	209
885.760	624
885.773	669
885.840	878
885.878	955
885.920	755
885.984	502
886.000	516
886.080	702
886.089	666
886.160	310
886.195	298
886.240	361
886.300	519
886.320	629
886.400	897
886.406	918
886.480	767
886.511	649
886.560	667
886.616	664
886.640	533
886.720	233
886.722	220
886.800	290
886.827	388
886.879	293
886.932	9
886.959	208
887.038	1040
887.039	1045
887.119	971
887.143	1004
887.198	899
887.248	669
887.278	451
887.354	-218
887.358	-204
887.437	267
887.459	386
887.517	561
887.564	601
887.596	602
887.669	718
887.676	694
887.755	355
887.774	243
887.835	299
887.880	356
887.914	300
887.985	178
887.994	240
888.073	884
888.090	993
888.153	610
888.195	347
888.232	706
888.300	1367
888.311	1270
888.391	550
888.405	416
888.470	535
888.510	586
888.549	519
888.615	513
888.628	547
888.708	624
888.720	640
888.787	828
888.825	888
888.866	879
888.930	937
888.945	852
889.024	362
889.035	293
889.103	109
889.140	-4
889.182	212
889.245	549
889.261	553
889.340	568
889.349	568
889.419	673
889.454	722
889.498	878
889.559	1108
889.577	993
889.656	470
889.664	419
889.735	1170
889.768	1523
889.814	1301
889.873	998
889.978	242
890.083	82
890.187	949
890.292	995
890.397	207
890.501	1446
890.606	634
890.710	325
890.815	935
890.919	159
891.024	849
891.128	950
891.233	937
891.337	1166
891.442	731
891.546	818
891.650	640
891.755	37
891.859	1044
891.963	45
892.068	450
892.172	860
892.276	764
892.380	-52
892.484	1020
892.589	821
892.693	642
892.797	309
892.901	558
893.005	508
893.109	242
893.213	1177
893.317	843
893.421	377
893.525	311
893.629	161
893.733	362
893.837	547
893.941	-23
894.045	676
894.148	659
894.252	407
894.356	680
894.460	222
894.564	1166
894.667	584
894.771	821
894.875	93
894.978	387
895.082	127
895.186	1076
895.289	1184
895.393	1190
895.496	631
895.600	1164
895.703	651
895.807	605
895.910	392
896.014	376
896.117	474
896.221	475
896.324	652
896.427	489
896.531	664
896.634	349
896.737	177
896.840	64
896.944	148
897.047	482
897.150	731
897.253	542
897.356	714
897.460	480
897.563	105
897.666	380
897.769	647
897.872	133
897.975	749
898.078	-223
898.181	896
898.284	588
898.387	165
898.490	150
898.593	878
898.695	316
898.798	225
898.901	620
899.004	0
899.107	775
899.209	1417
899.312	678
899.415	739
899.518	155
899.620	614
899.723	760
899.826	853
899.928	1337
900.031	581
900.133	307
900.236	663
900.338	741
900.441	843
900.543	818
900.646	616
900.748	455
900.851	650
900.953	926
901.055	313
901.158	431
901.260	388
901.362	311
901.465	563
901.567	361
901.669	622
901.771	487
901.873	104
901.976	396
902.078	578
902.180	1024
902.282	253
902.384	419
902.486	622
902.588	139
902.690	1460
902.792	858
902.894	647
902.996	803
903.098	26
903.200	-19
903.302	334
903.404	502
903.505	-120
903.607	163
903.709	288
903.811	598
903.913	313
904.014	1219
904.116	131
904.218	421
904.319	505
904.421	1337
904.523	475
904.624	658
904.726	796
904.827	61
904.929	937
905.030	565
905.132	124
905.233	1326
905.335	14
905.436	579
905.537	263
905.639	781
905.740	347
905.841	394
905.943	1166
906.044	-73
906.145	528
906.247	666
906.348	203
906.449	1207
906.550	170
906.651	29
906.752	412
906.854	18
906.955	425
907.056	823
907.157	177
907.258	980
907.359	-403
907.460	804
907.561	513
907.662	-92
907.762	19
907.863	716
907.964	464
908.065	630
908.166	785
908.267	253
908.367	314
908.468	639
908.569	514
908.670	742
908.770	526
908.871	1043
908.971	989
909.072	851
909.173	586
909.273	572
909.374	109
909.474	916
909.575	262
909.675	20
909.776	529
909.876	1046
909.977	-1
910.077	458
910.177	398
910.278	290
910.378	333
910.478	-10
910.579	-290
910.679	871
910.779	417
910.879	431
910.980	-65
911.080	272
911.180	699
911.280	486
911.380	-319
911.480	716
911.580	206
911.680	579
911.780	-62
911.880	350
911.980	293
912.080	915
912.180	139
912.280	-70
912.380	1020
912.480	1044
912.580	-171
912.679	-163
912.779	672
912.879	539
912.979	245
913.078	698
913.178	378
913.278	212
913.377	-556
913.477	540
913.577	283
913.676	564
913.776	824
913.875	349
913.975	654
914.074	5
914.174	734
914.273	326
914.373	631
914.472	532
914.572	-225
914.671	800
914.770	517
914.870	416
914.969	-110
915.068	81
915.167	-76
915.267	745
915.366	599
915.465	810
915.564	128
915.663	1177
915.763	21
915.862	863
915.961	312
916.060	327
916.159	224
916.258	2
916.357	771
916.456	841
916.555	234
916.654	433
916.752	135
916.851	346
916.950	419
917.049	106
917.148	-454
917.247	35
917.345	-30
917.444	-614
917.543	564
917.642	435
917.740	-3
917.839	-23
917.937	525
918.036	316
918.135	613
918.233	481
918.332	-307
918.430	45
918.529	1238
918.627	568
918.726	396
918.824	959
918.923	56
919.021	-455
919.119	-846
919.218	96
919.316	86
919.414	781
919.512	-350
919.611	-121
919.709	-67
919.807	474
919.905	273
920.003	364
920.102	370
920.200	664
920.298	226
920.396	329
920.494	1215
920.592	205
920.690	-245
920.788	580
920.886	181
920.984	398
921.082	768
921.180	1118
921.277	271
921.375	571
921.473	765
921.571	44
921.669	790
921.766	82
921.864	1520
921.962	1033
922.060	576
922.157	728
922.255	576
922.352	622
922.450	354
922.548	960
922.645	1061
922.743	1644
922.840	864
922.938	1642
923.035	1858
923.133	1462
923.230	2074
923.327	1622
923.425	1557
923.522	3170
923.619	2227
923.717	1938
923.814	1225
923.911	1494
924.008	1882
924.106	2138
924.203	1298
924.300	2057
924.397	1431
924.494	1685
924.591	1598
924.688	2045
924.786	1673
924.883	2045
924.979	1358
925.077	2180
925.173	2496
925.270	1933
925.367	1712
925.464	1663
925.561	1515
925.658	2689
925.755	1323
925.852	1648
925.948	2113
926.045	1806
926.142	1364
926.239	1812
926.335	1214
926.432	1242
926.529	1483
926.625	2196
926.722	2029
926.818	673
926.915	1848
927.011	1558
927.108	1757
927.204	1406
927.301	1263
927.397	1346
927.494	878
927.590	1606
927.687	570
927.783	1558
927.879	1320
927.976	1370
928.072	1130
928.168	922
928.264	1906
928.361	1558
928.457	1652
928.553	1707
928.649	1183
928.745	2091
928.841	1189
928.937	1137
929.033	1144
929.129	1698
929.225	1762
929.321	1383
929.417	1683
929.513	1886
929.609	1926
929.705	1340
929.801	1590
929.897	2019
929.993	1586
930.089	711
930.184	1318
930.280	1529
930.376	1890
930.471	1447
930.567	832
930.663	1534
930.758	1827
930.854	908
930.950	1208
931.045	1393
931.141	1385
931.236	1062
931.332	1391
931.427	-274
931.523	1433
931.618	1345
931.714	1075
931.809	1090
931.905	988
932.000	1950
932.095	400
932.191	680
932.286	1613
932.381	1100
932.476	269
932.572	838
932.667	509
932.762	995
932.857	796
932.952	1137
933.047	1272
933.142	689
933.237	941
933.332	627
933.427	1056
933.522	1678
933.617	1281
933.712	1399
933.807	1457
933.902	640
933.997	1137
934.092	850
934.187	1010
934.282	1955
934.376	723
934.471	1291
934.566	1505
934.661	1400
934.755	1107
934.850	1867
934.945	814
935.039	643
935.134	951
935.228	1218
935.323	1110
935.417	1720
935.512	943
935.606	814
935.701	10
935.795	1408
935.890	1045
935.984	700
936.079	898
936.173	920
936.267	362
936.362	921
936.456	713
936.550	1070
936.644	598
936.738	1204
936.833	608
936.927	851
937.021	464
937.115	871
937.209	76
937.303	1021
937.397	455
937.491	716
937.585	697
937.679	1371
937.773	618
937.867	456
937.961	339
938.055	891
938.149	804
938.243	438
938.337	492
938.430	442
938.524	529
938.618	983
938.712	719
938.805	766
938.899	1054
938.993	1476
939.086	158
939.180	422
939.274	753
939.367	1412
939.461	1228
939.554	629
939.648	1062
939.741	373
939.835	336
939.928	882
940.022	346
940.115	716
940.208	680
940.302	658
940.395	555
940.488	699
940.582	1379
940.675	680
940.768	799
940.861	464
940.954	1259
941.048	622
941.141	152
941.234	105
941.327	403
941.420	771
941.513	1032
941.606	371
941.699	292
941.792	148
941.885	715
941.978	401
942.071	657
942.164	317
942.257	-42
942.349	323
942.442	825
942.535	246
942.628	497
942.721	796
942.813	700
942.906	460
942.999	-155
943.091	-238
943.184	194
943.277	673
943.369	561
943.462	488
943.554	185
943.647	1045
943.739	-37
943.832	1469
943.924	-70
944.017	850
944.109	-995
944.201	839
944.294	541
944.386	281
944.478	-462
944.571	561
944.663	-108
944.755	-98
944.847	-212
944.940	-368
945.032	-369
945.124	153
945.216	766
945.308	665
945.400	23
945.492	233
945.584	706
945.676	-11
945.768	35
945.860	709
945.952	-65
946.044	888
946.136	336
946.228	132
946.320	-283
946.412	117
946.503	137
946.595	103
946.687	-375
946.779	-571
946.870	-425
946.962	1139
947.054	-1
947.145	368
947.237	940
947.329	471
947.420	-172
947.512	314
947.603	97
947.695	51
947.786	-342
947.878	-190
947.969	-376
948.061	-386
948.152	-111
948.243	-224
948.335	-151
948.426	-44
948.517	-579
948.609	201
948.700	662
948.791	-177
948.882	-560
948.973	205
949.065	-1014
949.156	698
949.247	-279
949.338	271
949.429	-616
949.520	61
949.611	-962
949.702	614
949.793	-480
949.884	168
949.975	31
950.066	-49
950.157	-173
950.247	-319
950.338	-243
950.429	-452
950.520	-1001
950.611	-363
950.701	-164
950.792	-271
950.883	263
950.973	-286
951.064	-921
951.155	-131
951.245	-194
951.336	-456
951.427	-1072
951.517	397
951.608	-625
951.698	-649
951.788	-875
951.879	393
951.969	253
952.060	-510
952.150	-619
952.240	-27
952.331	-700
952.421	354
952.511	-230
952.602	-903
952.692	-268
952.782	-227
952.872	-214
952.962	-375
953.052	584
953.143	-441
953.233	-416
953.323	-504
953.413	-217
953.503	570
953.593	319
953.683	-792
953.773	-340
953.863	-595
953.953	-484
954.042	-602
954.132	-688
954.222	-111
954.312	-200
954.402	-466
954.492	-427
954.581	-238
954.671	-844
954.761	-222
954.850	-189
954.940	-226
955.030	-785
955.119	-592
955.209	-187
955.298	-253
955.388	-398
955.477	-145
955.567	-713
955.656	-348
955.746	-310
955.835	41
955.925	-828
956.014	-365
956.103	-827
956.193	-154
956.282	132
956.371	-381
956.461	-800
956.550	-733
956.639	-876
956.728	-446
956.817	-397
956.906	-645
956.995	-301
957.085	-946
957.174	229
957.263	-313
957.352	-480
957.441	-933
957.530	-432
957.619	-267
957.708	-997
957.796	-9
957.885	-1048
957.974	-1036
958.063	-628
958.152	-1475
958.241	-767
958.329	-809
958.418	-762
958.507	-1092
958.596	-261
958.684	-601
958.773	-106
958.861	-712
958.950	-719
959.039	-658
959.127	-616
959.216	-891
959.304	-350
959.393	-469
959.481	-157
959.570	-924
959.658	-1212
959.746	-454
959.835	-663
959.923	164
960.011	695
960.100	-66
960.188	-293
960.276	-150
960.365	-957
960.453	-878
960.541	-396
960.629	-620
960.717	-612
960.805	-1580
960.893	-998
960.981	-917
961.069	-668
961.158	-537
961.245	-606
961.333	-1130
961.421	-834
961.509	-859
961.597	-749
961.685	-840
961.773	-529
961.861	-685
961.949	-751
962.036	-396
962.124	-579
962.212	-1188
962.299	-1339
962.387	-1126
962.475	-652
962.562	-314
962.650	-664
962.738	-147
962.825	-1062
962.913	-468
963.000	-968
963.088	-852
963.175	-867
963.263	161
963.350	-805
963.438	-584
963.525	-661
963.612	-43
963.700	510
963.787	3965
963.874	5299
963.962	-412
964.049	-784
964.136	-548
964.223	-599
964.310	-782
964.398	-1212
964.485	-1624
964.572	-1250
964.659	-472
964.746	436
964.833	-111
964.920	-1507
965.007	-839
965.094	-803
965.181	-1534
965.268	-33
965.355	-924
965.441	-1310
965.528	-793
965.615	-1282
965.702	-757
965.789	-1052
965.875	-457
965.962	-535
966.049	-1194
966.136	-793
966.222	-1649
966.309	-446
966.395	-344
966.482	-902
966.569	-561
966.655	-1546
966.742	-742
966.828	-679
966.915	-1144
967.001	-794
967.087	-1536
967.174	-1042
967.260	238
967.347	-1198
967.433	319
967.519	2610
967.605	2586
967.692	165
967.778	-436
967.864	-446
967.950	-1181
968.036	-1872
968.123	-679
968.209	-1678
968.295	-432
968.381	-93
968.467	-158
968.553	-2098
968.639	-1135
968.725	-1002
968.811	217
968.897	-334
968.983	-978
969.069	-810
969.154	-605
969.240	-810
969.326	-968
969.412	-1016
969.497	-699
969.583	-1068
969.669	-181
969.755	-1056
969.840	-891
969.926	-282
970.012	-1268
970.097	-471
970.183	-301
970.268	-894
970.354	-965
970.439	-214
970.525	1261
970.610	450
970.696	544
970.781	-51
970.866	-1207
970.952	-83
971.037	-1006
971.122	-448
971.208	-1067
971.293	-1005
971.378	-1052
971.463	-1922
971.549	-416
971.634	-1029
971.719	-482
971.804	-137
971.889	-341
971.974	-818
972.059	-648
972.144	-688
972.229	-1779
972.314	-1149
972.399	-1238
972.484	-583
972.569	-1045
972.654	-748
972.739	-692
972.824	343
972.908	628
972.993	-759
973.078	-1053
973.163	-731
973.247	-257
973.332	-2089
973.417	228
973.501	-1437
973.586	-1219
973.671	-1097
973.755	-953
973.840	-1004
973.924	-1046
974.009	-839
974.093	-712
974.178	259
974.262	77
974.346	346
974.431	-453
974.515	-1940
974.600	-374
974.684	-380
974.768	-1103
974.852	-27
974.937	-905
975.021	57
975.105	-1335
975.189	-800
975.273	-886
975.358	-524
975.442	-405
975.526	-1455
975.610	-1117
975.694	-1299
975.778	-1096
975.862	-964
975.946	-1725
976.030	-399
976.114	-387
976.198	-870
976.281	-2225
976.365	-907
976.449	-1333
976.533	-755
976.617	-1548
976.700	-429
976.784	-778
976.868	-1234
976.951	-91
977.035	-485
977.119	-1320
977.202	-871
977.286	-1032
977.369	-1253
977.453	-828
977.536	-434
977.620	-576
977.703	-363
977.787	-1295
977.870	-535
977.953	438
978.037	-903
978.120	-245
978.203	-472
978.287	-466
978.370	108
978.453	-706
978.536	-1032
978.620	-940
978.703	-808
978.786	-533
978.869	-1625
978.952	-1287
979.035	6
979.118	-1258
979.201	-1115
979.284	-678
979.367	-1352
979.450	-964
979.533	-1033
979.616	-834
979.699	-1507
979.782	-918
979.865	-508
979.948	-1131
980.030	-1732
980.113	-542
980.196	-1609
980.279	-1077
980.361	-1408
980.444	-975
980.526	-1416
980.609	-924
980.692	-1065
980.774	-1006
980.857	-403
980.939	184
981.022	-470
981.104	-955
981.187	-1306
981.269	-638
981.352	-1367
981.434	-1325
981.516	-2277
981.599	-214
981.681	-978
981.763	-805
981.846	-966
981.928	-1269
982.010	-606
982.092	-1052
982.174	-816
982.256	-651
982.339	-1165
982.421	-191
982.503	-1844
982.585	-1325
982.667	-1045
982.749	-1290
982.831	-1422
982.913	-2091
982.995	-308
983.077	-1431
983.158	-322
983.240	-982
983.322	-157
983.404	-1074
983.486	-973
983.568	-991
983.649	-1094
983.731	-586
983.813	-1527
983.894	-867
983.976	-1023
984.058	-576
984.139	-1357
984.221	-1336
984.302	-739
984.384	-741
984.465	-1938
984.547	-271
984.628	-1917
984.710	-1041
984.791	-838
984.872	-1138
984.954	-1199
985.035	-721
985.116	-1720
985.198	-1545
985.279	-471
985.360	-1027
985.441	-1716
985.522	-604
985.604	-1072
985.685	-2154
985.766	-901
985.847	-596
985.928	-1416
986.009	-716
986.090	-1459
986.171	-435
986.252	-1084
986.333	-831
986.414	-1362
986.495	-1086
986.576	-829
986.656	-774
986.737	-770
986.818	-402
986.899	-860
986.980	-1751
987.060	-922
987.141	-954
987.222	-1453
987.302	-558
987.383	-1071
987.464	-481
987.544	-455
987.625	-1431
987.705	-1062
987.786	-886
987.866	-831
987.947	-1092
988.027	-780
988.108	-1309
988.188	-837
988.268	-993
988.349	-630
988.429	-1211
988.509	-714
988.589	-1142
988.670	-1502
988.750	-312
988.830	-270
988.910	-1213
988.990	-528
989.070	-1137
989.151	-1507
989.231	-1695
989.311	-1271
989.391	-991
989.471	-1289
989.551	-1068
989.631	-862
989.711	-865
989.791	-1558
989.870	-1397
989.950	-1031
990.030	-1474
990.110	-1187
990.190	-1403
990.269	-323
990.349	-1127
990.429	-1039
990.509	-485
990.588	-2072
990.668	-1142
990.747	-980
990.827	-1642
990.907	-1066
990.986	-2120
991.066	-848
991.145	-1631
991.225	-1326
991.304	-1414
991.383	-1775
991.463	-1517
991.542	-1420
991.622	-1028
991.701	-2008
991.780	-1583
991.859	-1540
991.939	-1497
992.018	-1817
992.097	-1673
992.176	-2152
992.256	-1463
992.335	-1661
992.414	-1570
992.493	-1267
992.572	-1559
992.651	-1348
992.730	-875
992.809	-1734
992.888	-1524
992.967	-1450
993.046	-623
993.125	-2110
993.203	-1196
993.282	-2178
993.361	-1082
993.440	-1603
993.519	-2018
993.597	-1930
993.676	-1498
993.755	-1510
993.834	-1566
993.912	-2031
993.991	-1477
994.069	-1726
994.148	-1837
994.226	-1350
994.305	-1397
994.384	-1874
994.462	-1745
994.540	-1683
994.619	-1799
994.697	-631
994.776	-2096
994.854	-1462
994.932	-1469
995.011	-1787
995.089	-2001
995.167	-667
995.245	-1469
995.324	-2470
995.402	-1198
995.480	-1394
995.558	-1053
995.636	-2243
995.714	-1636
995.792	-1202
995.870	-1781
995.948	-2187
996.026	-1916
996.104	-2461
996.182	-2192
996.260	-1090
996.338	-1136
996.416	-2550
996.494	-1976
996.572	-1765
996.649	-2503
996.727	-2403
996.805	-2666
996.883	-1944
996.960	-1987
997.038	-1711
997.116	-1444
997.193	-2289
997.271	-1762
997.348	-2633
997.426	-2275
997.504	-2811
997.581	-1281
997.658	-1579
997.736	-1367
997.813	-2348
997.891	-1792
997.968	-2018
998.046	-1814
998.123	-2502
998.200	-1699
998.277	-3067
998.355	-1280
998.432	-2589
998.509	-2294
998.586	-1399
998.663	-2259
998.741	-2303
998.818	-2049
998.895	-1738
998.972	-1482
999.049	-1993
999.126	-2653
999.203	-1665
999.280	-1333
999.357	-2580
999.434	-2491
999.511	-1601
999.587	-2000
999.664	-2685
999.741	-1563
999.818	-2338
999.895	-2110
999.971	-2821
1000.048	-2629
1000.125	-1394
1000.202	-2474
1000.278	-1827
1000.355	-2181
1000.431	-2285
1000.508	-2829
1000.584	-2675
1000.661	-1520
1000.738	-2158
1000.814	-2918
1000.890	-2181
1000.967	-2237
1001.043	-1379
1001.120	-2485
1001.196	-1476
1001.272	-2251
1001.349	-1878
1001.425	-1607
1001.501	-2256
1001.577	-2650
1001.654	-1362
1001.730	-2750
1001.806	-2516
1001.882	-2872
1001.958	-1260
1002.034	-2172
1002.110	-2447
1002.186	-2057
1002.262	-2274
1002.338	-2880
1002.414	-2231
1002.490	-1920
1002.566	-2163
1002.642	-1900
1002.718	-2389
1002.794	-1959
1002.870	-2181
1002.945	-2447
1003.021	-2053
1003.097	-2428
1003.173	-2061
1003.248	-3195
1003.324	-2545
1003.400	-1767
1003.475	-2500
1003.551	-1785
1003.626	-2050
1003.702	-1953
1003.777	-2157
1003.853	-2608
1003.928	-1982
1004.004	-1748
1004.079	-2144
1004.155	-2355
1004.230	-2891
1004.305	-1926
1004.381	-2435
1004.456	-1547
1004.531	-2089
1004.607	-1763
1004.682	-2538
1004.757	-1636
1004.832	-2104
1004.907	-2767
1004.982	-2589
1005.057	-1783
1005.133	-2571
1005.208	-2163
1005.283	-2077
1005.358	-2136
1005.433	-2892
1005.508	-3105
1005.583	-2451
1005.657	-2176
1005.732	-2254
1005.807	-2302
1005.882	-1153
1005.957	-2315
1006.032	-1714
1006.106	-2229
1006.181	-1863
1006.256	-2537
1006.331	-3091
1006.405	-2762
1006.480	-2651
1006.554	-2552
1006.629	-2511
1006.704	-1760
1006.778	-2784
1006.853	-2051
1006.927	-2650
1007.002	-2558
1007.076	-2215
1007.150	-1897
1007.225	-2383
1007.299	-2475
1007.373	-2501
1007.448	-2140
1007.522	-2075
1007.596	-2378
1007.671	-2014
1007.745	-2065
1007.819	-3394
1007.893	-2970
1007.967	-1884
1008.041	-2604
1008.115	-2150
1008.190	-2346
1008.264	-2535
1008.338	-2958
1008.412	-2408
1008.486	-1789
1008.560	-2590
1008.633	-2489
1008.707	-2240
1008.781	-2666
1008.855	-3191
1008.929	-2481
1009.003	-1982
1009.076	-2850
1009.150	-2166
1009.224	-2030
1009.298	-2116
1009.371	-2923
1009.445	-2524
1009.519	-2173
1009.592	-3269
1009.666	-2971
1009.739	-3010
1009.813	-3069
1009.886	-1903
1009.960	-2249
1010.033	-3232
1010.107	-1531
1010.180	-2720
1010.253	-1382
1010.327	-2459
1010.400	-2491
1010.473	-2446
1010.547	-2294
1010.620	-2196
1010.693	-2368
1010.766	-3031
1010.840	-1407
1010.913	-2022
1010.986	-2450
1011.059	-2686
1011.132	-2868
1011.205	-1812
1011.278	-1982
1011.351	-2937
1011.424	-1509
1011.497	-2176
1011.570	-2432
1011.643	-2815
1011.716	-2505
1011.789	-2599
1011.862	-3379
1011.934	-2352
1012.007	-2898
1012.080	-2148
1012.153	-2938
1012.225	-2363
1012.298	-2953
1012.371	-2901
1012.443	-2172
1012.516	-2276
1012.588	-1972
1012.661	-2411
1012.733	-2675
1012.806	-2094
1012.879	-2999
1012.951	-1973
1013.023	-2714
1013.096	-2058
1013.168	-3052
1013.241	-2030
1013.313	-2062
1013.385	-2531
1013.458	-2221
1013.530	-2327
1013.602	-3246
1013.674	-2335
1013.746	-3105
1013.819	-2931
1013.891	-1724
1013.963	-2981
1014.035	-2110
1014.107	-2523
1014.179	-1694
1014.251	-3227
1014.323	-2310
1014.395	-2618
1014.467	-2523
1014.539	-2318
1014.611	-3005
1014.683	-2415
1014.754	-1468
1014.826	-3070
1014.898	-2369
1014.970	-3699
1015.042	-2176
1015.113	-2265
1015.185	-2392
1015.257	-2722
1015.328	-2541
1015.400	-2419
1015.471	-2892
1015.543	-2668
1015.615	-2094
1015.686	-2893
1015.757	-3298
1015.829	-2369
1015.901	-2556
1015.972	-2434
1016.043	-2549
1016.115	-2172
1016.186	-2402
1016.257	-2680
1016.328	-2291
1016.400	-2335
1016.471	-3221
1016.542	-2281
1016.613	-2273
1016.685	-2528
1016.756	-1994
1016.827	-2290
1016.898	-3155
1016.969	-2073
1017.040	-2515
1017.111	-2273
1017.182	-2644
1017.253	-1667
1017.324	-2907
1017.395	-3039
1017.466	-2578
1017.537	-2452
1017.608	-2821
1017.678	-2390
1017.749	-2245
1017.820	-2147
1017.891	-2794
1017.961	-2815
1018.032	-2688
1018.103	-2692
1018.173	-2075
1018.244	-2915
1018.315	-2848
1018.385	-2617
1018.456	-3192
1018.526	-2633
1018.597	-2024
1018.667	-2706
1018.738	-3188
1018.808	-2850
1018.878	-2993
1018.949	-2383
1019.019	-2294
1019.089	-2615
1019.160	-2711
1019.230	-3948
1019.300	-1610
1019.371	-3412
1019.441	-2331
1019.511	-3230
1019.581	-2602
1019.651	-2144
1019.721	-2493
1019.791	-2887
1019.861	-2343
1019.931	-3150
1020.001	-3024
1020.071	-2689
1020.141	-2230
1020.211	-2526
1020.281	-2942
1020.351	-3198
1020.421	-2222
1020.491	-2999
1020.560	-3021
1020.630	-2338
1020.700	-2171
1020.770	-2836
1020.839	-2810
1020.909	-2903
1020.979	-2950
1021.048	-2632
1021.118	-2973
1021.187	-2365
1021.257	-2806
1021.326	-2869
1021.396	-3924
1021.465	-2541
1021.535	-2896
1021.604	-3068
1021.674	-2965
1021.743	-2906
1021.812	-2812
1021.882	-2150
1021.951	-3041
1022.020	-3553
1022.089	-3408
1022.159	-2970
1022.228	-2649
1022.297	-2821
1022.366	-3031
1022.435	-3426
1022.504	-2363
1022.573	-3278
1022.642	-2371
1022.711	-1803
1022.781	-2333
1022.849	-3224
1022.918	-2658
1022.987	-2507
1023.056	-2748
1023.125	-2468
1023.194	-2543
1023.263	-2690
1023.331	-2587
1023.400	-2601
1023.469	-3294
1023.538	-2733
1023.606	-2629
1023.675	-2501
1023.744	-3075
1023.812	-3423
1023.881	-2452
1023.949	-2611
1024.018	-3549
1024.086	-3261
1024.155	-2620
1024.223	-3106
1024.292	-3506
1024.360	-3007
1024.429	-2966
1024.497	-3396
1024.565	-2975
1024.634	-2870
1024.702	-3025
1024.770	-3258
1024.838	-3556
1024.907	-1962
1024.975	-2251
1025.043	-2102
1025.111	-3713
1025.179	-2167
1025.247	-2307
1025.315	-3240
1025.383	-2864
1025.451	-2866
1025.519	-3165
1025.587	-2341
1025.655	-2686
1025.723	-3743
1025.791	-2796
1025.859	-2725
1025.927	-2531
1025.995	-3054
1026.062	-2677
1026.130	-2880
1026.198	-2118
1026.266	-3083
1026.333	-2545
1026.401	-2591
1026.469	-3042
1026.536	-2758
1026.604	-2918
1026.671	-3042
1026.739	-2586
1026.806	-2589
1026.874	-2930
1026.941	-3243
1027.009	-3094
1027.076	-3329
1027.144	-2465
1027.211	-2826
1027.278	-3012
1027.345	-3815
1027.413	-2891
1027.480	-3552
1027.547	-2799
1027.614	-3415
1027.682	-2473
1027.749	-2774
1027.816	-2756
1027.883	-3155
1027.950	-3124
1028.017	-3801
1028.084	-2028
1028.151	-3574
1028.218	-2391
1028.285	-3125
1028.352	-2343
1028.419	-3007
1028.486	-3590
1028.553	-3445
1028.619	-2979
1028.686	-3538
1028.753	-2968
1028.820	-3362
1028.886	-3354
1028.953	-2996
1029.020	-2905
1029.086	-2698
1029.153	-2566
1029.220	-3823
1029.286	-3474
1029.353	-3136
1029.419	-2089
1029.486	-2897
1029.552	-3444
1029.619	-3902
1029.685	-3641
1029.751	-3419
1029.818	-1734
1029.884	-2870
1029.951	-2806
1030.017	-3048
1030.083	-3373
1030.149	-3174
1030.216	-2990
1030.282	-2761
1030.348	-2929
1030.414	-2628
1030.480	-2022
1030.546	-2862
1030.612	-2841
1030.678	-3682
1030.744	-3335
1030.810	-3364
1030.876	-2821
1030.942	-3217
1031.008	-2901
1031.074	-3209
1031.140	-3339
1031.206	-2887
1031.272	-3221
1031.337	-2729
1031.403	-2356
1031.469	-3174
1031.534	-2988
1031.600	-2482
1031.666	-2565
1031.731	-3176
1031.797	-3056
1031.863	-3750
1031.928	-2884
1031.994	-3023
1032.059	-3116
1032.125	-2736
1032.190	-2882
1032.256	-3183
1032.321	-3102
1032.386	-3482
1032.452	-2710
1032.517	-3270
1032.582	-2745
1032.647	-3576
1032.713	-2733
1032.778	-2528
1032.843	-3554
1032.908	-2971
1032.974	-3314
1033.039	-3026
1033.104	-2044
1033.169	-3096
1033.234	-3239
1033.299	-2593
1033.364	-2833
1033.429	-2823
1033.494	-3223
1033.559	-3340
1033.624	-2586
1033.688	-2851
1033.753	-3113
1033.818	-2310
1033.883	-2754
1033.948	-2844
1034.013	-1864
1034.077	-2754
1034.142	-2458
1034.207	-2265
1034.271	-2141
1034.336	-1820
1034.400	-1539
1034.465	-1844
1034.530	-1870
1034.594	-2726
1034.658	-2464
1034.723	-2881
1034.787	-2744
1034.852	-3176
1034.916	-2533
1034.981	-2373
1035.045	-2848
1035.109	-2338
1035.173	-2300
1035.238	-3140
1035.302	-3118
1035.366	-2565
1035.430	-2757
1035.495	-3158
1035.559	-2421
1035.623	-2867
1035.687	-3102
1035.751	-2868
1035.815	-2613
1035.879	-3115
1035.943	-3017
1036.007	-3231
1036.071	-3695
1036.135	-2665
1036.198	-2985
1036.262	-3350
1036.326	-3265
1036.390	-3379
1036.454	-2665
1036.517	-2097
1036.581	-2330
1036.645	-2796
1036.709	-2097
1036.772	-2183
1036.836	-2560
1036.900	-2578
1036.963	-2659
1037.026	-2762
1037.090	-2987
1037.154	-3537
1037.217	-3071
1037.280	-2651
1037.344	-2478
1037.407	-3008
1037.471	-2659
1037.534	-3074
1037.597	-2647
1037.661	-2067
1037.724	-2817
1037.787	-2560
1037.850	-2642
1037.913	-2974
1037.977	-2388
1038.040	-3081
1038.103	-3155
1038.166	-2565
1038.229	-2475
1038.292	-2529
1038.355	-2583
1038.418	-2996
1038.481	-2578
1038.544	-2578
1038.607	-2578
1038.670	-2772
1038.732	-2852
1038.795	-2997
1038.858	-2857
1038.921	-2760
1038.984	-2802
1039.046	-2750
1039.109	-3516
1039.172	-2831
1039.234	-2502
1039.297	-2829
1039.360	-2669
1039.422	-2203
1039.485	-2286
1039.547	-2965
1039.610	-3235
1039.672	-2454
1039.734	-2723
1039.797	-2801
1039.859	-2056
1039.922	-2723
1039.984	-2673
1040.046	-2796
1040.109	-2511
1040.171	-3397
1040.233	-2340
1040.295	-2862
1040.358	-2246
1040.420	-3057
1040.482	-2927
1040.544	-2811
1040.606	-3241
1040.668	-2865
1040.730	-2967
1040.792	-2751
1040.854	-2638
1040.916	-2908
1040.978	-2717
1041.040	-2110
1041.102	-2919
1041.164	-2890
1041.225	-3067
1041.287	-2858
1041.349	-2885
1041.411	-2688
1041.472	-2125
1041.534	-2116
1041.596	-2577
1041.657	-2897
1041.719	-1966
1041.781	-3037
1041.842	-2408
1041.904	-2553
1041.965	-1885
1042.027	-2364
1042.088	-2257
1042.150	-2734
1042.211	-2880
1042.272	-2705
1042.334	-2657
1042.395	-2894
1042.456	-2350
1042.518	-3307
1042.579	-2440
1042.640	-3489
1042.701	-2484
1042.763	-2531
1042.824	-2644
1042.885	-2835
1042.946	-2082
1043.007	-2658
1043.068	-1891
1043.129	-3470
1043.190	-2960
1043.251	-2061
1043.312	-2699
1043.373	-2912
1043.434	-2363
1043.495	-2457
1043.556	-3221
1043.616	-2730
1043.677	-2330
1043.738	-2196
1043.799	-1906
1043.859	-3134
1043.920	-2329
1043.981	-2657
1044.041	-1804
1044.102	-1917
1044.162	-3660
1044.223	-2919
1044.284	-2032
1044.344	-2394
1044.405	-2077
1044.465	-2422
1044.525	-2585
1044.586	-1938
1044.646	-2522
1044.707	-2334
1044.767	-2637
1044.827	-1848
1044.887	-2592
1044.948	-2751
1045.008	-2952
1045.068	-2115
1045.128	-2331
1045.188	-2148
1045.249	-1654
1045.309	-2295
1045.369	-2029
1045.429	-2226
1045.489	-2130
1045.549	-1993
1045.609	-2162
1045.669	-2248
1045.729	-2065
1045.789	-3010
1045.848	-1862
1045.908	-2207
1045.968	-1969
1046.028	-1891
1046.088	-1490
1046.147	-2012
1046.207	-2657
1046.267	-1778
1046.326	-2211
1046.386	-2003
1046.446	-1671
1046.505	-2474
1046.565	-1566
1046.624	-1750
1046.684	-1284
1046.743	-1524
1046.803	-1408
1046.862	-782
1046.922	0
