'Start Wavelength	183.907
'End Wavelength	1046.922
'Gate Delay	5.000
'Gate Width (ms)	1.050
'Laser Output Level	0.000
'X Position	0.000
'Y Position	0.000
'Z Position	0.000
'Grid Point Number	1.000
'Shot Number	100.000
183.907	243.000
183.977	-103.000
184.047	231
184.116	-306
184.186	-534
184.256	-944
184.325	121
184.395	-794
184.465	100
184.534	267
184.604	152
184.674	-422
184.743	72
184.813	16
184.883	-94
184.952	-282
185.022	-414
185.092	-623
185.161	176
185.231	-497
185.301	72
185.370	311
185.440	-728
185.509	-520
185.579	-322
185.649	-135
185.718	70
185.788	-263
185.857	-1076
185.927	-784
185.996	-595
186.066	46
186.136	87
186.205	-428
186.275	-238
186.344	-1052
186.414	333
186.483	-904
186.553	351
186.622	47
186.692	-509
186.761	245
186.831	122
186.900	-877
186.970	164
187.039	250
187.109	404
187.178	-405
187.248	-15
187.317	-87
187.387	-320
187.456	102
187.526	-449
187.595	462
187.664	550
187.734	297
187.803	-243
187.873	-579
187.942	254
188.012	-46
188.081	162
188.150	260
188.220	710
188.289	288
188.358	-434
188.428	-44
188.497	-126
188.567	544
188.636	-602
188.705	-171
188.775	564
188.844	-739
188.913	364
188.983	-1027
189.052	-261
189.121	-716
189.191	-467
189.260	8
189.329	-172
189.399	187
189.468	498
189.537	551
189.606	156
189.676	278
189.745	-157
189.814	172
189.883	-59
189.953	330
190.022	353
190.091	704
190.161	935
190.230	-175
190.299	-419
190.368	137
190.437	-820
190.507	635
190.576	-347
190.645	-564
190.714	105
190.783	307
190.853	975
190.922	-162
190.991	341
191.060	173
191.129	-262
191.198	-68
191.268	9
191.337	-246
191.406	590
191.475	-157
191.544	-118
191.613	307
191.682	-36
191.752	-48
191.821	-482
191.890	254
191.959	-96
192.028	494
192.097	-281
192.166	204
192.235	-423
192.304	440
192.373	-194
192.442	-619
192.511	-245
192.580	-172
192.650	-339
192.719	-237
192.788	197
192.857	348
192.926	113
192.995	-132
193.064	-233
193.133	745
193.202	448
193.271	798
193.340	744
193.409	76
193.478	259
193.547	584
193.615	692
193.684	1008
193.753	294
193.822	-97
193.891	87
193.960	266
194.029	362
194.098	658
194.167	147
194.236	850
194.305	-452
194.374	811
194.443	-433
194.512	601
194.580	992
194.649	946
194.718	169
194.787	69
194.856	-224
194.925	340
194.994	172
195.062	-22
195.131	551
195.200	-27
195.269	161
195.338	611
195.407	90
195.475	-230
195.544	-158
195.613	-273
195.682	-22
195.751	458
195.819	611
195.888	348
195.957	568
196.026	351
196.094	62
196.163	159
196.232	31
196.301	731
196.369	571
196.438	345
196.507	30
196.576	308
196.644	-88
196.713	233
196.782	-82
196.850	-186
196.919	34
196.988	119
197.056	34
197.125	-13
197.194	123
197.262	430
197.331	651
197.400	-530
197.468	-197
197.537	-54
197.606	573
197.674	197
197.743	1841
197.812	383
197.880	1699
197.949	944
198.017	748
198.086	643
198.155	82
198.223	273
198.292	1627
198.360	246
198.429	814
198.497	269
198.566	845
198.635	1465
198.703	915
198.772	650
198.840	1323
198.909	1771
198.977	94
199.046	327
199.114	1134
199.183	454
199.251	-238
199.320	198
199.388	65
199.457	-685
199.525	190
199.594	422
199.662	929
199.731	383
199.799	-127
199.867	144
199.936	-400
200.004	574
200.073	530
200.141	73
200.210	-569
200.278	95
200.346	335
200.415	206
200.483	-233
200.552	448
200.620	230
200.688	760
200.757	-396
200.825	450
200.893	-16
200.962	353
201.030	-387
201.098	271
201.167	427
201.235	-109
201.303	126
201.372	-169
201.440	294
201.508	9
201.577	803
201.645	-185
201.713	-392
201.781	-451
201.850	951
201.918	71
201.986	-5
202.055	349
202.123	461
202.191	-207
202.259	-295
202.327	-4
202.396	759
202.464	219
202.532	852
202.600	2633
202.669	807
202.737	576
202.805	244
202.873	-264
202.941	-310
203.009	-377
203.078	497
203.146	449
203.214	432
203.282	108
203.350	595
203.418	-289
203.487	25
203.555	98
203.623	423
203.691	-36
203.759	-391
203.827	407
203.895	263
203.963	-138
204.031	243
204.099	236
204.168	349
204.236	434
204.304	524
204.372	341
204.440	-77
204.508	505
204.576	-258
204.644	407
204.712	-472
204.780	131
204.848	111
204.916	-73
204.984	526
205.052	279
205.120	239
205.188	503
205.256	-92
205.324	512
205.392	-228
205.460	261
205.528	423
205.596	277
205.664	764
205.732	343
205.799	1477
205.867	3030
205.935	-178
206.003	35
206.071	402
206.139	252
206.207	578
206.275	531
206.343	-683
206.411	235
206.478	270
206.546	142
206.614	-115
206.682	35
206.750	52
206.818	493
206.885	670
206.953	-973
207.021	588
207.089	65
207.157	0
207.225	700
207.292	273
207.360	586
207.428	46
207.496	-468
207.563	513
207.631	522
207.699	-122
207.767	59
207.834	220
207.902	951
207.970	152
208.038	-425
208.105	433
208.173	589
208.241	1393
208.309	578
208.376	510
208.444	1715
208.512	412
208.579	-689
208.647	288
208.715	550
208.782	51
208.850	1136
208.918	-87
208.985	-545
209.053	848
209.120	774
209.188	651
209.256	-138
209.323	-17
209.391	227
209.459	1298
209.526	285
209.594	569
209.661	467
209.729	225
209.796	533
209.864	654
209.932	-1206
209.999	1355
210.067	-157
210.134	610
210.202	756
210.269	779
210.337	828
210.404	774
210.472	772
210.539	1075
210.607	145
210.674	927
210.742	620
210.809	198
210.877	650
210.944	1451
211.012	-190
211.079	2121
211.146	413
211.214	929
211.281	996
211.349	998
211.416	1279
211.484	607
211.551	-347
211.618	415
211.686	703
211.753	339
211.821	308
211.888	-65
211.955	171
212.023	1138
212.090	247
212.157	314
212.225	543
212.292	1776
212.359	2701
212.427	8986
212.494	3468
212.561	1434
212.629	1458
212.696	1466
212.763	943
212.831	-438
212.898	1358
212.965	946
213.032	1163
213.100	1053
213.167	718
213.234	1189
213.301	883
213.369	645
213.436	-10
213.503	-279
213.570	648
213.638	796
213.705	143
213.772	56
213.839	1031
213.906	1624
213.973	1014
214.041	716
214.108	584
214.175	961
214.242	1145
214.309	319
214.376	-2
214.444	276
214.511	1401
214.578	350
214.645	1300
214.712	1415
214.779	1170
214.846	684
214.913	831
214.980	619
215.048	1561
215.115	1327
215.182	584
215.249	1245
215.316	821
215.383	1000
215.450	392
215.517	-94
215.584	572
215.651	892
215.718	63
215.785	790
215.852	1159
215.919	1626
215.986	1486
216.053	705
216.120	352
216.187	1395
216.254	1150
216.321	307
216.388	186
216.455	1534
216.522	1115
216.589	1383
216.656	2555
216.722	1625
216.789	1148
216.856	2073
216.923	983
216.990	1646
217.057	934
217.124	1169
217.191	287
217.258	1787
217.324	1813
217.391	2410
217.458	1730
217.525	1183
217.592	1030
217.659	50
217.725	1455
217.792	1434
217.859	1803
217.926	1119
217.993	864
218.059	1146
218.126	587
218.193	1569
218.260	505
218.327	627
218.393	186
218.460	-297
218.527	-425
218.594	835
218.660	1345
218.727	1848
218.794	-160
218.860	884
218.927	683
218.994	289
219.061	92
219.127	719
219.194	2176
219.261	959
219.327	49
219.394	411
219.461	-224
219.527	736
219.594	746
219.661	720
219.727	-179
219.794	699
219.860	207
219.927	2029
219.994	2952
220.060	2494
220.127	1942
220.193	498
220.260	835
220.326	1016
220.393	2501
220.460	4086
220.526	1886
220.593	629
220.659	1573
220.726	718
220.792	4890
220.859	2774
220.925	4593
220.992	6596
221.058	6105
221.125	5739
221.191	4707
221.258	1318
221.324	1615
221.391	359
221.457	2067
221.524	1562
221.590	1325
221.657	5717
221.723	2551
221.789	3641
221.856	3425
221.922	1184
221.989	1296
222.055	569
222.121	-111
222.188	1917
222.254	1011
222.321	440
222.387	57
222.453	55
222.520	21
222.586	571
222.652	-301
222.719	-28
222.785	3318
222.851	625
222.918	245
222.984	1738
223.050	2276
223.116	-25
223.183	1057
223.249	209
223.315	366
223.382	524
223.448	983
223.514	-837
223.580	173
223.647	796
223.713	320
223.779	146
223.845	-564
223.911	307
223.978	163
224.044	163
224.110	20
224.176	416
224.242	649
224.309	105
224.375	1123
224.441	781
224.507	-157
224.573	177
224.639	1209
224.705	692
224.772	-205
224.838	358
224.904	1108
224.970	908
225.036	215
225.102	-106
225.168	1587
225.234	678
225.300	480
225.366	670
225.432	383
225.499	34
225.565	873
225.631	616
225.697	478
225.763	580
225.829	837
225.895	853
225.961	2654
226.027	1521
226.093	1466
226.159	1574
226.225	1788
226.291	5048
226.357	9530
226.423	4174
226.489	2711
226.554	1075
226.620	1037
226.686	940
226.752	3262
226.818	4128
226.884	12399
226.950	10613
227.016	2989
227.082	1714
227.148	1788
227.214	1694
227.279	1259
227.345	1202
227.411	940
227.477	669
227.543	2085
227.609	2727
227.674	1611
227.740	1119
227.806	1044
227.872	859
227.938	695
228.003	1946
228.069	911
228.135	734
228.201	591
228.267	450
228.332	1039
228.398	872
228.464	1373
228.530	90
228.595	311
228.661	-106
228.727	1055
228.792	899
228.858	702
228.924	-767
228.990	2081
229.055	-134
229.121	1296
229.187	1159
229.252	679
229.318	-101
229.384	1740
229.449	535
229.515	-464
229.581	-520
229.646	1951
229.712	516
229.777	2535
229.843	2076
229.909	1811
229.974	2042
230.040	2023
230.105	724
230.171	331
230.236	1979
230.302	2498
230.368	1421
230.433	-158
230.499	309
230.564	1541
230.630	-417
230.695	671
230.761	1128
230.826	-399
230.892	2779
230.957	729
231.023	323
231.088	688
231.154	599
231.219	1633
231.284	488
231.350	1507
231.415	204
231.481	785
231.546	-246
231.612	45
231.677	427
231.742	-716
231.808	1147
231.873	-85
231.939	-586
232.004	2288
232.069	1696
232.135	-58
232.200	612
232.265	1388
232.331	-87
232.396	-25
232.461	7
232.527	547
232.592	-81
232.657	580
232.723	2449
232.788	1964
232.853	1212
232.918	569
232.984	120
233.049	889
233.114	1145
233.179	1968
233.245	4043
233.310	4894
233.375	-101
233.440	169
233.506	310
233.571	624
233.636	555
233.701	434
233.766	1758
233.832	3657
233.897	1562
233.962	448
234.027	2223
234.092	1663
234.157	1055
234.222	441
234.288	2221
234.353	9644
234.418	8467
234.483	4085
234.548	2565
234.613	1988
234.678	1729
234.743	581
234.808	10026
234.873	4236
234.938	2321
235.004	1243
235.069	1431
235.134	392
235.199	313
235.264	336
235.329	-93
235.394	1358
235.459	1999
235.524	923
235.589	1240
235.654	228
235.719	223
235.784	1783
235.849	1203
235.913	4918
235.978	5296
236.043	6287
236.108	2241
236.173	1474
236.238	2255
236.303	127
236.368	627
236.433	2561
236.498	4758
236.563	2413
236.627	4393
236.692	16097
236.757	11856
236.822	4761
236.887	3844
236.952	3360
237.017	1549
237.081	3115
237.146	2569
237.211	6193
237.276	15402
237.341	26373
237.405	12964
237.470	4958
237.535	4692
237.600	3340
237.664	2183
237.729	790
237.794	2008
237.859	4636
237.923	4260
237.988	1578
238.053	4259
238.118	4139
238.182	11394
238.247	10992
238.312	5156
238.376	4156
238.441	2013
238.506	2863
238.570	708
238.635	2146
238.700	1002
238.764	338
238.829	6074
238.893	6216
238.958	3518
239.023	2262
239.087	1198
239.152	1204
239.216	1263
239.281	1215
239.346	1017
239.410	1068
239.475	1170
239.539	12439
239.604	8241
239.668	2725
239.733	1140
239.797	1874
239.862	4368
239.926	9755
239.991	4247
240.055	1313
240.120	1208
240.184	1814
240.249	857
240.313	1266
240.378	1243
240.442	7230
240.507	12631
240.571	3902
240.635	4698
240.700	6857
240.764	2684
240.829	985
240.893	278
240.957	1438
241.022	6502
241.086	13003
241.151	5110
241.215	1725
241.279	2910
241.344	5637
241.408	3214
241.472	1331
241.537	2928
241.601	1455
241.665	575
241.730	58
241.794	2788
241.858	917
241.922	1242
241.987	1685
242.051	599
242.115	324
242.179	1879
242.244	661
242.308	1458
242.372	986
242.436	1574
242.501	1759
242.565	431
242.629	127
242.693	1554
242.757	-129
242.822	912
242.886	1817
242.950	1936
243.014	1243
243.078	2013
243.142	438
243.206	1790
243.271	2178
243.335	855
243.399	2683
243.463	8107
243.527	26926
243.591	8041
243.655	3206
243.719	1627
243.783	2567
243.847	3622
243.911	4987
243.975	5718
244.040	3709
244.104	2942
244.168	1910
244.232	2116
244.296	4213
244.360	3938
244.424	1685
244.488	2741
244.552	2004
244.615	730
244.679	1159
244.743	1970
244.807	1391
244.871	1840
244.935	1129
244.999	-25
245.063	277
245.127	2174
245.191	3098
245.255	2149
245.319	2082
245.383	570
245.446	1859
245.510	136
245.574	2002
245.638	1662
245.702	1117
245.766	5091
245.829	3149
245.893	2309
245.957	1260
246.021	2788
246.085	1052
246.149	2239
246.212	6757
246.276	8658
246.340	3381
246.404	2911
246.467	3625
246.531	3594
246.595	3549
246.659	3321
246.722	1882
246.786	3031
246.850	3600
246.913	4131
246.977	1504
247.041	1634
247.104	1785
247.168	1388
247.232	6437
247.295	13033
247.359	5659
247.423	2874
247.486	5099
247.550	3634
247.614	1647
247.677	3715
247.741	2296
247.804	1939
247.868	1987
247.932	4586
247.995	12732
248.059	3791
248.122	1476
248.186	3117
248.249	4961
248.313	19960
248.376	19663
248.440	13445
248.503	3280
248.567	4733
248.630	4987
248.694	8109
248.757	9547
248.821	21372
248.884	12618
248.948	10084
249.011	15911
249.075	24417
249.138	21694
249.202	8627
249.265	4964
249.328	8289
249.392	4257
249.455	4307
249.519	2616
249.582	3536
249.645	5988
249.709	3955
249.772	2268
249.835	2899
249.899	3444
249.962	3175
250.025	2494
250.089	8150
250.152	11470
250.215	4330
250.279	2929
250.342	4860
250.405	3823
250.468	2678
250.532	2908
250.595	7455
250.658	24517
250.721	40956
250.785	13336
250.848	7696
250.911	3183
250.974	3872
251.038	5335
251.101	11982
251.164	6376
251.227	6908
251.290	5217
251.354	6370
251.417	35217
251.480	32303
251.543	19775
251.606	65943
251.669	45101
251.732	15233
251.795	17049
251.859	16758
251.922	41682
251.985	22843
252.048	8101
252.111	6249
252.174	5525
252.237	10838
252.300	25233
252.363	26191
252.426	55493
252.489	21788
252.552	13030
252.615	8788
252.678	8835
252.741	18331
252.804	22941
252.867	53545
252.930	31893
252.993	16901
253.056	9736
253.119	8385
253.182	5124
253.245	8824
253.308	7599
253.371	7969
253.434	7741
253.497	6580
253.559	12992
253.622	8618
253.685	12274
253.748	11931
253.811	5159
253.874	8238
253.937	7799
254.000	3888
254.062	7695
254.125	12826
254.188	13073
254.251	10151
254.314	5120
254.376	9221
254.439	11381
254.502	8797
254.565	8343
254.628	14673
254.690	8678
254.753	4748
254.816	3789
254.878	4728
254.941	10145
255.004	9004
255.067	4162
255.129	3066
255.192	2149
255.255	1055
255.317	2832
255.380	2502
255.443	917
255.505	1000
255.568	1305
255.631	1251
255.693	1998
255.756	791
255.819	3226
255.881	700
255.944	1318
256.006	2063
256.069	1325
256.132	756
256.194	1784
256.257	10869
256.319	7789
256.382	6158
256.444	2250
256.507	1832
256.569	919
256.632	1172
256.694	3690
256.757	8222
256.819	23500
256.882	8353
256.944	4129
257.007	3235
257.069	3248
257.132	2339
257.194	2657
257.257	1549
257.319	1303
257.381	1236
257.444	6231
257.506	28965
257.569	30347
257.631	17105
257.693	8325
257.756	4787
257.818	5179
257.880	2286
257.943	2323
258.005	2045
258.067	1734
258.130	1780
258.192	2124
258.254	7088
258.317	4047
258.379	1962
258.441	7217
258.503	6671
258.566	12832
258.628	17048
258.690	3118
258.753	2796
258.815	5718
258.877	2179
258.939	1933
259.001	2061
259.064	2274
259.126	3349
259.188	5034
259.250	2592
259.312	2832
259.375	8495
259.437	5344
259.499	3324
259.561	1253
259.623	1875
259.685	1501
259.747	2399
259.809	10819
259.872	22007
259.934	33224
259.996	27444
260.058	6767
260.120	1775
260.182	2080
260.244	2516
260.306	1717
260.368	2284
260.430	1077
260.492	4451
260.554	8985
260.616	5295
260.678	15819
260.740	23354
260.802	5324
260.864	3353
260.926	1726
260.988	2860
261.050	2373
261.112	5513
261.174	23688
261.236	18229
261.298	4807
261.359	10958
261.421	15590
261.483	3670
261.545	2630
261.607	334
261.669	1512
261.731	6055
261.793	15629
261.854	5535
261.916	3673
261.978	2391
262.040	2608
262.102	2418
262.164	5759
262.225	5009
262.287	1874
262.349	6101
262.411	3976
262.472	3432
262.534	6614
262.596	15265
262.658	5138
262.719	933
262.781	3487
262.843	14458
262.904	6600
262.966	3377
263.028	3534
263.090	22066
263.151	56323
263.213	17508
263.275	7894
263.336	3079
263.398	3229
263.459	470
263.521	1146
263.583	6356
263.644	3712
263.706	1455
263.767	1155
263.829	743
263.891	1289
263.952	1108
264.014	-216
264.075	1806
264.137	6568
264.198	3171
264.260	543
264.321	491
264.383	3462
264.444	10739
264.506	2782
264.567	1641
264.629	4090
264.690	7053
264.752	3045
264.813	1147
264.875	723
264.936	1860
264.998	900
265.059	396
265.120	555
265.182	1426
265.243	11054
265.305	10872
265.366	2633
265.427	1856
265.489	1068
265.550	-388
265.611	1213
265.673	1238
265.734	255
265.795	1085
265.857	409
265.918	542
265.979	2387
266.040	20130
266.102	14642
266.163	4444
266.224	3476
266.286	774
266.347	1143
266.408	1634
266.469	1725
266.530	1071
266.592	302
266.653	2892
266.714	6023
266.775	2015
266.836	592
266.898	842
266.959	2361
267.020	1613
267.081	1221
267.142	431
267.203	61
267.264	164
267.326	1682
267.387	500
267.448	526
267.509	1350
267.570	864
267.631	633
267.692	-205
267.753	615
267.814	-213
267.875	3261
267.936	7498
267.997	3116
268.058	1808
268.119	1414
268.180	1424
268.241	466
268.302	348
268.363	306
268.424	789
268.485	2009
268.546	172
268.607	246
268.668	-71
268.729	-282
268.790	420
268.851	921
268.912	4596
268.972	5628
269.033	2487
269.094	72
269.155	874
269.216	507
269.277	1035
269.338	508
269.398	969
269.459	727
269.520	2062
269.581	3149
269.642	3326
269.702	1539
269.763	623
269.824	-108
269.885	1394
269.945	3730
270.006	1416
270.067	-323
270.128	588
270.188	807
270.249	568
270.310	185
270.370	366
270.431	553
270.492	-106
270.553	857
270.613	3143
270.674	7421
270.734	2958
270.795	889
270.856	2392
270.916	1415
270.977	685
271.038	1574
271.098	1944
271.159	2629
271.219	2693
271.280	904
271.340	856
271.401	1146
271.462	7826
271.522	3976
271.583	1379
271.643	1566
271.704	1359
271.764	1216
271.825	5043
271.885	19400
271.946	25254
272.006	7924
272.066	11137
272.127	19319
272.187	4655
272.248	2284
272.308	2788
272.369	13325
272.429	6613
272.489	5619
272.550	5827
272.610	6531
272.671	3773
272.731	4534
272.791	9724
272.852	3181
272.912	3501
272.972	2077
273.033	2195
273.093	3708
273.153	3661
273.214	2014
273.274	2634
273.334	11360
273.394	20933
273.455	8100
273.515	8081
273.575	18450
273.635	6969
273.696	11017
273.756	20887
273.816	7574
273.876	4990
273.936	14095
273.997	26006
274.057	5754
274.117	3829
274.177	4859
274.237	25735
274.297	22820
274.358	19468
274.418	16606
274.478	12026
274.538	3986
274.598	3688
274.658	22246
274.718	28563
274.778	9269
274.838	3831
274.898	10710
274.958	39923
275.018	25139
275.078	13183
275.138	5732
275.198	3545
275.258	1505
275.318	3630
275.378	7111
275.438	6450
275.498	4104
275.558	17521
275.618	32140
275.678	14499
275.738	9474
275.798	6726
275.858	3041
275.918	1116
275.978	2311
276.038	2255
276.098	1270
276.157	4499
276.217	14068
276.277	6472
276.337	4625
276.397	2027
276.457	3326
276.517	2148
276.576	2009
276.636	1112
276.696	2745
276.756	9295
276.815	6315
276.875	2742
276.935	3623
276.995	2869
277.055	1164
277.114	1652
277.174	2017
277.234	11124
277.293	5096
277.353	2424
277.413	1729
277.472	1290
277.532	2824
277.592	2384
277.651	13469
277.711	25325
277.771	7917
277.830	30379
277.890	21851
277.950	16938
278.009	48972
278.069	16308
278.128	18716
278.188	26015
278.248	9937
278.307	30458
278.367	17371
278.426	5523
278.486	2335
278.545	1558
278.605	1513
278.664	1735
278.724	2606
278.783	8150
278.843	22557
278.902	6145
278.962	3636
279.021	5083
279.081	12508
279.140	10038
279.199	4937
279.259	5707
279.318	5300
279.378	7529
279.437	12951
279.496	46509
279.556	166158
279.615	134472
279.675	38373
279.734	19830
279.793	29802
279.853	39097
279.912	12875
279.971	8116
280.031	6385
280.090	11247
280.149	18795
280.208	21341
280.268	116589
280.327	117582
280.386	30310
280.445	18986
280.505	14141
280.564	6665
280.623	5681
280.682	7434
280.742	11137
280.801	3301
280.860	2426
280.919	2451
280.978	2339
281.037	2254
281.097	2025
281.156	2286
281.215	1898
281.274	3244
281.333	15485
281.392	10522
281.451	2220
281.510	1298
281.569	1489
281.628	1733
281.688	1878
281.747	1937
281.806	2144
281.865	1871
281.924	1638
281.983	1133
282.042	859
282.101	834
282.160	1299
282.219	526
282.278	827
282.337	7732
282.396	5409
282.454	2891
282.513	2747
282.572	12323
282.631	6496
282.690	2046
282.749	1091
282.808	2343
282.867	2410
282.926	2405
282.985	809
283.043	1522
283.102	740
283.161	1513
283.220	6134
283.279	14647
283.338	3575
283.396	1818
283.455	2017
283.514	3073
283.573	4334
283.631	2933
283.690	1842
283.749	1188
283.808	4826
283.866	5754
283.925	1940
283.984	2125
284.043	3413
284.101	3231
284.160	2639
284.219	5124
284.277	3321
284.336	4104
284.395	17782
284.453	13508
284.512	4847
284.570	7431
284.629	6613
284.688	5878
284.746	7417
284.805	8312
284.863	12315
284.922	14480
284.981	15864
285.039	21906
285.098	37672
285.156	83268
285.215	133967
285.273	125641
285.332	85016
285.390	49763
285.449	29445
285.507	21405
285.566	14067
285.624	10223
285.683	8671
285.741	6857
285.799	5446
285.858	5607
285.916	4714
285.975	3775
286.033	3097
286.091	2725
286.150	2196
286.208	2923
286.267	3287
286.325	3357
286.383	4765
286.442	3536
286.500	1340
286.558	2229
286.616	2091
286.675	3516
286.733	2295
286.791	2105
286.850	2425
286.908	3698
286.966	6219
287.024	2144
287.083	2076
287.141	1218
287.199	2008
287.257	3401
287.315	2001
287.374	2261
287.432	6740
287.490	5020
287.548	2433
287.606	1903
287.664	2089
287.723	3263
287.781	5274
287.839	2902
287.897	2392
287.955	2416
288.013	3669
288.071	9254
288.129	53104
288.187	156379
288.245	63877
288.303	19185
288.361	11341
288.419	8343
288.477	5769
288.535	3061
288.593	2376
288.651	1951
288.709	2042
288.767	1725
288.825	2173
288.883	1031
288.941	1388
288.999	1104
289.057	1912
289.115	463
289.173	2198
289.231	726
289.289	1066
289.346	1020
289.404	1509
289.462	3824
289.520	3560
289.578	1669
289.636	1099
289.694	760
289.751	679
289.809	710
289.867	676
289.925	1488
289.983	1992
290.040	779
290.098	387
290.156	1599
290.214	1972
290.271	319
290.329	510
290.387	265
290.444	877
290.502	-130
290.560	586
290.617	794
290.675	810
290.733	-12
290.790	1543
290.848	1176
290.906	748
290.963	1530
291.021	1175
291.078	935
291.136	609
291.194	6101
291.251	15605
291.309	3983
291.366	1738
291.424	805
291.481	1334
291.539	944
291.596	1692
291.654	497
291.711	665
291.769	1090
291.826	4474
291.884	2507
291.941	1223
291.999	458
292.056	2078
292.114	2428
292.171	663
292.228	983
292.286	1464
292.343	3799
292.401	5452
292.458	3552
292.515	1883
292.573	2252
292.630	2040
292.687	2912
292.745	1588
292.802	1864
292.859	10884
292.917	17979
292.974	9130
293.031	2116
293.089	1694
293.146	1486
293.203	1296
293.260	758
293.318	2212
293.375	3813
293.432	1880
293.489	601
293.546	935
293.604	2070
293.661	11998
293.718	26076
293.775	13133
293.832	6354
293.889	4801
293.947	5519
294.004	2623
294.061	1788
294.118	6867
294.175	16047
294.232	22419
294.289	8894
294.346	3236
294.403	2804
294.460	3683
294.517	2860
294.574	1957
294.631	921
294.688	385
294.745	6381
294.802	29427
294.859	32978
294.916	12588
294.973	6359
295.030	5368
295.087	3562
295.144	2442
295.201	2180
295.258	1020
295.315	1537
295.372	10931
295.429	20324
295.486	7966
295.542	4265
295.599	13884
295.656	24495
295.713	16492
295.770	19064
295.827	7378
295.883	3486
295.940	2952
295.997	6186
296.054	5985
296.111	3397
296.167	2472
296.224	1608
296.281	1001
296.338	1488
296.394	638
296.451	1310
296.508	8931
296.564	16517
296.621	10628
296.678	23070
296.734	30816
296.791	12604
296.848	5451
296.904	5199
296.961	13160
297.018	22482
297.074	16720
297.131	6060
297.187	3333
297.244	4490
297.301	23224
297.357	36945
297.414	12659
297.470	5397
297.527	3119
297.583	2856
297.640	3009
297.696	1973
297.753	1372
297.809	1155
297.866	35
297.922	991
297.979	750
298.035	1322
298.092	3216
298.148	12339
298.204	12217
298.261	5327
298.317	10568
298.374	27874
298.430	15486
298.486	8032
298.543	5971
298.599	4388
298.656	3796
298.712	7839
298.768	21971
298.824	14775
298.881	5375
298.937	2624
298.993	2449
299.050	3444
299.106	3471
299.162	1493
299.218	2108
299.275	1183
299.331	1612
299.387	6091
299.443	23944
299.500	22977
299.556	9700
299.612	4581
299.668	3978
299.724	3238
299.780	3962
299.837	2718
299.893	4779
299.949	21550
300.005	22460
300.061	21287
300.117	33737
300.173	16063
300.229	7847
300.285	9055
300.341	10836
300.397	5310
300.453	3095
300.510	1426
300.566	2154
300.622	2391
300.678	9142
300.734	19587
300.790	20342
300.845	23259
300.901	14472
300.957	20708
301.013	16166
301.069	6628
301.125	4372
301.181	5028
301.237	3149
301.293	1826
301.349	2080
301.405	1951
301.461	2379
301.516	2536
301.572	3834
301.628	5885
301.684	5159
301.740	9200
301.796	13033
301.851	10700
301.907	16095
301.963	14281
302.019	24438
302.074	66703
302.130	62336
302.186	28972
302.242	11928
302.297	7520
302.353	6013
302.409	13342
302.464	10934
302.520	9630
302.576	26387
302.631	28944
302.687	16740
302.743	7354
302.798	3872
302.854	2998
302.910	3222
302.965	3612
303.021	8467
303.076	7895
303.132	11388
303.187	12368
303.243	6743
303.299	4206
303.354	1920
303.410	1780
303.465	1990
303.521	1836
303.576	1670
303.632	2140
303.687	7033
303.743	21545
303.798	17678
303.853	7990
303.909	3811
303.964	3081
304.020	5033
304.075	8510
304.130	8527
304.186	14690
304.241	17444
304.297	13221
304.352	6875
304.358	6498
304.407	3444
304.449	3917
304.463	4082
304.518	3358
304.539	3000
304.573	2425
304.629	2022
304.630	2095
304.684	5529
304.720	12991
304.739	16713
304.794	23332
304.811	20079
304.850	12315
304.902	5379
304.905	4934
304.960	3639
304.992	3330
305.015	3109
305.071	3225
305.083	3143
305.126	2803
305.173	1897
305.181	1766
305.236	731
305.264	1456
305.292	2161
305.347	2937
305.354	2986
305.402	3293
305.445	3607
305.457	3703
305.512	4497
305.535	4672
305.567	4918
305.622	4394
305.626	4628
305.678	9719
305.716	20959
305.733	25078
305.788	26620
305.807	23452
305.843	18108
305.897	22626
305.898	22666
305.953	20391
305.988	14543
306.008	11410
306.063	6528
306.078	5776
306.118	4103
306.168	2556
306.173	2426
306.228	2319
306.259	2051
306.283	1865
306.338	2288
306.349	2305
306.393	2353
306.440	2419
306.448	2435
306.503	2938
306.530	3389
306.558	4787
306.613	14894
306.620	15903
306.668	21648
306.711	26588
306.723	27096
306.778	19306
306.801	15054
306.833	10430
306.888	5011
306.892	4821
306.943	3052
306.982	2983
306.997	3016
307.052	2419
307.072	2527
307.107	3070
307.162	5593
307.163	5632
307.217	9549
307.253	12387
307.272	13297
307.327	14013
307.343	12526
307.381	9211
307.434	7688
307.436	7832
307.491	15721
307.524	24348
307.546	27200
307.600	23961
307.614	21053
307.655	12609
307.704	6768
307.710	6499
307.765	7255
307.795	10311
307.819	13140
307.874	22400
307.885	22139
307.929	16524
307.975	10087
307.984	9633
308.038	9356
308.065	10891
308.093	18225
308.148	42236
308.156	48757
308.202	83096
308.246	97110
308.257	94480
308.312	52171
308.336	36933
308.366	28205
308.421	18552
308.426	17724
308.475	11254
308.517	8090
308.530	7437
308.585	6543
308.607	6307
308.639	6360
308.694	7010
308.697	7229
308.748	15790
308.787	25786
308.803	26728
308.857	20200
308.877	16879
308.912	13430
308.967	10329
308.967	10330
309.021	13738
309.058	17388
309.076	21003
309.130	34854
309.148	40570
309.185	69112
309.238	123982
309.239	124377
309.293	140359
309.328	127847
309.348	110092
309.402	54420
309.418	40615
309.457	28261
309.508	18129
309.511	17859
309.566	18302
309.598	20464
309.620	25472
309.674	42886
309.688	47150
309.729	44649
309.778	33704
309.783	32741
309.837	21363
309.868	16047
309.892	16852
309.946	22495
309.959	24721
310.001	31833
310.049	37687
310.055	36551
310.109	21693
310.139	13422
310.163	10489
310.218	6491
310.229	5888
310.272	5179
310.319	4761
310.326	4648
310.381	4228
310.409	4109
310.435	3975
310.489	3505
310.499	3453
310.543	3603
310.589	4066
310.598	4126
310.652	4365
310.679	4269
310.706	3633
310.760	2580
310.769	2427
310.814	2502
310.859	2515
310.868	2514
310.923	2644
310.948	2722
310.977	2939
311.031	3490
311.038	3560
311.085	3226
311.128	2711
311.139	2682
311.193	2721
311.218	2712
311.247	2478
311.301	2004
311.308	1945
311.356	2003
311.398	2170
311.410	2172
311.464	2149
311.488	2087
311.518	2127
311.572	2324
311.578	2348
311.626	3356
311.668	4299
311.680	4319
311.734	4295
311.758	4296
311.788	4095
311.842	3667
311.847	3637
311.896	5011
311.937	6222
311.950	6061
312.004	5376
312.027	5040
312.058	4065
312.112	2401
312.117	2247
312.165	2350
312.207	2466
312.297	4211
312.386	2937
312.476	3696
312.566	6334
312.656	4110
312.745	2006
312.835	3074
312.925	3020
313.015	2824
313.104	2913
313.194	2485
313.284	2560
313.374	3507
313.463	2715
313.553	2227
313.643	1919
313.732	2306
313.822	1672
313.912	2308
314.001	3215
314.091	3228
314.180	4567
314.270	5249
314.360	4747
314.449	2713
314.539	1812
314.628	2418
314.718	2809
314.808	4363
314.897	2239
314.987	2553
315.076	3794
315.166	4566
315.255	4351
315.345	4531
315.434	4395
315.524	4474
315.613	3643
315.703	5072
315.792	6658
315.881	13880
315.971	5776
316.060	8121
316.150	13112
316.239	13407
316.328	4684
316.418	1773
316.507	2008
316.597	3738
316.686	3593
316.775	6186
316.865	14542
316.954	2875
317.043	1772
317.133	2162
317.222	2727
317.311	2684
317.400	1082
317.490	4524
317.579	3287
317.668	2134
317.757	3699
317.847	10152
317.936	24209
318.025	11706
318.114	5351
318.203	4960
318.293	7072
318.382	12744
318.471	9198
318.560	15879
318.649	28097
318.738	5999
318.828	4237
318.917	3479
319.006	5663
319.095	17365
319.184	36077
319.273	18949
319.362	9461
319.451	3076
319.540	3180
319.629	8079
319.718	12504
319.807	5310
319.896	12976
319.985	44136
320.074	14256
320.163	4314
320.252	8761
320.341	6054
320.430	5537
320.519	7130
320.608	3630
320.697	3712
320.786	3157
320.875	4591
320.964	5431
321.053	9737
321.142	12471
321.230	12921
321.319	10923
321.408	23760
321.497	8984
321.586	9829
321.675	13139
321.764	11975
321.852	7632
321.941	12721
322.030	7603
322.119	9993
322.207	25606
322.296	19981
322.385	8690
322.474	9986
322.562	28765
322.651	14632
322.740	10362
322.829	15840
322.917	19294
323.006	9711
323.095	7491
323.183	6751
323.272	8377
323.361	19824
323.449	58226
323.538	18279
323.626	41436
323.715	22818
323.804	9054
323.892	38741
323.981	18021
324.069	5120
324.158	22196
324.246	18645
324.335	5324
324.424	8823
324.512	4051
324.601	8605
324.689	45453
324.778	85706
324.866	18165
324.954	3958
325.043	4012
325.131	7784
325.220	15899
325.308	17630
325.397	11920
325.485	7495
325.574	1907
325.662	1759
325.750	2492
325.839	2610
325.927	1842
326.015	3505
326.104	6514
326.192	9873
326.280	2049
326.369	2648
326.457	3833
326.545	7364
326.634	3015
326.722	1970
326.810	1701
326.898	2316
326.987	2017
327.075	6868
327.163	7796
327.251	7907
327.340	43089
327.428	64571
327.516	4274
327.604	3588
327.692	2782
327.781	3926
327.869	6708
327.957	3784
328.045	2789
328.133	2978
328.221	2865
328.309	2459
328.397	2551
328.485	2578
328.574	4136
328.662	15370
328.750	8624
328.838	3640
328.926	2154
329.014	1848
329.102	3517
329.190	10985
329.278	5318
329.366	1988
329.454	1788
329.542	2252
329.630	1298
329.718	2331
329.806	2345
329.893	2713
329.981	2158
330.069	2233
330.157	9640
330.245	28739
330.333	14292
330.421	3024
330.509	4090
330.597	18266
330.684	11079
330.772	4447
330.860	6225
330.948	8725
331.036	2176
331.123	832
331.211	1471
331.299	2648
331.387	7490
331.475	12493
331.562	3545
331.650	2244
331.738	2094
331.825	4012
331.913	1692
332.001	2131
332.089	2988
332.176	7336
332.264	18742
332.352	14677
332.439	4072
332.527	2449
332.614	2794
332.702	4230
332.790	2422
332.877	8969
332.965	19392
333.052	4530
333.140	5291
333.228	14643
333.315	3073
333.403	3743
333.490	12534
333.578	9899
333.665	18308
333.753	7560
333.840	2033
333.928	3080
334.015	11939
334.103	16407
334.190	50984
334.278	11544
334.365	4985
334.452	3708
334.540	1930
334.627	3795
334.715	4764
334.802	9900
334.889	70581
334.977	65987
335.064	6715
335.151	2382
335.239	3686
335.326	4491
335.413	24052
335.501	31461
335.588	3184
335.675	3555
335.762	3669
335.850	7009
335.937	4020
336.024	14133
336.111	72115
336.199	26486
336.286	4193
336.373	2893
336.460	1939
336.547	2731
336.635	3017
336.722	2043
336.809	1865
336.896	3776
336.983	12830
337.070	34974
337.157	48430
337.245	44877
337.332	30741
337.419	3290
337.506	1932
337.593	2078
337.680	10413
337.767	34264
337.854	8386
337.941	10967
338.028	15115
338.115	4371
338.202	5257
338.289	11317
338.376	46636
338.463	12223
338.550	19305
338.637	20657
338.724	7897
338.811	14950
338.898	2630
338.984	1494
339.071	2389
339.158	3628
339.245	8504
339.332	5845
339.419	8770
339.506	9312
339.593	678
339.679	2153
339.766	1371
339.853	2671
339.940	6124
340.027	1972
340.113	2545
340.200	3523
340.287	2022
340.374	3393
340.460	5857
340.547	1950
340.634	5449
340.720	17272
340.807	9186
340.894	2154
340.980	1756
341.067	2017
341.154	2645
341.240	3369
341.327	7951
341.414	3539
341.500	3536
341.587	2796
341.674	1940
341.760	6128
341.847	6552
341.933	2604
342.020	947
342.106	770
342.193	1399
342.279	3913
342.366	3361
342.452	5299
342.539	3123
342.625	7624
342.712	18665
342.798	7242
342.885	2661
342.971	1734
343.058	936
343.144	1850
343.230	1863
343.317	2651
343.403	1210
343.490	430
343.576	624
343.662	1641
343.749	1899
343.835	2925
343.921	4436
344.008	33473
344.094	75876
344.180	15973
344.267	5816
344.353	21229
344.439	23907
344.525	9272
344.612	3655
344.698	2500
344.784	964
344.870	2144
344.957	1557
345.043	3402
345.129	2044
345.215	6136
345.301	3005
345.387	2530
345.474	1168
345.560	1484
345.646	1740
345.732	2118
345.818	2682
345.904	2407
345.990	1914
346.076	2820
346.162	6046
346.249	2666
346.335	1847
346.421	1567
346.507	8085
346.593	31136
346.679	5735
346.765	2510
346.851	1980
346.937	1741
347.023	1475
347.108	2106
347.194	1244
347.280	2501
347.366	2701
347.452	8902
347.538	36015
347.624	27295
347.710	22263
347.796	3390
347.882	1829
347.967	2153
348.053	2412
348.139	2801
348.225	868
348.311	2084
348.397	878
348.482	2754
348.568	2705
348.654	916
348.740	1555
348.825	905
348.911	3782
348.997	16251
349.083	34144
349.168	5713
349.254	2596
349.340	1953
349.425	1225
349.511	2181
349.597	2630
349.682	5568
349.768	21063
349.854	9655
349.939	2625
350.025	1947
350.110	2034
350.196	1585
350.282	570
350.367	1785
350.453	3780
350.538	3777
350.624	2122
350.709	3347
350.795	1093
350.880	1573
350.966	2360
351.051	3840
351.137	2896
351.222	2058
351.308	6363
351.393	17720
351.479	4794
351.564	1544
351.649	1687
351.735	1962
351.820	1192
351.906	1759
351.991	2542
352.076	11933
352.162	17672
352.247	3734
352.332	1832
352.418	4620
352.503	5908
352.588	25732
352.673	21129
352.759	3972
352.844	1676
352.929	2950
353.014	2966
353.100	2811
353.185	3596
353.270	6021
353.355	6957
353.441	2152
353.526	1990
353.611	5757
353.696	6857
353.781	2499
353.866	733
353.952	2828
354.037	5370
354.122	13691
354.207	11176
354.292	5623
354.377	1273
354.462	1631
354.547	2254
354.632	2933
354.717	2863
354.802	3518
354.887	1423
354.972	2002
355.057	1417
355.142	1192
355.227	2067
355.312	3885
355.397	8248
355.482	21019
355.567	9434
355.652	7334
355.737	7359
355.822	24290
355.907	19624
355.991	3831
356.076	1425
356.161	2152
356.246	1055
356.331	2114
356.416	5504
356.501	40447
356.585	42473
356.670	5645
356.755	4681
356.840	4632
356.924	25464
357.009	97822
357.094	37380
357.179	7155
357.263	3817
357.348	5187
357.433	4864
357.517	4265
357.602	2801
357.687	2565
357.771	4539
357.856	13825
357.941	9318
358.025	20025
358.110	90907
358.195	43078
358.279	5889
358.364	4565
358.448	16428
358.533	45068
358.617	32591
358.702	32306
358.787	11570
358.871	6898
358.956	4743
359.040	2140
359.125	1462
359.209	1824
359.294	5782
359.378	11083
359.462	5771
359.547	3998
359.631	2077
359.716	1463
359.800	1610
359.885	4933
359.969	1535
360.053	2643
360.138	999
360.222	3799
360.306	5933
360.391	5710
360.475	8951
360.559	19711
360.644	16571
360.728	12890
360.812	21234
360.896	62577
360.981	24411
361.065	12264
361.149	3531
361.233	3922
361.318	2094
361.402	3447
361.486	3791
361.570	1899
361.654	2859
361.739	7963
361.823	38001
361.907	63072
361.991	10599
362.075	5137
362.159	11755
362.243	8718
362.327	5815
362.411	9517
362.495	5302
362.580	3280
362.664	1570
362.748	1817
362.832	2372
362.916	2477
363.000	12363
363.084	45390
363.168	70557
363.252	15965
363.336	4854
363.420	8256
363.503	30235
363.587	38953
363.671	5851
363.755	5250
363.839	5957
363.923	2597
364.007	6482
364.091	6672
364.175	9829
364.258	48699
364.342	28955
364.426	27464
364.510	14538
364.594	8508
364.677	11811
364.761	50340
364.845	39443
364.929	10775
365.013	8833
365.096	7479
365.180	8985
365.264	13368
365.347	50407
365.431	22666
365.515	5062
365.598	2182
365.682	3151
365.766	4927
365.849	6845
365.933	3616
366.017	4973
366.100	3474
366.184	444
366.267	2346
366.351	1828
366.435	1058
366.518	926
366.602	1375
366.685	1718
366.769	1975
366.852	4560
366.936	7981
367.019	4393
367.103	2744
367.186	8167
367.270	1838
367.353	607
367.436	2224
367.520	1168
367.603	2202
367.687	3202
367.770	7396
367.853	4297
367.937	13818
368.020	25347
368.104	5332
368.187	5743
368.270	8585
368.353	6685
368.437	11602
368.520	29699
368.603	16016
368.687	16790
368.770	34012
368.853	8091
368.936	7565
369.020	8669
369.103	2494
369.186	1372
369.269	1546
369.352	4305
369.436	7504
369.519	4453
369.602	1367
369.685	2996
369.768	2141
369.851	2488
369.934	1502
370.018	2104
370.101	5223
370.184	6614
370.267	3306
370.350	6037
370.433	10562
370.516	23925
370.599	33576
370.682	8680
370.765	17992
370.848	21758
370.931	40436
371.014	16862
371.097	2642
371.180	2434
371.263	1485
371.346	384
371.429	2325
371.511	1405
371.594	4607
371.677	7366
371.760	8345
371.843	6180
371.926	30422
372.009	71961
372.091	26401
372.174	15757
372.257	38337
372.340	16162
372.423	10744
372.505	13869
372.588	5680
372.671	12423
372.754	39051
372.836	21341
372.919	15035
373.002	30739
373.085	9418
373.167	6021
373.250	16276
373.332	36425
373.415	50358
373.498	102218
373.580	39123
373.663	41920
373.746	63005
373.828	14231
373.911	7564
373.993	6380
374.076	28449
374.159	28408
374.241	12582
374.324	31855
374.406	24811
374.489	27996
374.571	81897
374.654	35992
374.736	15415
374.819	49415
374.901	73446
374.983	76997
375.066	14110
375.148	4648
375.231	21760
375.313	44873
375.395	16135
375.478	3779
375.560	2380
375.643	4025
375.725	16227
375.807	64230
375.890	59219
375.972	26501
376.054	14125
376.136	23495
376.219	11586
376.301	17995
376.383	56165
376.465	22814
376.548	12232
376.630	15253
376.712	46447
376.794	23481
376.877	2850
376.959	797
377.041	2992
377.123	5626
377.205	7642
377.287	1478
377.369	1796
377.452	1397
377.534	2085
377.616	1683
377.698	1457
377.780	1137
377.862	2116
377.944	1825
378.026	720
378.108	1317
378.190	1195
378.272	2189
378.354	1176
378.436	971
378.518	2994
378.600	12472
378.682	11680
378.764	21569
378.846	19410
378.928	4843
379.010	6288
379.091	4445
379.173	1863
379.255	438
379.337	3050
379.419	10950
379.501	32729
379.583	13693
379.664	3510
379.746	7431
379.828	22552
379.910	30316
379.991	28407
380.073	4246
380.155	3436
380.237	2039
380.318	1354
380.400	2157
380.482	5306
380.564	6886
380.645	7277
380.727	6184
380.809	4640
380.890	2538
380.972	1391
381.053	2661
381.135	3528
381.217	7820
381.298	23546
381.380	12942
381.461	10357
381.543	45503
381.624	60996
381.706	11633
381.787	5415
381.869	6987
381.951	20455
382.032	76483
382.113	53547
382.195	9336
382.276	7952
382.358	15017
382.439	40157
382.521	49683
382.602	75215
382.684	37066
382.765	60910
382.846	79138
382.928	129397
383.009	76496
383.090	44776
383.172	161175
383.253	266918
383.334	90530
383.416	68833
383.497	38477
383.578	19131
383.659	36520
383.741	134741
383.822	351577
383.903	199783
383.984	56296
384.066	81884
384.147	53551
384.228	12698
384.309	7814
384.390	6071
384.471	4572
384.553	4548
384.634	7076
384.715	8412
384.796	3897
384.877	5481
384.958	20133
385.039	26647
385.120	9645
385.201	4773
385.282	5104
385.363	6216
385.444	4774
385.525	9335
385.606	30387
385.687	29280
385.768	7698
385.849	9754
385.930	33895
386.011	60537
386.092	17325
386.173	3645
386.254	2691
386.335	4661
386.416	3480
386.496	13869
386.577	23132
386.658	9342
386.739	5088
386.820	6139
386.901	2937
386.981	3649
387.062	1904
387.143	5292
387.224	21480
387.304	22262
387.385	8622
387.466	3169
387.547	6858
387.627	3486
387.708	8122
387.789	38002
387.869	49552
387.950	14451
388.031	1337
388.111	489
388.192	7780
388.273	12541
388.353	6970
388.434	3779
388.514	8598
388.595	36308
388.676	48164
388.756	24126
388.837	20192
388.917	14550
388.998	1480
389.078	3189
389.159	2369
389.239	1812
389.320	4863
389.400	2635
389.480	9036
389.561	22873
389.641	13265
389.722	4518
389.802	6228
389.883	9846
389.963	27708
390.043	19877
390.124	6018
390.204	8580
390.284	25052
390.365	17807
390.445	18996
390.525	44105
390.605	37347
390.686	12043
390.766	4145
390.846	3134
390.927	1638
391.007	1681
391.087	3175
391.167	2997
391.247	681
391.328	5111
391.408	7037
391.488	5351
391.568	-148
391.648	2618
391.728	4801
391.808	4992
391.888	4511
391.969	12415
392.049	20022
392.129	10830
392.209	9739
392.289	25858
392.369	16153
392.449	12228
392.529	8057
392.609	6356
392.689	7770
392.769	24431
392.849	23028
392.929	16160
393.009	35965
393.089	26937
393.169	18369
393.248	59837
393.328	242878
393.408	281670
393.488	69481
393.568	16183
393.648	7654
393.728	4649
393.807	3357
393.887	3628
393.967	3047
394.047	3921
394.127	4626
394.206	8510
394.286	31158
394.366	135350
394.446	156233
394.525	34685
394.605	7119
394.685	6817
394.764	17757
394.844	29688
394.924	21504
395.003	5737
395.083	3354
395.163	3444
395.242	3029
395.322	4118
395.402	1199
395.481	4997
395.561	11351
395.640	33877
395.720	27199
395.799	35461
395.879	29447
395.958	12726
396.038	44640
396.117	179729
396.197	207568
396.276	57926
396.356	18162
396.435	12909
396.515	9281
396.594	8628
396.673	17788
396.753	68693
396.832	226095
396.912	183881
396.991	42259
397.070	10689
397.150	3876
397.229	4189
397.308	3912
397.388	8001
397.467	4291
397.546	2767
397.625	521
397.705	4438
397.784	3460
397.863	1485
397.942	1337
398.022	1673
398.101	9904
398.180	32196
398.259	17524
398.338	4415
398.417	1682
398.497	1625
398.576	2086
398.655	-118
398.734	1389
398.813	1949
398.892	9518
398.971	34129
399.050	18918
399.129	1430
399.208	681
399.287	1660
399.366	363
399.445	772
399.524	1242
399.603	331
399.682	3558
399.761	10600
399.840	36640
399.919	31872
399.998	3456
400.077	-146
400.156	-221
400.235	2520
400.313	366
400.392	1131
400.471	10871
400.550	19928
400.629	4571
400.708	2969
400.786	1766
400.865	7503
400.944	8179
401.023	4979
401.102	634
401.180	272
401.259	271
401.338	1141
401.416	2935
401.495	1323
401.574	1904
401.652	867
401.731	2219
401.810	1547
401.888	604
401.967	-303
402.046	747
402.124	1989
402.203	2294
402.281	2803
402.360	1943
402.438	8833
402.517	6265
402.596	1839
402.674	925
402.753	572
402.831	788
402.910	1898
402.988	5221
403.066	19632
403.145	13204
403.223	6809
403.302	14746
403.380	13081
403.459	11461
403.537	4480
403.615	1478
403.694	-1007
403.772	99
403.850	-70
403.929	-584
404.007	261
404.085	2253
404.164	1746
404.242	303
404.320	1991
404.398	3657
404.477	11964
404.555	55830
404.633	55338
404.711	8014
404.789	2225
404.868	541
404.946	-259
405.024	359
405.102	422
405.180	495
405.258	-15
405.336	554
405.415	729
405.493	1930
405.571	2261
405.649	-114
405.727	-309
405.805	2124
405.883	1697
405.961	1851
406.039	1753
406.117	614
406.195	2240
406.273	12442
406.351	50028
406.429	33137
406.507	4858
406.585	924
406.663	1620
406.740	1689
406.818	1250
406.896	617
406.974	1487
407.052	3101
407.130	27207
407.208	42680
407.285	8826
407.363	238
407.441	1218
407.519	202
407.596	678
407.674	2691
407.752	7024
407.830	9834
407.907	4844
407.985	384
408.063	671
408.141	-842
408.218	2349
408.296	1263
408.373	824
408.451	592
408.529	823
408.606	68
408.684	-1019
408.762	-122
408.839	87
408.917	184
408.994	332
409.072	-960
409.149	563
409.227	1705
409.304	1673
409.382	746
409.459	491
409.537	1623
409.614	2012
409.692	309
409.769	602
409.846	1431
409.924	3502
410.001	613
410.079	1569
410.156	702
410.233	1117
410.311	-253
410.388	-36
410.465	972
410.543	518
410.620	-32
410.697	825
410.775	428
410.852	-338
410.929	962
411.006	2132
411.083	14
411.161	2305
411.238	4505
411.315	1925
411.392	-143
411.469	1222
411.547	1152
411.624	-548
411.701	-226
411.778	225
411.855	3023
411.932	593
412.009	335
412.086	589
412.163	490
412.240	1154
412.317	741
412.394	1272
412.471	-345
412.548	-215
412.625	26
412.702	1197
412.779	2205
412.856	2122
412.933	-582
413.010	248
413.087	1357
413.164	9278
413.241	15090
413.318	2852
413.395	1787
413.471	3032
413.548	654
413.625	1224
413.702	-237
413.779	617
413.855	-700
413.932	-240
414.009	-763
414.086	115
414.162	102
414.239	2089
414.316	9135
414.393	24095
414.469	7525
414.546	-19
414.623	-964
414.699	394
414.776	-402
414.853	-149
414.929	335
415.006	-110
415.082	-248
415.159	403
415.236	-181
415.312	350
415.389	1512
415.465	2508
415.542	785
415.618	-176
415.695	923
415.771	848
415.848	747
415.924	637
416.000	-477
416.077	286
416.153	-2177
416.230	-971
416.306	-478
416.383	-598
416.459	-148
416.535	-216
416.612	-572
416.688	-677
416.764	-416
416.841	-565
416.917	-188
416.993	15
417.069	-90
417.146	948
417.222	1256
417.298	459
417.374	-258
417.451	894
417.527	188
417.603	875
417.679	436
417.755	154
417.831	-947
417.908	-101
417.984	-917
418.060	-138
418.136	1850
418.212	2975
418.288	959
418.364	434
418.440	-673
418.516	1130
418.592	1550
418.668	4594
418.744	6338
418.820	5055
418.896	-62
418.972	-1312
419.048	-271
419.124	3475
419.200	1330
419.276	-880
419.352	-901
419.428	137
419.504	-741
419.579	470
419.655	24
419.731	1648
419.807	3852
419.883	8155
419.959	5388
420.034	1835
420.110	3101
420.186	13336
420.262	12563
420.337	1604
420.413	-127
420.489	-232
420.565	381
420.640	-331
420.716	143
420.792	-1478
420.867	31
420.943	-52
421.019	-157
421.094	206
421.170	-66
421.245	-142
421.321	98
421.397	-638
421.472	487
421.548	2540
421.623	2741
421.699	1170
421.774	1077
421.850	75
421.925	2327
422.001	2854
422.076	1440
422.152	1384
422.227	3166
422.302	4589
422.378	5788
422.453	10658
422.529	27455
422.604	85058
422.679	153624
422.755	101720
422.830	33451
422.905	11758
422.981	5439
423.056	3487
423.131	2680
423.207	2053
423.282	1744
423.357	4802
423.432	2380
423.508	3041
423.583	7054
423.658	5802
423.733	742
423.808	1038
423.883	1241
423.959	1458
424.034	289
424.109	1051
424.184	-241
424.259	-725
424.334	-63
424.409	-198
424.484	-814
424.559	325
424.634	-380
424.709	933
424.784	1505
424.859	829
424.934	1258
425.009	10235
425.084	17972
425.159	6360
425.234	557
425.309	191
425.384	2646
425.459	5671
425.534	1876
425.609	491
425.683	-614
425.758	131
425.833	96
425.908	1633
425.983	5447
426.058	19160
426.132	8420
426.207	1559
426.282	3157
426.357	1562
426.431	-69
426.506	780
426.581	306
426.655	-97
426.730	404
426.805	-461
426.879	239
426.954	24
427.029	2661
427.103	17289
427.178	43910
427.253	22382
427.327	2502
427.402	2056
427.476	6458
427.551	3394
427.625	709
427.700	889
427.774	-692
427.849	1113
427.923	-346
427.998	163
428.072	491
428.147	2580
428.221	9947
428.296	30215
428.370	17693
428.444	2438
428.519	2817
428.593	6927
428.667	5609
428.742	7977
428.816	7115
428.890	20424
428.965	33950
429.039	13463
429.113	8227
429.188	3691
429.262	604
429.336	1244
429.410	8639
429.485	6539
429.559	5702
429.633	5670
429.707	807
429.781	4201
429.855	23161
429.930	40185
430.004	24398
430.078	35858
430.152	31331
430.226	38709
430.300	44538
430.374	7241
430.448	2625
430.522	10374
430.596	32640
430.670	22325
430.744	38116
430.818	64944
430.892	15390
430.966	1868
431.040	579
431.114	-620
431.188	-613
431.262	-530
431.336	247
431.410	3586
431.484	8936
431.557	6837
431.631	372
431.705	42
431.779	4123
431.853	25106
431.927	20279
432.000	2943
432.074	313
432.148	349
432.222	654
432.295	575
432.369	-95
432.443	2173
432.516	16194
432.590	46283
432.664	19836
432.737	1705
432.811	-344
432.885	330
432.958	310
433.032	-214
433.106	-511
433.179	-335
433.253	-993
433.326	-795
433.400	-1339
433.473	-637
433.547	-1194
433.620	107
433.694	870
433.767	2383
433.841	-402
433.914	-519
433.988	-303
434.061	632
434.134	-1156
434.208	-311
434.281	-628
434.355	-378
434.428	-208
434.501	-195
434.575	-880
434.648	101
434.721	184
434.795	-948
434.868	-832
434.941	-471
435.014	-1043
435.088	-389
435.161	456
435.234	2625
435.307	2288
435.381	668
435.454	274
435.527	820
435.600	579
435.673	397
435.746	-394
435.819	-207
435.892	-451
435.966	-293
436.039	-396
436.112	-2
436.185	-1083
436.258	-706
436.331	-708
436.404	-1135
436.477	-1098
436.550	-418
436.623	-356
436.696	-990
436.769	-264
436.842	81
436.915	-120
436.987	587
437.060	388
437.133	-609
437.206	-1242
437.279	-178
437.352	-1067
437.425	-617
437.498	25
437.570	1982
437.643	2644
437.716	278
437.789	-181
437.861	1741
437.934	7443
438.007	3953
438.080	-923
438.152	123
438.225	2976
438.298	22925
438.370	67977
438.443	33234
438.516	7577
438.588	2020
438.661	-806
438.734	-120
438.806	-4
438.879	975
438.951	849
439.024	3412
439.096	814
439.169	390
439.241	-694
439.314	550
439.386	152
439.459	2216
439.531	4002
439.604	1427
439.676	-667
439.749	253
439.821	-650
439.893	567
439.966	-457
440.038	681
440.110	1123
440.183	112
440.255	-803
440.327	1362
440.400	8385
440.472	41562
440.544	32558
440.617	4981
440.689	1910
440.761	4032
440.833	5643
440.905	5115
440.978	-761
441.050	259
441.122	-109
441.194	-324
441.266	454
441.338	-128
441.411	606
441.483	12241
441.555	21879
441.627	5528
441.699	1339
441.771	1460
441.843	553
441.915	304
441.987	-1316
442.059	-92
442.131	291
442.203	1891
442.275	1753
442.347	2517
442.419	2251
442.491	11320
442.563	34690
442.635	19807
442.706	10701
442.778	10408
442.850	2078
442.922	126
442.994	483
443.066	2116
443.137	1110
443.209	499
443.281	1319
443.353	4960
443.425	16384
443.496	60890
443.568	68339
443.640	27740
443.711	5016
443.783	994
443.855	142
443.926	71
443.998	1045
444.070	1034
444.141	820
444.213	2187
444.285	2900
444.356	3171
444.428	1588
444.499	224
444.571	166
444.642	457
444.714	305
444.785	1821
444.857	2998
444.928	7833
445.000	4742
445.071	5274
445.143	6794
445.214	4323
445.285	4723
445.357	16854
445.428	42367
445.500	104498
445.571	77238
445.642	39063
445.714	14882
445.785	15699
445.856	5121
445.928	4256
445.999	3476
446.070	2953
446.141	1944
446.213	3712
446.284	1330
446.355	1580
446.426	-186
446.497	919
446.569	1952
446.640	4753
446.711	3080
446.782	892
446.853	1608
446.924	1803
446.995	1329
447.066	730
447.138	1811
447.209	2095
447.280	-767
447.351	-540
447.422	-881
447.493	497
447.564	1732
447.635	2797
447.706	585
447.777	273
447.847	-614
447.918	55
447.989	1319
448.060	2870
448.131	5467
448.202	5864
448.273	4470
448.344	2603
448.414	250
448.485	228
448.556	-184
448.627	-211
448.698	519
448.768	-23
448.839	110
448.910	1698
448.981	2207
449.051	1689
449.122	23
449.193	387
449.263	-223
449.334	324
449.405	1024
449.475	3641
449.546	3849
449.616	3125
449.687	3607
449.758	1312
449.828	-325
449.899	11
449.969	-287
450.040	-315
450.110	920
450.181	1870
450.251	580
450.322	1112
450.392	1186
450.463	214
450.533	-343
450.604	356
450.674	336
450.744	697
450.815	-7
450.885	602
450.955	26
451.026	899
451.096	60
451.166	1268
451.237	3229
451.307	9736
451.377	5491
451.447	679
451.518	14
451.588	229
451.658	222
451.728	2214
451.799	9328
451.869	14349
451.939	2453
452.009	1209
452.079	-704
452.149	411
452.219	2371
452.289	12099
452.360	11058
452.430	2467
452.500	1128
452.570	1911
452.640	2857
452.710	7381
452.780	14123
452.850	11041
452.920	10568
452.990	4479
453.060	2021
453.129	2865
453.199	4128
453.269	12287
453.339	32609
453.409	52986
453.479	43494
453.549	69126
453.619	76992
453.688	37215
453.758	5377
453.828	1440
453.898	1490
453.968	643
454.037	710
454.087	421
454.107	289
454.168	122
454.177	77
454.247	476
454.249	505
454.316	686
454.330	895
454.386	1351
454.411	3231
454.456	5754
454.492	8478
454.525	10948
454.574	6684
454.595	4926
454.655	1714
454.665	1225
454.734	2767
454.736	2930
454.804	5711
454.817	7440
454.873	12393
454.898	13970
454.943	16425
454.979	11021
455.013	6611
455.060	4171
455.082	3380
455.141	4222
455.152	4131
455.221	10491
455.222	10754
455.291	17353
455.303	15721
455.360	9800
455.384	9342
455.430	8527
455.465	8911
455.499	8593
455.546	11428
455.569	11882
455.627	9308
455.638	9184
455.707	2440
455.708	2448
455.777	1436
455.789	1477
455.846	1506
455.869	1452
455.916	1413
455.950	1753
455.985	1952
456.031	1600
456.054	1405
456.112	1403
456.124	1471
456.193	1986
456.193	1966
456.262	2218
456.274	2475
456.332	3601
456.355	3574
456.401	2481
456.436	1778
456.470	1274
456.516	698
456.540	566
456.597	971
456.609	1059
456.678	1105
456.678	1093
456.747	968
456.759	759
456.817	-29
456.840	255
456.886	773
456.920	981
456.955	1376
457.001	2118
457.024	2608
457.082	3499
457.093	3735
457.162	6166
457.163	6215
457.232	5643
457.243	5072
457.301	2319
457.324	1468
457.370	942
457.405	1514
457.439	2077
457.485	1668
457.508	1503
457.566	2435
457.577	2601
457.646	3391
457.647	3411
457.715	4846
457.727	5290
457.784	7670
457.808	8972
457.853	9836
457.889	11023
457.922	11288
457.969	9033
457.991	9510
458.050	11756
458.060	12110
458.129	17602
458.130	17799
458.198	14467
458.211	12747
458.267	8916
458.292	6652
458.336	4780
458.372	4853
458.405	6538
458.453	10227
458.474	12418
458.533	19685
458.543	19893
458.611	26060
458.614	26230
458.680	17537
458.694	13956
458.749	8266
458.775	6447
458.818	4037
458.855	3315
458.887	2807
458.936	2667
458.955	2660
459.016	2610
459.024	2582
459.093	3414
459.097	3409
459.162	3067
459.177	3136
459.230	3896
459.257	4376
459.299	4668
459.338	4626
459.368	4723
459.418	5239
459.437	4996
459.499	3678
459.505	3657
459.574	2944
459.579	2932
459.643	2750
459.659	2729
459.711	3087
459.740	3446
459.780	3569
459.820	3521
459.849	3712
459.900	4549
459.917	4488
459.981	3319
459.986	3254
460.054	3413
460.061	3405
460.123	3875
460.141	3996
460.191	4845
460.222	5352
460.260	5456
460.302	6133
460.328	5997
460.382	4584
460.397	4445
460.462	3757
460.465	3830
460.534	6342
460.543	6635
460.602	11802
460.623	13956
460.671	20854
460.703	27136
460.739	22743
460.783	16213
460.808	15344
460.864	7452
460.876	6573
460.944	4221
460.945	4190
461.013	3454
461.024	3365
461.081	3707
461.104	4096
461.150	3941
461.184	3717
461.218	3683
461.264	3422
461.286	3602
461.345	3866
461.355	3790
461.423	4062
461.425	4049
461.491	5932
461.505	6504
461.559	14272
461.585	17804
461.628	28048
461.665	37526
461.696	36742
461.745	37656
461.764	32023
461.825	9349
461.832	9241
461.901	6001
461.905	6004
461.969	4734
461.985	4414
462.037	5192
462.065	5596
462.105	7301
462.145	9245
462.173	12847
462.225	19541
462.241	21402
462.305	29744
462.310	28595
462.378	10724
462.385	8387
462.446	5613
462.465	5134
462.514	4803
462.545	4643
462.582	4555
462.625	4712
462.650	4664
462.705	4552
462.718	4926
462.785	6740
462.786	6808
462.854	10912
462.865	11609
462.922	12968
462.945	13658
462.990	9502
463.025	5531
463.058	4909
463.104	4114
463.126	3941
463.184	4039
463.194	4104
463.262	3981
463.264	4005
463.330	5283
463.344	5455
463.398	6173
463.424	6547
463.466	6194
463.504	5887
463.533	6434
463.583	7297
463.601	7474
463.663	8004
463.669	8424
463.737	13254
463.743	13697
463.805	23034
463.823	25767
463.873	38790
463.903	46946
463.940	43990
463.982	41191
464.008	31813
464.062	9962
464.076	9431
464.142	5686
464.144	5635
464.211	5062
464.221	5084
464.279	5671
464.301	5739
464.347	6483
464.381	7231
464.414	8874
464.461	11061
464.482	10947
464.540	10915
464.550	10470
464.617	6693
464.620	6561
464.685	7516
464.699	7667
464.753	8129
464.779	8529
464.820	9751
464.859	10787
464.888	10831
464.938	10846
464.956	11011
465.018	11468
465.023	11182
465.091	7375
465.098	6966
465.158	7338
465.177	7461
465.226	7317
465.257	7267
465.293	7861
465.336	8442
465.361	9362
465.416	11381
465.428	13334
465.495	24204
465.496	24355
465.563	42134
465.575	45214
465.631	47234
465.654	48262
465.698	27775
465.734	9964
465.765	8906
465.813	7048
465.833	6643
465.893	6269
465.900	6284
465.968	6318
465.972	6325
466.035	6766
466.052	6810
466.102	6920
466.131	7068
466.170	7055
466.210	6926
466.237	7073
466.290	7402
466.304	7467
466.369	7601
466.372	7680
466.439	9913
466.449	10204
466.506	12341
466.528	13141
466.573	23085
466.607	30513
466.641	44268
466.687	63324
466.708	66042
466.766	73396
466.775	66901
466.842	17108
466.845	14713
466.909	11790
466.925	11168
466.977	9991
467.004	9458
467.044	10071
467.083	10661
467.111	11019
467.163	11663
467.178	11836
467.242	12498
467.245	12498
467.312	12217
467.321	12170
467.379	12333
467.400	12359
467.446	14959
467.480	16808
467.559	12599
467.638	11094
467.717	10284
467.796	10737
467.875	13757
467.955	15303
468.034	33618
468.113	74849
468.192	92456
468.271	14200
468.350	10803
468.429	12393
468.508	12521
468.588	10353
468.667	12275
468.746	11239
468.825	10122
468.904	9868
468.983	14991
469.062	26154
469.141	27212
469.220	8140
469.299	9323
469.378	9146
469.456	10016
469.535	9450
469.614	10129
469.693	12361
469.772	19523
469.851	28796
469.930	13595
470.009	9418
470.088	10228
470.166	15231
470.245	22569
470.324	26054
470.403	14446
470.482	10450
470.560	9167
470.639	9917
470.718	12602
470.797	9726
470.875	15290
470.954	21903
471.033	21035
471.111	7560
471.190	7186
471.269	6659
471.347	7437
471.426	8601
471.505	10601
471.583	8737
471.662	7980
471.740	7231
471.819	7632
471.898	6594
471.976	8529
472.055	7454
472.133	10667
472.212	16847
472.290	16479
472.369	7733
472.447	7394
472.526	6545
472.604	6875
472.683	7259
472.761	8851
472.839	7646
472.918	7745
472.996	9168
473.075	12213
473.153	9547
473.231	8882
473.310	10972
473.388	10599
473.466	9170
473.545	9823
473.623	12936
473.701	11968
473.780	7358
473.858	7113
473.936	9754
474.014	9525
474.093	11552
474.171	20357
474.249	32546
474.327	12318
474.405	6181
474.484	6476
474.562	6949
474.640	8540
474.718	8731
474.796	8533
474.874	7372
474.952	6886
475.030	6751
475.108	7666
475.187	8344
475.265	9527
475.343	11869
475.421	11278
475.499	6903
475.577	9843
475.655	18510
475.733	42979
475.811	70689
475.889	62755
475.966	26567
476.044	8060
476.122	9508
476.200	12780
476.278	9083
476.356	7927
476.434	9317
476.512	11102
476.590	12648
476.667	10537
476.745	7226
476.823	9060
476.901	8828
476.979	9394
477.056	8387
477.134	8870
477.212	8952
477.290	7930
477.367	6560
477.445	8124
477.523	7388
477.601	7467
477.678	7898
477.756	12187
477.834	12247
477.911	7289
477.989	8003
478.066	8593
478.144	10289
478.222	9301
478.299	13301
478.377	10086
478.454	7224
478.532	7232
478.609	7437
478.687	8560
478.764	6757
478.842	8492
478.919	8320
478.997	7935
479.074	8478
479.152	12026
479.229	16744
479.307	7263
479.384	6624
479.461	7239
479.539	7896
479.616	10635
479.694	8536
479.771	10982
479.848	11878
479.926	18158
480.003	15344
480.080	7197
480.157	7045
480.235	7717
480.312	7749
480.389	12206
480.467	22283
480.544	23453
480.621	8820
480.698	9642
480.775	11222
480.853	11710
480.930	8151
481.007	8885
481.084	11572
481.161	11937
481.238	9849
481.315	7103
481.392	6969
481.470	7474
481.547	8641
481.624	7362
481.701	7728
481.778	9499
481.855	11471
481.932	20599
482.009	37416
482.086	15707
482.163	7824
482.240	11272
482.317	16394
482.393	10949
482.470	8641
482.547	9138
482.624	6533
482.701	8631
482.778	7308
482.855	5320
482.932	5260
483.009	6635
483.085	8100
483.162	10533
483.239	9472
483.316	6709
483.393	7406
483.469	8074
483.546	10287
483.623	10351
483.699	7673
483.776	7450
483.853	11747
483.930	22194
484.006	61251
484.083	88691
484.160	21887
484.236	27014
484.313	19986
484.389	16028
484.466	14128
484.543	14849
484.619	15687
484.696	18519
484.772	20386
484.849	20535
484.925	13233
485.002	15935
485.078	16341
485.155	16324
485.231	13498
485.308	13793
485.384	15213
485.461	27509
485.537	53450
485.614	51709
485.690	13791
485.766	13940
485.843	15537
485.919	22547
485.995	19919
486.072	12229
486.148	11394
486.224	13091
486.301	14871
486.377	19019
486.453	16929
486.530	15022
486.606	18334
486.682	23547
486.758	38698
486.835	44067
486.911	35647
486.987	67036
487.063	49199
487.139	53841
487.215	33067
487.292	14624
487.368	14770
487.444	16560
487.520	22498
487.596	20124
487.672	35075
487.748	83126
487.824	96333
487.900	25224
487.976	17382
488.052	19375
488.128	23512
488.204	17543
488.280	16055
488.356	26564
488.432	68468
488.508	88697
488.584	17536
488.660	13246
488.736	12812
488.812	13856
488.888	18165
488.964	28337
489.039	62397
489.115	82951
489.191	35340
489.267	14694
489.343	12657
489.418	10734
489.494	10567
489.570	10089
489.646	11882
489.722	10794
489.797	15560
489.873	34551
489.949	77824
490.024	41590
490.100	11117
490.176	11556
490.251	15188
490.327	18818
490.403	10029
490.478	10452
490.554	7687
490.629	9531
490.705	9521
490.781	10910
490.856	11657
490.932	12795
491.007	12658
491.083	11720
491.158	12583
491.234	24876
491.309	60438
491.385	43165
491.460	11841
491.536	13001
491.611	10210
491.686	12392
491.762	18404
491.837	42176
491.913	67096
491.988	98845
492.063	93681
492.139	35526
492.214	16947
492.289	8580
492.365	9149
492.440	12491
492.515	13448
492.590	11018
492.666	10124
492.741	19681
492.816	28616
492.891	10062
492.967	7978
493.042	6642
493.117	6319
493.192	8177
493.267	11695
493.342	23017
493.418	22443
493.493	8298
493.568	7714
493.643	8671
493.718	14759
493.793	24492
493.868	18988
493.943	10707
494.018	8275
494.093	8786
494.168	8784
494.243	6789
494.318	6751
494.393	7035
494.468	6634
494.543	6956
494.618	8633
494.693	8386
494.768	8459
494.842	7245
494.917	5635
494.992	7796
495.067	5666
495.142	7079
495.217	7571
495.292	8014
495.366	9577
495.441	11964
495.516	15629
495.591	29790
495.665	93179
495.740	176598
495.815	45665
495.890	12940
495.964	9195
496.039	11953
496.114	9597
496.188	11261
496.263	10508
496.338	10544
496.412	13583
496.487	16148
496.561	15439
496.636	13861
496.710	12391
496.785	15170
496.860	16991
496.934	11314
497.009	11272
497.083	10711
497.158	11765
497.232	17127
497.307	20017
497.381	16077
497.455	22085
497.530	28053
497.604	16265
497.679	20450
497.753	35515
497.827	38272
497.902	32679
497.976	49719
498.050	155184
498.125	475920
498.199	310659
498.273	43618
498.348	32639
498.422	25319
498.496	24558
498.570	21723
498.645	17106
498.719	18654
498.793	26657
498.867	48333
498.941	74948
499.016	227306
499.090	465870
499.164	83152
499.238	14462
499.312	13713
499.386	17060
499.460	15637
499.534	16203
499.609	23200
499.683	35600
499.757	38259
499.831	114912
499.905	359054
499.979	213689
500.053	42582
500.127	35654
500.201	21044
500.275	14481
500.349	14220
500.422	18356
500.496	33355
500.570	77468
500.644	213619
500.718	307463
500.792	35862
500.866	16682
500.940	24311
501.013	16912
501.087	18031
501.161	30998
501.235	54384
501.309	148011
501.382	344494
501.456	187610
501.530	58874
501.603	98298
501.677	22842
501.751	13090
501.825	21865
501.898	53427
501.972	135528
502.046	48814
502.119	21526
502.193	66586
502.266	138471
502.340	45222
502.413	73450
502.487	114905
502.561	54150
502.634	13532
502.708	11737
502.781	9777
502.855	9188
502.928	7704
503.002	8356
503.075	8450
503.149	8831
503.222	9138
503.295	11618
503.369	16278
503.442	34753
503.516	124015
503.589	248050
503.662	114721
503.736	48853
503.809	119556
503.882	77063
503.956	136852
504.029	82630
504.102	51506
504.175	51122
504.249	16366
504.322	16792
504.395	12855
504.468	10086
504.542	9603
504.615	5017
504.688	6440
504.761	7285
504.834	10450
504.907	12182
504.980	16433
505.053	8685
505.127	10643
505.200	16078
505.273	17926
505.346	9338
505.419	7084
505.492	6904
505.565	3799
505.638	5874
505.711	5883
505.784	6058
505.857	4976
505.930	7220
506.003	5597
506.076	8244
506.149	12791
506.221	15504
506.294	20078
506.367	64552
506.440	169921
506.513	50754
506.586	15674
506.659	7225
506.731	6969
506.804	10913
506.877	13287
506.950	8019
507.022	8646
507.095	12876
507.168	12537
507.241	7058
507.313	4673
507.386	6409
507.459	10650
507.531	5189
507.604	5635
507.677	6020
507.749	3761
507.822	8521
507.894	14128
507.967	12659
508.040	6505
508.112	7202
508.185	6894
508.257	7758
508.330	10451
508.402	6053
508.475	8270
508.547	8524
508.620	9523
508.692	18023
508.765	6618
508.837	4406
508.909	5275
508.982	5924
509.054	7276
509.127	5490
509.199	4196
509.271	5014
509.344	4306
509.416	4824
509.488	5688
509.560	5910
509.633	6044
509.705	7546
509.777	6621
509.849	10029
509.922	5245
509.994	4711
510.066	5882
510.138	5617
510.210	11504
510.283	8287
510.355	7996
510.427	8015
510.499	12656
510.571	13610
510.643	7260
510.715	13397
510.787	8676
510.859	9222
510.931	10352
511.003	11532
511.076	9614
511.148	6306
511.219	8150
511.291	20762
511.363	17149
511.435	5767
511.507	4803
511.579	6328
511.651	5913
511.723	5166
511.795	5275
511.867	7281
511.939	12059
512.010	30865
512.082	14593
512.154	6510
512.226	6511
512.298	10741
512.369	12286
512.441	10934
512.513	11415
512.585	7780
512.656	9302
512.728	10036
512.800	6668
512.871	7424
512.943	7287
513.015	5831
513.086	6819
513.158	7947
513.230	8216
513.301	14067
513.373	13589
513.444	6802
513.516	5649
513.588	6184
513.659	7476
513.731	9801
513.802	8764
513.874	23646
513.945	31690
514.016	8243
514.088	6348
514.159	7556
514.231	11964
514.302	11889
514.374	9504
514.445	13266
514.516	32545
514.588	15477
514.659	12735
514.730	27518
514.802	14113
514.873	8670
514.944	10028
515.016	9266
515.087	10322
515.158	20191
515.229	24152
515.301	13004
515.372	13380
515.443	7930
515.514	6367
515.585	5709
515.656	6616
515.728	6618
515.799	6723
515.870	7853
515.941	7854
516.012	7522
516.083	10256
516.154	11413
516.225	15927
516.296	14131
516.367	12094
516.438	15587
516.509	22752
516.580	45521
516.651	155592
516.722	398959
516.793	100552
516.864	26198
516.935	27157
517.006	35758
517.077	60435
517.148	163535
517.219	555322
517.289	579941
517.360	182852
517.431	38051
517.502	14546
517.573	14991
517.643	13859
517.714	14857
517.785	15073
517.856	15299
517.926	19807
517.997	23532
518.068	30881
518.138	50117
518.209	109825
518.280	406737
518.350	1007217
518.421	231736
518.492	29996
518.562	21926
518.633	20767
518.703	18234
518.774	35232
518.845	73772
518.915	50821
518.986	20395
519.056	23201
519.127	40155
519.197	73724
519.268	176883
519.338	66994
519.408	19046
519.479	20682
519.549	13439
519.620	10670
519.690	7044
519.760	8633
519.831	9698
519.901	7700
519.971	8729
520.042	9847
520.112	11613
520.182	11473
520.253	11610
520.323	8622
520.393	11463
520.463	15349
520.534	12715
520.604	23799
520.674	13412
520.744	15283
520.814	29242
520.885	29467
520.955	75536
521.025	197345
521.095	39091
521.165	9622
521.235	9836
521.305	7402
521.375	7566
521.445	8704
521.515	10966
521.585	13019
521.655	10965
521.725	13500
521.795	14539
521.865	9321
521.935	18118
522.005	11135
522.075	6891
522.145	9506
522.215	12159
522.285	19404
522.355	30767
522.424	57781
522.494	34991
522.564	16239
522.634	37866
522.704	76784
522.774	18275
522.843	8325
522.913	8456
522.983	9838
523.053	7520
523.122	9749
523.192	16163
523.262	49704
523.331	30736
523.401	7556
523.471	5332
523.540	6490
523.610	3850
523.680	6318
523.749	7512
523.819	10471
523.888	8477
523.958	5706
524.027	7115
524.097	6914
524.166	6619
524.236	5603
524.305	8304
524.375	5183
524.444	4990
524.514	8259
524.583	8165
524.653	10031
524.722	11891
524.791	5580
524.861	7215
524.930	4923
524.999	7336
525.069	10752
525.138	9754
525.207	11576
525.277	6388
525.346	7597
525.415	6851
525.484	6836
525.554	10426
525.623	8273
525.692	7139
525.761	6732
525.830	8036
525.900	9828
525.969	17899
526.038	25815
526.107	55082
526.176	119819
526.245	72076
526.314	36105
526.383	76082
526.452	79488
526.522	162794
526.591	113255
526.660	40035
526.729	19820
526.797	31664
526.867	77695
526.935	261233
527.004	345850
527.073	109815
527.142	11742
527.211	8375
527.280	10754
527.349	9157
527.418	4919
527.487	6707
527.555	5007
527.624	4676
527.693	3368
527.762	5639
527.831	3915
527.899	5305
527.968	5710
528.037	4789
528.106	8753
528.174	15851
528.243	12142
528.312	23757
528.380	20228
528.449	5973
528.518	5790
528.586	3358
528.655	5703
528.723	4375
528.792	3995
528.861	5075
528.929	3230
528.998	5247
529.066	3526
529.135	3511
529.203	4305
529.272	3454
529.340	3639
529.409	5505
529.477	3293
529.545	8308
529.614	9886
529.682	10891
529.751	9857
529.819	13222
529.887	6309
529.956	4355
530.024	6389
530.092	3970
530.161	7178
530.229	9433
530.297	4895
530.365	4808
530.434	4031
530.502	3022
530.570	4241
530.638	2599
530.707	3794
530.775	6244
530.843	4216
530.911	3160
530.979	2843
531.047	2943
531.115	4553
531.183	3828
531.252	4565
531.320	4508
531.388	3442
531.456	4400
531.524	1641
531.592	5193
531.660	5587
531.728	3000
531.796	3871
531.864	4302
531.932	4384
532.000	3945
532.067	3743
532.135	4970
532.203	6364
532.271	7343
532.339	14693
532.407	34134
532.475	13801
532.542	8051
532.610	10657
532.678	19061
532.746	76266
532.814	121197
532.881	20868
532.949	6037
533.017	4573
533.084	4433
533.152	4217
533.220	5015
533.287	4680
533.355	3791
533.423	5074
533.490	3274
533.558	4331
533.625	4580
533.693	5467
533.761	4710
533.828	5169
533.896	5772
533.963	11926
534.031	12900
534.098	17945
534.166	6940
534.233	4361
534.300	5512
534.368	4845
534.435	4801
534.503	4666
534.570	5717
534.637	4370
534.705	6144
534.772	7947
534.840	17698
534.907	64493
534.974	48134
535.041	7920
535.109	9254
535.176	4497
535.243	5111
535.310	5375
535.378	4095
535.445	3894
535.512	3865
535.579	4229
535.646	2948
535.714	2923
535.781	5999
535.848	5169
535.915	5604
535.982	3418
536.049	4452
536.116	6345
536.183	5324
536.250	4692
536.317	5062
536.384	7037
536.451	11657
536.518	10448
536.585	6323
536.652	11117
536.719	15181
536.786	9311
536.853	8506
536.920	16037
536.987	23434
537.053	22994
537.120	79322
537.187	40802
537.254	5140
537.321	5273
537.388	5885
537.454	3845
537.521	4141
537.588	4021
537.654	6910
537.721	5170
537.788	5443
537.855	4351
537.921	5347
537.988	5378
538.055	5502
538.121	5242
538.188	6787
538.254	11348
538.321	21605
538.388	10018
538.454	6799
538.521	4280
538.587	4541
538.654	4990
538.720	5212
538.787	4955
538.853	6829
538.920	8799
538.986	8588
539.053	5266
539.119	6923
539.185	6195
539.252	8174
539.318	10549
539.385	8453
539.451	5837
539.517	7383
539.583	12023
539.650	28345
539.716	48370
539.782	10525
539.849	5001
539.915	6689
539.981	7047
540.047	7229
540.114	5759
540.180	8094
540.246	6322
540.312	11187
540.378	22401
540.444	21163
540.510	27953
540.576	53706
540.643	11101
540.709	4516
540.775	5286
540.841	6806
540.907	11699
540.973	14942
541.039	10950
541.105	11466
541.171	5707
541.237	5986
541.303	7228
541.369	9149
541.435	10902
541.500	18878
541.566	8440
541.632	5583
541.698	4647
541.764	6738
541.830	4993
541.896	5037
541.961	4736
542.027	5017
542.093	4746
542.159	6921
542.224	7090
542.290	11961
542.356	19193
542.421	18928
542.487	7480
542.553	6171
542.618	7517
542.684	5746
542.750	6706
542.815	10102
542.881	19240
542.947	54980
543.012	25541
543.078	5919
543.143	4659
543.209	6548
543.274	6126
543.340	9948
543.405	22076
543.471	23332
543.536	5767
543.602	6627
543.667	4373
543.732	5593
543.798	4524
543.863	6492
543.928	4283
543.994	4848
544.059	5557
544.124	5422
544.190	4005
544.255	5639
544.320	5040
544.386	5740
544.451	10431
544.516	11861
544.581	12819
544.646	39213
544.712	39961
544.777	8245
544.842	8060
544.907	8128
544.972	6447
545.037	6879
545.102	7749
545.168	7320
545.233	8917
545.298	10669
545.363	11350
545.428	12686
545.493	24031
545.558	39957
545.623	12429
545.688	7644
545.753	7196
545.818	7147
545.883	8028
545.947	7939
546.012	9887
546.077	8562
546.142	8482
546.207	8998
546.272	11795
546.337	11383
546.401	8656
546.466	9001
546.531	7261
546.596	9931
546.661	9144
546.725	9544
546.790	7464
546.855	9883
546.919	8300
546.984	10449
547.049	10747
547.113	13879
547.178	10951
547.243	15018
547.307	16076
547.372	18699
547.436	18630
547.501	14942
547.565	15855
547.630	17955
547.695	17227
547.759	22045
547.823	15508
547.888	13996
547.952	13950
548.017	16415
548.081	19703
548.146	24383
548.210	19007
548.274	14829
548.339	14416
548.403	15117
548.468	12802
548.532	13051
548.596	14002
548.660	13779
548.725	16117
548.789	19740
548.853	19098
548.917	17070
548.982	23376
549.046	20187
549.110	12359
549.174	13388
549.238	14443
549.303	14007
549.367	15447
549.431	14837
549.495	14059
549.559	14115
549.623	16802
549.687	19494
549.751	22277
549.815	19690
549.879	20395
549.943	17923
550.007	19703
550.071	19455
550.135	20850
550.199	18352
550.263	17743
550.327	20955
550.391	23616
550.455	19267
550.519	19535
550.582	21022
550.646	25764
550.710	24626
550.774	22041
550.838	21320
550.901	22214
550.965	24092
551.029	26085
551.093	31879
551.156	41450
551.220	72024
551.284	65093
551.347	41570
551.411	75159
551.475	56172
551.538	23947
551.602	21357
551.666	19346
551.729	18721
551.793	19372
551.856	19218
551.920	18050
551.983	18548
552.047	17825
552.110	17371
552.174	18063
552.237	18128
552.301	17276
552.364	17337
552.428	17429
552.491	17951
552.554	18104
552.618	19559
552.681	20882
552.745	23864
552.808	38441
552.871	42465
552.934	23573
552.998	19482
553.061	18718
553.124	17568
553.187	16257
553.251	16886
553.314	17695
553.377	17688
553.440	20295
553.503	25673
553.567	25597
553.630	18521
553.693	18283
553.756	18278
553.819	17307
553.882	17765
553.945	17517
554.008	16558
554.071	15799
554.134	17944
554.197	15678
554.260	15679
554.323	18063
554.386	17495
554.449	16915
554.512	18015
554.575	16841
554.638	17510
554.701	16451
554.764	16361
554.827	16469
554.889	15214
554.952	14879
555.015	13968
555.078	13754
555.141	14893
555.203	13646
555.266	14486
555.329	14927
555.391	15187
555.454	14818
555.517	13849
555.580	13126
555.642	13392
555.705	12403
555.768	13681
555.830	12154
555.893	11566
555.955	11924
556.018	11703
556.080	12140
556.143	12228
556.206	12717
556.268	13281
556.330	13160
556.393	13423
556.455	13808
556.518	20858
556.580	16530
556.643	11608
556.705	10692
556.767	10907
556.830	11878
556.892	13300
556.955	17039
557.017	13196
557.079	12078
557.142	10823
557.204	13858
557.266	23583
557.328	15849
557.391	9737
557.453	10414
557.515	9558
557.577	12812
557.639	11771
557.701	9986
557.764	8684
557.826	10259
557.888	12182
557.950	11857
558.012	13594
558.074	19440
558.136	43881
558.198	71102
558.260	20008
558.322	12492
558.384	13112
558.446	14138
558.508	17702
558.570	24262
558.632	40115
558.694	55730
558.756	74867
558.818	209077
558.880	339617
558.942	75957
559.003	77951
559.065	26500
559.127	15482
559.189	18246
559.251	24888
559.312	40183
559.374	98671
559.436	238124
559.498	67106
559.559	16744
559.621	18964
559.683	27801
559.744	48326
559.806	136108
559.868	128844
559.929	23386
559.991	22653
560.052	36554
560.114	81047
560.176	40154
560.237	53603
560.299	58902
560.360	12258
560.422	9385
560.483	9973
560.545	9365
560.606	8166
560.667	8005
560.729	8325
560.790	9120
560.852	8927
560.913	8455
560.974	8098
561.036	8229
561.097	8100
561.158	8710
561.220	8877
561.281	8482
561.342	9851
561.403	12384
561.465	15545
561.526	34133
561.587	32897
561.648	9875
561.709	7698
561.771	8116
561.832	8633
561.893	7781
561.954	8309
562.015	8016
562.076	7468
562.137	8732
562.198	7960
562.259	8508
562.320	8746
562.381	8952
562.442	13447
562.503	9544
562.564	8230
562.625	7916
562.686	8651
562.747	9003
562.808	8253
562.869	8546
562.930	10531
562.991	10038
563.051	9519
563.112	7659
563.173	8324
563.234	7733
563.294	9125
563.355	7969
563.416	9065
563.477	8397
563.537	8974
563.598	9446
563.659	8962
563.720	7490
563.780	9655
563.841	10240
563.901	8218
563.962	9081
564.023	9259
564.083	8863
564.144	9381
564.204	9629
564.265	9954
564.325	13163
564.386	27795
564.446	18032
564.507	7562
564.567	8150
564.628	8976
564.688	7959
564.749	9126
564.809	10904
564.869	11513
564.930	7057
564.990	8869
565.050	7608
565.111	8421
565.171	7628
565.231	7960
565.292	9474
565.352	8363
565.412	8275
565.472	8742
565.532	9024
565.593	8033
565.653	8454
565.713	9152
565.773	9954
565.833	11995
565.893	13151
565.953	8824
566.013	9313
566.074	10630
566.134	15124
566.194	23626
566.254	20113
566.314	12309
566.374	9105
566.434	9544
566.494	9499
566.554	9704
566.614	8703
566.673	9765
566.733	10785
566.793	11376
566.853	10881
566.913	11196
566.973	11108
567.033	12564
567.092	12039
567.152	11185
567.212	12365
567.272	12608
567.331	13256
567.391	13509
567.451	14078
567.511	21425
567.570	17249
567.630	12527
567.690	11205
567.749	11661
567.809	12594
567.868	13975
567.928	16017
567.988	18238
568.047	19305
568.107	24355
568.166	32890
568.226	48891
568.285	60122
568.345	46787
568.404	35189
568.464	31839
568.523	29947
568.582	32937
568.642	38761
568.701	50424
568.761	74312
568.820	107565
568.879	91208
568.939	67023
568.998	46950
569.057	35636
569.116	28507
569.176	23558
569.235	19342
569.294	18020
569.353	16120
569.413	15432
569.472	13736
569.531	13206
569.590	11755
569.649	12375
569.708	11174
569.767	12757
569.827	14128
569.886	11192
569.945	9574
570.004	10629
570.063	11027
570.122	11886
570.181	12220
570.240	13149
570.299	13353
570.358	12554
570.417	9322
570.475	8824
570.534	10044
570.593	10799
570.652	10988
570.711	10530
570.770	9770
570.829	11854
570.887	10161
570.946	11201
571.005	8990
571.064	10506
571.122	11017
571.181	12094
571.240	9135
571.299	8855
571.357	10101
571.416	10200
571.475	12813
571.533	11478
571.592	9237
571.650	9746
571.709	8509
571.768	9387
571.826	8670
571.885	9033
571.943	7844
572.002	8624
572.060	8607
572.119	8018
572.177	7725
572.236	7405
572.294	8056
572.352	7759
572.411	7120
572.469	7860
572.528	7841
572.586	8416
572.644	10361
572.703	12585
572.761	9012
572.819	7485
572.877	7409
572.936	7337
572.994	6769
573.052	7386
573.110	7774
573.169	8426
573.227	7251
573.285	7396
573.343	7176
573.401	7408
573.459	8289
573.517	7374
573.576	8060
573.634	7608
573.692	7855
573.750	7754
573.808	7590
573.866	9300
573.924	10861
573.982	11168
574.040	7064
574.098	7970
574.155	6686
574.213	6941
574.271	7024
574.329	7139
574.387	6549
574.445	6499
574.503	6727
574.560	6672
574.618	6904
574.676	6779
574.734	7127
574.792	8052
574.849	6646
574.907	7689
574.965	6489
575.022	6316
575.080	6602
575.138	6949
575.195	6589
575.253	7962
575.311	7292
575.368	7509
575.426	6076
575.483	7247
575.541	6962
575.598	7983
575.656	7596
575.713	6903
575.771	6644
575.828	6993
575.886	7237
575.943	7684
576.001	6997
576.058	7936
576.115	8455
576.173	10506
576.230	11405
576.287	10652
576.345	9477
576.402	7612
576.459	7579
576.517	8842
576.574	9353
576.631	9842
576.688	8404
576.746	8161
576.803	7855
576.860	6815
576.917	8285
576.974	7911
577.031	7591
577.089	8341
577.146	7990
577.203	8082
577.260	8496
577.317	9487
577.374	10643
577.431	9119
577.488	8553
577.545	6675
577.602	7965
577.659	7827
577.716	7643
577.773	7579
577.830	7009
577.886	7669
577.943	7334
578.000	7848
578.057	8401
578.114	8027
578.171	9790
578.227	9354
578.284	7524
578.341	7884
578.398	7561
578.454	9133
578.511	9725
578.568	12837
578.625	8769
578.681	7891
578.738	7144
578.794	7640
578.851	8372
578.908	8184
578.964	7952
579.021	8922
579.077	9034
579.134	7516
579.190	6993
579.247	8267
579.303	7522
579.360	7453
579.416	6924
579.473	7483
579.529	6923
579.586	7756
579.642	8065
579.698	8679
579.755	7481
579.811	8476
579.867	7946
579.924	7964
579.980	6937
580.036	7411
580.093	7785
580.149	8146
580.205	8520
580.261	9028
580.317	8344
580.374	10468
580.430	10865
580.486	10027
580.542	7606
580.598	9124
580.619	9029
580.654	8872
580.692	8646
580.710	8546
580.765	8505
580.767	8510
580.823	8934
580.838	8993
580.879	9185
580.911	9182
580.935	9188
580.984	8447
580.991	8357
581.047	8180
581.057	8201
581.103	8330
581.130	8666
581.159	9003
581.203	8894
581.215	8886
581.270	8687
581.276	8671
581.326	8562
581.349	9243
581.382	10244
581.422	9224
581.438	8813
581.494	9573
581.494	9557
581.550	8227
581.567	8712
581.606	9819
581.640	9399
581.661	9133
581.713	9547
581.717	9589
581.773	8830
581.786	8965
581.829	9353
581.859	9740
581.885	10124
581.932	9838
581.940	9781
581.996	10315
582.004	10338
582.052	10527
582.077	9782
582.107	8879
582.150	9635
582.163	9882
582.219	9934
582.223	10006
582.274	10981
582.296	10644
582.330	10006
582.368	10236
582.386	10392
582.441	8860
582.441	8859
582.497	9417
582.514	9388
582.552	9388
582.587	9431
582.608	9506
582.659	9200
582.663	9175
582.719	9597
582.732	9577
582.774	9507
582.805	10081
582.830	10591
582.877	10332
582.885	10268
582.941	9624
582.950	9704
582.996	10092
583.023	10397
583.052	10881
583.095	10656
583.107	10511
583.162	9936
583.168	9961
583.218	10217
583.240	9979
583.273	9852
583.313	10087
583.328	10130
583.384	10746
583.385	10724
583.439	9828
583.458	10027
583.494	10600
583.531	10117
583.549	9845
583.603	10541
583.605	10562
583.660	10224
583.676	10455
583.715	11036
583.748	11326
583.770	11649
583.820	11565
583.825	11495
583.881	10985
583.893	10817
583.936	10693
583.965	10533
583.991	10353
584.038	10953
584.046	11039
584.101	11253
584.110	11199
584.156	10963
584.183	10919
584.211	10800
584.255	11091
584.266	11219
584.321	10731
584.328	10846
584.376	11779
584.400	11892
584.431	11949
584.472	11848
584.486	11759
584.541	11822
584.545	11806
584.596	11831
584.617	12050
584.651	12580
584.689	12963
584.706	13051
584.761	12544
584.762	12550
584.816	13335
584.834	13333
584.871	13162
584.906	13246
584.926	13361
584.978	12849
584.980	12847
585.035	14645
585.051	14713
585.090	14691
585.123	15568
585.145	16077
585.195	15204
585.200	15202
585.254	16825
585.267	17242
585.309	17933
585.340	18516
585.364	19166
585.412	21258
585.419	21596
585.473	24112
585.484	25007
585.528	29352
585.556	33571
585.583	40678
585.628	55289
585.637	61119
585.692	118165
585.700	125807
585.747	151980
585.772	129121
585.801	78873
585.845	33062
585.856	28509
585.910	21570
585.917	20827
585.965	19670
585.989	19287
586.019	19033
586.061	19059
586.074	19074
586.128	19482
586.133	19486
586.183	20310
586.205	20703
586.237	20730
586.277	20625
586.292	20828
586.346	21515
586.349	21592
586.401	22506
586.421	22683
586.455	23161
586.493	24437
586.509	25765
586.564	30967
586.565	31217
586.618	45287
586.637	45119
586.672	36616
586.709	29207
586.727	27062
586.781	25374
586.781	25377
586.835	24672
586.853	24638
586.889	24558
586.925	24353
586.944	24555
586.996	25519
586.998	25541
587.052	25968
587.068	26167
587.106	26664
587.140	27016
587.161	27390
587.212	28849
587.215	28907
587.269	29811
587.284	29969
587.323	30432
587.356	31005
587.377	31608
587.427	33527
587.431	33627
587.485	34428
587.499	34634
587.539	35594
587.571	36672
587.593	37401
587.643	39641
587.648	39909
587.702	42097
587.715	42808
587.755	45203
587.786	46702
587.810	47313
587.858	48788
587.864	49171
587.917	54209
587.930	55438
587.971	59464
588.001	62227
588.025	64376
588.073	68840
588.079	69527
588.133	76736
588.145	78326
588.187	84533
588.217	89620
588.241	94858
588.288	105995
588.295	107542
588.348	122583
588.360	126002
588.402	140699
588.431	152081
588.456	163517
588.503	188014
588.510	192265
588.564	231724
588.575	240868
588.617	283452
588.646	315095
588.671	354344
588.718	435941
588.725	453935
588.778	600875
588.789	631895
588.832	793976
588.861	899710
588.886	943032
588.932	976689
588.939	965728
588.993	868892
589.004	860210
589.047	944552
589.075	965826
589.100	871842
589.147	681364
589.154	661459
589.207	512566
589.218	484632
589.261	444008
589.290	423282
589.314	434046
589.361	463523
589.368	477286
589.421	603549
589.433	631812
589.475	788510
589.504	888345
589.528	902282
589.576	891314
589.582	886864
589.635	866489
589.647	851834
589.689	672001
589.718	539828
589.742	460895
589.790	313138
589.795	304510
589.849	232094
589.861	216491
589.902	188364
589.932	167132
589.955	153160
590.004	126253
590.009	124513
590.062	107545
590.075	103520
590.115	94957
590.146	88778
590.168	85376
590.218	77845
590.222	77379
590.275	71877
590.289	70461
590.328	66764
590.360	63678
590.381	61968
590.431	58016
590.435	57835
590.488	55033
590.503	54203
590.541	52479
590.574	51001
590.594	50177
590.645	48088
590.647	48044
590.700	46459
590.716	45951
590.753	44076
590.787	42352
590.806	42042
590.859	41141
590.859	41141
590.912	39821
590.930	39408
590.965	39103
591.001	38666
591.018	38315
591.071	37293
591.072	37259
591.124	36293
591.143	35927
591.177	35954
591.214	36003
591.230	35898
591.283	35438
591.285	35391
591.336	36291
591.356	36595
591.389	36052
591.427	35253
591.442	34623
591.495	32230
591.498	32027
591.547	32184
591.569	32273
591.600	31868
591.640	31055
591.653	31188
591.706	31873
591.711	31910
591.759	32171
591.782	32293
591.811	33479
591.853	35033
591.864	34361
591.917	30758
591.924	30215
591.969	30560
591.995	30730
592.022	31029
592.066	31304
592.075	31589
592.127	33322
592.137	33617
592.180	35381
592.208	36293
592.233	34438
592.279	30828
592.285	30870
592.338	30995
592.350	30970
592.390	29488
592.421	28341
592.443	28484
592.491	28677
592.495	28734
592.548	29072
592.562	29131
592.600	28920
592.633	28678
592.653	28759
592.704	28727
592.705	28895
592.775	29099
592.846	28888
592.916	28982
592.987	30494
593.058	29429
593.128	28051
593.199	27440
593.270	26670
593.341	26577
593.411	27735
593.482	28063
593.553	27922
593.623	27424
593.694	27873
593.764	29488
593.835	27868
593.906	27714
593.976	27945
594.047	27659
594.117	31869
594.188	32722
594.258	28316
594.329	27861
594.399	28535
594.470	28121
594.540	28674
594.611	28243
594.681	27608
594.751	29062
594.822	30518
594.892	29702
594.963	30762
595.033	30741
595.103	31754
595.174	32791
595.244	40447
595.314	48176
595.384	33273
595.455	32473
595.525	32546
595.595	33343
595.665	33658
595.736	33535
595.806	32528
595.876	32838
595.946	32350
596.016	33315
596.087	35164
596.157	34504
596.227	33702
596.297	34990
596.367	37060
596.437	40618
596.507	45113
596.577	51713
596.647	40477
596.717	39689
596.787	39247
596.857	40044
596.927	39979
596.997	39944
597.067	40439
597.137	40836
597.207	41032
597.277	41665
597.347	40288
597.417	39342
597.487	39482
597.557	40811
597.626	40915
597.696	42342
597.766	46312
597.836	51454
597.906	40023
597.975	37558
598.045	37514
598.115	38193
598.185	39854
598.254	43504
598.324	47359
598.394	46441
598.464	46517
598.533	45367
598.603	42504
598.672	41515
598.742	41639
598.812	42428
598.881	42475
598.951	41744
599.020	42844
599.090	43163
599.159	44292
599.229	42658
599.299	41950
599.368	43419
599.437	42158
599.507	39992
599.576	39313
599.646	39010
599.715	37995
599.785	38830
599.854	39487
599.924	40635
599.993	38484
600.062	37356
600.132	38196
600.201	40244
600.270	46201
600.340	46840
600.409	44677
600.478	44631
600.547	45579
600.617	43032
600.686	37449
600.755	34170
600.824	33476
600.894	33349
600.963	32097
601.032	32446
601.101	30925
601.170	30584
601.239	30294
601.308	31045
601.378	30458
601.447	29304
601.516	29695
601.585	31951
601.654	31938
601.723	30600
601.792	31474
601.861	31646
601.930	33412
601.999	33064
602.068	31850
602.137	34879
602.206	34549
602.275	33285
602.343	36545
602.412	35816
602.481	33030
602.550	33508
602.619	33535
602.688	34795
602.756	33887
602.825	33886
602.894	34511
602.963	35510
603.032	36061
603.100	35229
603.169	35579
603.238	35769
603.307	36286
603.375	36664
603.444	37823
603.513	36890
603.581	37547
603.650	37729
603.719	36796
603.787	36837
603.856	39153
603.924	39913
603.993	40596
604.061	41417
604.130	42464
604.198	43349
604.267	44354
604.335	43401
604.404	43527
604.472	44315
604.541	46000
604.609	44702
604.678	46388
604.746	46100
604.815	46004
604.883	48437
604.951	48523
605.020	47322
605.088	49088
605.156	49702
605.225	51601
605.293	51012
605.361	50935
605.429	50749
605.498	53492
605.566	53444
605.634	56030
605.702	57351
605.771	58336
605.839	58821
605.907	56589
605.975	55613
606.043	55424
606.111	53915
606.180	55108
606.248	53460
606.316	54321
606.384	54207
606.452	58306
606.520	60784
606.588	57634
606.656	56331
606.724	55936
606.792	52502
606.860	48090
606.928	43342
606.996	42715
607.064	41473
607.132	43370
607.200	45141
607.267	46635
607.335	46129
607.403	48701
607.471	46693
607.539	45418
607.607	46704
607.674	41286
607.742	41704
607.810	42793
607.878	42339
607.946	42221
608.013	43239
608.081	45354
608.149	44275
608.216	45719
608.284	47586
608.352	47214
608.419	47326
608.487	52896
608.555	48329
608.622	46273
608.690	47662
608.757	52477
608.825	55011
608.893	54189
608.960	53554
609.028	53884
609.095	55697
609.163	50720
609.230	45794
609.298	42722
609.365	42425
609.432	44844
609.500	48964
609.567	56556
609.635	63156
609.702	66087
609.769	63468
609.837	54056
609.904	45905
609.971	45683
610.039	51405
610.106	66024
610.173	120830
610.241	281763
610.308	199428
610.375	92564
610.442	52349
610.509	46070
610.577	46222
610.644	46373
610.711	47538
610.778	50166
610.845	50187
610.912	53511
610.980	55082
611.047	56854
611.114	55028
611.181	52188
611.248	50754
611.315	54251
611.382	55854
611.449	56988
611.516	58775
611.583	57524
611.650	58717
611.717	58367
611.784	60096
611.851	62753
611.918	67926
611.984	77847
612.051	109932
612.118	219561
612.185	544962
612.252	354103
612.319	90954
612.386	74596
612.452	68804
612.519	67874
612.586	72169
612.653	68725
612.719	67770
612.786	64936
612.853	60282
612.919	57767
612.986	60228
613.053	56641
613.120	52523
613.186	50085
613.253	53006
613.319	52485
613.386	51805
613.453	52988
613.519	56423
613.586	57992
613.652	65863
613.719	60016
613.785	59277
613.852	54713
613.918	53327
613.985	53617
614.051	56327
614.118	61294
614.184	57564
614.250	52424
614.317	54547
614.383	53390
614.449	54820
614.516	54052
614.582	55728
614.648	54366
614.715	53161
614.781	52447
614.847	52550
614.914	53781
614.980	51304
615.046	51182
615.112	52265
615.179	52932
615.245	55333
615.311	57897
615.377	67841
615.443	70021
615.509	58956
615.575	57864
615.642	56103
615.708	59146
615.774	62637
615.840	68017
615.906	75202
615.972	96040
616.038	156096
616.104	294581
616.170	654721
616.236	579252
616.302	134174
616.368	96721
616.434	72013
616.500	68029
616.565	74400
616.631	89347
616.697	73729
616.763	75689
616.829	105563
616.895	185251
616.961	178163
617.026	79684
617.092	59572
617.158	57903
617.224	56787
617.289	53699
617.355	52352
617.421	50764
617.487	51475
617.552	48578
617.618	47013
617.684	47499
617.749	50259
617.815	46165
617.880	44807
617.946	46626
618.012	47499
618.077	47755
618.143	46132
618.208	47190
618.274	48916
618.339	50601
618.405	43786
618.470	44376
618.536	44207
618.601	45251
618.667	42489
618.732	40852
618.798	39857
618.863	40296
618.928	39014
618.994	40461
619.059	41693
619.124	48327
619.190	42621
619.255	39183
619.320	39226
619.386	38478
619.451	37830
619.516	38463
619.581	37648
619.647	38748
619.712	39625
619.777	38178
619.842	38888
619.907	39307
619.972	39478
620.038	39266
620.103	37647
620.168	37098
620.233	38376
620.298	39306
620.363	38812
620.428	41249
620.493	40271
620.558	40306
620.623	40942
620.688	41113
620.753	40215
620.818	41298
620.883	41079
620.948	41292
621.013	40706
621.078	41397
621.143	40620
621.207	42771
621.272	42176
621.337	42713
621.402	44040
621.467	47655
621.532	48618
621.596	45121
621.661	41636
621.726	39842
621.791	41028
621.855	42398
621.920	43051
621.985	42965
622.049	47171
622.114	45197
622.179	43601
622.243	45647
622.308	45390
622.373	46416
622.437	45900
622.502	44089
622.566	43508
622.631	42588
622.695	43761
622.760	43692
622.824	43887
622.889	43912
622.953	45717
623.018	55834
623.082	55061
623.147	46351
623.211	44203
623.276	44463
623.340	41841
623.404	41242
623.469	41549
623.533	42279
623.597	40772
623.662	41037
623.726	39313
623.790	36878
623.854	36559
623.919	38310
623.983	36804
624.047	38481
624.111	36856
624.176	38399
624.240	41167
624.304	43812
624.368	38143
624.432	38486
624.496	39211
624.560	41405
624.625	42491
624.689	40085
624.753	40918
624.817	39046
624.881	38750
624.945	36297
625.009	34280
625.073	36089
625.137	38542
625.201	42359
625.265	42716
625.329	36864
625.393	37332
625.456	39053
625.520	39862
625.584	40912
625.648	44210
625.712	55127
625.776	95922
625.839	106468
625.903	53193
625.967	37173
626.031	49003
626.095	69085
626.158	40373
626.222	29564
626.286	27945
626.349	27750
626.413	25374
626.477	28192
626.540	26287
626.604	26106
626.668	26129
626.731	25989
626.795	26887
626.858	27170
626.922	25446
626.986	26029
627.049	23977
627.113	26212
627.176	24842
627.240	24927
627.303	24724
627.366	24296
627.430	25003
627.493	25535
627.557	24622
627.620	25008
627.684	24996
627.747	25552
627.810	21984
627.874	22876
627.937	21517
628.000	24373
628.064	22437
628.127	19505
628.190	20607
628.253	21254
628.317	19573
628.380	18921
628.443	19215
628.506	20423
628.569	19153
628.632	17297
628.696	18188
628.759	16461
628.822	16988
628.885	16424
628.948	16714
629.011	16702
629.074	16633
629.137	15757
629.200	15966
629.263	18413
629.326	15771
629.389	15066
629.452	16013
629.515	16351
629.578	15734
629.641	16996
629.704	16378
629.767	16415
629.830	15163
629.892	15525
629.955	14242
630.018	16545
630.081	15731
630.144	18565
630.207	15173
630.269	17275
630.332	16503
630.395	16631
630.458	14635
630.520	13160
630.583	15036
630.646	14079
630.708	14112
630.771	14071
630.834	13550
630.896	13065
630.959	13216
631.021	13442
631.084	13457
631.146	15658
631.209	16321
631.272	13984
631.334	13411
631.397	14077
631.459	12920
631.522	13872
631.584	14358
631.646	15637
631.709	15878
631.771	17855
631.834	16042
631.896	13722
631.958	12363
632.021	14539
632.083	11330
632.145	14000
632.208	12727
632.270	15008
632.332	11739
632.395	12067
632.457	13634
632.519	11965
632.581	12773
632.643	11672
632.706	12727
632.768	11349
632.830	12500
632.892	12576
632.954	11535
633.016	13440
633.078	12204
633.141	12270
633.203	12199
633.265	11961
633.327	12064
633.389	11834
633.451	14032
633.513	14524
633.575	14852
633.637	14263
633.698	13299
633.760	12877
633.822	12762
633.884	12685
633.946	11988
634.008	12697
634.070	12506
634.132	14255
634.193	13796
634.255	14294
634.317	14694
634.379	15359
634.441	12596
634.502	12834
634.564	12749
634.626	11798
634.687	11642
634.749	11168
634.811	11613
634.873	10763
634.934	11468
634.996	11758
635.057	10209
635.119	10744
635.181	11679
635.242	11617
635.304	9645
635.365	13266
635.427	10375
635.488	12080
635.550	11007
635.611	10461
635.673	9795
635.734	13046
635.796	11820
635.857	13897
635.918	12300
635.980	13513
636.041	13652
636.102	14388
636.164	14531
636.225	14392
636.286	11782
636.348	13204
636.409	11988
636.470	11647
636.531	11423
636.593	11827
636.654	12117
636.715	9798
636.776	10304
636.838	9730
636.899	9845
636.960	9481
637.021	8869
637.082	9394
637.143	9353
637.204	8931
637.265	8624
637.326	10350
637.387	9197
637.448	8475
637.509	9276
637.570	9041
637.631	10244
637.692	8304
637.753	7586
637.814	8612
637.875	9093
637.936	9698
637.997	7910
638.058	8962
638.119	9741
638.179	9420
638.240	9081
638.301	9860
638.362	7537
638.423	7998
638.483	9414
638.544	8115
638.605	8170
638.666	7776
638.726	9252
638.787	9316
638.848	8286
638.908	7401
638.969	8777
639.030	8621
639.090	6481
639.151	7923
639.211	8471
639.272	10475
639.332	14786
639.393	10428
639.453	7379
639.514	8411
639.574	8585
639.635	7204
639.695	8575
639.756	7224
639.816	8510
639.877	9029
639.937	12874
639.997	16803
640.058	7993
640.118	7543
640.178	7514
640.239	7540
640.299	6961
640.359	7150
640.420	7012
640.480	8011
640.540	8260
640.600	8021
640.661	8335
640.721	7304
640.781	9742
640.841	7142
640.901	8145
640.961	8794
641.021	8156
641.082	9194
641.142	11096
641.202	9343
641.262	5056
641.322	8170
641.382	6642
641.442	7210
641.502	6873
641.562	7500
641.622	6710
641.682	8023
641.742	8102
641.802	8671
641.861	7666
641.921	8618
641.981	8674
642.041	8261
642.101	9175
642.161	7638
642.221	5789
642.280	5947
642.340	6458
642.400	5966
642.460	7888
642.519	6674
642.579	6342
642.639	7717
642.698	4967
642.758	8457
642.818	6933
642.877	6505
642.937	6878
642.997	8165
643.056	11332
643.116	6540
643.175	9143
643.235	7241
643.294	7457
643.354	7660
643.414	7615
643.473	8701
643.532	10444
643.592	13969
643.651	22020
643.711	38510
643.770	73509
643.830	177265
643.889	407578
643.948	99172
644.008	17675
644.067	11612
644.126	8204
644.186	7577
644.245	8343
644.304	5603
644.363	8363
644.423	5289
644.482	6556
644.541	6204
644.600	5017
644.659	8692
644.719	8384
644.778	13553
644.837	20666
644.896	42145
644.955	100139
645.014	36347
645.073	9610
645.132	8048
645.191	7730
645.250	5790
645.309	7958
645.368	8489
645.427	8610
645.486	11311
645.545	21959
645.604	8442
645.663	6242
645.722	7087
645.781	7165
645.840	6956
645.898	9584
645.957	13855
646.016	19032
646.075	35493
646.134	66494
646.192	181046
646.251	295322
646.310	44166
646.369	10979
646.427	10282
646.486	7301
646.545	6569
646.603	6122
646.662	6630
646.721	6056
646.779	5750
646.838	4062
646.896	7739
646.955	8921
647.014	13939
647.072	22327
647.131	62859
647.189	32921
647.248	6161
647.306	6226
647.365	6022
647.423	4117
647.481	5345
647.540	3575
647.598	4667
647.657	3839
647.715	5607
647.773	3739
647.832	5259
647.890	3476
647.948	3768
648.007	5627
648.065	3013
648.123	3510
648.181	5864
648.240	4819
648.298	4240
648.356	4196
648.414	5045
648.472	4912
648.531	5759
648.589	3767
648.647	4446
648.705	3462
648.763	4418
648.821	4551
648.879	3445
648.937	4954
648.995	5983
649.053	6262
649.111	10851
649.169	15827
649.227	28922
649.285	55620
649.343	170990
649.401	87028
649.459	21058
649.516	13808
649.574	5727
649.632	7774
649.690	9731
649.748	9418
649.806	9198
649.863	18102
649.921	43447
649.979	30991
650.037	5446
650.094	3615
650.152	5014
650.210	3160
650.268	3983
650.325	4147
650.383	3596
650.440	2768
650.498	3461
650.556	4003
650.613	2936
650.671	3864
650.728	3817
650.786	4124
650.843	4444
650.901	1808
650.958	4524
651.016	3577
651.073	3263
651.131	2683
651.188	2252
651.246	3759
651.303	2941
651.360	3476
651.418	3456
651.475	3224
651.532	2453
651.590	3317
651.647	2123
651.704	2627
651.762	3311
651.819	3477
651.876	2505
651.933	3563
651.990	3665
652.048	1788
652.105	2691
652.162	3167
652.219	2119
652.276	2663
652.333	3158
652.390	1063
652.448	3394
652.505	2840
652.562	2631
652.619	2438
652.676	3026
652.733	4093
652.790	2648
652.847	1963
652.904	3156
652.961	1434
653.017	1903
653.074	3218
653.131	2499
653.188	1202
653.245	2175
653.302	2751
653.359	1893
653.415	3206
653.472	2462
653.529	3560
653.586	1460
653.642	2284
653.699	3086
653.756	1568
653.813	1351
653.869	3298
653.926	2271
653.983	1444
654.039	3309
654.096	1903
654.152	3136
654.209	1476
654.266	3145
654.322	1512
654.379	3378
654.435	3175
654.492	2816
654.548	4036
654.605	7448
654.661	4449
654.717	2304
654.774	2597
654.830	2654
654.887	2726
654.943	2081
655.000	3076
655.056	2676
655.112	3430
655.168	2340
655.225	2513
655.281	3386
655.337	4112
655.394	7067
655.450	5841
655.506	4831
655.562	6896
655.618	6965
655.675	1764
655.731	2643
655.787	2078
655.843	2760
655.899	1707
655.955	2959
656.011	2023
656.067	1989
656.123	3464
656.179	2453
656.235	4033
656.291	1495
656.347	4073
656.403	2253
656.459	2975
656.515	3653
656.571	3308
656.627	2737
656.683	2511
656.739	3116
656.795	2507
656.850	3699
656.906	3547
656.962	3634
657.018	2011
657.074	2531
657.129	3258
657.185	4896
657.241	6761
657.297	4067
657.352	2815
657.408	1831
657.464	2780
657.519	2912
657.575	1076
657.630	1683
657.686	1936
657.742	2493
657.797	1727
657.853	2395
657.908	2964
657.964	1077
658.019	2328
658.075	2251
658.130	1853
658.186	1166
658.241	2868
658.297	1125
658.352	1572
658.407	2778
658.463	2096
658.518	2762
658.573	2103
658.629	1759
658.684	1653
658.739	2892
658.795	1295
658.850	2300
658.905	1756
658.960	1818
659.016	2002
659.071	1980
659.126	2169
659.181	2339
659.236	4707
659.291	5008
659.346	2364
659.401	2345
659.457	3131
659.512	1617
659.567	2982
659.622	2367
659.677	1333
659.732	1563
659.787	2077
659.842	1822
659.897	3441
659.952	3034
660.007	1694
660.061	2130
660.116	1786
660.171	1982
660.226	1192
660.281	2683
660.336	1063
660.391	2920
660.445	1887
660.500	1832
660.555	2705
660.610	1821
660.664	2653
660.719	2212
660.774	2845
660.828	2427
660.883	1402
660.938	2518
660.992	446
661.047	2450
661.101	1130
661.156	1746
661.211	1272
661.265	1356
661.320	1118
661.374	2015
661.429	1944
661.483	1998
661.538	1223
661.592	2091
661.647	1870
661.701	2792
661.755	2187
661.810	2143
661.864	1083
661.919	1902
661.973	2076
662.027	1879
662.081	1000
662.136	930
662.190	1797
662.244	2487
662.299	1864
662.353	2565
662.407	2180
662.461	1587
662.515	2356
662.569	2056
662.624	2232
662.678	1749
662.732	1336
662.786	1962
662.840	1684
662.894	2604
662.948	1328
663.002	1862
663.056	1581
663.110	1294
663.164	1847
663.218	1849
663.272	1126
663.326	1999
663.380	2562
663.434	2696
663.488	1546
663.542	2871
663.595	1447
663.649	2118
663.703	1743
663.757	1357
663.811	1629
663.864	1736
663.918	2016
663.972	1457
664.026	2209
664.079	1655
664.133	2444
664.187	2443
664.240	1883
664.294	2087
664.348	1733
664.401	1641
664.455	1328
664.508	1733
664.562	1777
664.615	2077
664.669	1297
664.722	2196
664.776	1805
664.829	1947
664.883	1944
664.936	1821
664.990	1407
665.043	2678
665.097	1967
665.150	2789
665.203	2431
665.257	1564
665.310	1843
665.363	1893
665.417	2770
665.470	2404
665.523	2068
665.576	2027
665.630	2261
665.683	1943
665.736	2160
665.789	2298
665.842	1644
665.895	2540
665.949	2644
666.002	1895
666.055	1908
666.108	3307
666.161	1796
666.214	2189
666.267	1538
666.320	3017
666.373	3005
666.426	2550
666.479	2192
666.532	1443
666.585	2684
666.638	3566
666.691	1937
666.744	2954
666.796	2653
666.849	2762
666.902	2799
666.955	1728
667.008	2117
667.060	2057
667.113	1420
667.166	1908
667.219	1366
667.271	2324
667.324	1719
667.377	2542
667.430	1765
667.482	1886
667.535	2132
667.587	3237
667.640	2465
667.693	2907
667.745	5038
667.798	5783
667.850	2490
667.903	2615
667.955	2019
668.008	2406
668.060	2733
668.113	2266
668.165	3523
668.218	3287
668.270	2086
668.322	2648
668.375	2575
668.427	1921
668.479	1799
668.532	2699
668.584	1707
668.636	2430
668.689	2284
668.741	1743
668.793	2271
668.845	1936
668.898	2051
668.950	2223
669.002	2897
669.054	2564
669.106	1770
669.158	3317
669.211	3112
669.263	2724
669.315	4171
669.367	2435
669.419	2780
669.471	2438
669.523	3562
669.575	3402
669.627	3035
669.679	2531
669.731	2564
669.783	3566
669.835	2219
669.886	1901
669.938	2945
669.990	2085
670.042	2208
670.094	2943
670.146	2625
670.197	3216
670.249	3599
670.301	3747
670.353	5656
670.404	8357
670.456	11164
670.508	18308
670.560	31412
670.611	53746
670.663	97331
670.715	222869
670.766	359335
670.818	118772
670.869	22006
670.921	10770
670.972	7764
671.024	5390
671.075	4907
671.127	4419
671.178	2549
671.230	4299
671.281	3528
671.333	4147
671.384	3550
671.436	3639
671.487	3952
671.538	5483
671.590	7649
671.641	8879
671.692	15407
671.744	30471
671.795	19739
671.846	5336
671.897	3897
671.949	3250
672.000	2557
672.051	2696
672.102	3170
672.153	2713
672.204	2623
672.256	3296
672.307	2087
672.358	2675
672.409	2317
672.460	3063
672.511	1799
672.562	2196
672.613	2369
672.664	2114
672.715	2788
672.766	1714
672.817	1536
672.868	2125
672.919	2126
672.970	1780
673.021	1936
673.071	1960
673.122	2051
673.173	2302
673.224	2272
673.275	2279
673.326	1575
673.376	1701
673.427	1424
673.478	1123
673.528	1883
673.579	2221
673.630	1582
673.680	2014
673.731	1446
673.782	1050
673.832	2262
673.883	2144
673.934	1708
673.984	1376
674.035	2230
674.085	1793
674.136	2025
674.186	2705
674.237	2659
674.287	4685
674.338	2686
674.388	1433
674.438	1509
674.489	2644
674.539	1569
674.589	2307
674.640	1218
674.690	1468
674.740	1233
674.791	2498
674.841	1599
674.891	2185
674.942	2640
674.992	1415
675.042	1580
675.092	1721
675.142	1172
675.193	2040
675.243	943
675.293	1622
675.343	1372
675.393	1913
675.443	2101
675.493	1287
675.543	1450
675.593	2345
675.643	1632
675.693	1995
675.743	1226
675.793	2050
675.843	1142
675.893	961
675.943	1895
675.993	1007
676.043	1890
676.093	1773
676.142	989
676.192	1450
676.242	1535
676.292	1507
676.341	814
676.391	2187
676.441	888
676.491	811
676.540	475
676.590	1758
676.640	593
676.689	1199
676.739	997
676.789	1704
676.838	997
676.888	1075
676.937	1517
676.987	1150
677.037	703
677.086	1228
677.136	1163
677.185	1781
677.235	18
677.284	1269
677.333	1066
677.383	1089
677.432	1214
677.482	755
677.531	1013
677.580	1324
677.630	680
677.679	1173
677.728	1474
677.778	909
677.827	869
677.876	1148
677.925	786
677.975	1159
678.024	1011
678.073	1582
678.122	1506
678.171	1008
678.220	607
678.269	1721
678.319	1226
678.368	2089
678.417	1169
678.466	1356
678.515	1505
678.564	848
678.613	1182
678.662	865
678.711	1539
678.760	1263
678.809	836
678.857	458
678.906	1422
678.955	1145
679.004	1799
679.053	1241
679.102	439
679.151	1341
679.199	1099
679.248	1212
679.297	607
679.346	1030
679.394	1094
679.443	973
679.492	772
679.540	545
679.589	1452
679.638	1562
679.686	826
679.735	1047
679.784	837
679.832	1048
679.881	1391
679.929	178
679.978	831
680.026	-28
680.075	547
680.123	680
680.172	1360
680.220	535
680.268	878
680.317	354
680.365	1244
680.414	1004
680.462	-102
680.510	1249
680.559	690
680.607	930
680.655	387
680.703	917
680.752	657
680.800	440
680.848	913
680.896	863
680.945	-260
680.993	944
681.041	1307
681.089	784
681.137	435
681.185	346
681.233	264
681.258	359
681.281	393
681.329	382
681.377	992
681.380	1055
681.425	1159
681.473	2049
681.502	1996
681.521	1851
681.569	1544
681.617	1542
681.624	1620
681.665	1704
681.713	1574
681.745	2160
681.761	2357
681.809	1131
681.857	2660
681.867	2548
681.904	1937
681.952	1787
681.989	2437
682.000	2569
682.048	2518
682.096	2233
682.111	2329
682.143	2331
682.191	2767
682.233	3289
682.239	3315
682.286	2567
682.334	3301
682.354	3137
682.382	2805
682.430	3258
682.476	2664
682.477	2601
682.525	3832
682.572	3900
682.598	3533
682.620	3126
682.667	4287
682.715	4002
682.720	4041
682.763	3994
682.810	3945
682.841	4413
682.857	4548
682.905	4558
682.952	4855
682.963	4851
683.000	4686
683.047	4849
683.085	5804
683.095	5988
683.142	5567
683.190	5365
683.206	5335
683.237	5258
683.284	5476
683.328	5117
683.332	5032
683.379	5556
683.426	5759
683.449	5737
683.473	5667
683.521	5768
683.568	5745
683.571	5807
683.615	6115
683.662	6455
683.693	6575
683.709	6567
683.757	5976
683.804	6380
683.814	6458
683.851	6592
683.898	6457
683.936	6801
683.945	6853
683.992	7156
684.039	7152
684.057	7285
684.086	7440
684.133	7495
684.179	7527
684.180	7489
684.227	8645
684.274	7743
684.300	8392
684.321	8801
684.368	7941
684.415	8346
684.422	8355
684.462	8192
684.509	7984
684.543	8041
684.556	8072
684.603	8345
684.649	8090
684.665	8219
684.696	8427
684.743	9307
684.786	9164
684.790	9126
684.837	9019
684.883	9946
684.908	9749
684.930	9543
684.977	9941
685.023	10702
685.029	10733
685.070	10334
685.117	9418
685.150	9956
685.164	10302
685.210	10771
685.257	10973
685.272	11108
685.303	11062
685.350	10978
685.393	10968
685.396	10967
685.443	11575
685.490	12401
685.514	12397
685.536	12157
685.583	11035
685.629	11841
685.636	11828
685.675	11755
685.722	11764
685.757	11582
685.768	11535
685.815	12401
685.861	11916
685.878	12006
685.908	12090
685.954	12110
686.000	13239
686.000	13250
686.047	13515
686.093	14304
686.121	14433
686.139	14188
686.185	14053
686.232	13541
686.242	13546
686.278	13490
686.324	12912
686.363	12652
686.370	12645
686.416	12487
686.463	12664
686.484	12724
686.509	12799
686.555	13076
686.601	12760
686.606	12799
686.647	13055
686.693	13196
686.727	13165
686.739	13145
686.785	13049
686.831	13303
686.848	13400
686.877	13530
686.923	13266
686.969	13441
686.969	13440
687.015	14080
687.061	13391
687.090	13498
687.107	13523
687.153	14656
687.199	14032
687.211	14149
687.245	14417
687.291	14320
687.332	14048
687.336	14051
687.382	14505
687.428	14404
687.453	14771
687.474	14741
687.520	14398
687.565	13957
687.574	13742
687.611	13429
687.657	14216
687.695	14689
687.702	14808
687.748	15356
687.794	15784
687.816	15672
687.839	15203
687.885	14720
687.931	14830
687.937	14751
687.976	14728
688.022	15544
688.058	15296
688.067	15247
688.113	15414
688.158	15272
688.179	15415
688.204	15603
688.249	16072
688.295	15911
688.300	15974
688.340	16542
688.386	16908
688.421	16792
688.431	16699
688.477	16361
688.522	16204
688.542	16182
688.567	16403
688.613	16707
688.658	16733
688.663	16775
688.703	16965
688.749	16903
688.784	16581
688.794	16537
688.839	16948
688.884	16666
688.905	16956
688.930	17257
688.975	17182
689.020	16670
689.026	16615
689.065	16583
689.110	16700
689.146	16811
689.155	16837
689.201	17267
689.246	16864
689.267	16887
689.291	16939
689.336	17341
689.381	17246
689.388	17236
689.426	17321
689.471	17575
689.509	17214
689.516	17159
689.561	17372
689.606	16864
689.630	17079
689.651	17353
689.696	16744
689.741	17481
689.750	17387
689.785	17332
689.830	18101
689.871	18167
689.875	18125
689.920	17392
689.965	17115
689.992	16671
690.010	16774
690.054	16955
690.099	17637
690.112	17719
690.144	17732
690.189	17710
690.233	17181
690.233	17204
690.278	17498
690.323	17698
690.354	17877
690.367	17969
690.412	18071
690.457	17918
690.474	17988
690.501	17992
690.546	17489
690.590	17366
690.595	17307
690.635	17485
690.680	17563
690.716	17875
690.724	17992
690.769	18399
690.813	19010
690.836	18767
690.857	18559
690.902	18870
690.946	19228
690.957	19228
690.991	20292
691.035	21425
691.077	23008
691.080	23073
691.124	23558
691.168	23856
691.198	23585
691.213	23110
691.257	22373
691.301	21526
691.318	21078
691.346	20830
691.390	19997
691.434	20004
691.439	19902
691.478	19926
691.522	19908
691.559	20130
691.567	20210
691.611	20831
691.655	20518
691.680	20713
691.699	20846
691.743	20865
691.787	20906
691.800	20781
691.831	20805
691.875	21005
691.919	21189
691.921	21163
691.964	21862
692.008	22360
692.041	22483
692.052	22390
692.096	21982
692.139	21929
692.162	21653
692.183	21546
692.227	21380
692.271	21240
692.282	21171
692.315	21417
692.359	21287
692.402	21776
692.403	21821
692.447	21883
692.490	21872
692.523	21412
692.534	21460
692.578	22524
692.622	22564
692.643	22899
692.666	22853
692.709	22129
692.753	21672
692.763	21549
692.797	21646
692.840	21562
692.884	21437
692.884	21484
692.928	21842
692.971	22223
693.004	22408
693.015	22436
693.059	22533
693.102	22409
693.124	22282
693.146	22207
693.189	22214
693.233	22218
693.245	22075
693.276	22299
693.320	22947
693.363	23401
693.365	23365
693.407	23535
693.450	23653
693.485	23566
693.493	23628
693.537	24047
693.580	24370
693.605	24516
693.624	24840
693.667	25304
693.710	25868
693.725	26023
693.753	27881
693.797	30891
693.840	33813
693.845	34056
693.883	32961
693.926	31750
693.966	30645
693.970	30468
694.013	27804
694.056	25403
694.086	23678
694.099	23884
694.142	24249
694.185	24364
694.206	24677
694.229	24910
694.272	24564
694.315	24274
694.326	24239
694.358	24817
694.401	25351
694.444	26091
694.446	26044
694.487	25943
694.530	26143
694.566	26338
694.573	26231
694.616	24617
694.659	23522
694.686	22708
694.702	22725
694.745	22439
694.787	22189
694.806	22079
694.830	22278
694.873	22536
694.916	22916
694.926	22868
694.959	22767
695.002	22725
695.044	22636
695.046	22587
695.087	23209
695.130	23549
695.166	23861
695.172	23940
695.215	23942
695.258	24076
695.286	24093
695.301	24125
695.343	23889
695.386	23914
695.406	23779
695.428	23680
695.471	23410
695.514	23290
695.526	23113
695.556	23691
695.599	24671
695.641	25579
695.646	25603
695.684	25107
695.726	24791
695.766	24094
695.769	24164
695.811	24516
695.854	24733
695.886	24932
695.896	24944
695.938	24575
695.981	24163
696.005	24050
696.023	24277
696.065	24380
696.108	24663
696.125	24641
696.150	24805
696.192	25246
696.235	25494
696.245	25503
696.277	25238
696.319	24640
696.361	24294
696.365	24187
696.404	24469
696.446	24743
696.485	25028
696.488	25129
696.530	25560
696.572	25890
696.604	26115
696.614	26076
696.656	25629
696.698	25257
696.724	24904
696.740	24829
696.783	24509
696.825	24101
696.844	23952
696.867	24211
696.909	24405
696.951	24487
696.964	24515
696.992	24719
697.034	24837
697.076	24867
697.083	24820
697.118	25010
697.160	25152
697.202	25238
697.203	25174
697.244	25203
697.286	25123
697.323	24905
697.327	24978
697.369	25114
697.411	25186
697.442	25226
697.453	25426
697.494	25909
697.536	26403
697.562	26667
697.578	26656
697.620	26382
697.661	26068
697.682	25898
697.703	26300
697.744	26905
697.786	27541
697.801	27665
697.828	28130
697.869	28830
697.911	29463
697.921	29537
697.952	29079
697.994	28433
698.035	27707
698.040	27548
698.077	26797
698.118	25830
698.160	24896
698.160	24821
698.201	25146
698.243	25327
698.279	25485
698.284	25607
698.325	26075
698.367	26505
698.399	26790
698.408	26796
698.449	26448
698.491	26138
698.518	25842
698.532	25988
698.573	26236
698.614	26465
698.638	26521
698.656	26703
698.697	26968
698.738	27206
698.757	27260
698.779	27346
698.820	27343
698.862	27346
698.877	27275
698.903	27591
698.944	27964
698.985	28341
698.996	28369
699.026	28314
699.067	28126
699.116	27826
699.235	26383
699.354	26087
699.474	27166
699.593	27607
699.713	28286
699.832	25988
699.951	28509
700.070	27181
700.190	26067
700.309	25636
700.428	26400
700.547	26370
700.667	26706
700.786	27856
700.905	25373
701.024	25198
701.143	26295
701.262	24195
701.381	25363
701.500	25904
701.619	27445
701.738	24620
701.857	24751
701.976	23384
702.095	23663
702.214	24177
702.333	25754
702.452	23865
702.571	23527
702.690	23372
702.809	22906
702.928	23094
703.047	23644
703.165	22604
703.284	23277
703.403	21683
703.522	23742
703.640	23379
703.759	26692
703.878	31083
703.997	23194
704.115	22014
704.234	22303
704.353	20894
704.471	22034
704.590	20734
704.708	21278
704.827	19685
704.946	21409
705.064	21615
705.183	21571
705.301	24755
705.420	33154
705.538	30220
705.656	27053
705.775	25709
705.893	28008
706.012	30518
706.130	27437
706.249	26959
706.367	27668
706.485	27462
706.604	27024
706.722	27215
706.840	29873
706.958	29317
707.077	26225
707.195	25036
707.313	24141
707.431	24532
707.549	25340
707.668	24044
707.786	24747
707.904	23419
708.022	24038
708.140	24208
708.258	23479
708.376	24290
708.494	23637
708.612	25620
708.730	34673
708.848	34034
708.966	31641
709.084	29626
709.202	28884
709.320	28252
709.438	29280
709.556	28874
709.674	28431
709.791	28508
709.909	26925
710.027	27704
710.145	27027
710.263	26726
710.380	26988
710.498	27308
710.616	27603
710.733	25140
710.851	27489
710.969	27447
711.086	25370
711.204	25514
711.322	26858
711.439	25240
711.557	26646
711.674	25104
711.792	25227
711.909	23872
712.027	24063
712.144	23871
712.262	24860
712.379	25649
712.497	35780
712.614	36174
712.732	32558
712.849	29566
712.966	30191
713.084	35320
713.201	32050
713.318	31377
713.436	29920
713.553	31509
713.670	30113
713.787	32216
713.905	32530
714.022	30327
714.139	29335
714.256	32023
714.373	34006
714.490	44637
714.608	75106
714.725	272571
714.842	357133
714.959	43479
715.076	30922
715.193	27273
715.310	27588
715.427	26513
715.544	26258
715.661	25253
715.778	25631
715.895	28247
716.011	27777
716.128	25916
716.245	26981
716.362	27823
716.479	28880
716.596	24297
716.713	24846
716.829	23990
716.946	25092
717.063	23217
717.180	24522
717.296	22968
717.413	23957
717.530	23546
717.646	23618
717.763	23179
717.880	21364
717.996	21314
718.113	23300
718.229	21288
718.346	21215
718.462	21540
718.579	25301
718.695	35198
718.812	31381
718.928	26425
719.045	23821
719.161	20449
719.277	19764
719.394	20017
719.510	20806
719.626	21576
719.743	26117
719.859	25897
719.975	32911
720.092	80311
720.208	202429
720.324	41541
720.440	23489
720.557	23907
720.673	31032
720.789	37003
720.905	63072
721.021	31669
721.137	21078
721.253	20890
721.369	20526
721.486	20761
721.602	26662
721.718	20015
721.834	18084
721.950	19425
722.066	18512
722.181	17453
722.297	18743
722.413	18650
722.529	18446
722.645	18251
722.761	16457
722.877	17309
722.993	17309
723.108	18663
723.224	17406
723.340	17891
723.456	16102
723.571	16732
723.687	16104
723.803	15573
723.918	16302
724.034	16824
724.150	17129
724.265	16996
724.381	25838
724.497	35802
724.612	16572
724.728	15474
724.843	15393
724.959	16455
725.074	25986
725.190	32631
725.305	16650
725.421	16432
725.536	14553
725.651	14567
725.767	15070
725.882	14125
725.997	13772
726.113	15315
726.228	15188
726.343	14500
726.459	13679
726.574	14515
726.689	14043
726.804	13391
726.920	14201
727.035	14056
727.150	15231
727.265	13443
727.380	15650
727.495	13706
727.610	12227
727.725	14007
727.841	12834
727.956	14457
728.071	15835
728.186	13318
728.301	12823
728.416	13555
728.531	13710
728.645	11786
728.760	12504
728.875	13193
728.990	12463
729.105	13330
729.220	13590
729.335	12553
729.449	13261
729.564	11858
729.679	11649
729.794	13167
729.908	13191
730.023	12482
730.138	11691
730.253	11610
730.367	11407
730.482	10995
730.596	11905
730.711	11851
730.826	12507
730.940	12127
731.055	13293
731.169	11674
731.284	11170
731.398	11254
731.513	12992
731.627	12241
731.742	13786
731.856	14337
731.970	11362
732.085	13789
732.199	15075
732.313	18241
732.428	34666
732.542	93868
732.656	70395
732.771	17446
732.885	13400
732.999	13213
733.113	12956
733.227	12297
733.342	12599
733.456	11839
733.570	12717
733.684	11438
733.798	11836
733.912	11080
734.026	10779
734.140	11616
734.254	12063
734.368	16408
734.482	20822
734.596	10872
734.710	11783
734.824	10272
734.938	11178
735.052	10864
735.166	12775
735.280	11537
735.393	11553
735.507	11143
735.621	13353
735.735	18322
735.849	12631
735.962	10840
736.076	10443
736.190	10606
736.303	13690
736.417	16876
736.531	9684
736.644	10893
736.758	9406
736.872	9218
736.985	9557
737.099	9060
737.212	9356
737.326	8889
737.439	9959
737.553	9364
737.666	9312
737.780	8914
737.893	9390
738.007	9145
738.120	9659
738.233	8944
738.347	9439
738.460	8776
738.573	10128
738.687	9560
738.800	10975
738.913	11194
739.026	10265
739.140	9282
739.253	8885
739.366	9037
739.479	9271
739.592	8081
739.705	8409
739.818	9265
739.932	8384
740.045	8545
740.158	9684
740.271	8748
740.384	8433
740.497	8052
740.610	8542
740.723	8163
740.836	9333
740.949	8732
741.062	11373
741.174	10934
741.287	9176
741.400	7485
741.513	8146
741.626	9218
741.739	9140
741.851	8867
741.964	8038
742.077	7853
742.189	8221
742.302	8573
742.415	8656
742.527	7561
742.640	8322
742.753	7679
742.865	7259
742.978	7987
743.090	7669
743.203	7587
743.316	7316
743.428	7627
743.541	7425
743.653	7518
743.766	7351
743.878	7225
743.990	8939
744.103	8589
744.215	7972
744.327	6788
744.440	9839
744.552	13182
744.664	8793
744.777	7116
744.889	7118
745.001	8421
745.113	7464
745.226	6512
745.338	8289
745.450	7242
745.562	7615
745.674	6623
745.786	7166
745.898	7365
746.010	6495
746.122	7549
746.234	6919
746.347	6607
746.459	7196
746.570	6025
746.682	6842
746.794	6158
746.906	6427
747.018	6893
747.130	7206
747.242	5904
747.354	7511
747.466	6855
747.577	6705
747.689	6477
747.801	6757
747.913	5911
748.024	5408
748.136	6229
748.248	6511
748.359	6891
748.471	6595
748.583	6718
748.694	6043
748.806	7147
748.918	7996
749.029	7649
749.141	8060
749.252	7541
749.364	8325
749.475	13694
749.587	9805
749.698	6048
749.809	6775
749.921	6378
750.032	5546
750.144	5533
750.255	5825
750.366	6045
750.478	5666
750.589	6031
750.700	6811
750.811	7306
750.923	8299
751.034	14140
751.145	16925
751.256	6599
751.367	6193
751.479	6683
751.590	5266
751.701	5730
751.812	6283
751.923	6161
752.034	5775
752.145	5706
752.256	6386
752.367	5734
752.478	5553
752.589	6333
752.700	5848
752.811	5558
752.922	5528
753.032	5873
753.143	8373
753.254	5259
753.365	5945
753.476	5700
753.586	5838
753.697	4925
753.808	5358
753.919	5067
754.029	5086
754.140	5398
754.251	5989
754.361	4626
754.472	5750
754.582	5298
754.693	5938
754.804	5322
754.914	4966
755.025	4062
755.135	4911
755.246	5472
755.356	5322
755.466	6064
755.577	5588
755.687	5778
755.798	5253
755.908	4492
756.018	5276
756.129	5119
756.239	5221
756.349	5626
756.460	5520
756.570	5343
756.680	5755
756.790	5817
756.900	6521
757.011	4618
757.121	4607
757.231	5271
757.341	5247
757.451	4575
757.561	4410
757.671	4033
757.781	4959
757.891	5478
758.001	4929
758.111	6113
758.221	5484
758.331	5721
758.441	6725
758.551	7425
758.661	7162
758.771	5761
758.880	5712
758.990	5669
759.100	5450
759.210	5766
759.320	5475
759.429	5646
759.539	5621
759.649	5771
759.758	5244
759.868	5417
759.978	5768
760.087	5847
760.197	5953
760.307	6245
760.416	6385
760.526	5379
760.635	5993
760.745	5789
760.854	6367
760.964	6728
761.073	6948
761.182	5671
761.292	6006
761.401	6828
761.511	5320
761.620	5803
761.729	5871
761.839	5657
761.948	5670
762.057	5787
762.166	6001
762.276	4347
762.385	7400
762.494	5214
762.603	5481
762.712	5448
762.822	6039
762.931	5457
763.040	4981
763.149	6025
763.258	5231
763.367	5372
763.476	6778
763.585	5371
763.694	5853
763.803	6187
763.912	7360
764.021	5516
764.130	7022
764.238	6572
764.347	6388
764.456	6695
764.565	6575
764.674	6454
764.783	6200
764.891	6536
765.000	8313
765.109	7465
765.217	7958
765.326	9405
765.435	10670
765.543	11115
765.652	11977
765.761	14292
765.869	19190
765.978	27089
766.086	44772
766.195	83824
766.303	196682
766.412	476324
766.520	494556
766.629	189805
766.737	68907
766.846	38138
766.954	25474
767.062	20403
767.171	16404
767.279	14906
767.387	11214
767.496	10528
767.604	9763
767.712	9313
767.820	9140
767.928	8554
768.037	7187
768.145	8677
768.253	7620
768.361	7877
768.469	8063
768.577	6597
768.685	9348
768.793	8399
768.901	9123
769.009	9160
769.117	9712
769.225	11427
769.333	14660
769.441	20641
769.549	33839
769.657	71283
769.765	205706
769.873	442339
769.981	227784
770.088	55992
770.196	26115
770.304	17696
770.412	14915
770.519	10648
770.627	9767
770.735	8699
770.842	9199
770.950	8174
771.058	7652
771.165	8047
771.273	7587
771.380	7541
771.488	6914
771.595	7199
771.703	7081
771.810	6712
771.918	6371
772.025	7152
772.133	7134
772.240	7259
772.348	8222
772.455	7077
772.562	6239
772.670	6179
772.777	6414
772.884	6356
772.991	6250
773.099	6005
773.206	5336
773.313	6442
773.420	6704
773.528	5623
773.635	5708
773.742	5812
773.849	6598
773.956	5221
774.063	6263
774.170	6251
774.277	6263
774.384	5150
774.491	5971
774.598	6399
774.705	6525
774.812	7296
774.919	6243
775.026	6344
775.133	6848
775.239	5434
775.346	5984
775.453	4860
775.560	4911
775.667	6845
775.773	5316
775.880	5486
775.987	5377
776.093	5899
776.200	6058
776.307	5306
776.413	6030
776.520	5152
776.627	5645
776.733	6238
776.840	4465
776.946	6793
777.053	6014
777.159	5514
777.266	5489
777.372	6862
777.478	5927
777.585	5704
777.691	5203
777.798	4833
777.904	5698
778.010	6644
778.117	7181
778.223	4846
778.329	4407
778.435	5466
778.542	5891
778.648	4834
778.754	4586
778.860	4875
778.966	4814
779.072	4293
779.178	5252
779.284	5107
779.391	4791
779.497	4458
779.603	5915
779.708	4281
779.815	6372
779.920	11916
780.026	27144
780.132	7575
780.238	5757
780.344	4556
780.450	6413
780.556	4365
780.661	4128
780.767	5110
780.873	5518
780.979	4838
781.085	3971
781.190	4273
781.296	4389
781.402	4394
781.507	3934
781.613	4032
781.719	4235
781.824	4765
781.930	4919
782.035	3959
782.141	4857
782.246	3912
782.352	4290
782.457	4204
782.563	4736
782.668	4461
782.773	4457
782.879	4283
782.984	4209
783.090	5570
783.195	7494
783.300	5365
783.405	5136
783.511	3704
783.616	5154
783.721	4112
783.826	3776
783.932	3966
784.037	5066
784.142	3584
784.247	4342
784.352	4461
784.457	4825
784.562	4480
784.667	3818
784.772	3520
784.877	3981
784.982	3892
785.087	4172
785.192	4376
785.297	4087
785.402	4256
785.507	3888
785.611	3553
785.716	3877
785.821	3945
785.926	4506
786.031	4351
786.135	4691
786.240	4339
786.345	3513
786.450	3137
786.554	3695
786.659	3142
786.763	3530
786.868	4065
786.973	4988
787.077	3208
787.182	3472
787.286	4105
787.391	3885
787.495	3430
787.600	3614
787.704	3505
787.809	4343
787.913	3495
788.017	4146
788.122	3180
788.226	4354
788.330	2605
788.435	3605
788.539	3110
788.643	3439
788.747	4235
788.852	3009
788.956	2506
789.060	3862
789.164	3797
789.268	3455
789.372	3453
789.476	4058
789.580	3034
789.684	3478
789.788	4283
789.892	3306
789.996	3601
790.100	3410
790.204	3106
790.308	3384
790.412	2864
790.516	4414
790.620	3442
790.724	4066
790.828	3455
790.931	3091
791.035	4637
791.139	3182
791.242	1692
791.346	3704
791.450	3275
791.554	3016
791.657	2954
791.761	4498
791.864	3960
791.968	3858
792.072	3252
792.175	2375
792.279	2904
792.382	3296
792.486	2977
792.589	2774
792.693	3661
792.796	2621
792.899	3589
793.003	3147
793.106	2612
793.209	2824
793.313	4018
793.416	1928
793.519	4098
793.623	5274
793.726	6394
793.829	4091
793.932	3795
794.035	3510
794.138	3799
794.242	3903
794.345	3779
794.448	4556
794.551	5403
794.654	9297
794.757	12793
794.860	5327
794.963	3836
795.066	2439
795.169	3840
795.272	2679
795.375	3002
795.477	2752
795.580	2556
795.683	1197
795.786	3887
795.889	2075
795.991	3441
796.094	3186
796.197	2198
796.300	3743
796.402	2455
796.505	3351
796.608	2296
796.710	2812
796.813	2583
796.915	2201
797.018	2450
797.120	3267
797.223	1178
797.326	3607
797.428	1892
797.530	1790
797.633	2674
797.735	3613
797.838	3670
797.940	5690
798.042	2142
798.145	2814
798.247	3031
798.349	1926
798.452	3102
798.554	2393
798.656	1358
798.758	4062
798.860	2012
798.962	1656
799.065	2279
799.167	1768
799.269	3471
799.371	3459
799.473	3900
799.575	3224
799.677	2684
799.779	4787
799.881	3878
799.983	3976
800.085	2351
800.187	2383
800.289	1956
800.390	2373
800.492	2910
800.594	2671
800.696	2229
800.798	2185
800.899	2517
801.001	2499
801.103	2010
801.205	1625
801.306	2482
801.408	2061
801.509	2670
801.611	2075
801.713	2253
801.814	2024
801.916	1788
802.017	2476
802.119	1381
802.220	2361
802.322	1359
802.423	4434
802.525	2291
802.626	2899
802.727	2064
802.829	2500
802.930	823
803.031	4112
803.133	2375
803.234	2583
803.335	1910
803.436	973
803.538	1706
803.639	1628
803.740	1386
803.841	1788
803.942	1241
804.043	2593
804.144	1552
804.245	2310
804.346	1302
804.447	1580
804.548	3826
804.649	4390
804.750	2595
804.851	1495
804.952	1217
805.053	1740
805.154	953
805.255	2399
805.355	1654
805.456	2385
805.557	1245
805.658	1185
805.758	1886
805.859	1773
805.960	1978
806.061	685
806.161	900
806.262	2416
806.362	2231
806.463	1234
806.564	2292
806.664	2481
806.765	3133
806.865	3395
806.966	1676
807.066	1424
807.166	3082
807.267	2424
807.367	1611
807.468	2439
807.568	1293
807.668	2889
807.769	2289
807.869	1664
807.969	2028
808.069	1483
808.170	1786
808.270	2612
808.370	2272
808.470	2939
808.570	1983
808.670	2113
808.770	2279
808.870	565
808.970	1558
809.070	1500
809.170	1574
809.271	3358
809.370	1480
809.470	1905
809.570	1452
809.670	1952
809.770	2430
809.870	2875
809.970	2103
810.070	1596
810.169	2200
810.269	515
810.369	1623
810.469	1615
810.568	1028
810.668	1548
810.768	1360
810.867	1726
810.967	1529
811.066	2087
811.166	2062
811.265	2232
811.365	830
811.464	1447
811.564	1681
811.663	1796
811.763	1825
811.862	1995
811.962	2282
812.061	1758
812.160	534
812.260	2449
812.359	2378
812.458	2995
812.557	7606
812.657	12096
812.756	4800
812.855	2588
812.954	1662
813.053	1953
813.153	1158
813.252	1342
813.351	2065
813.450	1770
813.549	1486
813.648	2238
813.747	1800
813.846	2441
813.945	1451
814.044	1829
814.143	1561
814.242	2700
814.341	1104
814.439	1560
814.538	2537
814.637	2254
814.736	2286
814.835	3193
814.933	1888
815.032	2659
815.131	1603
815.229	2758
815.328	3833
815.427	3207
815.525	3199
815.624	2839
815.722	2251
815.821	3590
815.919	3159
816.018	2512
816.116	3500
816.215	3224
816.313	2663
816.412	3840
816.510	3836
816.609	4904
816.707	4060
816.805	4801
816.904	4219
817.002	5003
817.100	5357
817.198	6292
817.296	5819
817.395	7367
817.493	8867
817.591	9697
817.689	13084
817.787	16483
817.885	25709
817.983	42418
818.081	83877
818.179	182626
818.277	399549
818.375	409774
818.473	153786
818.571	61993
818.669	39305
818.767	33694
818.865	32495
818.963	37156
819.061	49712
819.158	81184
819.256	150525
819.354	303628
819.452	535551
819.549	448421
819.647	197304
819.745	89231
819.842	50400
819.940	34079
820.038	25081
820.135	19165
820.233	15655
820.330	12732
820.428	10372
820.525	10644
820.623	8075
820.720	8105
820.818	7276
820.915	6359
821.012	5817
821.110	4990
821.207	5639
821.304	4346
821.402	4956
821.499	5635
821.596	4414
821.693	4927
821.791	5077
821.888	5085
821.985	7610
822.082	7182
822.179	4067
822.276	3346
822.373	3295
822.470	2632
822.567	3080
822.664	1874
822.761	3450
822.858	2438
822.955	2535
823.052	2135
823.149	1837
823.246	2633
823.343	2121
823.440	3384
823.536	1057
823.633	1739
823.730	1671
823.827	1944
823.923	2839
824.020	3202
824.117	1834
824.213	1896
824.310	2749
824.407	1579
824.503	2220
824.600	2728
824.696	1813
824.793	3360
824.889	1051
824.986	2503
825.082	980
825.179	3030
825.275	1438
825.371	1447
825.468	2477
825.564	-68
825.660	1525
825.757	2527
825.853	1534
825.949	720
826.045	1175
826.142	1012
826.238	855
826.334	1300
826.430	830
826.526	1462
826.622	1019
826.718	2274
826.814	1583
826.910	2571
827.006	1046
827.102	1343
827.198	2377
827.294	918
827.390	1652
827.486	2288
827.582	172
827.678	1433
827.774	1637
827.869	1079
827.965	2171
828.061	1420
828.157	1117
828.252	1209
828.348	1366
828.444	2058
828.539	739
828.635	1274
828.731	1936
828.826	1081
828.922	780
829.017	1531
829.113	2357
829.208	1091
829.304	1161
829.399	2621
829.495	806
829.590	1770
829.685	231
829.781	2168
829.876	1226
829.971	1220
830.066	1367
830.162	952
830.257	897
830.352	1635
830.447	2081
830.543	1716
830.638	775
830.733	2583
830.828	1007
830.923	2061
831.018	1451
831.113	1496
831.208	427
831.303	1736
831.398	593
831.493	687
831.588	1740
831.683	1232
831.778	797
831.873	1347
831.967	719
832.062	580
832.157	498
832.252	1503
832.346	1190
832.441	2345
832.536	2560
832.631	6790
832.725	6257
832.820	919
832.914	418
833.009	891
833.104	1191
833.198	3014
833.293	1477
833.387	1204
833.482	1178
833.576	705
833.670	1811
833.765	1728
833.859	611
833.954	1772
834.048	1228
834.142	1208
834.237	-538
834.331	1179
834.425	1427
834.519	1258
834.613	1174
834.708	523
834.802	1179
834.896	780
834.990	1065
835.084	1407
835.178	551
835.272	591
835.366	1053
835.460	1260
835.554	831
835.648	575
835.742	556
835.836	1595
835.930	-49
836.024	1100
836.117	2243
836.211	1662
836.305	1435
836.399	3008
836.493	1034
836.586	1875
836.680	276
836.774	791
836.867	1596
836.961	747
837.055	353
837.148	1347
837.242	598
837.335	869
837.429	935
837.522	1456
837.616	2105
837.709	3597
837.803	2035
837.896	1127
837.989	1483
838.083	3251
838.176	4077
838.269	4304
838.363	1964
838.456	1120
838.549	1701
838.642	3877
838.735	8087
838.829	4524
838.922	890
839.015	694
839.108	149
839.201	1000
839.294	1400
839.387	1415
839.480	79
839.573	1687
839.666	2715
839.759	601
839.852	646
839.945	1173
840.038	-357
840.131	1483
840.223	1597
840.316	1372
840.409	586
840.502	1038
840.594	1098
840.687	-720
840.780	502
840.873	870
840.965	816
841.058	2392
841.150	3970
841.243	2711
841.336	1225
841.428	571
841.521	174
841.613	830
841.706	2003
841.798	1031
841.890	872
841.983	171
842.075	1131
842.167	1162
842.260	991
842.352	2098
842.444	2548
842.537	3792
842.629	6523
842.721	1551
842.813	809
842.905	329
842.997	1327
843.090	1337
843.182	1863
843.274	3470
843.366	8450
843.458	17446
843.550	13266
843.642	2626
843.734	1349
843.826	938
843.918	1447
844.009	663
844.101	457
844.193	1211
844.285	-7
844.377	1052
844.469	1575
844.560	1296
844.652	716
844.744	1710
844.835	366
844.927	457
845.019	927
845.110	1293
845.202	243
845.293	1182
845.385	634
845.476	694
845.568	1901
845.659	879
845.751	1032
845.842	599
845.934	304
846.025	457
846.116	580
846.208	949
846.299	575
846.390	968
846.482	1225
846.573	1588
846.664	1973
846.755	3002
846.846	2403
846.937	178
847.029	172
847.120	934
847.211	625
847.302	1796
847.393	48
847.484	1084
847.575	-520
847.666	868
847.757	145
847.847	1079
847.938	1476
848.029	8
848.120	254
848.211	1522
848.302	345
848.392	803
848.483	1547
848.574	76
848.664	632
848.755	506
848.846	12
848.936	-120
849.027	909
849.118	158
849.208	214
849.299	1917
849.389	1495
849.480	2868
849.570	4521
849.661	8763
849.751	17640
849.841	7738
849.932	1287
850.022	1108
850.112	906
850.203	723
850.293	366
850.383	608
850.474	-712
850.564	366
850.654	320
850.744	1154
850.834	1105
850.924	833
851.014	432
851.104	1091
851.194	667
851.284	1835
851.374	1598
851.464	1611
851.554	1207
851.644	1087
851.734	1715
851.824	866
851.914	227
852.004	523
852.094	845
852.183	381
852.273	1885
852.363	51
852.452	482
852.542	1087
852.632	413
852.721	757
852.811	272
852.901	944
852.990	517
853.080	671
853.169	159
853.259	1176
853.348	888
853.438	521
853.527	1351
853.617	1698
853.706	3599
853.795	6908
853.885	14409
853.974	30483
854.063	53084
854.152	96985
854.242	42279
854.331	6613
854.420	2822
854.509	2415
854.598	1909
854.687	2214
854.777	1422
854.866	1190
854.955	1207
855.044	1252
855.133	540
855.222	122
855.311	-124
855.400	593
855.488	-40
855.577	393
855.666	447
855.755	1488
855.844	764
855.933	157
856.021	637
856.110	957
856.199	-375
856.288	186
856.376	318
856.465	-311
856.554	337
856.642	379
856.731	340
856.819	1118
856.908	44
856.996	955
857.085	115
857.173	870
857.262	315
857.350	302
857.438	1501
857.527	990
857.615	771
857.703	973
857.792	-242
857.880	925
857.968	-50
858.056	290
858.145	1375
858.233	224
858.321	-66
858.409	1059
858.497	-304
858.585	210
858.673	218
858.761	-94
858.849	550
858.937	-308
859.025	-438
859.113	1015
859.201	135
859.289	1306
859.377	472
859.465	466
859.552	592
859.640	219
859.728	133
859.816	243
859.903	492
859.991	307
860.079	191
860.166	-517
860.254	405
860.342	1557
860.429	-147
860.517	277
860.604	484
860.692	1301
860.779	1069
860.867	617
860.954	561
861.042	1044
861.129	882
861.216	-161
861.304	594
861.391	1022
861.478	-307
861.565	1244
861.653	924
861.740	-56
861.827	34
861.914	523
862.001	-121
862.089	404
862.176	-181
862.263	483
862.350	167
862.437	463
862.524	20
862.611	-95
862.698	467
862.785	290
862.871	1071
862.958	532
863.045	576
863.132	357
863.219	79
863.306	171
863.392	-31
863.479	363
863.566	-153
863.652	436
863.739	-347
863.826	422
863.912	-84
863.999	-19
864.086	369
864.172	41
864.259	48
864.345	879
864.432	394
864.518	61
864.604	159
864.691	289
864.777	1145
864.863	1262
864.950	525
865.036	509
865.122	2448
865.209	1726
865.295	1529
865.381	1457
865.467	807
865.553	2642
865.639	1609
865.726	3916
865.812	7377
865.898	15865
865.984	23532
866.070	41682
866.156	54516
866.242	15915
866.328	2786
866.414	1830
866.499	1211
866.585	1320
866.671	1489
866.757	1326
866.843	1805
866.928	1353
867.014	783
867.100	1754
867.186	1007
867.271	2262
867.357	2400
867.442	2452
867.528	1487
867.614	1192
867.699	776
867.785	815
867.870	643
867.956	1264
868.041	1722
868.127	1518
868.212	1701
868.297	1283
868.383	1641
868.468	2105
868.553	3234
868.639	4458
868.724	8300
868.809	9737
868.894	2754
868.979	1190
869.065	615
869.150	142
869.235	583
869.320	578
869.405	0
869.490	1273
869.575	509
869.660	763
869.745	598
869.830	793
869.915	-184
870.000	1424
870.085	794
870.169	1070
870.254	734
870.339	-95
870.424	248
870.509	838
870.593	434
870.678	1192
870.763	707
870.847	-263
870.932	-35
871.016	767
871.101	354
871.186	-180
871.270	1075
871.355	137
871.439	730
871.523	894
871.608	550
871.692	565
871.777	814
871.861	1195
871.945	-974
872.030	1385
872.114	-485
872.198	94
872.282	-237
872.367	309
872.451	-370
872.535	349
872.619	-6
872.703	-362
872.787	160
872.871	281
872.955	542
873.039	-74
873.123	511
873.207	1056
873.291	633
873.375	-622
873.459	868
873.543	62
873.627	-299
873.711	240
873.794	250
873.878	98
873.962	-719
874.045	287
874.129	443
874.137	438
874.213	394
874.245	145
874.296	-255
874.352	62
874.380	212
874.460	213
874.464	213
874.547	-5
874.568	139
874.631	568
874.676	93
874.714	-300
874.784	267
874.798	377
874.881	1741
874.892	1546
874.965	224
874.999	362
875.048	515
875.107	442
875.131	423
875.215	381
875.215	380
875.298	-1051
875.323	-880
875.381	-349
875.430	-61
875.465	108
875.538	300
875.548	330
875.631	699
875.646	629
875.714	240
875.753	45
875.798	-132
875.861	-11
875.881	-10
875.964	-371
875.968	-345
876.047	351
876.076	259
876.130	27
876.183	145
876.213	173
876.291	927
876.296	986
876.379	576
876.398	357
876.462	-466
876.506	-33
876.545	420
876.613	-500
876.628	-701
876.711	449
876.721	420
876.794	119
876.828	37
876.877	-21
876.935	-8
876.960	-38
877.043	617
877.043	616
877.125	681
877.150	789
877.208	840
877.258	393
877.291	241
877.365	973
877.374	1026
877.456	428
877.472	428
877.539	477
877.579	322
877.622	149
877.687	530
877.704	675
877.787	151
877.794	152
877.869	-8
877.901	181
877.952	533
878.008	701
878.034	763
878.115	-160
878.117	-180
878.199	-321
878.222	-335
878.282	-137
878.329	611
878.364	1001
878.437	461
878.447	414
878.529	-256
878.544	-160
878.611	184
878.651	330
878.694	461
878.758	174
878.776	131
878.858	474
878.865	400
878.941	-600
878.972	-342
879.023	245
879.078	205
879.105	155
879.185	545
879.187	548
879.269	440
879.292	328
879.351	12
879.399	-328
879.433	-347
879.506	344
879.516	393
879.598	465
879.613	377
879.680	105
879.720	242
879.762	320
879.827	145
879.844	101
879.926	324
879.933	347
880.007	834
880.040	603
880.089	81
880.147	1313
880.171	1859
880.253	3466
880.254	3479
880.335	5083
880.360	5516
880.417	6656
880.467	9736
880.499	11929
880.574	15892
880.580	15969
880.662	5724
880.680	4432
880.744	940
880.787	685
880.825	545
880.893	99
880.907	67
880.989	-77
881.000	-59
881.070	57
881.106	46
881.152	210
881.213	430
881.233	331
881.315	323
881.319	297
881.396	511
881.426	554
881.478	161
881.532	-115
881.559	-83
881.639	37
881.641	31
881.722	-135
881.745	-161
881.803	225
881.852	287
881.885	111
881.958	112
881.966	125
882.047	587
882.064	564
882.129	485
882.171	372
882.210	437
882.277	1926
882.291	2155
882.372	550
882.383	500
882.454	234
882.489	-51
882.535	-293
882.596	94
882.616	164
882.697	-295
882.702	-280
882.778	357
882.808	350
882.859	56
882.914	229
882.940	352
883.020	32
883.021	32
883.102	273
883.127	331
883.183	72
883.233	-257
883.264	-131
883.339	-130
883.345	-182
883.426	-229
883.445	-341
883.507	-437
883.551	-230
883.587	-138
883.657	-353
883.668	-249
883.749	697
883.763	815
883.830	261
883.869	-37
883.910	-110
883.975	-151
883.991	-207
884.072	-468
884.081	-501
884.152	-95
884.187	118
884.233	150
884.292	0
884.314	-124
884.394	-155
884.398	-167
884.475	-328
884.504	-384
884.555	-32
884.610	-29
884.636	-253
884.716	8
884.716	15
884.797	611
884.821	762
884.877	489
884.927	-96
884.958	-157
885.033	178
885.038	189
885.118	208
885.139	237
885.199	88
885.244	-117
885.279	-222
885.350	-357
885.359	-330
885.439	-182
885.456	-106
885.520	35
885.561	-5
885.600	4
885.667	331
885.680	349
885.760	-220
885.773	-225
885.840	30
885.878	103
885.920	215
885.984	397
886.000	342
886.080	-83
886.089	-112
886.160	-13
886.195	57
886.240	-121
886.300	-593
886.320	-590
886.400	-135
886.406	-117
886.480	1
886.511	-3
886.560	199
886.616	457
886.640	551
886.720	947
886.722	952
886.800	-225
886.827	-643
886.879	-573
886.932	-575
886.959	-347
887.038	492
887.039	487
887.119	-208
887.143	-360
887.198	-192
887.248	-129
887.278	-142
887.354	-182
887.358	-199
887.437	-531
887.459	-618
887.517	56
887.564	641
887.596	391
887.669	-378
887.676	-354
887.755	78
887.774	187
887.835	97
887.880	63
887.914	266
887.985	575
887.994	546
888.073	305
888.090	232
888.153	222
888.195	298
888.232	10
888.300	-636
888.311	-583
888.391	-162
888.405	-65
888.470	-579
888.510	-978
888.549	-740
888.615	-260
888.628	-169
888.708	369
888.720	457
888.787	300
888.825	182
888.866	151
888.930	79
888.945	59
889.024	77
889.035	68
889.103	226
889.140	316
889.182	393
889.245	497
889.261	361
889.340	-254
889.349	-325
889.419	-262
889.454	-218
889.498	40
889.559	399
889.577	454
889.656	708
889.664	732
889.735	344
889.768	158
889.814	327
889.873	553
889.978	210
890.083	318
890.187	-243
890.292	-612
890.397	-46
890.501	17
890.606	-183
890.710	460
890.815	248
890.919	-613
891.024	-348
891.128	885
891.233	6
891.337	26
891.442	-1102
891.546	1024
891.650	-189
891.755	-26
891.859	1122
891.963	459
892.068	167
892.172	774
892.276	-329
892.380	232
892.484	449
892.589	1018
892.693	-45
892.797	-734
892.901	-22
893.005	-94
893.109	434
893.213	542
893.317	345
893.421	1005
893.525	-528
893.629	-286
893.733	366
893.837	256
893.941	-310
894.045	462
894.148	-51
894.252	352
894.356	210
894.460	694
894.564	535
894.667	61
894.771	-926
894.875	-293
894.978	-124
895.082	-233
895.186	341
895.289	1411
895.393	453
895.496	-400
895.600	-310
895.703	715
895.807	-295
895.910	681
896.014	-304
896.117	-660
896.221	621
896.324	512
896.427	26
896.531	184
896.634	-225
896.737	389
896.840	-82
896.944	-211
897.047	323
897.150	582
897.253	-546
897.356	713
897.460	11
897.563	-129
897.666	79
897.769	297
897.872	10
897.975	254
898.078	-30
898.181	425
898.284	210
898.387	201
898.490	685
898.593	-390
898.695	213
898.798	-175
898.901	234
899.004	-287
899.107	-597
899.209	738
899.312	-21
899.415	38
899.518	-242
899.620	280
899.723	716
899.826	345
899.928	685
900.031	-300
900.133	464
900.236	385
900.338	660
900.441	33
900.543	-565
900.646	1
900.748	-39
900.851	-296
900.953	567
901.055	88
901.158	483
901.260	-66
901.362	81
901.465	182
901.567	495
901.669	317
901.771	-227
901.873	437
901.976	-239
902.078	201
902.180	-54
902.282	746
902.384	224
902.486	-346
902.588	1
902.690	535
902.792	413
902.894	211
902.996	-133
903.098	565
903.200	-31
903.302	91
903.404	-170
903.505	-345
903.607	14
903.709	697
903.811	-660
903.913	514
904.014	-804
904.116	-74
904.218	-375
904.319	864
904.421	148
904.523	-347
904.624	72
904.726	218
904.827	-512
904.929	399
905.030	462
905.132	290
905.233	313
905.335	-508
905.436	367
905.537	-78
905.639	262
905.740	166
905.841	-728
905.943	451
906.044	-188
906.145	340
906.247	314
906.348	-326
906.449	406
906.550	-1108
906.651	567
906.752	484
906.854	-151
906.955	-582
907.056	-556
907.157	103
907.258	-421
907.359	-300
907.460	-765
907.561	72
907.662	172
907.762	71
907.863	301
907.964	-109
908.065	147
908.166	-365
908.267	19
908.367	810
908.468	790
908.569	288
908.670	143
908.770	184
908.871	732
908.971	460
909.072	-320
909.173	443
909.273	-1039
909.374	316
909.474	290
909.575	-98
909.675	463
909.776	-585
909.876	-725
909.977	-128
910.077	180
910.177	-37
910.278	543
910.378	386
910.478	489
910.579	-171
910.679	-268
910.779	-41
910.879	42
910.980	118
911.080	55
911.180	371
911.280	185
911.380	157
911.480	-616
911.580	-600
911.680	-398
911.780	37
911.880	-62
911.980	-77
912.080	-516
912.180	245
912.280	-474
912.380	288
912.480	262
912.580	920
912.679	261
912.779	-256
912.879	-165
912.979	-116
913.078	-74
913.178	-208
913.278	697
913.377	-477
913.477	-288
913.577	330
913.676	356
913.776	-221
913.875	-204
913.975	483
914.074	-139
914.174	713
914.273	-734
914.373	967
914.472	222
914.572	-536
914.671	-206
914.770	-142
914.870	-564
914.969	318
915.068	-444
915.167	37
915.267	-549
915.366	-137
915.465	166
915.564	-297
915.663	-205
915.763	191
915.862	-496
915.961	189
916.060	-437
916.159	135
916.258	-681
916.357	-487
916.456	-310
916.555	738
916.654	-34
916.752	190
916.851	194
916.950	228
917.049	87
917.148	-758
917.247	569
917.345	-35
917.444	-714
917.543	147
917.642	-738
917.740	-376
917.839	17
917.937	387
918.036	334
918.135	640
918.233	-407
918.332	-21
918.430	-443
918.529	224
918.627	452
918.726	695
918.824	-236
918.923	-146
919.021	-497
919.119	-440
919.218	-298
919.316	354
919.414	368
919.512	-338
919.611	-149
919.709	-178
919.807	-822
919.905	622
920.003	-67
920.102	-555
920.200	423
920.298	137
920.396	-67
920.494	-315
920.592	24
920.690	107
920.788	-312
920.886	224
920.984	-471
921.082	520
921.180	523
921.277	50
921.375	63
921.473	69
921.571	-311
921.669	126
921.766	-682
921.864	-244
921.962	583
922.060	899
922.157	152
922.255	395
922.352	138
922.450	484
922.548	-469
922.645	-210
922.743	582
922.840	-462
922.938	114
923.035	430
923.133	187
923.230	1300
923.327	508
923.425	701
923.522	406
923.619	364
923.717	-484
923.814	523
923.911	-430
924.008	415
924.106	192
924.203	-343
924.300	15
924.397	-464
924.494	874
924.591	1282
924.688	131
924.786	424
924.883	335
924.979	795
925.077	-183
925.173	556
925.270	130
925.367	-146
925.464	-63
925.561	696
925.658	225
925.755	520
925.852	36
925.948	459
926.045	681
926.142	233
926.239	532
926.335	1185
926.432	475
926.529	556
926.625	-86
926.722	-109
926.818	-188
926.915	636
927.011	270
927.108	242
927.204	530
927.301	153
927.397	-72
927.494	115
927.590	476
927.687	524
927.783	-606
927.879	-625
927.976	-375
928.072	270
928.168	-306
928.264	235
928.361	-460
928.457	4
928.553	-253
928.649	560
928.745	462
928.841	312
928.937	469
929.033	-138
929.129	-54
929.225	-584
929.321	331
929.417	537
929.513	165
929.609	-67
929.705	762
929.801	412
929.897	274
929.993	161
930.089	388
930.184	6
930.280	310
930.376	690
930.471	-93
930.567	188
930.663	-293
930.758	378
930.854	79
930.950	-369
931.045	-292
931.141	658
931.236	1043
931.332	403
931.427	194
931.523	717
931.618	-40
931.714	840
931.809	196
931.905	-95
932.000	-714
932.095	627
932.191	-495
932.286	-276
932.381	-740
932.476	382
932.572	298
932.667	-474
932.762	-200
932.857	227
932.952	-28
933.047	100
933.142	-1161
933.237	-161
933.332	283
933.427	271
933.522	-305
933.617	20
933.712	208
933.807	214
933.902	-128
933.997	547
934.092	589
934.187	-257
934.282	297
934.376	-70
934.471	-418
934.566	205
934.661	547
934.755	386
934.850	-375
934.945	633
935.039	-355
935.134	1096
935.228	-399
935.323	1031
935.417	-468
935.512	78
935.606	-933
935.701	-243
935.795	10
935.890	377
935.984	385
936.079	-217
936.173	808
936.267	497
936.362	-561
936.456	899
936.550	10
936.644	-446
936.738	178
936.833	-1036
936.927	709
937.021	-268
937.115	430
937.209	-971
937.303	149
937.397	266
937.491	-91
937.585	979
937.679	283
937.773	-349
937.867	119
937.961	68
938.055	-259
938.149	835
938.243	-46
938.337	268
938.430	-61
938.524	155
938.618	154
938.712	599
938.805	-438
938.899	932
938.993	-226
939.086	-208
939.180	-375
939.274	498
939.367	-842
939.461	414
939.554	-505
939.648	-446
939.741	-712
939.835	-272
939.928	325
940.022	357
940.115	-461
940.208	52
940.302	651
940.395	287
940.488	-813
940.582	503
940.675	-41
940.768	-638
940.861	-988
940.954	592
941.048	-418
941.141	936
941.234	-364
941.327	-476
941.420	143
941.513	721
941.606	-490
941.699	372
941.792	-359
941.885	999
941.978	220
942.071	-113
942.164	-1032
942.257	-47
942.349	-297
942.442	-746
942.535	-722
942.628	-282
942.721	-87
942.813	-1063
942.906	270
942.999	-281
943.091	-663
943.184	172
943.277	-1029
943.369	370
943.462	-870
943.554	-187
943.647	-1143
943.739	-205
943.832	41
943.924	-1421
944.017	433
944.109	-674
944.201	-320
944.294	-289
944.386	-681
944.478	-512
944.571	-484
944.663	-339
944.755	-586
944.847	575
944.940	155
945.032	-1034
945.124	-511
945.216	-244
945.308	-239
945.400	-551
945.492	-505
945.584	-454
945.676	-526
945.768	101
945.860	203
945.952	-590
946.044	-239
946.136	241
946.228	362
946.320	-104
946.412	-340
946.503	-580
946.595	246
946.687	-594
946.779	-425
946.870	-61
946.962	213
947.054	-396
947.145	-585
947.237	-77
947.329	-364
947.420	-494
947.512	-776
947.603	69
947.695	-658
947.786	-242
947.878	-4
947.969	-308
948.061	-1153
948.152	-370
948.243	-795
948.335	137
948.426	-614
948.517	-728
948.609	-827
948.700	-808
948.791	-152
948.882	-67
948.973	-160
949.065	-213
949.156	329
949.247	-1450
949.338	-483
949.429	-609
949.520	-462
949.611	-993
949.702	447
949.793	-38
949.884	-808
949.975	-434
950.066	582
950.157	-640
950.247	58
950.338	-186
950.429	-1125
950.520	-719
950.611	-211
950.701	-36
950.792	-699
950.883	-122
950.973	-833
951.064	-797
951.155	-697
951.245	-140
951.336	-137
951.427	-1418
951.517	-381
951.608	-602
951.698	-569
951.788	270
951.879	-1206
951.969	-491
952.060	-195
952.150	-792
952.240	-255
952.331	-1332
952.421	-118
952.511	-619
952.602	400
952.692	-403
952.782	-519
952.872	-505
952.962	-808
953.052	-622
953.143	-1368
953.233	-715
953.323	-621
953.413	-1135
953.503	-62
953.593	81
953.683	-472
953.773	-509
953.863	-619
953.953	162
954.042	-440
954.132	-904
954.222	-461
954.312	-453
954.402	-347
954.492	-652
954.581	403
954.671	-573
954.761	-735
954.850	49
954.940	-754
955.030	-1195
955.119	-268
955.209	-9
955.298	-1650
955.388	-413
955.477	114
955.567	-388
955.656	-252
955.746	-789
955.835	19
955.925	214
956.014	-340
956.103	-785
956.193	-900
956.282	-925
956.371	48
956.461	-511
956.550	-1067
956.639	-356
956.728	-796
956.817	146
956.906	-1000
956.995	-598
957.085	-1064
957.174	53
957.263	-118
957.352	-631
957.441	-966
957.530	-920
957.619	-364
957.708	53
957.796	-670
957.885	-186
957.974	-1240
958.063	-58
958.152	-999
958.241	-479
958.329	-1096
958.418	-383
958.507	-1333
958.596	-36
958.684	-846
958.773	431
958.861	-915
958.950	-306
959.039	-323
959.127	-257
959.216	-155
959.304	-591
959.393	-966
959.481	-1020
959.570	-184
959.658	-137
959.746	-637
959.835	-718
959.923	350
960.011	72
960.100	-864
960.188	-893
960.276	-1211
960.365	-1354
960.453	-977
960.541	-1032
960.629	-826
960.717	-1356
960.805	-1600
960.893	-432
960.981	-1457
961.069	238
961.158	-866
961.245	140
961.333	-574
961.421	-1545
961.509	-252
961.597	-293
961.685	-144
961.773	-216
961.861	-1044
961.949	381
962.036	-1643
962.124	267
962.212	-1188
962.299	-796
962.387	-697
962.475	165
962.562	-883
962.650	141
962.738	-627
962.825	-1070
962.913	-772
963.000	-786
963.088	-593
963.175	-1115
963.263	-579
963.350	-203
963.438	-683
963.525	-123
963.612	358
963.700	358
963.787	5440
963.874	3835
963.962	-242
964.049	-779
964.136	-616
964.223	-659
964.310	-79
964.398	-163
964.485	-1008
964.572	12
964.659	-107
964.746	713
964.833	-412
964.920	-537
965.007	-492
965.094	-553
965.181	-448
965.268	-666
965.355	-501
965.441	-976
965.528	-1732
965.615	503
965.702	-1368
965.789	-415
965.875	-743
965.962	-863
966.049	-1118
966.136	477
966.222	-741
966.309	-345
966.395	-958
966.482	13
966.569	-709
966.655	-891
966.742	-445
966.828	-882
966.915	-998
967.001	545
967.087	-224
967.174	-276
967.260	-1081
967.347	-76
967.433	1241
967.519	2738
967.605	995
967.692	-1139
967.778	-1047
967.864	-745
967.950	-1600
968.036	-988
968.123	-1469
968.209	-283
968.295	-1852
968.381	448
968.467	-345
968.553	-1373
968.639	281
968.725	-1059
968.811	-282
968.897	130
968.983	-579
969.069	-246
969.154	-689
969.240	-834
969.326	-696
969.412	-703
969.497	-878
969.583	-602
969.669	-72
969.755	-908
969.840	-850
969.926	-163
970.012	-411
970.097	15
970.183	-831
970.268	-537
970.354	-277
970.439	259
970.525	1858
970.610	176
970.696	116
970.781	-869
970.866	-1879
970.952	-660
971.037	-1206
971.122	-43
971.208	-1115
971.293	-402
971.378	-1031
971.463	-278
971.549	-466
971.634	-134
971.719	-323
971.804	-379
971.889	234
971.974	-1081
972.059	-1051
972.144	-652
972.229	-671
972.314	-702
972.399	-280
972.484	-947
972.569	318
972.654	-919
972.739	784
972.824	590
972.908	330
972.993	-1048
973.078	-698
973.163	-722
973.247	-833
973.332	-2085
973.417	197
973.501	-633
973.586	-664
973.671	-971
973.755	-1011
973.840	-146
973.924	-3
974.009	404
974.093	-787
974.178	-93
974.262	165
974.346	512
974.431	-901
974.515	-407
974.600	-380
974.684	-940
974.768	-524
974.852	-706
974.937	-1183
975.021	-282
975.105	-654
975.189	-763
975.273	-848
975.358	-784
975.442	-898
975.526	258
975.610	-1051
975.694	-1450
975.778	461
975.862	213
975.946	-1524
976.030	336
976.114	-828
976.198	-1299
976.281	-1289
976.365	-656
976.449	-691
976.533	-711
976.617	-972
976.700	-386
976.784	-1014
976.868	-644
976.951	-89
977.035	88
977.119	-157
977.202	-606
977.286	-122
977.369	84
977.453	-600
977.536	-1366
977.620	-1038
977.703	-394
977.787	-1483
977.870	111
977.953	-130
978.037	-1811
978.120	-716
978.203	-462
978.287	-307
978.370	-466
978.453	-917
978.536	-499
978.620	34
978.703	64
978.786	-472
978.869	-1800
978.952	-1710
979.035	667
979.118	-151
979.201	-1087
979.284	-539
979.367	-926
979.450	-567
979.533	-1050
979.616	-1104
979.699	-1045
979.782	-559
979.865	-504
979.948	-768
980.030	-636
980.113	-1101
980.196	-1908
980.279	-866
980.361	-194
980.444	-2063
980.526	-663
980.609	-1580
980.692	-1808
980.774	-1055
980.857	-2135
980.939	-282
981.022	-389
981.104	-1123
981.187	-975
981.269	-971
981.352	-1083
981.434	-1411
981.516	-1272
981.599	-414
981.681	-384
981.763	-1100
981.846	-1469
981.928	-1016
982.010	-398
982.092	-1439
982.174	-295
982.256	-1562
982.339	-935
982.421	-641
982.503	-1273
982.585	-2273
982.667	-423
982.749	-1053
982.831	-850
982.913	-2361
982.995	639
983.077	-1753
983.158	-132
983.240	-1363
983.322	-697
983.404	-1758
983.486	-947
983.568	-531
983.649	-1385
983.731	-803
983.813	-1228
983.894	-911
983.976	-1031
984.058	-761
984.139	-744
984.221	-1437
984.302	-349
984.384	-811
984.465	-1198
984.547	-345
984.628	-1595
984.710	-583
984.791	-238
984.872	-1502
984.954	-1433
985.035	-939
985.116	-1002
985.198	-1759
985.279	-172
985.360	-1695
985.441	-1255
985.522	-1399
985.604	-1375
985.685	-3055
985.766	228
985.847	-524
985.928	-2139
986.009	-1345
986.090	-704
986.171	-542
986.252	-1701
986.333	-1335
986.414	-944
986.495	-1030
986.576	-1357
986.656	-1920
986.737	-538
986.818	-932
986.899	-2212
986.980	-1765
987.060	-89
987.141	-1354
987.222	-898
987.302	-1122
987.383	-636
987.464	-1205
987.544	-407
987.625	-1128
987.705	-520
987.786	-930
987.866	-808
987.947	-900
988.027	-1620
988.108	-2182
988.188	-678
988.268	-1690
988.349	-1380
988.429	-1411
988.509	-1160
988.589	-1642
988.670	-1760
988.750	-418
988.830	-683
988.910	-1607
988.990	-1199
989.070	-896
989.151	-946
989.231	-2010
989.311	-1793
989.391	-2371
989.471	-1035
989.551	-1782
989.631	-1806
989.711	-351
989.791	-1602
989.870	-1419
989.950	-566
990.030	-777
990.110	-922
990.190	-1270
990.269	-1162
990.349	-1157
990.429	-1495
990.509	-1219
990.588	-1513
990.668	-760
990.747	-997
990.827	-1794
990.907	-1601
990.986	-1396
991.066	-1451
991.145	-1050
991.225	-619
991.304	-1456
991.383	-1537
991.463	-1495
991.542	-532
991.622	-1230
991.701	-1311
991.780	-1308
991.859	-867
991.939	-1063
992.018	-1269
992.097	-2020
992.176	-1441
992.256	-1206
992.335	-1222
992.414	-1128
992.493	-1644
992.572	-2214
992.651	-647
992.730	-810
992.809	-1765
992.888	-1818
992.967	-1973
993.046	-854
993.125	-2455
993.203	-1069
993.282	-1088
993.361	-1372
993.440	-1298
993.519	-1635
993.597	-1283
993.676	-1497
993.755	-775
993.834	-656
993.912	-1688
993.991	-356
994.069	-1384
994.148	-1302
994.226	-1018
994.305	-1013
994.384	-1525
994.462	-659
994.540	-1517
994.619	-1260
994.697	-541
994.776	-2144
994.854	-963
994.932	-1979
995.011	-1276
995.089	-1946
995.167	-1937
995.245	-978
995.324	-1625
995.402	-1070
995.480	-1602
995.558	-1606
995.636	-1697
995.714	-1688
995.792	-502
995.870	-1651
995.948	-1082
996.026	-1076
996.104	-1871
996.182	-922
996.260	-1244
996.338	-2116
996.416	-2888
996.494	-2334
996.572	39
996.649	-1249
996.727	-2382
996.805	-1640
996.883	-1782
996.960	-1793
997.038	-1197
997.116	-904
997.193	-1034
997.271	-1484
997.348	-2505
997.426	-1713
997.504	-1980
997.581	-897
997.658	-1422
997.736	-2077
997.813	-1100
997.891	-1683
997.968	-1434
998.046	-1176
998.123	-1640
998.200	-1647
998.277	-2085
998.355	-1460
998.432	-2072
998.509	-1358
998.586	-2045
998.663	-1168
998.741	-565
998.818	-2547
998.895	-2221
998.972	-1388
999.049	-1493
999.126	-2412
999.203	-602
999.280	-1247
999.357	-1927
999.434	-2202
999.511	-1063
999.587	-1136
999.664	-1437
999.741	-1259
999.818	-1441
999.895	-964
999.971	-1757
1000.048	-2277
1000.125	-323
1000.202	-1838
1000.278	-1537
1000.355	-2253
1000.431	-1989
1000.508	-2001
1000.584	-1029
1000.661	-1260
1000.738	-868
1000.814	-1690
1000.890	16
1000.967	-1897
1001.043	-1295
1001.120	-2089
1001.196	-906
1001.272	-2382
1001.349	-1367
1001.425	-1131
1001.501	-1835
1001.577	-1350
1001.654	-1602
1001.730	-1751
1001.806	-1461
1001.882	-2996
1001.958	-1828
1002.034	-737
1002.110	-875
1002.186	-2093
1002.262	-1306
1002.338	-2244
1002.414	-937
1002.490	-1062
1002.566	-1428
1002.642	-1048
1002.718	-631
1002.794	-1794
1002.870	-1319
1002.945	-1858
1003.021	-2618
1003.097	-1606
1003.173	-845
1003.248	-1782
1003.324	-2191
1003.400	-1311
1003.475	-1585
1003.551	-1185
1003.626	-1031
1003.702	-2455
1003.777	-1527
1003.853	-2084
1003.928	-1737
1004.004	-1274
1004.079	-618
1004.155	-1715
1004.230	-2630
1004.305	-456
1004.381	-1907
1004.456	-2135
1004.531	-1739
1004.607	-1350
1004.682	-1544
1004.757	-1030
1004.832	-1877
1004.907	-2125
1004.982	-1833
1005.057	-1127
1005.133	-865
1005.208	-1913
1005.283	-1846
1005.358	-1359
1005.433	-2286
1005.508	-1500
1005.583	-2112
1005.657	-1770
1005.732	-194
1005.807	-2283
1005.882	-992
1005.957	-1605
1006.032	-1384
1006.106	-2126
1006.181	-1571
1006.256	-1078
1006.331	-2467
1006.405	-2266
1006.480	-1419
1006.554	-2536
1006.629	-1205
1006.704	-2233
1006.778	-1622
1006.853	-1275
1006.927	-1075
1007.002	-2461
1007.076	-1469
1007.150	-2527
1007.225	-1637
1007.299	-2267
1007.373	-2056
1007.448	-1764
1007.522	-1232
1007.596	-1678
1007.671	-1707
1007.745	-1739
1007.819	-1764
1007.893	-1679
1007.967	-1511
1008.041	-2608
1008.115	-159
1008.190	-1692
1008.264	-1837
1008.338	-1765
1008.412	-1776
1008.486	-2525
1008.560	-630
1008.633	-2328
1008.707	-1962
1008.781	-1655
1008.855	-1656
1008.929	-2063
1009.003	-2229
1009.076	-2628
1009.150	-1439
1009.224	-1611
1009.298	-1235
1009.371	-1578
1009.445	-1206
1009.519	-2023
1009.592	-1800
1009.666	-1783
1009.739	-1232
1009.813	-2524
1009.886	-897
1009.960	-2411
1010.033	-1156
1010.107	-1755
1010.180	-2157
1010.253	-2061
1010.327	-981
1010.400	-1490
1010.473	-1790
1010.547	-876
1010.620	-1416
1010.693	-2053
1010.766	-1868
1010.840	-2133
1010.913	-1333
1010.986	-1890
1011.059	-1307
1011.132	-1899
1011.205	-1344
1011.278	-2306
1011.351	-1859
1011.424	-1845
1011.497	-2306
1011.570	-1736
1011.643	-2614
1011.716	-2457
1011.789	-1092
1011.862	-1718
1011.934	-1694
1012.007	-2846
1012.080	-909
1012.153	-1922
1012.225	-266
1012.298	-2056
1012.371	-1896
1012.443	-1058
1012.516	-1696
1012.588	-1223
1012.661	-1450
1012.733	-2263
1012.806	-1206
1012.879	-1558
1012.951	-1626
1013.023	-1662
1013.096	-2004
1013.168	-2034
1013.241	-1535
1013.313	-1406
1013.385	-2352
1013.458	-2549
1013.530	-841
1013.602	-2495
1013.674	-981
1013.746	-2063
1013.819	-1710
1013.891	-1256
1013.963	-1866
1014.035	-1647
1014.107	-1878
1014.179	-2232
1014.251	-1664
1014.323	-830
1014.395	-2303
1014.467	-1227
1014.539	-1329
1014.611	-2487
1014.683	-1630
1014.754	-1981
1014.826	-2045
1014.898	-1807
1014.970	-3112
1015.042	-1939
1015.113	-2193
1015.185	-1436
1015.257	-1796
1015.328	-1295
1015.400	-2285
1015.471	-2102
1015.543	-2507
1015.615	-2150
1015.686	-1856
1015.757	-2187
1015.829	-1039
1015.901	-1979
1015.972	-1881
1016.043	-2546
1016.115	-907
1016.186	-1699
1016.257	-2601
1016.328	-2479
1016.400	-762
1016.471	-2126
1016.542	-1997
1016.613	-1193
1016.685	-1606
1016.756	-941
1016.827	-2137
1016.898	-2111
1016.969	-1949
1017.040	-2101
1017.111	-1870
1017.182	-2184
1017.253	-1460
1017.324	-1845
1017.395	-1849
1017.466	-1750
1017.537	-2170
1017.608	-1692
1017.678	-2304
1017.749	-2131
1017.820	-1581
1017.891	-2545
1017.961	-1431
1018.032	-1902
1018.103	-1448
1018.173	-2454
1018.244	-2092
1018.315	-2935
1018.385	-804
1018.456	-1958
1018.526	-3010
1018.597	-2089
1018.667	-2167
1018.738	-1688
1018.808	-1837
1018.878	-1792
1018.949	-1599
1019.019	-1585
1019.089	-2059
1019.160	-1158
1019.230	-1864
1019.300	-2104
1019.371	-2741
1019.441	-2012
1019.511	-844
1019.581	-1504
1019.651	-2411
1019.721	-1792
1019.791	-2316
1019.861	-1458
1019.931	-1958
1020.001	-2443
1020.071	-2153
1020.141	-1860
1020.211	-2133
1020.281	-2247
1020.351	-2934
1020.421	-2210
1020.491	-1251
1020.560	-2321
1020.630	-1695
1020.700	-1540
1020.770	-1893
1020.839	-1622
1020.909	-2715
1020.979	-2039
1021.048	-2172
1021.118	-2708
1021.187	-1795
1021.257	-1711
1021.326	-1560
1021.396	-1952
1021.465	-1376
1021.535	-2420
1021.604	-1923
1021.674	-2293
1021.743	-1694
1021.812	-1977
1021.882	-1536
1021.951	-2184
1022.020	-2060
1022.089	-1552
1022.159	-2121
1022.228	-2082
1022.297	-2676
1022.366	-2370
1022.435	-1743
1022.504	-2465
1022.573	-1710
1022.642	-1546
1022.711	-2278
1022.781	-1780
1022.849	-2482
1022.918	-2412
1022.987	-1679
1023.056	-1793
1023.125	-2591
1023.194	-1988
1023.263	-3210
1023.331	-2099
1023.400	-2653
1023.469	-2011
1023.538	-2329
1023.606	-2957
1023.675	-1773
1023.744	-2633
1023.812	-2278
1023.881	-2506
1023.949	-1969
1024.018	-2580
1024.086	-2096
1024.155	-2200
1024.223	-2141
1024.292	-2011
1024.360	-1828
1024.429	-2021
1024.497	-1605
1024.565	-2096
1024.634	-1023
1024.702	-1692
1024.770	-2321
1024.838	-2845
1024.907	-1981
1024.975	-1906
1025.043	-2090
1025.111	-2865
1025.179	-1732
1025.247	-2693
1025.315	-1937
1025.383	-2358
1025.451	-1966
1025.519	-2839
1025.587	-1948
1025.655	-2020
1025.723	-2019
1025.791	-1716
1025.859	-1698
1025.927	-1699
1025.995	-1700
1026.062	-2699
1026.130	-2284
1026.198	-2990
1026.266	-2041
1026.333	-1337
1026.401	-1803
1026.469	-2316
1026.536	-2233
1026.604	-2289
1026.671	-1696
1026.739	-2582
1026.806	-2306
1026.874	-2305
1026.941	-2109
1027.009	-2037
1027.076	-2512
1027.144	-1551
1027.211	-2294
1027.278	-2571
1027.345	-2480
1027.413	-2719
1027.480	-1730
1027.547	-2732
1027.614	-1649
1027.682	-1903
1027.749	-2192
1027.816	-2268
1027.883	-2085
1027.950	-2388
1028.017	-2700
1028.084	-1861
1028.151	-2646
1028.218	-2558
1028.285	-2459
1028.352	-2368
1028.419	-2219
1028.486	-1568
1028.553	-1695
1028.619	-2077
1028.686	-1665
1028.753	-2354
1028.820	-2787
1028.886	-2598
1028.953	-1937
1029.020	-2155
1029.086	-2462
1029.153	-2636
1029.220	-2032
1029.286	-2664
1029.353	-2352
1029.419	-2997
1029.486	-2544
1029.552	-2515
1029.619	-2456
1029.685	-2185
1029.751	-2646
1029.818	-1063
1029.884	-1547
1029.951	-1268
1030.017	-1623
1030.083	-2345
1030.149	-2765
1030.216	-1916
1030.282	-1906
1030.348	-2500
1030.414	-2579
1030.480	-3027
1030.546	-2040
1030.612	-2522
1030.678	-2451
1030.744	-1717
1030.810	-2744
1030.876	-2366
1030.942	-1690
1031.008	-2546
1031.074	-2309
1031.140	-2780
1031.206	-1741
1031.272	-2966
1031.337	-2892
1031.403	-1981
1031.469	-2052
1031.534	-3153
1031.600	-2243
1031.666	-2510
1031.731	-2855
1031.797	-2324
1031.863	-2585
1031.928	-2760
1031.994	-2446
1032.059	-2944
1032.125	-2512
1032.190	-2226
1032.256	-2010
1032.321	-2816
1032.386	-2283
1032.452	-2153
1032.517	-2611
1032.582	-2575
1032.647	-2303
1032.713	-2618
1032.778	-2488
1032.843	-2387
1032.908	-2162
1032.974	-2758
1033.039	-2210
1033.104	-2681
1033.169	-2200
1033.234	-2640
1033.299	-2121
1033.364	-2242
1033.429	-1916
1033.494	-1746
1033.559	-2510
1033.624	-1833
1033.688	-2724
1033.753	-2539
1033.818	-1631
1033.883	-2446
1033.948	-2117
1034.013	-2931
1034.077	-2726
1034.142	-2518
1034.207	-2315
1034.271	-2823
1034.336	-2000
1034.400	-1719
1034.465	-745
1034.530	-2174
1034.594	-1816
1034.658	-2751
1034.723	-3276
1034.787	-2361
1034.852	-2094
1034.916	-1880
1034.981	-2520
1035.045	-1858
1035.109	-2184
1035.173	-2096
1035.238	-2978
1035.302	-1979
1035.366	-2070
1035.430	-2965
1035.495	-2730
1035.559	-1886
1035.623	-1860
1035.687	-3054
1035.751	-1872
1035.815	-3139
1035.879	-2454
1035.943	-2411
1036.007	-2769
1036.071	-2191
1036.135	-2072
1036.198	-2642
1036.262	-2481
1036.326	-2237
1036.390	-2551
1036.454	-2565
1036.517	-1974
1036.581	-2627
1036.645	-2000
1036.709	-2254
1036.772	-2096
1036.836	-1774
1036.900	-1977
1036.963	-3419
1037.026	-2241
1037.090	-2479
1037.154	-2698
1037.217	-1942
1037.280	-2174
1037.344	-2620
1037.407	-3032
1037.471	-2002
1037.534	-2607
1037.597	-2718
1037.661	-1566
1037.724	-3366
1037.787	-2761
1037.850	-2947
1037.913	-2521
1037.977	-2219
1038.040	-2739
1038.103	-2159
1038.166	-2681
1038.229	-1629
1038.292	-2677
1038.355	-3208
1038.418	-2267
1038.481	-2275
1038.544	-2665
1038.607	-2808
1038.670	-2877
1038.732	-2293
1038.795	-2316
1038.858	-3193
1038.921	-2089
1038.984	-1959
1039.046	-2676
1039.109	-2662
1039.172	-2425
1039.234	-3424
1039.297	-1727
1039.360	-2965
1039.422	-2060
1039.485	-2781
1039.547	-1850
1039.610	-1567
1039.672	-2398
1039.734	-2518
1039.797	-2386
1039.859	-2345
1039.922	-1599
1039.984	-1758
1040.046	-1980
1040.109	-2911
1040.171	-2668
1040.233	-2801
1040.295	-2198
1040.358	-1854
1040.420	-2737
1040.482	-2302
1040.544	-3032
1040.606	-2223
1040.668	-2629
1040.730	-2735
1040.792	-2390
1040.854	-2759
1040.916	-2281
1040.978	-2058
1041.040	-2333
1041.102	-2675
1041.164	-2209
1041.225	-2946
1041.287	-2531
1041.349	-2177
1041.411	-2431
1041.472	-2441
1041.534	-2350
1041.596	-2362
1041.657	-2003
1041.719	-1683
1041.781	-2248
1041.842	-2983
1041.904	-2528
1041.965	-2377
1042.027	-1927
1042.088	-2020
1042.150	-1361
1042.211	-2021
1042.272	-2366
1042.334	-2123
1042.395	-1828
1042.456	-2793
1042.518	-2135
1042.579	-2544
1042.640	-1818
1042.701	-2577
1042.763	-2583
1042.824	-2277
1042.885	-2593
1042.946	-1964
1043.007	-1598
1043.068	-1896
1043.129	-3168
1043.190	-3103
1043.251	-2071
1043.312	-2412
1043.373	-1720
1043.434	-2775
1043.495	-2314
1043.556	-1787
1043.616	-1218
1043.677	-2429
1043.738	-1873
1043.799	-2644
1043.859	-2776
1043.920	-2397
1043.981	-2551
1044.041	-2021
1044.102	-2605
1044.162	-2352
1044.223	-2748
1044.284	-2160
1044.344	-1537
1044.405	-2300
1044.465	-2336
1044.525	-3008
1044.586	-2403
1044.646	-2401
1044.707	-2445
1044.767	-3203
1044.827	-2436
1044.887	-1532
1044.948	-2083
1045.008	-2712
1045.068	-2314
1045.128	-2413
1045.188	-2351
1045.249	-2443
1045.309	-1673
1045.369	-2630
1045.429	-2850
1045.489	-3160
1045.549	-2263
1045.609	-2602
1045.669	-2813
1045.729	-2143
1045.789	-1792
1045.848	-2152
1045.908	-2629
1045.968	-1898
1046.028	-1407
1046.088	-1823
1046.147	-1621
1046.207	-1842
1046.267	-1656
1046.326	-2345
1046.386	-2350
1046.446	-1197
1046.505	-1231
1046.565	-1932
1046.624	-1996
1046.684	-996
1046.743	-1693
1046.803	-632
1046.862	-769
1046.922	0
