'Start Wavelength	183.907
'End Wavelength	1046.922
'Gate Delay	5.000
'Gate Width (ms)	1.050
'Laser Output Level	0.000
'X Position	0.000
'Y Position	0.000
'Z Position	0.000
'Grid Point Number	1.000
'Shot Number	100.000
183.907	309.000
183.977	-688.000
184.047	102
184.116	503
184.186	424
184.256	237
184.325	-589
184.395	-891
184.465	9
184.534	258
184.604	-695
184.674	191
184.743	-272
184.813	-180
184.883	-154
184.952	-720
185.022	82
185.092	-333
185.161	-386
185.231	392
185.301	58
185.370	317
185.440	-129
185.509	-577
185.579	20
185.649	-24
185.718	-293
185.788	-41
185.857	279
185.927	-483
185.996	385
186.066	-533
186.136	121
186.205	-404
186.275	-1033
186.344	29
186.414	-250
186.483	-836
186.553	1125
186.622	45
186.692	713
186.761	-476
186.831	796
186.900	-31
186.970	676
187.039	287
187.109	232
187.178	1007
187.248	449
187.317	-485
187.387	-490
187.456	-342
187.526	-193
187.595	532
187.664	-601
187.734	285
187.803	1051
187.873	682
187.942	567
188.012	-233
188.081	307
188.150	33
188.220	486
188.289	149
188.358	1314
188.428	538
188.497	-303
188.567	-95
188.636	-86
188.705	-41
188.775	-261
188.844	57
188.913	188
188.983	-47
189.052	369
189.121	360
189.191	-438
189.260	434
189.329	-26
189.399	-179
189.468	-249
189.537	-474
189.606	-380
189.676	156
189.745	-62
189.814	366
189.883	-442
189.953	-6
190.022	573
190.091	47
190.161	1347
190.230	-342
190.299	-157
190.368	-103
190.437	-330
190.507	-96
190.576	-543
190.645	854
190.714	710
190.783	-205
190.853	-309
190.922	367
190.991	-490
191.060	-82
191.129	-266
191.198	-127
191.268	-117
191.337	770
191.406	413
191.475	472
191.544	-680
191.613	389
191.682	418
191.752	-391
191.821	-447
191.890	-148
191.959	311
192.028	105
192.097	11
192.166	542
192.235	-59
192.304	380
192.373	-172
192.442	181
192.511	44
192.580	-767
192.650	-48
192.719	-83
192.788	902
192.857	136
192.926	61
192.995	321
193.064	-93
193.133	736
193.202	1327
193.271	-271
193.340	1181
193.409	1274
193.478	849
193.547	696
193.615	2074
193.684	1003
193.753	201
193.822	933
193.891	-505
193.960	100
194.029	-243
194.098	477
194.167	570
194.236	705
194.305	204
194.374	504
194.443	65
194.512	363
194.580	-240
194.649	991
194.718	1321
194.787	92
194.856	-168
194.925	221
194.994	655
195.062	143
195.131	743
195.200	58
195.269	1032
195.338	-51
195.407	279
195.475	-313
195.544	791
195.613	76
195.682	335
195.751	570
195.819	382
195.888	440
195.957	1351
196.026	155
196.094	765
196.163	432
196.232	233
196.301	68
196.369	-22
196.438	8
196.507	450
196.576	-299
196.644	-89
196.713	-331
196.782	-72
196.850	672
196.919	1016
196.988	431
197.056	-255
197.125	133
197.194	663
197.262	-133
197.331	-137
197.400	283
197.468	-18
197.537	-349
197.606	216
197.674	847
197.743	945
197.812	289
197.880	1241
197.949	-465
198.017	1141
198.086	-31
198.155	-118
198.223	315
198.292	898
198.360	917
198.429	-116
198.497	-299
198.566	1076
198.635	661
198.703	27
198.772	720
198.840	761
198.909	276
198.977	640
199.046	340
199.114	330
199.183	219
199.251	381
199.320	129
199.388	297
199.457	292
199.525	457
199.594	540
199.662	352
199.731	-4
199.799	228
199.867	-295
199.936	-380
200.004	695
200.073	-344
200.141	-541
200.210	203
200.278	110
200.346	1009
200.415	741
200.483	839
200.552	691
200.620	885
200.688	205
200.757	978
200.825	571
200.893	331
200.962	-21
201.030	933
201.098	-653
201.167	799
201.235	117
201.303	333
201.372	1109
201.440	-301
201.508	197
201.577	382
201.645	1501
201.713	301
201.781	-196
201.850	1073
201.918	260
201.986	268
202.055	770
202.123	355
202.191	-116
202.259	28
202.327	210
202.396	277
202.464	609
202.532	783
202.600	2022
202.669	213
202.737	-228
202.805	575
202.873	1048
202.941	-303
203.009	-50
203.078	366
203.146	438
203.214	289
203.282	-72
203.350	787
203.418	375
203.487	863
203.555	247
203.623	-292
203.691	1114
203.759	569
203.827	61
203.895	764
203.963	553
204.031	44
204.099	159
204.168	699
204.236	265
204.304	244
204.372	351
204.440	100
204.508	819
204.576	-143
204.644	283
204.712	-100
204.780	442
204.848	112
204.916	-500
204.984	900
205.052	348
205.120	328
205.188	-137
205.256	-393
205.324	-277
205.392	-31
205.460	304
205.528	138
205.596	385
205.664	655
205.732	-13
205.799	1532
205.867	862
205.935	-458
206.003	527
206.071	637
206.139	473
206.207	600
206.275	283
206.343	278
206.411	620
206.478	689
206.546	912
206.614	1233
206.682	-1
206.750	404
206.818	231
206.885	755
206.953	-503
207.021	1182
207.089	674
207.157	-104
207.225	263
207.292	-766
207.360	693
207.428	234
207.496	89
207.563	596
207.631	1043
207.699	1128
207.767	432
207.834	-208
207.902	674
207.970	585
208.038	964
208.105	396
208.173	512
208.241	535
208.309	428
208.376	1003
208.444	743
208.512	654
208.579	-627
208.647	554
208.715	1263
208.782	-49
208.850	297
208.918	516
208.985	-305
209.053	882
209.120	-117
209.188	734
209.256	220
209.323	88
209.391	994
209.459	1372
209.526	366
209.594	585
209.661	457
209.729	930
209.796	270
209.864	54
209.932	320
209.999	1249
210.067	100
210.134	522
210.202	681
210.269	905
210.337	1137
210.404	814
210.472	252
210.539	1112
210.607	597
210.674	1306
210.742	202
210.809	1502
210.877	998
210.944	1303
211.012	506
211.079	1902
211.146	259
211.214	555
211.281	901
211.349	1368
211.416	1328
211.484	646
211.551	-56
211.618	393
211.686	1092
211.753	338
211.821	1577
211.888	1278
211.955	1705
212.023	858
212.090	1551
212.157	1025
212.225	1214
212.292	1602
212.359	2590
212.427	5236
212.494	1710
212.561	1825
212.629	934
212.696	1124
212.763	675
212.831	172
212.898	1171
212.965	816
213.032	914
213.100	1056
213.167	924
213.234	895
213.301	1034
213.369	1405
213.436	97
213.503	1130
213.570	963
213.638	1121
213.705	394
213.772	582
213.839	725
213.906	2255
213.973	620
214.041	1188
214.108	956
214.175	609
214.242	692
214.309	175
214.376	471
214.444	1006
214.511	598
214.578	1256
214.645	1588
214.712	1374
214.779	500
214.846	1226
214.913	1196
214.980	1465
215.048	1872
215.115	1861
215.182	1824
215.249	1030
215.316	1266
215.383	572
215.450	1136
215.517	1088
215.584	679
215.651	1194
215.718	566
215.785	1224
215.852	1120
215.919	1835
215.986	1295
216.053	648
216.120	694
216.187	657
216.254	1488
216.321	797
216.388	1190
216.455	1086
216.522	1056
216.589	1564
216.656	1691
216.722	2357
216.789	1711
216.856	2141
216.923	1442
216.990	1793
217.057	1691
217.124	1569
217.191	976
217.258	2430
217.324	3184
217.391	3874
217.458	2875
217.525	1955
217.592	2505
217.659	605
217.725	1884
217.792	1810
217.859	1453
217.926	363
217.993	559
218.059	837
218.126	1007
218.193	-306
218.260	1169
218.327	237
218.393	1509
218.460	501
218.527	4
218.594	962
218.660	1571
218.727	2422
218.794	1107
218.860	1629
218.927	447
218.994	-102
219.061	303
219.127	739
219.194	963
219.261	1330
219.327	556
219.394	922
219.461	287
219.527	1215
219.594	516
219.661	322
219.727	-196
219.794	757
219.860	269
219.927	893
219.994	1701
220.060	2106
220.127	2534
220.193	1779
220.260	1917
220.326	2717
220.393	3607
220.460	4582
220.526	3350
220.593	1865
220.659	3091
220.726	2400
220.792	3177
220.859	4166
220.925	6113
220.992	7928
221.058	6502
221.125	4768
221.191	3919
221.258	1370
221.324	1523
221.391	1608
221.457	1042
221.524	1306
221.590	1789
221.657	3901
221.723	2487
221.789	2816
221.856	2798
221.922	1348
221.989	1421
222.055	1403
222.121	691
222.188	2761
222.254	1364
222.321	730
222.387	611
222.453	586
222.520	458
222.586	484
222.652	379
222.719	535
222.785	899
222.851	856
222.918	1120
222.984	680
223.050	791
223.116	-54
223.183	1347
223.249	316
223.315	-229
223.382	966
223.448	343
223.514	-274
223.580	337
223.647	41
223.713	533
223.779	1142
223.845	196
223.911	693
223.978	-16
224.044	1146
224.110	-85
224.176	798
224.242	949
224.309	246
224.375	739
224.441	1156
224.507	-45
224.573	449
224.639	797
224.705	-110
224.772	-7
224.838	250
224.904	513
224.970	912
225.036	-67
225.102	359
225.168	451
225.234	492
225.300	861
225.366	255
225.432	152
225.499	607
225.565	586
225.631	209
225.697	839
225.763	1026
225.829	1575
225.895	1212
225.961	1713
226.027	2601
226.093	1027
226.159	2534
226.225	3476
226.291	8206
226.357	10167
226.423	6466
226.489	3803
226.554	2593
226.620	2105
226.686	2650
226.752	4316
226.818	7667
226.884	12610
226.950	11079
227.016	5253
227.082	3878
227.148	2822
227.214	2049
227.279	1588
227.345	1636
227.411	2079
227.477	1729
227.543	4609
227.609	3016
227.674	3331
227.740	1954
227.806	1307
227.872	883
227.938	1267
228.003	3395
228.069	603
228.135	828
228.201	359
228.267	1073
228.332	838
228.398	684
228.464	734
228.530	21
228.595	1025
228.661	347
228.727	884
228.792	2219
228.858	818
228.924	-122
228.990	2645
229.055	298
229.121	1382
229.187	870
229.252	559
229.318	97
229.384	913
229.449	1381
229.515	-250
229.581	-826
229.646	1218
229.712	319
229.777	1576
229.843	1580
229.909	2289
229.974	2536
230.040	1731
230.105	1420
230.171	1393
230.236	2399
230.302	3423
230.368	2391
230.433	826
230.499	731
230.564	2380
230.630	760
230.695	851
230.761	1192
230.826	93
230.892	2677
230.957	1129
231.023	302
231.088	709
231.154	736
231.219	1240
231.284	1157
231.350	2236
231.415	263
231.481	1735
231.546	734
231.612	1187
231.677	593
231.742	-591
231.808	1501
231.873	469
231.939	-329
232.004	2709
232.069	1629
232.135	560
232.200	-41
232.265	827
232.331	-115
232.396	463
232.461	-274
232.527	340
232.592	-326
232.657	124
232.723	2093
232.788	732
232.853	1680
232.918	1008
232.984	429
233.049	-262
233.114	559
233.179	1597
233.245	2135
233.310	2710
233.375	-383
233.440	978
233.506	379
233.571	-37
233.636	931
233.701	700
233.766	768
233.832	2214
233.897	36
233.962	191
234.027	1584
234.092	1078
234.157	226
234.222	-158
234.288	1767
234.353	4921
234.418	3792
234.483	2750
234.548	2666
234.613	1626
234.678	1974
234.743	1279
234.808	6009
234.873	2909
234.938	1822
235.004	1810
235.069	1142
235.134	729
235.199	1642
235.264	1187
235.329	-35
235.394	2187
235.459	2177
235.524	454
235.589	2208
235.654	114
235.719	-210
235.784	1055
235.849	1599
235.913	2679
235.978	3298
236.043	2928
236.108	1655
236.173	773
236.238	1574
236.303	205
236.368	454
236.433	1783
236.498	2608
236.563	3533
236.627	5389
236.692	16245
236.757	14203
236.822	6531
236.887	4027
236.952	4581
237.017	2380
237.081	3697
237.146	3133
237.211	8803
237.276	17174
237.341	23271
237.405	12764
237.470	5827
237.535	4391
237.600	2725
237.664	2347
237.729	2350
237.794	3136
237.859	8081
237.923	3570
237.988	2025
238.053	3333
238.118	2847
238.182	6011
238.247	6404
238.312	2413
238.376	2724
238.441	760
238.506	2246
238.570	1181
238.635	2275
238.700	1254
238.764	282
238.829	3386
238.893	4033
238.958	3149
239.023	1573
239.087	1753
239.152	2291
239.216	1098
239.281	1130
239.346	1225
239.410	1387
239.475	835
239.539	5737
239.604	3851
239.668	2291
239.733	803
239.797	2985
239.862	6643
239.926	6779
239.991	2910
240.055	1369
240.120	1121
240.184	1331
240.249	1110
240.313	129
240.378	1784
240.442	4255
240.507	5765
240.571	1580
240.635	2200
240.700	3183
240.764	2001
240.829	1421
240.893	-32
240.957	1934
241.022	3457
241.086	6140
241.151	2157
241.215	442
241.279	3323
241.344	2966
241.408	2632
241.472	1934
241.537	2651
241.601	1761
241.665	730
241.730	1742
241.794	2900
241.858	1693
241.922	2079
241.987	1706
242.051	1970
242.115	434
242.179	1690
242.244	1261
242.308	3014
242.372	1185
242.436	1917
242.501	1408
242.565	738
242.629	931
242.693	2024
242.757	745
242.822	1069
242.886	2221
242.950	1984
243.014	1417
243.078	2047
243.142	1863
243.206	1184
243.271	2005
243.335	688
243.399	2656
243.463	7562
243.527	18099
243.591	6887
243.655	2957
243.719	1557
243.783	2035
243.847	3739
243.911	4764
243.975	5754
244.040	3358
244.104	3579
244.168	1061
244.232	2915
244.296	4291
244.360	4308
244.424	1412
244.488	2351
244.552	1123
244.615	-10
244.679	1510
244.743	892
244.807	1420
244.871	1494
244.935	1911
244.999	750
245.063	811
245.127	3159
245.191	3080
245.255	3035
245.319	2733
245.383	2210
245.446	3637
245.510	1226
245.574	2171
245.638	2134
245.702	504
245.766	4324
245.829	3721
245.893	1801
245.957	1731
246.021	2593
246.085	1445
246.149	2092
246.212	5886
246.276	7541
246.340	3907
246.404	3377
246.467	3315
246.531	3029
246.595	3658
246.659	3705
246.722	2126
246.786	3983
246.850	3242
246.913	3942
246.977	1351
247.041	2244
247.104	2590
247.168	2662
247.232	5769
247.295	10470
247.359	6131
247.423	2857
247.486	5012
247.550	4694
247.614	3073
247.677	3657
247.741	2341
247.804	2066
247.868	2862
247.932	5499
247.995	12117
248.059	4687
248.122	2051
248.186	3294
248.249	5285
248.313	16377
248.376	17900
248.440	11859
248.503	3786
248.567	5222
248.630	5261
248.694	8031
248.757	10631
248.821	17253
248.884	13686
248.948	10600
249.011	15306
249.075	20542
249.138	19693
249.202	9814
249.265	5641
249.328	5881
249.392	4697
249.455	4922
249.519	3220
249.582	3946
249.645	6858
249.709	4717
249.772	3290
249.835	3501
249.899	3139
249.962	3303
250.025	2636
250.089	7892
250.152	10975
250.215	5901
250.279	3629
250.342	4188
250.405	4389
250.468	2699
250.532	4041
250.595	6945
250.658	17973
250.721	29501
250.785	11405
250.848	7702
250.911	4001
250.974	3286
251.038	5598
251.101	12052
251.164	5892
251.227	6826
251.290	5440
251.354	7180
251.417	26201
251.480	24748
251.543	17684
251.606	44386
251.669	33975
251.732	15292
251.795	15574
251.859	15503
251.922	28631
251.985	18405
252.048	9010
252.111	6929
252.174	5822
252.237	12072
252.300	21992
252.363	22246
252.426	38826
252.489	18092
252.552	9844
252.615	6215
252.678	6292
252.741	15853
252.804	19759
252.867	38669
252.930	26632
252.993	14630
253.056	8969
253.119	6831
253.182	4416
253.245	8423
253.308	6707
253.371	6426
253.434	6377
253.497	6343
253.559	11231
253.622	8805
253.685	10837
253.748	12541
253.811	5610
253.874	6725
253.937	5626
254.000	5294
254.062	8474
254.125	11992
254.188	12578
254.251	9956
254.314	4685
254.376	8342
254.439	10220
254.502	9768
254.565	8024
254.628	14293
254.690	9578
254.753	5125
254.816	3988
254.878	4107
254.941	8141
255.004	8275
255.067	3764
255.129	4349
255.192	2293
255.255	2313
255.317	3699
255.380	2745
255.443	1445
255.505	1703
255.568	1546
255.631	2369
255.693	2007
255.756	991
255.819	2864
255.881	940
255.944	1498
256.006	1020
256.069	1754
256.132	1692
256.194	2349
256.257	5814
256.319	3446
256.382	3182
256.444	3209
256.507	2901
256.569	2242
256.632	2504
256.694	3612
256.757	11033
256.819	30078
256.882	12301
256.944	5465
257.007	5043
257.069	3928
257.132	3478
257.194	3097
257.257	2988
257.319	2127
257.381	2717
257.444	7864
257.506	32189
257.569	38155
257.631	18375
257.693	10310
257.756	4924
257.818	3965
257.880	2762
257.943	3204
258.005	2084
258.067	1897
258.130	3216
258.192	2760
258.254	6926
258.317	3590
258.379	3500
258.441	6829
258.503	6574
258.566	7050
258.628	9567
258.690	2551
258.753	4025
258.815	7096
258.877	3171
258.939	2442
259.001	3086
259.064	2273
259.126	2334
259.188	3786
259.250	3551
259.312	3458
259.375	8246
259.437	5767
259.499	2639
259.561	3262
259.623	2496
259.685	1698
259.747	2513
259.809	7009
259.872	12673
259.934	19044
259.996	19353
260.058	6469
260.120	2528
260.182	2057
260.244	2193
260.306	1327
260.368	2131
260.430	884
260.492	5413
260.554	11002
260.616	6341
260.678	9598
260.740	12507
260.802	4404
260.864	3164
260.926	1718
260.988	3552
261.050	3057
261.112	7284
261.174	17543
261.236	10622
261.298	4289
261.359	5897
261.421	7428
261.483	1985
261.545	3058
261.607	825
261.669	1909
261.731	3883
261.793	10247
261.854	4551
261.916	3991
261.978	1712
262.040	3825
262.102	2886
262.164	3375
262.225	2453
262.287	2057
262.349	6195
262.411	4497
262.472	3109
262.534	3465
262.596	8588
262.658	2995
262.719	1165
262.781	3626
262.843	7703
262.904	4439
262.966	2794
263.028	2612
263.090	13040
263.151	34038
263.213	13989
263.275	8804
263.336	4200
263.398	3082
263.459	1674
263.521	1395
263.583	6091
263.644	4539
263.706	1617
263.767	598
263.829	1981
263.891	1108
263.952	1316
264.014	1018
264.075	3483
264.137	10376
264.198	5571
264.260	2192
264.321	1341
264.383	5063
264.444	15400
264.506	4372
264.567	2496
264.629	5936
264.690	11441
264.752	4399
264.813	3557
264.875	1529
264.936	2670
264.998	1745
265.059	1637
265.120	1511
265.182	2417
265.243	18163
265.305	17053
265.366	4845
265.427	2862
265.489	2042
265.550	1156
265.611	2313
265.673	2374
265.734	1738
265.795	2087
265.857	1365
265.918	986
265.979	4662
266.040	27150
266.102	21429
266.163	7150
266.224	5526
266.286	3344
266.347	888
266.408	2277
266.469	1631
266.530	1581
266.592	666
266.653	4849
266.714	6746
266.775	1984
266.836	1479
266.898	1938
266.959	3627
267.020	2483
267.081	2428
267.142	1317
267.203	625
267.264	1267
267.326	2797
267.387	1218
267.448	1069
267.509	1523
267.570	1326
267.631	1660
267.692	750
267.753	1938
267.814	931
267.875	3332
267.936	7437
267.997	5299
268.058	4857
268.119	2247
268.180	2272
268.241	1377
268.302	1153
268.363	1419
268.424	1892
268.485	2387
268.546	962
268.607	1336
268.668	310
268.729	524
268.790	1852
268.851	1515
268.912	5558
268.972	7202
269.033	3483
269.094	929
269.155	775
269.216	1771
269.277	961
269.338	1235
269.398	1609
269.459	1533
269.520	3287
269.581	3641
269.642	5092
269.702	3042
269.763	2301
269.824	1463
269.885	2669
269.945	5749
270.006	1857
270.067	1213
270.128	720
270.188	320
270.249	712
270.310	1521
270.370	1456
270.431	1906
270.492	187
270.553	2001
270.613	4358
270.674	9443
270.734	3500
270.795	1923
270.856	3028
270.916	1967
270.977	1745
271.038	2542
271.098	2166
271.159	4190
271.219	4275
271.280	2025
271.340	1400
271.401	1631
271.462	5293
271.522	3086
271.583	2205
271.643	2102
271.704	1422
271.764	2655
271.825	5506
271.885	19976
271.946	24996
272.006	9697
272.066	11955
272.127	19890
272.187	6867
272.248	4344
272.308	3438
272.369	12133
272.429	6863
272.489	7506
272.550	7547
272.610	7514
272.671	5430
272.731	4489
272.791	6928
272.852	4843
272.912	4544
272.972	1626
273.033	2180
273.093	3729
273.153	4798
273.214	3467
273.274	3121
273.334	10932
273.394	19257
273.455	9391
273.515	9054
273.575	17756
273.635	7250
273.696	9907
273.756	17763
273.816	8385
273.876	4860
273.936	8318
273.997	15578
274.057	4885
274.117	2856
274.177	4650
274.237	24223
274.297	19953
274.358	13211
274.418	14608
274.478	12564
274.538	4686
274.598	2818
274.658	11243
274.718	14554
274.778	6189
274.838	3626
274.898	6576
274.958	18549
275.018	18992
275.078	12879
275.138	5744
275.198	2909
275.258	2432
275.318	3159
275.378	6538
275.438	8372
275.498	4599
275.558	8900
275.618	19194
275.678	13057
275.738	10168
275.798	7871
275.858	3948
275.918	2360
275.978	3958
276.038	2778
276.098	1812
276.157	4741
276.217	15829
276.277	6558
276.337	5977
276.397	3829
276.457	3888
276.517	1943
276.576	2446
276.636	1771
276.696	3640
276.756	10520
276.815	7449
276.875	2398
276.935	3247
276.995	3784
277.055	2139
277.114	2351
277.174	3018
277.234	11466
277.293	5044
277.353	3006
277.413	3013
277.472	3309
277.532	2304
277.592	2708
277.651	10519
277.711	17914
277.771	4959
277.830	22154
277.890	18112
277.950	10853
278.009	32534
278.069	11200
278.128	14229
278.188	19486
278.248	7934
278.307	20341
278.367	12620
278.426	4336
278.486	3303
278.545	1405
278.605	1888
278.664	2536
278.724	2490
278.783	7895
278.843	18339
278.902	5927
278.962	4085
279.021	4974
279.081	5254
279.140	4357
279.199	3605
279.259	4638
279.318	4805
279.378	4602
279.437	7813
279.496	28338
279.556	79285
279.615	62038
279.675	18569
279.734	10466
279.793	15109
279.853	22121
279.912	8397
279.971	4777
280.031	4446
280.090	8599
280.149	15574
280.208	11519
280.268	56837
280.327	56253
280.386	14760
280.445	12112
280.505	11204
280.564	6096
280.623	4041
280.682	6725
280.742	10574
280.801	3115
280.860	2840
280.919	2587
280.978	3048
281.037	2375
281.097	2610
281.156	1824
281.215	2248
281.274	2816
281.333	12800
281.392	9090
281.451	2550
281.510	2007
281.569	2587
281.628	2193
281.688	2128
281.747	2707
281.806	2724
281.865	1536
281.924	2650
281.983	2097
282.042	1305
282.101	2046
282.160	1830
282.219	1703
282.278	2710
282.337	9175
282.396	5794
282.454	2396
282.513	4014
282.572	13506
282.631	7895
282.690	2378
282.749	1745
282.808	3243
282.867	3080
282.926	3779
282.985	1746
283.043	1154
283.102	2362
283.161	2410
283.220	5660
283.279	12249
283.338	4354
283.396	2532
283.455	2812
283.514	3220
283.573	6255
283.631	3461
283.690	2702
283.749	2254
283.808	6466
283.866	7292
283.925	3100
283.984	2586
284.043	4502
284.101	4696
284.160	2589
284.219	3628
284.277	4454
284.336	5584
284.395	18548
284.453	15172
284.512	6397
284.570	9321
284.629	8083
284.688	7282
284.746	8832
284.805	9468
284.863	12508
284.922	15983
284.981	17129
285.039	24037
285.098	42352
285.156	80302
285.215	82363
285.273	85552
285.332	83351
285.390	53578
285.449	33164
285.507	22770
285.566	15219
285.624	12057
285.683	8943
285.741	7094
285.799	6832
285.858	7605
285.916	5604
285.975	4829
286.033	4220
286.091	3551
286.150	3149
286.208	2961
286.267	3240
286.325	4403
286.383	6740
286.442	5937
286.500	3649
286.558	3070
286.616	2136
286.675	4233
286.733	3601
286.791	2997
286.850	3910
286.908	3957
286.966	8242
287.024	3433
287.083	2478
287.141	1742
287.199	2433
287.257	4481
287.315	3498
287.374	3681
287.432	8555
287.490	5687
287.548	3290
287.606	2698
287.664	2388
287.723	4535
287.781	5591
287.839	2834
287.897	2928
287.955	3270
288.013	5212
288.071	8985
288.129	39972
288.187	107988
288.245	48238
288.303	16803
288.361	9152
288.419	6684
288.477	5021
288.535	3641
288.593	3113
288.651	2340
288.709	2231
288.767	2325
288.825	2362
288.883	2299
288.941	2308
288.999	1393
289.057	1792
289.115	2112
289.173	1946
289.231	2773
289.289	2079
289.346	1339
289.404	2577
289.462	4642
289.520	5326
289.578	2693
289.636	1833
289.694	1438
289.751	1129
289.809	493
289.867	1952
289.925	2563
289.983	3097
290.040	2016
290.098	1721
290.156	2252
290.214	3000
290.271	1863
290.329	1012
290.387	1182
290.444	1480
290.502	1129
290.560	1772
290.617	1637
290.675	967
290.733	1451
290.790	2252
290.848	1718
290.906	1612
290.963	2148
291.021	2117
291.078	894
291.136	1225
291.194	7660
291.251	17301
291.309	4728
291.366	2079
291.424	2097
291.481	2137
291.539	1656
291.596	2139
291.654	768
291.711	1802
291.769	1675
291.826	5061
291.884	3239
291.941	1989
291.999	1673
292.056	2346
292.114	2769
292.171	2178
292.228	1770
292.286	3278
292.343	5542
292.401	7064
292.458	4649
292.515	2820
292.573	3801
292.630	3128
292.687	2704
292.745	2526
292.802	2967
292.859	10781
292.917	17101
292.974	9671
293.031	3740
293.089	1808
293.146	2453
293.203	1881
293.260	1414
293.318	2358
293.375	5756
293.432	3762
293.489	1890
293.546	954
293.604	3568
293.661	8917
293.718	23703
293.775	14357
293.832	6705
293.889	5490
293.947	4532
294.004	2928
294.061	2877
294.118	7416
294.175	17299
294.232	24485
294.289	8905
294.346	5432
294.403	4496
294.460	3424
294.517	2478
294.574	2084
294.631	2477
294.688	2739
294.745	7156
294.802	27901
294.859	33386
294.916	13296
294.973	7251
295.030	6364
295.087	5004
295.144	3286
295.201	2561
295.258	2954
295.315	2677
295.372	10625
295.429	18027
295.486	8373
295.542	5459
295.599	14900
295.656	25355
295.713	16964
295.770	18422
295.827	7815
295.883	4507
295.940	5096
295.997	7574
296.054	7211
296.111	3677
296.167	3473
296.224	2128
296.281	2327
296.338	2134
296.394	2782
296.451	2935
296.508	9321
296.564	17945
296.621	12993
296.678	23489
296.734	31725
296.791	12912
296.848	7102
296.904	6882
296.961	17724
297.018	22600
297.074	16307
297.131	7111
297.187	4611
297.244	5359
297.301	19759
297.357	32575
297.414	12346
297.470	5443
297.527	4619
297.583	4167
297.640	4401
297.696	3086
297.753	2372
297.809	2069
297.866	1815
297.922	2154
297.979	2639
298.035	2343
298.092	4428
298.148	13179
298.204	12433
298.261	5922
298.317	11830
298.374	26901
298.430	15474
298.486	7454
298.543	4821
298.599	4842
298.656	4600
298.712	9884
298.768	21407
298.824	13763
298.881	5537
298.937	3319
298.993	3892
299.050	4702
299.106	4458
299.162	4534
299.218	4041
299.275	2608
299.331	2991
299.387	6568
299.443	24303
299.500	25152
299.556	10886
299.612	6388
299.668	6085
299.724	7760
299.780	7513
299.837	3616
299.893	5781
299.949	21215
300.005	23478
300.061	22175
300.117	34402
300.173	16836
300.229	8138
300.285	10783
300.341	12844
300.397	6996
300.453	4010
300.510	2850
300.566	4012
300.622	4521
300.678	14004
300.734	26021
300.790	21101
300.845	22231
300.901	16998
300.957	23836
301.013	17944
301.069	8137
301.125	6104
301.181	5814
301.237	4775
301.293	3658
301.349	3318
301.405	2868
301.461	2082
301.516	2711
301.572	4039
301.628	7734
301.684	7306
301.740	10550
301.796	14599
301.851	9973
301.907	17185
301.963	16163
302.019	23245
302.074	59385
302.130	59120
302.186	28165
302.242	12860
302.297	8507
302.353	8025
302.409	14214
302.464	11667
302.520	10668
302.576	25781
302.631	29181
302.687	17957
302.743	8141
302.798	5926
302.854	4336
302.910	4566
302.965	5213
303.021	10648
303.076	9343
303.132	13672
303.187	16280
303.243	9003
303.299	5138
303.354	4412
303.410	3268
303.465	3546
303.521	3561
303.576	3657
303.632	3180
303.687	7237
303.743	20321
303.798	17764
303.853	7704
303.909	5346
303.964	3932
304.020	7806
304.075	11973
304.130	10166
304.186	19187
304.241	21105
304.297	15133
304.352	8542
304.358	8276
304.407	6114
304.449	5796
304.463	5695
304.518	6354
304.539	5657
304.573	4526
304.629	4519
304.630	4562
304.684	6747
304.720	13747
304.739	17235
304.794	24045
304.811	20847
304.850	13150
304.902	7547
304.905	7197
304.960	5573
304.992	5462
305.015	5374
305.071	5313
305.083	5214
305.126	4787
305.173	3177
305.181	2940
305.236	3506
305.264	3687
305.292	3787
305.347	5249
305.354	5273
305.402	5562
305.445	5737
305.457	5750
305.512	6863
305.535	6580
305.567	6257
305.622	5817
305.626	5998
305.678	10234
305.716	19660
305.733	23041
305.788	24633
305.807	21750
305.843	16905
305.897	21654
305.898	21700
305.953	21641
305.988	15150
306.008	11589
306.063	8503
306.078	7640
306.118	5666
306.168	4248
306.173	4124
306.228	3644
306.259	3136
306.283	2840
306.338	3058
306.349	3222
306.393	3914
306.440	4019
306.448	4029
306.503	4271
306.530	4713
306.558	6321
306.613	13701
306.620	14736
306.668	20487
306.711	25587
306.723	26013
306.778	19085
306.801	14980
306.833	10586
306.888	6093
306.892	5853
306.943	3787
306.982	3742
306.997	3829
307.052	4017
307.072	4020
307.107	4316
307.162	5571
307.163	5598
307.217	9163
307.253	11044
307.272	11211
307.327	11946
307.343	10705
307.381	8179
307.434	7485
307.436	7711
307.491	15140
307.524	23167
307.546	25361
307.600	23031
307.614	20523
307.655	12765
307.704	7164
307.710	7001
307.765	8125
307.795	10294
307.819	12721
307.874	19961
307.885	20056
307.929	15298
307.975	10771
307.984	10889
308.038	13401
308.065	16102
308.093	26581
308.148	56954
308.156	63939
308.202	99984
308.246	118170
308.257	114637
308.312	66339
308.336	48201
308.366	37976
308.421	25156
308.426	23883
308.475	15136
308.517	11063
308.530	10314
308.585	8538
308.607	8236
308.639	8395
308.694	8726
308.697	8865
308.748	16550
308.787	24564
308.803	24673
308.857	18789
308.877	16041
308.912	13839
308.967	12620
308.967	12619
309.021	17524
309.058	21933
309.076	27183
309.130	45869
309.148	53544
309.185	85336
309.238	140794
309.239	141255
309.293	154067
309.328	144512
309.348	126058
309.402	66407
309.418	50996
309.457	36615
309.508	23430
309.511	23104
309.566	21362
309.598	22031
309.620	26388
309.674	40345
309.688	43906
309.729	42084
309.778	34405
309.783	33558
309.837	23397
309.868	18167
309.892	20781
309.946	30339
309.959	33502
310.001	42917
310.049	50182
310.055	48461
310.109	28243
310.139	17051
310.163	13612
310.218	8544
310.229	7709
310.272	6958
310.319	6528
310.326	6326
310.381	5321
310.409	4743
310.435	4904
310.489	5129
310.499	5206
310.543	4982
310.589	4803
310.598	4880
310.652	5457
310.679	5752
310.706	5442
310.760	4545
310.769	4368
310.814	3842
310.859	3740
310.868	3756
310.923	3639
310.948	3610
310.977	4069
311.031	5017
311.038	5152
311.085	4909
311.128	4401
311.139	4358
311.193	4364
311.218	4318
311.247	4132
311.301	3819
311.308	3773
311.356	4427
311.398	5086
311.410	4987
311.464	4417
311.488	4113
311.518	4009
311.572	3896
311.578	3891
311.626	5427
311.668	6771
311.680	6824
311.734	6898
311.758	6960
311.788	6773
311.842	6340
311.847	6297
311.896	8455
311.937	10359
311.950	10216
312.004	9505
312.027	9163
312.058	7932
312.112	5748
312.117	5529
312.165	5124
312.207	4781
312.297	8588
312.386	6040
312.476	6047
312.566	11152
312.656	5942
312.745	3861
312.835	4459
312.925	5620
313.015	4566
313.104	5081
313.194	4202
313.284	3952
313.374	6754
313.463	6027
313.553	5268
313.643	3990
313.732	4425
313.822	3399
313.912	5632
314.001	5788
314.091	6499
314.180	8250
314.270	7799
314.360	7193
314.449	7296
314.539	4807
314.628	4586
314.718	5545
314.808	7095
314.897	4277
314.987	5555
315.076	6037
315.166	7770
315.255	7065
315.345	7489
315.434	7028
315.524	6262
315.613	6885
315.703	8866
315.792	10958
315.881	20364
315.971	8958
316.060	13274
316.150	16735
316.239	16729
316.328	7233
316.418	4400
316.507	4757
316.597	6641
316.686	6178
316.775	8944
316.865	17726
316.954	5264
317.043	3775
317.133	4999
317.222	3919
317.311	4682
317.400	3609
317.490	6485
317.579	6901
317.668	4848
317.757	6591
317.847	14621
317.936	34043
318.025	20084
318.114	10572
318.203	8285
318.293	12892
318.382	24627
318.471	18283
318.560	25264
318.649	44293
318.738	9827
318.828	6964
318.917	7450
319.006	8018
319.095	23375
319.184	55770
319.273	31111
319.362	16813
319.451	5860
319.540	5320
319.629	14979
319.718	21903
319.807	9502
319.896	20566
319.985	66481
320.074	23478
320.163	7628
320.252	11923
320.341	12159
320.430	10951
320.519	13182
320.608	7023
320.697	7042
320.786	6201
320.875	7761
320.964	10258
321.053	16095
321.142	23329
321.230	23415
321.319	18523
321.408	43350
321.497	18046
321.586	17134
321.675	19148
321.764	18092
321.852	12204
321.941	24050
322.030	14227
322.119	17430
322.207	41677
322.296	28831
322.385	14668
322.474	17259
322.562	50501
322.651	25887
322.740	17830
322.829	26108
322.917	25743
323.006	15442
323.095	13965
323.183	9577
323.272	13513
323.361	24101
323.449	62316
323.538	21013
323.626	47725
323.715	26862
323.804	11967
323.892	44920
323.981	24794
324.069	7712
324.158	24914
324.246	22384
324.335	9401
324.424	16114
324.512	5969
324.601	8999
324.689	20094
324.778	36271
324.866	18951
324.954	6472
325.043	5726
325.131	11536
325.220	20604
325.308	22426
325.397	17544
325.485	10654
325.574	4249
325.662	4636
325.750	5367
325.839	4923
325.927	4471
326.015	5851
326.104	7749
326.192	12882
326.280	4808
326.369	5572
326.457	7282
326.545	12922
326.634	5919
326.722	4000
326.810	4113
326.898	4656
326.987	4356
327.075	12601
327.163	11731
327.251	6630
327.340	16109
327.428	23386
327.516	4760
327.604	3796
327.692	5074
327.781	5826
327.869	10200
327.957	6436
328.045	6039
328.133	4627
328.221	5426
328.309	4867
328.397	4187
328.485	5228
328.574	7620
328.662	26196
328.750	13746
328.838	6371
328.926	3907
329.014	3500
329.102	6398
329.190	18874
329.278	11261
329.366	3145
329.454	2579
329.542	3835
329.630	2779
329.718	4096
329.806	5721
329.893	6134
329.981	4528
330.069	6457
330.157	22473
330.245	69582
330.333	37047
330.421	7670
330.509	8014
330.597	31007
330.684	20421
330.772	7921
330.860	12230
330.948	16402
331.036	7136
331.123	3519
331.211	3456
331.299	5935
331.387	13314
331.475	24122
331.562	7465
331.650	4537
331.738	5137
331.825	7181
331.913	3169
332.001	3452
332.089	4804
332.176	9904
332.264	23879
332.352	19023
332.439	6903
332.527	5230
332.614	3976
332.702	6427
332.790	4342
332.877	11737
332.965	23602
333.052	7385
333.140	6739
333.228	17495
333.315	5294
333.403	5182
333.490	15421
333.578	13187
333.665	20782
333.753	9242
333.840	4403
333.928	5575
334.015	14332
334.103	21383
334.190	64954
334.278	17493
334.365	8636
334.452	8107
334.540	4714
334.627	6434
334.715	8049
334.802	14041
334.889	73404
334.977	71173
335.064	12301
335.151	5977
335.239	6452
335.326	7769
335.413	32737
335.501	45651
335.588	7925
335.675	6095
335.762	7339
335.850	14639
335.937	8591
336.024	21100
336.111	86484
336.199	40883
336.286	8622
336.373	5793
336.460	3454
336.547	4252
336.635	5703
336.722	4855
336.809	4255
336.896	7570
336.983	22405
337.070	53689
337.157	66772
337.245	48156
337.332	33691
337.419	5691
337.506	3939
337.593	5426
337.680	17979
337.767	57490
337.854	16529
337.941	19659
338.028	20776
338.115	7478
338.202	8665
338.289	15681
338.376	50494
338.463	16350
338.550	32479
338.637	34205
338.724	11580
338.811	18095
338.898	4571
338.984	3746
339.071	6027
339.158	6549
339.245	16327
339.332	10075
339.419	12258
339.506	12525
339.593	2249
339.679	4215
339.766	3572
339.853	5462
339.940	12273
340.027	5245
340.113	4799
340.200	6597
340.287	4007
340.374	5961
340.460	10913
340.547	4771
340.634	7621
340.720	29010
340.807	16379
340.894	3618
340.980	3839
341.067	4592
341.154	4864
341.240	7728
341.327	15306
341.414	6588
341.500	6987
341.587	5203
341.674	3772
341.760	10515
341.847	13079
341.933	4861
342.020	1824
342.106	3024
342.193	3407
342.279	8382
342.366	7115
342.452	10398
342.539	5525
342.625	13379
342.712	30673
342.798	13643
342.885	6198
342.971	2599
343.058	1907
343.144	3621
343.230	3363
343.317	3664
343.403	3570
343.490	2569
343.576	2193
343.662	4004
343.749	3817
343.835	4123
343.921	7376
344.008	40015
344.094	88945
344.180	21138
344.267	8452
344.353	27355
344.439	31034
344.525	15610
344.612	6220
344.698	5514
344.784	3754
344.870	2962
344.957	3341
345.043	6905
345.129	4157
345.215	10719
345.301	5692
345.387	4732
345.474	2238
345.560	3078
345.646	3541
345.732	4216
345.818	4541
345.904	4024
345.990	4319
346.076	4854
346.162	9410
346.249	4850
346.335	2855
346.421	3528
346.507	10104
346.593	36524
346.679	9285
346.765	4318
346.851	3110
346.937	4309
347.023	3726
347.108	4164
347.194	3502
347.280	3755
347.366	3974
347.452	11326
347.538	43052
347.624	35356
347.710	30988
347.796	5697
347.882	3420
347.967	3591
348.053	6119
348.139	4159
348.225	3296
348.311	3322
348.397	3193
348.482	4569
348.568	4946
348.654	2842
348.740	4975
348.825	5190
348.911	6011
348.997	19882
349.083	39234
349.168	9179
349.254	4587
349.340	4846
349.425	2720
349.511	4346
349.597	5685
349.682	10043
349.768	30079
349.854	14853
349.939	4335
350.025	3673
350.110	2958
350.196	3197
350.282	1767
350.367	2751
350.453	6495
350.538	6325
350.624	5585
350.709	6398
350.795	3250
350.880	3133
350.966	4145
351.051	6520
351.137	4420
351.222	4806
351.308	10342
351.393	30599
351.479	8328
351.564	4367
351.649	3334
351.735	3380
351.820	2607
351.906	3250
351.991	5002
352.076	18014
352.162	28419
352.247	6461
352.332	4581
352.418	9732
352.503	10315
352.588	42331
352.673	38108
352.759	8350
352.844	4118
352.929	4998
353.014	7282
353.100	5653
353.185	7159
353.270	13255
353.355	11905
353.441	5119
353.526	4360
353.611	10508
353.696	12675
353.781	8220
353.866	3513
353.952	4807
354.037	9492
354.122	24623
354.207	21430
354.292	8903
354.377	4311
354.462	3404
354.547	5057
354.632	5621
354.717	6768
354.802	10086
354.887	4089
354.972	3449
355.057	3208
355.142	3111
355.227	4685
355.312	7742
355.397	14780
355.482	36507
355.567	18193
355.652	13080
355.737	13732
355.822	33096
355.907	29291
355.991	7268
356.076	3480
356.161	3719
356.246	2809
356.331	3868
356.416	7353
356.501	45756
356.585	51867
356.670	9093
356.755	6877
356.840	8717
356.924	34453
357.009	119860
357.094	50803
357.179	12906
357.263	9198
357.348	9760
357.433	9460
357.517	8134
357.602	6240
357.687	5929
357.771	6886
357.856	9828
357.941	8649
358.025	26442
358.110	108792
358.195	58660
358.279	10203
358.364	8551
358.448	25430
358.533	69368
358.617	52742
358.702	48066
358.787	18791
358.871	12153
358.956	10193
359.040	4041
359.125	3085
359.209	3917
359.294	4673
359.378	7222
359.462	8631
359.547	6499
359.631	4111
359.716	3676
359.800	3955
359.885	8278
359.969	4015
360.053	4289
360.138	4008
360.222	6651
360.306	11657
360.391	9149
360.475	10480
360.559	23104
360.644	26628
360.728	20393
360.812	26612
360.896	69406
360.981	37903
361.065	24262
361.149	7155
361.233	6549
361.318	5205
361.402	6786
361.486	6086
361.570	5319
361.654	4785
361.739	12715
361.823	46676
361.907	73748
361.991	15431
362.075	9994
362.159	20881
362.243	17231
362.327	15070
362.411	22013
362.495	11158
362.580	6679
362.664	4671
362.748	4850
362.832	5673
362.916	8680
363.000	29948
363.084	75904
363.168	91028
363.252	24825
363.336	10692
363.420	14592
363.503	44340
363.587	56067
363.671	11214
363.755	7809
363.839	12297
363.923	5478
364.007	11830
364.091	14976
364.175	16299
364.258	69932
364.342	57804
364.426	69737
364.510	40285
364.594	18826
364.677	17571
364.761	59785
364.845	47463
364.929	20219
365.013	17731
365.096	13949
365.180	15949
365.264	18926
365.347	68962
365.431	36037
365.515	10283
365.598	5265
365.682	5217
365.766	10194
365.849	14200
365.933	6471
366.017	9446
366.100	8604
366.184	3321
366.267	4860
366.351	4072
366.435	4294
366.518	3155
366.602	3726
366.685	4058
366.769	4922
366.852	9807
366.936	16778
367.019	8871
367.103	7865
367.186	15414
367.270	5708
367.353	2308
367.436	4227
367.520	2671
367.603	4931
367.687	6878
367.770	14026
367.853	8389
367.937	19550
368.020	33779
368.104	9256
368.187	9499
368.270	16703
368.353	14164
368.437	16094
368.520	34541
368.603	23993
368.687	24642
368.770	48430
368.853	14024
368.936	15282
369.020	15885
369.103	5897
369.186	3076
369.269	4261
369.352	8108
369.436	13849
369.519	8706
369.602	3661
369.685	5751
369.768	5740
369.851	5168
369.934	4161
370.018	4530
370.101	11734
370.184	11459
370.267	7183
370.350	12007
370.433	17333
370.516	33183
370.599	42503
370.682	15544
370.765	32176
370.848	34540
370.931	54623
371.014	26507
371.097	6172
371.180	5236
371.263	4131
371.346	2576
371.429	4231
371.511	3711
371.594	8572
371.677	13820
371.760	18286
371.843	11915
371.926	43122
372.009	97041
372.091	39259
372.174	23288
372.257	47656
372.340	21813
372.423	22080
372.505	26780
372.588	11789
372.671	18136
372.754	52949
372.836	30466
372.919	23254
373.002	49544
373.085	17130
373.167	11823
373.250	25759
373.332	48821
373.415	62560
373.498	122932
373.580	53917
373.663	58840
373.746	83836
373.828	22756
373.911	12568
373.993	12161
374.076	43353
374.159	44465
374.241	17812
374.324	47167
374.406	35208
374.489	35451
374.571	97593
374.654	46478
374.736	21880
374.819	59758
374.901	87886
374.983	92390
375.066	20531
375.148	7898
375.231	32405
375.313	68526
375.395	29528
375.478	6917
375.560	5474
375.643	6828
375.725	20124
375.807	73120
375.890	69397
375.972	33106
376.054	19119
376.136	28127
376.219	14915
376.301	21454
376.383	64262
376.465	29761
376.548	19671
376.630	22194
376.712	57128
376.794	29833
376.877	5707
376.959	3795
377.041	5707
377.123	11594
377.205	14644
377.287	3335
377.369	3702
377.452	4361
377.534	4165
377.616	3795
377.698	2979
377.780	2357
377.862	4601
377.944	5063
378.026	3095
378.108	3164
378.190	3447
378.272	3769
378.354	2039
378.436	2399
378.518	6591
378.600	23359
378.682	21099
378.764	33898
378.846	30988
378.928	10408
379.010	13671
379.091	7787
379.173	4244
379.255	3344
379.337	5312
379.419	16630
379.501	47260
379.583	23125
379.664	6166
379.746	12797
379.828	36428
379.910	47458
379.991	42166
380.073	8341
380.155	6247
380.237	3771
380.318	3826
380.400	3771
380.482	8538
380.564	14260
380.645	13751
380.727	12870
380.809	9557
380.890	5332
380.972	4230
381.053	4124
381.135	6123
381.217	13247
381.298	37994
381.380	21044
381.461	14818
381.543	54448
381.624	73227
381.706	16919
381.787	9647
381.869	10380
381.951	25747
382.032	88636
382.113	68935
382.195	17333
382.276	12827
382.358	20687
382.439	51278
382.521	58559
382.602	87105
382.684	46290
382.765	76728
382.846	96284
382.928	139829
383.009	85460
383.090	53320
383.172	172118
383.253	271543
383.334	103021
383.416	83265
383.497	50098
383.578	25447
383.659	46492
383.741	147204
383.822	349564
383.903	206551
383.984	71019
384.066	104611
384.147	71727
384.228	18359
384.309	13123
384.390	10910
384.471	7679
384.553	8957
384.634	11998
384.715	12545
384.796	6959
384.877	9296
384.958	30682
385.039	42591
385.120	17004
385.201	8563
385.282	10328
385.363	11402
385.444	8352
385.525	14378
385.606	39822
385.687	38379
385.768	11854
385.849	15275
385.930	46529
386.011	79798
386.092	26745
386.173	8085
386.254	6649
386.335	7954
386.416	7815
386.496	22132
386.577	38975
386.658	16716
386.739	9302
386.820	10998
386.901	7641
386.981	7667
387.062	5264
387.143	9078
387.224	33842
387.304	36224
387.385	14437
387.466	9579
387.547	12781
387.627	8909
387.708	13833
387.789	54188
387.869	68843
387.950	20988
388.031	4654
388.111	3881
388.192	14651
388.273	23005
388.353	14016
388.434	7119
388.514	12471
388.595	44655
388.676	66384
388.756	39239
388.837	34389
388.917	25143
388.998	5140
389.078	5946
389.159	4638
389.239	3773
389.320	7972
389.400	6356
389.480	14285
389.561	35017
389.641	20675
389.722	8525
389.802	12121
389.883	15984
389.963	36788
390.043	28755
390.124	10710
390.204	14504
390.284	40719
390.365	30307
390.445	30358
390.525	60374
390.605	50413
390.686	23013
390.766	9664
390.846	6239
390.927	2532
391.007	3899
391.087	5449
391.167	6340
391.247	3713
391.328	8131
391.408	13386
391.488	11572
391.568	2739
391.648	6295
391.728	9596
391.808	8586
391.888	8339
391.969	18954
392.049	32741
392.129	17139
392.209	16597
392.289	38821
392.369	24397
392.449	23973
392.529	15427
392.609	11978
392.689	12590
392.769	34513
392.849	34367
392.929	25410
393.009	55305
393.089	43346
393.169	33219
393.248	95047
393.328	314195
393.408	362621
393.488	115271
393.568	32987
393.648	16951
393.728	11304
393.807	7074
393.887	8754
393.967	7040
394.047	8906
394.127	9893
394.206	16658
394.286	49965
394.366	192817
394.446	228344
394.525	62610
394.605	16340
394.685	14464
394.764	32165
394.844	54129
394.924	39716
395.003	11660
395.083	7690
395.163	7456
395.242	6047
395.322	7414
395.402	4317
395.481	8409
395.561	19540
395.640	58797
395.720	48011
395.799	57714
395.879	48274
395.958	25906
396.038	73556
396.117	252002
396.197	299559
396.276	109005
396.356	37828
396.435	28816
396.515	18972
396.594	18755
396.673	32329
396.753	100593
396.832	292468
396.912	253018
396.991	71970
397.070	20570
397.150	9686
397.229	9926
397.308	12521
397.388	23844
397.467	12315
397.546	5268
397.625	2850
397.705	7779
397.784	7099
397.863	4666
397.942	3558
398.022	4075
398.101	15877
398.180	50925
398.259	31864
398.338	8947
398.417	4622
398.497	4387
398.576	4980
398.655	2735
398.734	3014
398.813	4200
398.892	14423
398.971	51956
399.050	30396
399.129	4922
399.208	2842
399.287	3135
399.366	2153
399.445	2858
399.524	2962
399.603	2230
399.682	6140
399.761	18464
399.840	51680
399.919	46381
399.998	7462
400.077	2530
400.156	1776
400.235	5709
400.313	2550
400.392	4173
400.471	18668
400.550	34650
400.629	9813
400.708	5488
400.786	4955
400.865	13371
400.944	17657
401.023	8479
401.102	1466
401.180	2420
401.259	1844
401.338	4133
401.416	4459
401.495	4534
401.574	3911
401.652	2617
401.731	4507
401.810	4138
401.888	2706
401.967	1833
402.046	2547
402.124	4753
402.203	5864
402.281	4558
402.360	5687
402.438	18758
402.517	14282
402.596	5252
402.674	3878
402.753	3396
402.831	2716
402.910	4361
402.988	11906
403.066	41227
403.145	27516
403.223	14042
403.302	33519
403.380	29930
403.459	26056
403.537	12645
403.615	4898
403.694	1224
403.772	2930
403.850	1803
403.929	834
404.007	2075
404.085	5335
404.164	6368
404.242	2231
404.320	3061
404.398	4077
404.477	14378
404.555	65931
404.633	66151
404.711	11341
404.789	4079
404.868	2298
404.946	2554
405.024	789
405.102	1444
405.180	631
405.258	998
405.336	2467
405.415	2664
405.493	6194
405.571	6791
405.649	1657
405.727	1447
405.805	4515
405.883	3942
405.961	4471
406.039	4964
406.117	2358
406.195	4597
406.273	16725
406.351	63550
406.429	44986
406.507	9478
406.585	3034
406.663	3281
406.740	4843
406.818	4360
406.896	2868
406.974	3663
407.052	4910
407.130	36733
407.208	56007
407.285	13720
407.363	1622
407.441	2015
407.519	1975
407.596	3201
407.674	7153
407.752	17755
407.830	22747
407.907	12092
407.985	2888
408.063	2128
408.141	1410
408.218	5437
408.296	5205
408.373	3259
408.451	3162
408.529	2666
408.606	1040
408.684	1774
408.762	663
408.839	1093
408.917	867
408.994	1842
409.072	1530
409.149	1742
409.227	3796
409.304	5011
409.382	3585
409.459	3672
409.537	6199
409.614	6157
409.692	3690
409.769	3547
409.846	4881
409.924	9203
410.001	5436
410.079	4389
410.156	3280
410.233	3753
410.311	1468
410.388	1864
410.465	2388
410.543	3439
410.620	1726
410.697	2903
410.775	3776
410.852	1043
410.929	3333
411.006	5793
411.083	2416
411.161	6880
411.238	9077
411.315	6080
411.392	1477
411.469	4318
411.547	4569
411.624	1603
411.701	1696
411.778	2906
411.855	6710
411.932	4297
412.009	2282
412.086	2208
412.163	2982
412.240	3573
412.317	4143
412.394	4265
412.471	1886
412.548	1487
412.625	1563
412.702	3075
412.779	6210
412.856	5405
412.933	1313
413.010	2200
413.087	3544
413.164	18505
413.241	28502
413.318	8300
413.395	4443
413.471	7031
413.548	3280
413.625	2521
413.702	2807
413.779	2998
413.855	844
413.932	643
414.009	238
414.086	1693
414.162	1792
414.239	3764
414.316	17293
414.393	41253
414.469	15726
414.546	2984
414.623	1109
414.699	1928
414.776	2570
414.853	1690
414.929	1227
415.006	2264
415.082	3233
415.159	2595
415.236	1977
415.312	2696
415.389	4191
415.465	6394
415.542	3798
415.618	1566
415.695	4283
415.771	2871
415.848	1942
415.924	2878
416.000	1759
416.077	2529
416.153	9
416.230	113
416.306	785
416.383	1044
416.459	1305
416.535	1029
416.612	1230
416.688	2000
416.764	950
416.841	994
416.917	1414
416.993	2411
417.069	2267
417.146	3483
417.222	4979
417.298	3083
417.374	1250
417.451	2723
417.527	1737
417.603	2639
417.679	2223
417.755	2441
417.831	326
417.908	1016
417.984	-3
418.060	1471
418.136	4721
418.212	7278
418.288	2303
418.364	2411
418.440	948
418.516	3884
418.592	5085
418.668	10121
418.744	14558
418.820	11741
418.896	2721
418.972	498
419.048	2102
419.124	6684
419.200	5065
419.276	1341
419.352	-127
419.428	2068
419.504	1978
419.579	2707
419.655	1419
419.731	2205
419.807	8256
419.883	15951
419.959	10519
420.034	4042
420.110	6743
420.186	24597
420.262	22119
420.337	4901
420.413	2903
420.489	1824
420.565	2157
420.640	1796
420.716	2226
420.792	635
420.867	2632
420.943	2147
421.019	4480
421.094	3585
421.170	1978
421.245	2052
421.321	2112
421.397	2067
421.472	4156
421.548	10080
421.623	9993
421.699	5458
421.774	4207
421.850	3510
421.925	6942
422.001	7080
422.076	5715
422.152	6831
422.227	11075
422.302	13315
422.378	18205
422.453	33630
422.529	75491
422.604	186873
422.679	276540
422.755	221615
422.830	98440
422.905	38992
422.981	20096
423.056	13995
423.131	10535
423.207	7484
423.282	6533
423.357	11798
423.432	8302
423.508	8429
423.583	13969
423.658	13697
423.733	5036
423.808	5597
423.883	5924
423.959	4680
424.034	4427
424.109	4097
424.184	3087
424.259	1748
424.334	1207
424.409	1694
424.484	1912
424.559	2060
424.634	1506
424.709	3509
424.784	3440
424.859	3634
424.934	3953
425.009	18475
425.084	31899
425.159	13674
425.234	3292
425.309	1769
425.384	2510
425.459	2026
425.534	2164
425.609	2106
425.683	1431
425.758	1933
425.833	2218
425.908	3957
425.983	10549
426.058	33277
426.132	16491
426.207	4569
426.282	5277
426.357	6113
426.431	1437
426.506	1920
426.581	1569
426.655	2155
426.730	1952
426.805	1477
426.879	2428
426.954	2812
427.029	5409
427.103	25324
427.178	60706
427.253	31206
427.327	4692
427.402	3929
427.476	7419
427.551	3714
427.625	2349
427.700	2367
427.774	979
427.849	3110
427.923	857
427.998	1702
428.072	2361
428.147	7093
428.221	21191
428.296	61394
428.370	36237
428.444	5986
428.519	7192
428.593	14442
428.667	12253
428.742	14696
428.816	15313
428.890	40297
428.965	64925
429.039	22723
429.113	17630
429.188	7504
429.262	2483
429.336	4656
429.410	14694
429.485	12283
429.559	11869
429.633	11557
429.707	2808
429.781	8692
429.855	47294
429.930	76489
430.004	42801
430.078	60475
430.152	54573
430.226	70827
430.300	79536
430.374	15306
430.448	5164
430.522	17600
430.596	52998
430.670	36980
430.744	61034
430.818	98433
430.892	23413
430.966	4036
431.040	1853
431.114	1848
431.188	356
431.262	1663
431.336	1664
431.410	5955
431.484	17462
431.557	13527
431.631	1960
431.705	2607
431.779	10079
431.853	49752
431.927	40976
432.000	6109
432.074	2298
432.148	3014
432.222	2129
432.295	854
432.369	1595
432.443	3761
432.516	22086
432.590	59918
432.664	27103
432.737	3749
432.811	725
432.885	1354
432.958	655
433.032	587
433.106	134
433.179	825
433.253	42
433.326	915
433.400	-61
433.473	818
433.547	100
433.620	1388
433.694	3325
433.767	4484
433.841	655
433.914	696
433.988	666
434.061	1528
434.134	515
434.208	871
434.281	197
434.355	191
434.428	1056
434.501	241
434.575	-281
434.648	574
434.721	435
434.795	878
434.868	68
434.941	-237
435.014	113
435.088	688
435.161	666
435.234	3215
435.307	4514
435.381	2616
435.454	1638
435.527	2851
435.600	2671
435.673	2863
435.746	774
435.819	1061
435.892	1368
435.966	938
436.039	10
436.112	862
436.185	-835
436.258	146
436.331	-717
436.404	81
436.477	447
436.550	44
436.623	82
436.696	434
436.769	896
436.842	916
436.915	1173
436.987	2750
437.060	220
437.133	159
437.206	62
437.279	2013
437.352	-80
437.425	1488
437.498	1318
437.570	4994
437.643	4936
437.716	832
437.789	482
437.861	2890
437.934	10170
438.007	5790
438.080	754
438.152	1425
438.225	3804
438.298	27125
438.370	77807
438.443	40520
438.516	10544
438.588	2442
438.661	253
438.734	1142
438.806	1515
438.879	2747
438.951	1880
439.024	5810
439.096	1368
439.169	794
439.241	877
439.314	-10
439.386	2015
439.459	3894
439.531	5693
439.604	3054
439.676	845
439.749	875
439.821	-117
439.893	977
439.966	1125
440.038	954
440.110	2052
440.183	1245
440.255	720
440.327	2990
440.400	12414
440.472	54052
440.544	41463
440.617	5523
440.689	4258
440.761	5272
440.833	9986
440.905	6406
440.978	754
441.050	153
441.122	262
441.194	1125
441.266	732
441.338	206
441.411	2660
441.483	19206
441.555	32237
441.627	8453
441.699	4338
441.771	4794
441.843	1337
441.915	1114
441.987	510
442.059	1538
442.131	1200
442.203	4269
442.275	4407
442.347	4779
442.419	5304
442.491	27392
442.563	71909
442.635	35893
442.706	19433
442.778	18327
442.850	3396
442.922	1430
442.994	2196
443.066	4406
443.137	3404
443.209	2143
443.281	3671
443.353	8209
443.425	33729
443.496	119022
443.568	126513
443.640	50175
443.711	8967
443.783	3275
443.855	2598
443.926	1607
443.998	1794
444.070	4037
444.141	2739
444.213	4307
444.285	5398
444.356	4804
444.428	2858
444.499	2417
444.571	496
444.642	1596
444.714	1783
444.785	3909
444.857	5280
444.928	12599
445.000	8309
445.071	8573
445.143	10793
445.214	6658
445.285	9346
445.357	30114
445.428	78194
445.500	181332
445.571	128360
445.642	67309
445.714	26459
445.785	25075
445.856	7514
445.928	6119
445.999	5470
446.070	4261
446.141	4977
446.213	7010
446.284	3301
446.355	3597
446.426	2811
446.497	2344
446.569	3915
446.640	7697
446.711	5097
446.782	2163
446.853	2610
446.924	3747
446.995	1675
447.066	2264
447.138	5551
447.209	3921
447.280	684
447.351	899
447.422	212
447.493	2074
447.564	2808
447.635	4117
447.706	2365
447.777	1042
447.847	441
447.918	918
447.989	3070
448.060	3691
448.131	9119
448.202	10114
448.273	6314
448.344	3898
448.414	870
448.485	1410
448.556	493
448.627	1190
448.698	1559
448.768	312
448.839	1017
448.910	4706
448.981	5422
449.051	1870
449.122	812
449.193	707
449.263	828
449.334	1354
449.405	2651
449.475	6333
449.546	5673
449.616	6218
449.687	4222
449.758	2042
449.828	1644
449.899	1941
449.969	1337
450.040	1190
450.110	2318
450.181	3178
450.251	724
450.322	1041
450.392	2006
450.463	1571
450.533	177
450.604	1611
450.674	1539
450.744	1903
450.815	521
450.885	1712
450.955	1009
451.026	913
451.096	1122
451.166	1939
451.237	5136
451.307	17631
451.377	7099
451.447	2243
451.518	956
451.588	1986
451.658	1636
451.728	4111
451.799	15327
451.869	20425
451.939	4281
452.009	1045
452.079	641
452.149	2475
452.219	3479
452.289	19322
452.360	15171
452.430	3343
452.500	1993
452.570	3538
452.640	4647
452.710	15032
452.780	23390
452.850	15471
452.920	13301
452.990	5265
453.060	2162
453.129	3963
453.199	5788
453.269	17901
453.339	41482
453.409	65109
453.479	60081
453.549	94354
453.619	104841
453.688	44734
453.758	6957
453.828	2817
453.898	2061
453.968	2654
454.037	1606
454.087	1829
454.107	1912
454.168	1681
454.177	1639
454.247	2030
454.249	2013
454.316	1267
454.330	1489
454.386	2177
454.411	4498
454.456	8205
454.492	11851
454.525	15190
454.574	8161
454.595	5109
454.655	2934
454.665	2595
454.734	1476
454.736	1624
454.804	5972
454.817	7976
454.873	15672
454.898	17667
454.943	21276
454.979	13450
455.013	6495
455.060	4178
455.082	3225
455.141	3934
455.152	3952
455.221	11413
455.222	11587
455.291	21744
455.303	19310
455.360	9041
455.384	7606
455.430	5009
455.465	5926
455.499	6457
455.546	12757
455.569	15457
455.627	11732
455.638	11174
455.707	2589
455.708	2592
455.777	1113
455.789	1273
455.846	2022
455.869	2099
455.916	2165
455.950	1938
455.985	1725
456.031	2530
456.054	2936
456.112	2119
456.124	1967
456.193	1806
456.193	1794
456.262	2165
456.274	2527
456.332	3961
456.355	3683
456.401	2928
456.436	2667
456.470	2479
456.516	1376
456.540	875
456.597	1132
456.609	1154
456.678	1619
456.678	1611
456.747	1648
456.759	1546
456.817	1026
456.840	1156
456.886	1392
456.920	1352
456.955	1355
457.001	1983
457.024	2358
457.082	2029
457.093	1944
457.162	3852
457.163	3869
457.232	3938
457.243	3667
457.301	2492
457.324	2213
457.370	1943
457.405	2132
457.439	2229
457.485	1823
457.508	1717
457.566	2330
457.577	2484
457.646	3011
457.647	3033
457.715	4661
457.727	4978
457.784	7089
457.808	8914
457.853	10613
457.889	12642
457.922	14026
457.969	10040
457.991	9330
458.050	9855
458.060	10033
458.129	18068
458.130	18295
458.198	19692
458.211	17401
458.267	10163
458.292	7589
458.336	4695
458.372	4582
458.405	5836
458.453	8778
458.474	10496
458.533	17293
458.543	17731
458.611	29847
458.614	29937
458.680	21461
458.694	17271
458.749	7681
458.775	6007
458.818	3708
458.855	3062
458.887	2661
458.936	2756
458.955	2734
459.016	2131
459.024	2115
459.093	3066
459.097	3075
459.162	2785
459.177	2971
459.230	3847
459.257	4164
459.299	4273
459.338	4323
459.368	4386
459.418	4232
459.437	4124
459.499	4527
459.505	4567
459.574	2744
459.579	2727
459.643	2592
459.659	2553
459.711	2612
459.740	2903
459.780	3238
459.820	3414
459.849	3615
459.900	4000
459.917	4050
459.981	3666
459.986	3654
460.054	4568
460.061	4568
460.123	4602
460.141	4723
460.191	5282
460.222	5647
460.260	5946
460.302	6952
460.328	6954
460.382	5511
460.397	5313
460.462	4532
460.465	4586
460.534	6702
460.543	6958
460.602	12410
460.623	14562
460.671	20826
460.703	28432
460.739	26851
460.783	21903
460.808	20782
460.864	7585
460.876	5778
460.944	3401
460.945	3376
461.013	3849
461.024	3796
461.081	3563
461.104	4061
461.150	4600
461.184	4208
461.218	3780
461.264	3198
461.286	3179
461.345	3703
461.355	3748
461.423	3782
461.425	3775
461.491	3855
461.505	4030
461.559	7549
461.585	8929
461.628	13061
461.665	18098
461.696	18668
461.745	22116
461.764	20888
461.825	8892
461.832	8575
461.901	4715
461.905	4737
461.969	3781
461.985	3478
462.037	4012
462.065	4312
462.105	4737
462.145	5326
462.173	7062
462.225	10331
462.241	10914
462.305	15114
462.310	14778
462.378	8951
462.385	7832
462.446	4888
462.465	4453
462.514	3753
462.545	3711
462.582	3640
462.625	3662
462.650	3765
462.705	3913
462.718	4045
462.785	4609
462.786	4636
462.854	6405
462.865	6766
462.922	8093
462.945	8614
462.990	6728
463.025	4576
463.058	4496
463.104	4408
463.126	3893
463.184	3017
463.194	3141
463.262	3830
463.264	3871
463.330	4111
463.344	4050
463.398	4955
463.424	5453
463.466	4631
463.504	4018
463.533	4336
463.583	4619
463.601	4828
463.663	5602
463.669	5732
463.737	7380
463.743	7530
463.805	11697
463.823	12895
463.873	19029
463.903	23199
463.940	22334
463.982	22284
464.008	18829
464.062	8019
464.076	7499
464.142	4413
464.144	4351
464.211	3894
464.221	3914
464.279	4443
464.301	4557
464.347	4928
464.381	5319
464.414	5901
464.461	6512
464.482	6416
464.540	6693
464.550	6529
464.617	4742
464.620	4669
464.685	6170
464.699	6563
464.753	7085
464.779	7474
464.820	8445
464.859	9214
464.888	8886
464.938	8297
464.956	8507
465.018	9006
465.023	8871
465.091	7160
465.098	6940
465.158	6294
465.177	6227
465.226	6237
465.257	6122
465.293	7022
465.336	8150
465.361	8740
465.416	10071
465.428	10737
465.495	14416
465.496	14485
465.563	22494
465.575	23959
465.631	26010
465.654	27212
465.698	17910
465.734	8795
465.765	7987
465.813	6800
465.833	6389
465.893	6204
465.900	6299
465.968	6929
465.972	6975
466.035	6653
466.052	6512
466.102	6480
466.131	6538
466.170	6572
466.210	6528
466.237	6688
466.290	7099
466.304	7158
466.369	7149
466.372	7211
466.439	8970
466.449	9207
466.506	10143
466.528	10511
466.573	15482
466.607	19122
466.641	25245
466.687	33810
466.708	35602
466.766	40824
466.775	37770
466.842	14159
466.845	13017
466.909	10681
466.925	10247
466.977	9639
467.004	9376
467.044	9334
467.083	9297
467.111	10471
467.163	12641
467.178	12691
467.242	12881
467.245	12805
467.312	10946
467.321	10692
467.379	11405
467.400	11639
467.446	12456
467.480	13021
467.559	11123
467.638	8590
467.717	10326
467.796	10409
467.875	11823
467.955	9993
468.034	20651
468.113	39400
468.192	49268
468.271	11616
468.350	9770
468.429	11961
468.508	11910
468.588	9722
468.667	10192
468.746	9698
468.825	9804
468.904	8226
468.983	10847
469.062	16193
469.141	17553
469.220	8134
469.299	8640
469.378	9110
469.456	11378
469.535	9476
469.614	9064
469.693	10337
469.772	12917
469.851	17327
469.930	11834
470.009	8803
470.088	8787
470.166	10939
470.245	15877
470.324	16416
470.403	11254
470.482	9086
470.560	9551
470.639	8612
470.718	10870
470.797	9139
470.875	10968
470.954	14027
471.033	14464
471.111	6547
471.190	7263
471.269	6802
471.347	6647
471.426	8513
471.505	9874
471.583	9419
471.662	8344
471.740	7416
471.819	8095
471.898	7199
471.976	8167
472.055	7687
472.133	8950
472.212	11333
472.290	10580
472.369	7370
472.447	7763
472.526	6458
472.604	9121
472.683	8489
472.761	8828
472.839	7365
472.918	8299
472.996	8194
473.075	9615
473.153	8476
473.231	7619
473.310	9750
473.388	8998
473.466	7980
473.545	9489
473.623	11407
473.701	10398
473.780	7796
473.858	7260
473.936	9124
474.014	7876
474.093	8956
474.171	12853
474.249	17410
474.327	10156
474.405	6460
474.484	6695
474.562	7644
474.640	7823
474.718	8072
474.796	7707
474.874	7861
474.952	6732
475.030	6249
475.108	7803
475.187	8237
475.265	9180
475.343	11497
475.421	11759
475.499	6315
475.577	8050
475.655	11410
475.733	21751
475.811	34006
475.889	29962
475.966	15876
476.044	7633
476.122	9923
476.200	10708
476.278	8292
476.356	7604
476.434	7921
476.512	9444
476.590	11062
476.667	9543
476.745	6540
476.823	8005
476.901	7085
476.979	8634
477.056	7034
477.134	8285
477.212	7821
477.290	7226
477.367	6953
477.445	6439
477.523	6242
477.601	6729
477.678	6579
477.756	8914
477.834	9499
477.911	7077
477.989	6651
478.066	7128
478.144	8051
478.222	9111
478.299	12224
478.377	9985
478.454	6494
478.532	7078
478.609	7084
478.687	8069
478.764	6349
478.842	6891
478.919	7945
478.997	6975
479.074	5958
479.152	8727
479.229	10046
479.307	5885
479.384	5046
479.461	6667
479.539	6338
479.616	7251
479.694	6207
479.771	7480
479.848	7932
479.926	9515
480.003	10570
480.080	6231
480.157	5807
480.235	5879
480.312	5949
480.389	7694
480.467	12653
480.544	13380
480.621	7544
480.698	7549
480.775	8353
480.853	8129
480.930	6815
481.007	7956
481.084	8909
481.161	9080
481.238	7801
481.315	6616
481.392	5766
481.470	7435
481.547	7217
481.624	6025
481.701	6386
481.778	7816
481.855	8582
481.932	12586
482.009	19592
482.086	11286
482.163	7472
482.240	11610
482.317	16274
482.393	9973
482.470	6559
482.547	7026
482.624	6344
482.701	7652
482.778	6570
482.855	6160
482.932	5539
483.009	6140
483.085	7300
483.162	7687
483.239	7745
483.316	5850
483.393	5941
483.469	6374
483.546	7273
483.623	7719
483.699	6290
483.776	7287
483.853	8528
483.930	14175
484.006	32012
484.083	47454
484.160	22551
484.236	33117
484.313	23513
484.389	18518
484.466	17646
484.543	15715
484.619	16457
484.696	19273
484.772	18786
484.849	19405
484.925	16081
485.002	14945
485.078	16470
485.155	16420
485.231	14563
485.308	14851
485.384	15754
485.461	20739
485.537	30825
485.614	32014
485.690	15141
485.766	14709
485.843	16406
485.919	22078
485.995	20461
486.072	13462
486.148	12357
486.224	13173
486.301	14733
486.377	16038
486.453	16269
486.530	16837
486.606	20906
486.682	22818
486.758	27875
486.835	29396
486.911	25896
486.987	41044
487.063	40262
487.139	47293
487.215	29924
487.292	17313
487.368	14228
487.444	16971
487.520	20806
487.596	19100
487.672	33208
487.748	70221
487.824	84227
487.900	25533
487.976	16383
488.052	16158
488.128	19858
488.204	16185
488.280	14888
488.356	19986
488.432	37660
488.508	48515
488.584	16038
488.660	13224
488.736	12798
488.812	14576
488.888	17910
488.964	26848
489.039	52919
489.115	70224
489.191	32415
489.267	14279
489.343	12823
489.418	11658
489.494	10939
489.570	9924
489.646	12404
489.722	11834
489.797	12281
489.873	22435
489.949	41504
490.024	26709
490.100	11073
490.176	11882
490.251	14496
490.327	17017
490.403	10409
490.478	11191
490.554	9268
490.629	9553
490.705	9951
490.781	11469
490.856	10363
490.932	13205
491.007	12057
491.083	11718
491.158	10352
491.234	16528
491.309	32324
491.385	25694
491.460	10979
491.536	12258
491.611	9454
491.686	11283
491.762	16858
491.837	35557
491.913	52501
491.988	74661
492.063	73017
492.139	22854
492.214	13059
492.289	8645
492.365	8220
492.440	11272
492.515	10256
492.590	10815
492.666	8468
492.741	12064
492.816	18391
492.891	8942
492.967	8222
493.042	7241
493.117	7935
493.192	7439
493.267	9164
493.342	12499
493.418	12098
493.493	7986
493.568	7502
493.643	8932
493.718	11354
493.793	16162
493.868	16354
493.943	10867
494.018	8662
494.093	8048
494.168	7663
494.243	7214
494.318	6006
494.393	7819
494.468	7008
494.543	6915
494.618	9006
494.693	7115
494.768	6751
494.842	7646
494.917	6791
494.992	8253
495.067	6681
495.142	7237
495.217	7231
495.292	7939
495.366	9030
495.441	10459
495.516	15084
495.591	25746
495.665	78324
495.740	143657
495.815	37620
495.890	11327
495.964	8678
496.039	11499
496.114	9414
496.188	10670
496.263	10435
496.338	9956
496.412	10284
496.487	13497
496.561	12682
496.636	12127
496.710	10859
496.785	12587
496.860	12440
496.934	10605
497.009	10581
497.083	10629
497.158	11563
497.232	13577
497.307	15883
497.381	13140
497.455	17084
497.530	19734
497.604	13893
497.679	15882
497.753	24369
497.827	29771
497.902	26070
497.976	35175
498.050	93076
498.125	273305
498.199	193594
498.273	39106
498.348	30288
498.422	23328
498.496	22461
498.570	19881
498.645	14382
498.719	14554
498.793	18958
498.867	28953
498.941	42986
499.016	126796
499.090	262647
499.164	56120
499.238	11453
499.312	12039
499.386	14759
499.460	13159
499.534	12358
499.609	15539
499.683	20787
499.757	23730
499.831	62569
499.905	194253
499.979	124701
500.053	25375
500.127	23447
500.201	15972
500.275	10978
500.349	12484
500.422	13809
500.496	23720
500.570	50190
500.644	118589
500.718	168962
500.792	24825
500.866	11683
500.940	14289
501.013	11281
501.087	13663
501.161	23079
501.235	30797
501.309	76332
501.382	176923
501.456	109020
501.530	33609
501.603	50563
501.677	16503
501.751	8550
501.825	14332
501.898	28377
501.972	68016
502.046	30365
502.119	13631
502.193	36552
502.266	70577
502.340	27862
502.413	37100
502.487	58578
502.561	28484
502.634	10314
502.708	9419
502.781	8338
502.855	6985
502.928	5985
503.002	6889
503.075	6075
503.149	7944
503.222	6742
503.295	8244
503.369	10935
503.442	18858
503.516	59192
503.589	121081
503.662	60161
503.736	26001
503.809	59684
503.882	42687
503.956	71813
504.029	53339
504.102	45681
504.175	47845
504.249	15540
504.322	12174
504.395	9814
504.468	7856
504.542	6844
504.615	4716
504.688	5804
504.761	5878
504.834	9213
504.907	11234
504.980	14221
505.053	8867
505.127	10608
505.200	14281
505.273	10523
505.346	6652
505.419	5831
505.492	5389
505.565	5254
505.638	5450
505.711	5692
505.784	4991
505.857	4851
505.930	6280
506.003	4611
506.076	7981
506.149	7956
506.221	8611
506.294	13874
506.367	34191
506.440	90797
506.513	33743
506.586	11177
506.659	6385
506.731	5648
506.804	7329
506.877	10058
506.950	6809
507.022	5812
507.095	6831
507.168	8538
507.241	4926
507.313	4493
507.386	5428
507.459	9277
507.531	5427
507.604	4322
507.677	5875
507.749	3716
507.822	9025
507.894	14461
507.967	16180
508.040	7402
508.112	7988
508.185	8378
508.257	7977
508.330	11905
508.402	7267
508.475	7315
508.547	7532
508.620	7991
508.692	12770
508.765	8503
508.837	5915
508.909	6530
508.982	5969
509.054	7603
509.127	5889
509.199	5054
509.271	5957
509.344	5061
509.416	6358
509.488	5118
509.560	6737
509.633	6987
509.705	7986
509.777	7298
509.849	10544
509.922	5957
509.994	5362
510.066	6790
510.138	5752
510.210	14498
510.283	11268
510.355	9983
510.427	8525
510.499	8200
510.571	8517
510.643	7758
510.715	14132
510.787	9371
510.859	9913
510.931	10578
511.003	13555
511.076	10361
511.148	6345
511.219	8003
511.291	12317
511.363	12543
511.435	7514
511.507	5903
511.579	7225
511.651	6556
511.723	6294
511.795	7018
511.867	7285
511.939	10079
512.010	17362
512.082	12088
512.154	6783
512.226	7915
512.298	12029
512.369	16144
512.441	13202
512.513	11896
512.585	8271
512.656	9858
512.728	9812
512.800	7444
512.871	8629
512.943	8362
513.015	5938
513.086	8454
513.158	9113
513.230	8378
513.301	12824
513.373	13317
513.444	7340
513.516	6677
513.588	7785
513.659	8597
513.731	9491
513.802	9425
513.874	22110
513.945	27441
514.016	8408
514.088	7293
514.159	8470
514.231	11884
514.302	13623
514.374	9873
514.445	10226
514.516	22248
514.588	12319
514.659	11393
514.730	18988
514.802	13534
514.873	9753
514.944	11238
515.016	10263
515.087	11333
515.158	14295
515.229	18121
515.301	12083
515.372	12768
515.443	8322
515.514	7934
515.585	5768
515.656	6907
515.728	7108
515.799	6546
515.870	8565
515.941	8721
516.012	7159
516.083	11511
516.154	11737
516.225	15309
516.296	12517
516.367	10239
516.438	13031
516.509	17680
516.580	32508
516.651	101360
516.722	254260
516.793	71060
516.864	21169
516.935	19909
517.006	25750
517.077	41627
517.148	105967
517.219	328075
517.289	335609
517.360	102128
517.431	28571
517.502	11899
517.573	12410
517.643	11970
517.714	12875
517.785	12220
517.856	13455
517.926	16578
517.997	17521
518.068	21837
518.138	33586
518.209	67621
518.280	244527
518.350	601482
518.421	134818
518.492	20255
518.562	16269
518.633	17312
518.703	15239
518.774	29929
518.845	63285
518.915	47257
518.986	18477
519.056	18508
519.127	33135
519.197	48895
519.268	101995
519.338	44556
519.408	15932
519.479	19235
519.549	12212
519.620	10808
519.690	8249
519.760	8262
519.831	9737
519.901	8208
519.971	8116
520.042	8730
520.112	10162
520.182	11474
520.253	11543
520.323	7744
520.393	8428
520.463	11106
520.534	7243
520.604	13063
520.674	9247
520.744	10202
520.814	14712
520.885	19001
520.955	42544
521.025	110500
521.095	27809
521.165	9040
521.235	7935
521.305	6804
521.375	8128
521.445	9459
521.515	10801
521.585	12655
521.655	9851
521.725	10326
521.795	9196
521.865	6010
521.935	14351
522.005	8733
522.075	6358
522.145	7849
522.215	8496
522.285	12903
522.355	18440
522.424	31242
522.494	22413
522.564	14486
522.634	32333
522.704	69614
522.774	17392
522.843	7677
522.913	7879
522.983	9576
523.053	7162
523.122	9233
523.192	14621
523.262	42539
523.331	25660
523.401	7763
523.471	6674
523.540	7695
523.610	4825
523.680	6800
523.749	7018
523.819	8575
523.888	6374
523.958	5948
524.027	7453
524.097	7898
524.166	6342
524.236	6195
524.305	7765
524.375	5748
524.444	5356
524.514	7846
524.583	6534
524.653	8348
524.722	9748
524.791	5267
524.861	7694
524.930	5880
524.999	7152
525.069	9183
525.138	7701
525.207	9652
525.277	7352
525.346	6706
525.415	7667
525.484	7120
525.554	8667
525.623	6918
525.692	7211
525.761	7436
525.830	8338
525.900	8808
525.969	15632
526.038	22909
526.107	49239
526.176	111664
526.245	71629
526.314	32555
526.383	67237
526.452	76008
526.522	143630
526.591	105107
526.660	35108
526.729	19090
526.797	29584
526.867	72223
526.935	238546
527.004	307282
527.073	111316
527.142	12893
527.211	9000
527.280	10375
527.349	9649
527.418	4613
527.487	6821
527.555	4827
527.624	5866
527.693	4694
527.762	6287
527.831	3886
527.899	5774
527.968	6081
528.037	4632
528.106	8134
528.174	12753
528.243	10870
528.312	15844
528.380	14473
528.449	5859
528.518	6144
528.586	4358
528.655	5481
528.723	4517
528.792	5063
528.861	4715
528.929	3393
528.998	6333
529.066	4134
529.135	4168
529.203	3511
529.272	3771
529.340	5306
529.409	6799
529.477	4892
529.545	5905
529.614	7910
529.682	7621
529.751	8176
529.819	10645
529.887	6122
529.956	5398
530.024	6524
530.092	5146
530.161	8032
530.229	10654
530.297	5291
530.365	6287
530.434	4644
530.502	4461
530.570	5447
530.638	3150
530.707	6692
530.775	6864
530.843	4590
530.911	6431
530.979	5823
531.047	4164
531.115	5517
531.183	6158
531.252	5287
531.320	6048
531.388	4919
531.456	6629
531.524	3787
531.592	6187
531.660	7402
531.728	4671
531.796	5273
531.864	5374
531.932	6602
532.000	5997
532.067	5926
532.135	7075
532.203	8951
532.271	8072
532.339	15268
532.407	31322
532.475	13513
532.542	9259
532.610	11904
532.678	20902
532.746	75383
532.814	118986
532.881	22787
532.949	7645
533.017	6657
533.084	6785
533.152	6489
533.220	6365
533.287	6264
533.355	6289
533.423	6077
533.490	5861
533.558	6362
533.625	6368
533.693	6332
533.761	6465
533.828	6353
533.896	6290
533.963	13243
534.031	15288
534.098	19452
534.166	7664
534.233	6360
534.300	7557
534.368	6629
534.435	5459
534.503	6917
534.570	6665
534.637	5960
534.705	8387
534.772	9993
534.840	17587
534.907	60398
534.974	50408
535.041	8067
535.109	8460
535.176	4777
535.243	6164
535.310	6697
535.378	5529
535.445	6340
535.512	6064
535.579	6362
535.646	5164
535.714	6058
535.781	8432
535.848	7125
535.915	7744
535.982	5646
536.049	6989
536.116	8259
536.183	6455
536.250	6840
536.317	7034
536.384	8029
536.451	12082
536.518	11320
536.585	7457
536.652	11589
536.719	14182
536.786	9183
536.853	9879
536.920	15300
536.987	21772
537.053	23469
537.120	79381
537.187	44286
537.254	7701
537.321	6273
537.388	8215
537.454	5456
537.521	6389
537.588	5743
537.654	8300
537.721	8509
537.788	8544
537.855	6826
537.921	7633
537.988	6250
538.055	7579
538.121	5975
538.188	8375
538.254	12560
538.321	19647
538.388	11204
538.454	7682
538.521	6364
538.587	7004
538.654	6400
538.720	6597
538.787	7272
538.853	7694
538.920	7675
538.986	9167
539.053	7336
539.119	8915
539.185	7956
539.252	9552
539.318	11548
539.385	10699
539.451	8022
539.517	10250
539.583	13450
539.650	29002
539.716	49535
539.782	13013
539.849	7269
539.915	8927
539.981	7947
540.047	9003
540.114	8750
540.180	10130
540.246	8086
540.312	12291
540.378	20126
540.444	20668
540.510	29570
540.576	56885
540.643	13997
540.709	7471
540.775	7433
540.841	8008
540.907	10702
540.973	12843
541.039	12137
541.105	12853
541.171	9269
541.237	7334
541.303	9065
541.369	11475
541.435	12226
541.500	18795
541.566	9607
541.632	7540
541.698	6665
541.764	8732
541.830	6970
541.896	7189
541.961	8171
542.027	7796
542.093	7683
542.159	8336
542.224	7754
542.290	12460
542.356	18527
542.421	18195
542.487	10055
542.553	8076
542.618	8532
542.684	8166
542.750	8296
542.815	12329
542.881	20568
542.947	58413
543.012	29100
543.078	7507
543.143	7354
543.209	9834
543.274	8636
543.340	11645
543.405	25901
543.471	27781
543.536	7764
543.602	8418
543.667	6486
543.732	8386
543.798	6681
543.863	8430
543.928	7275
543.994	6124
544.059	7723
544.124	7500
544.190	6816
544.255	7978
544.320	7846
544.386	8320
544.451	11445
544.516	13384
544.581	15123
544.646	40699
544.712	43221
544.777	11190
544.842	10027
544.907	10300
544.972	9237
545.037	10592
545.102	10315
545.168	9979
545.233	11347
545.298	12417
545.363	11823
545.428	15068
545.493	27467
545.558	42052
545.623	16012
545.688	9556
545.753	10484
545.818	10757
545.883	11749
545.947	10425
546.012	11953
546.077	10547
546.142	11573
546.207	10926
546.272	14446
546.337	14096
546.401	12289
546.466	12370
546.531	10517
546.596	12453
546.661	12495
546.725	13079
546.790	11476
546.855	14230
546.919	11810
546.984	15176
547.049	15268
547.113	17458
547.178	16264
547.243	19490
547.307	22785
547.372	25496
547.436	24010
547.501	22589
547.565	24692
547.630	25384
547.695	23021
547.759	26332
547.823	22679
547.888	22797
547.952	22697
548.017	24643
548.081	26153
548.146	28997
548.210	25783
548.274	25464
548.339	24995
548.403	23639
548.468	21048
548.532	21491
548.596	22424
548.660	23185
548.725	25757
548.789	27591
548.853	26982
548.917	25009
548.982	27748
549.046	25557
549.110	20676
549.174	22075
549.238	23125
549.303	24163
549.367	25681
549.431	24115
549.495	23158
549.559	24119
549.623	28214
549.687	31388
549.751	34472
549.815	34397
549.879	33246
549.943	31063
550.007	33385
550.071	33818
550.135	33776
550.199	29332
550.263	28521
550.327	29335
550.391	31517
550.455	31052
550.519	32149
550.582	35528
550.646	42076
550.710	40150
550.774	36864
550.838	37357
550.901	37545
550.965	40699
551.029	41619
551.093	47449
551.156	52307
551.220	71142
551.284	71458
551.347	50740
551.411	65778
551.475	57507
551.538	40209
551.602	36956
551.666	35755
551.729	34040
551.793	34057
551.856	32184
551.920	32322
551.983	31766
552.047	32128
552.110	32936
552.174	32330
552.237	33164
552.301	30789
552.364	30506
552.428	30176
552.491	31063
552.554	31810
552.618	32256
552.681	32925
552.745	34128
552.808	42392
552.871	44516
552.934	34049
552.998	31281
553.061	30838
553.124	31010
553.187	30257
553.251	30638
553.314	30844
553.377	30122
553.440	34200
553.503	35901
553.567	36038
553.630	33739
553.693	33291
553.756	33389
553.819	32000
553.882	31365
553.945	32406
554.008	31233
554.071	31122
554.134	31479
554.197	30338
554.260	30090
554.323	31515
554.386	32060
554.449	32100
554.512	32312
554.575	30588
554.638	30883
554.701	30348
554.764	30474
554.827	30174
554.889	28274
554.952	26796
555.015	25684
555.078	26844
555.141	27370
555.203	27087
555.266	26419
555.329	27393
555.391	25744
555.454	25353
555.517	25352
555.580	23501
555.642	23513
555.705	21546
555.768	22169
555.830	22946
555.893	21456
555.955	21016
556.018	21310
556.080	20344
556.143	22627
556.206	21019
556.268	21423
556.330	21960
556.393	21691
556.455	22236
556.518	24443
556.580	22377
556.643	19980
556.705	19165
556.767	17866
556.830	19608
556.892	20396
556.955	24525
557.017	19717
557.079	17740
557.142	17923
557.204	20083
557.266	28061
557.328	21697
557.391	15971
557.453	15608
557.515	16280
557.577	17883
557.639	17416
557.701	16083
557.764	14521
557.826	15935
557.888	17720
557.950	17554
558.012	19367
558.074	24310
558.136	48342
558.198	81140
558.260	28762
558.322	16543
558.384	17598
558.446	19890
558.508	22915
558.570	27830
558.632	43784
558.694	57634
558.756	77575
558.818	202725
558.880	348126
558.942	91426
559.003	88043
559.065	36223
559.127	22017
559.189	23757
559.251	30328
559.312	45985
559.374	100527
559.436	249836
559.498	86315
559.559	22285
559.621	24929
559.683	31953
559.744	52233
559.806	139616
559.868	148693
559.929	30330
559.991	27731
560.052	40697
560.114	89144
560.176	50235
560.237	59561
560.299	72015
560.360	18953
560.422	13797
560.483	13460
560.545	12580
560.606	13528
560.667	12760
560.729	12327
560.790	11930
560.852	13041
560.913	11976
560.974	11206
561.036	11822
561.097	12351
561.158	13203
561.220	13445
561.281	11451
561.342	13298
561.403	16796
561.465	18835
561.526	35892
561.587	33929
561.648	12951
561.709	12789
561.771	12256
561.832	12580
561.893	10885
561.954	12326
562.015	12116
562.076	13768
562.137	12466
562.198	12688
562.259	12727
562.320	12513
562.381	12763
562.442	17720
562.503	15507
562.564	12380
562.625	12148
562.686	13102
562.747	12937
562.808	12243
562.869	13190
562.930	15266
562.991	14226
563.051	13578
563.112	12675
563.173	13130
563.234	11154
563.294	13339
563.355	11556
563.416	12868
563.477	11760
563.537	13051
563.598	12829
563.659	13970
563.720	13201
563.780	13030
563.841	12724
563.901	12676
563.962	12540
564.023	13284
564.083	12793
564.144	13258
564.204	13252
564.265	13264
564.325	15275
564.386	24343
564.446	18149
564.507	12811
564.567	12116
564.628	12703
564.688	12760
564.749	13707
564.809	14763
564.869	16066
564.930	12413
564.990	13583
565.050	12900
565.111	12870
565.171	13190
565.231	12544
565.292	12582
565.352	12171
565.412	13399
565.472	12015
565.532	12870
565.593	13262
565.653	11963
565.713	12808
565.773	14253
565.833	15883
565.893	17561
565.953	13423
566.013	13101
566.074	14350
566.134	17710
566.194	23125
566.254	21006
566.314	16075
566.374	13402
566.434	13914
566.494	13827
566.554	13889
566.614	13514
566.673	14394
566.733	15359
566.793	15874
566.853	15625
566.913	16322
566.973	16460
567.033	16453
567.092	16771
567.152	17103
567.212	16283
567.272	16881
567.331	17590
567.391	18446
567.451	18653
567.511	22575
567.570	20646
567.630	15620
567.690	15375
567.749	16707
567.809	17734
567.868	18644
567.928	19704
567.988	22166
568.047	24260
568.107	31177
568.166	41699
568.226	62910
568.285	78990
568.345	57265
568.404	44127
568.464	38382
568.523	36456
568.582	39137
568.642	47499
568.701	61406
568.761	91320
568.820	138770
568.879	112636
568.939	77164
568.998	54086
569.057	40974
569.116	32246
569.176	28082
569.235	24375
569.294	23039
569.353	19752
569.413	20546
569.472	17623
569.531	16979
569.590	16663
569.649	16545
569.708	15043
569.767	16119
569.827	17607
569.886	15325
569.945	13997
570.004	14433
570.063	14419
570.122	14568
570.181	16314
570.240	16801
570.299	15984
570.358	15457
570.417	13706
570.475	13281
570.534	14907
570.593	13516
570.652	14030
570.711	14566
570.770	13900
570.829	14306
570.887	14891
570.946	14299
571.005	12978
571.064	13399
571.122	13542
571.181	13995
571.240	12142
571.299	13047
571.357	13838
571.416	13646
571.475	15211
571.533	14489
571.592	13932
571.650	13378
571.709	12511
571.768	12866
571.826	11898
571.885	11329
571.943	12663
572.002	11784
572.060	12352
572.119	11987
572.177	11463
572.236	11328
572.294	11300
572.352	13039
572.411	11811
572.469	11208
572.528	11835
572.586	13532
572.644	12873
572.703	14701
572.761	12204
572.819	11890
572.877	11936
572.936	11478
572.994	11248
573.052	11263
573.110	11630
573.169	11735
573.227	10743
573.285	11561
573.343	11263
573.401	11261
573.459	11145
573.517	11257
573.576	11185
573.634	11777
573.692	11277
573.750	11671
573.808	10814
573.866	12212
573.924	14853
573.982	12785
574.040	11074
574.098	11518
574.155	10359
574.213	10987
574.271	10318
574.329	11242
574.387	9912
574.445	10134
574.503	10456
574.560	9930
574.618	9958
574.676	10587
574.734	9946
574.792	11235
574.849	10766
574.907	9195
574.965	10102
575.022	9495
575.080	10061
575.138	10966
575.195	9768
575.253	10244
575.311	10992
575.368	10704
575.426	10234
575.483	10074
575.541	10490
575.598	10418
575.656	10373
575.713	10435
575.771	10076
575.828	10319
575.886	10974
575.943	10672
576.001	10742
576.058	11188
576.115	12253
576.173	13290
576.230	14041
576.287	15514
576.345	11734
576.402	11601
576.459	10659
576.517	12112
576.574	11542
576.631	12977
576.688	11696
576.746	11637
576.803	11224
576.860	10553
576.917	11279
576.974	11322
577.031	10966
577.089	11279
577.146	11505
577.203	11625
577.260	11813
577.317	12219
577.374	12839
577.431	12079
577.488	10911
577.545	10652
577.602	10704
577.659	10715
577.716	10931
577.773	10701
577.830	10115
577.886	11461
577.943	10182
578.000	11460
578.057	11169
578.114	10826
578.171	11208
578.227	11025
578.284	10121
578.341	11637
578.398	11079
578.454	11414
578.511	12666
578.568	14299
578.625	11354
578.681	11329
578.738	11468
578.794	11182
578.851	12029
578.908	12719
578.964	12831
579.021	12770
579.077	11416
579.134	11405
579.190	10561
579.247	11372
579.303	11666
579.360	11285
579.416	11062
579.473	11655
579.529	11581
579.586	10716
579.642	11932
579.698	11558
579.755	11979
579.811	11613
579.867	10906
579.924	11524
579.980	10727
580.036	12077
580.093	11836
580.149	12160
580.205	12179
580.261	12134
580.317	12567
580.374	13163
580.430	14257
580.486	14127
580.542	12663
580.598	12219
580.619	12602
580.654	13270
580.692	12987
580.710	12854
580.765	12126
580.767	12105
580.823	13773
580.838	13511
580.879	12791
580.911	12643
580.935	12539
580.984	12974
580.991	13041
581.047	13334
581.057	13147
581.103	12303
581.130	13129
581.159	13961
581.203	13393
581.215	13261
581.270	13302
581.276	13228
581.326	12483
581.349	12792
581.382	13225
581.422	13578
581.438	13729
581.494	13839
581.494	13842
581.550	14075
581.567	14316
581.606	14722
581.640	14076
581.661	13709
581.713	14696
581.717	14770
581.773	13543
581.786	13768
581.829	14559
581.859	14668
581.885	14752
581.932	14909
581.940	14936
581.996	15776
582.004	15580
582.052	14242
582.077	14185
582.107	14245
582.150	15047
582.163	15273
582.219	15920
582.223	15948
582.274	16222
582.296	15964
582.330	15585
582.368	16046
582.386	16256
582.441	15535
582.441	15529
582.497	15915
582.514	15709
582.552	15490
582.587	16734
582.608	17377
582.659	15684
582.663	15549
582.719	16731
582.732	16572
582.774	16122
582.805	16846
582.830	17401
582.877	16701
582.885	16590
582.941	17441
582.950	17398
582.996	17302
583.023	17884
583.052	18400
583.095	18199
583.107	18163
583.162	18565
583.168	18498
583.218	17681
583.240	17721
583.273	17989
583.313	18487
583.328	18614
583.384	18784
583.385	18773
583.439	18574
583.458	18650
583.494	18527
583.531	18117
583.549	18165
583.603	19679
583.605	19712
583.660	19130
583.676	19248
583.715	19730
583.748	20250
583.770	20653
583.820	20723
583.825	20715
583.881	20307
583.893	20383
583.936	20573
583.965	20409
583.991	20344
584.038	21873
584.046	22178
584.101	20718
584.110	20887
584.156	21627
584.183	21799
584.211	21866
584.255	21915
584.266	22010
584.321	21259
584.328	21390
584.376	22529
584.400	22408
584.431	22338
584.472	22953
584.486	23126
584.541	22761
584.545	22783
584.596	23703
584.617	23998
584.651	24622
584.689	25608
584.706	25952
584.761	25897
584.762	25881
584.816	26457
584.834	26576
584.871	26821
584.906	27134
584.926	27353
584.978	27508
584.980	27553
585.035	29068
585.051	29402
585.090	30632
585.123	31333
585.145	31602
585.195	31509
585.200	31557
585.254	32661
585.267	33058
585.309	34767
585.340	35935
585.364	37000
585.412	39709
585.419	40151
585.473	45096
585.484	45866
585.528	51267
585.556	57739
585.583	70557
585.628	95123
585.637	105552
585.692	193767
585.700	206263
585.747	247427
585.772	223921
585.801	147475
585.845	66156
585.856	59414
585.910	46222
585.917	44635
585.965	41765
585.989	41020
586.019	41528
586.061	41278
586.074	41265
586.128	41969
586.133	41980
586.183	43873
586.205	44171
586.237	44199
586.277	44507
586.292	44556
586.346	45116
586.349	45041
586.401	45926
586.421	46676
586.455	48570
586.493	50015
586.509	52377
586.564	61462
586.565	61660
586.618	80246
586.637	82986
586.672	72085
586.709	61175
586.727	59317
586.781	57165
586.781	57263
586.835	55614
586.853	55503
586.889	55858
586.925	55085
586.944	55270
586.996	57210
586.998	57396
587.052	60293
587.068	60864
587.106	62402
587.140	63467
587.161	64232
587.212	65996
587.215	66254
587.269	69693
587.284	70237
587.323	71889
587.356	73067
587.377	74010
587.427	76350
587.431	76725
587.485	79632
587.499	80442
587.539	83835
587.571	85821
587.593	87746
587.643	91878
587.648	92499
587.702	97361
587.715	98599
587.755	103902
587.786	107175
587.810	109721
587.858	114982
587.864	116269
587.917	126784
587.930	129104
587.971	137802
588.001	143751
588.025	149020
588.073	158834
588.079	160906
588.133	177489
588.145	180958
588.187	196749
588.217	207760
588.241	219446
588.288	242294
588.295	246776
588.348	281704
588.360	289134
588.402	325079
588.431	349860
588.456	376875
588.503	431130
588.510	442611
588.564	533084
588.575	552483
588.617	660321
588.646	735251
588.671	834349
588.718	1028313
588.725	1073214
588.778	1420270
588.789	1489888
588.832	1786461
588.861	1974581
588.886	1952510
588.932	1812096
588.939	1784557
588.993	1542910
589.004	1515934
589.047	1893254
589.075	2085655
589.100	1964713
589.147	1684672
589.154	1641682
589.207	1290688
589.218	1219655
589.261	1118927
589.290	1055610
589.314	1084904
589.361	1148355
589.368	1182463
589.421	1458868
589.433	1517097
589.475	1773827
589.504	1929766
589.528	1873771
589.576	1686654
589.582	1699946
589.635	1856920
589.647	1869866
589.689	1605310
589.718	1399866
589.742	1210425
589.790	840133
589.795	820701
589.849	628370
589.861	583830
589.902	507370
589.932	448420
589.955	414629
590.004	342551
590.009	339367
590.062	296628
590.075	285677
590.115	263145
590.146	244175
590.168	235965
590.218	216265
590.222	215656
590.275	199877
590.289	195268
590.328	186367
590.360	177939
590.381	173949
590.431	163202
590.435	163164
590.488	154332
590.503	151459
590.541	147913
590.574	144052
590.594	142157
590.645	136081
590.647	136325
590.700	131152
590.716	129352
590.753	127258
590.787	124395
590.806	123507
590.859	119855
590.859	120188
590.912	116780
590.930	115359
590.965	114500
591.001	112930
591.018	113163
591.071	112928
591.072	112549
591.124	109094
591.143	107391
591.177	108024
591.214	108067
591.230	108256
591.283	107806
591.285	107414
591.336	106453
591.356	105602
591.389	104951
591.427	103157
591.442	102484
591.495	98840
591.498	98233
591.547	96862
591.569	95736
591.600	95688
591.640	94915
591.653	95252
591.706	95203
591.711	94872
591.759	96762
591.782	97246
591.811	98821
591.853	100181
591.864	99835
591.917	96210
591.924	95343
591.969	94015
591.995	92793
592.022	93753
592.066	94313
592.075	95207
592.127	98765
592.137	99075
592.180	102764
592.208	104441
592.233	101215
592.279	94002
592.285	94072
592.338	91852
592.350	91009
592.390	90172
592.421	88960
592.443	89636
592.491	90065
592.495	90361
592.548	89848
592.562	89383
592.600	89161
592.633	88345
592.653	88291
592.704	86831
592.705	87337
592.775	87476
592.846	87863
592.916	89407
592.987	89780
593.058	89203
593.128	84795
593.199	84198
593.270	82516
593.341	83215
593.411	83457
593.482	84407
593.553	83876
593.623	82619
593.694	84732
593.764	85780
593.835	84137
593.906	83601
593.976	81867
594.047	85171
594.117	91585
594.188	92009
594.258	83295
594.329	82145
594.399	82740
594.470	82887
594.540	84021
594.611	83144
594.681	85179
594.751	83436
594.822	85412
594.892	87108
594.963	87572
595.033	88279
595.103	89736
595.174	93388
595.244	109572
595.314	122850
595.384	92885
595.455	91403
595.525	93148
595.595	95348
595.665	95769
595.736	92092
595.806	92513
595.876	92750
595.946	91924
596.016	94676
596.087	95879
596.157	96992
596.227	95375
596.297	100029
596.367	103929
596.437	110179
596.507	121233
596.577	132611
596.647	112551
596.717	109566
596.787	111174
596.857	110984
596.927	110632
596.997	110079
597.067	110827
597.137	114255
597.207	113857
597.277	114002
597.347	111326
597.417	111111
597.487	112541
597.557	113915
597.626	114282
597.696	117632
597.766	123380
597.836	134972
597.906	111268
597.975	104492
598.045	105177
598.115	106004
598.185	111111
598.254	120907
598.324	127072
598.394	130435
598.464	128401
598.533	123663
598.603	117052
598.672	117513
598.742	117049
598.812	116109
598.881	118832
598.951	117880
599.020	116016
599.090	120761
599.159	121760
599.229	119129
599.299	114160
599.368	119786
599.437	116793
599.507	112596
599.576	110510
599.646	109226
599.715	108286
599.785	107336
599.854	106843
599.924	111864
599.993	108795
600.062	106927
600.132	107056
600.201	112464
600.270	127037
600.340	129853
600.409	125546
600.478	126967
600.547	128000
600.617	121741
600.686	106817
600.755	99929
600.824	99680
600.894	96996
600.963	93523
601.032	93674
601.101	94029
601.170	91167
601.239	90913
601.308	92922
601.378	92244
601.447	91178
601.516	91640
601.585	94598
601.654	98519
601.723	95789
601.792	96135
601.861	98667
601.930	103513
601.999	107420
602.068	102348
602.137	104009
602.206	105405
602.275	105681
602.343	110364
602.412	112275
602.481	105063
602.550	104126
602.619	106470
602.688	108392
602.756	108852
602.825	108853
602.894	111076
602.963	109721
603.032	111997
603.100	113120
603.169	110416
603.238	112731
603.307	111660
603.375	110618
603.444	113993
603.513	114275
603.581	115346
603.650	119044
603.719	112194
603.787	110793
603.856	112776
603.924	116978
603.993	118513
604.061	121598
604.130	125368
604.198	127141
604.267	128647
604.335	131863
604.404	131747
604.472	133343
604.541	134003
604.609	134370
604.678	137750
604.746	137418
604.815	141759
604.883	142370
604.951	140315
605.020	142075
605.088	141177
605.156	142963
605.225	143874
605.293	143663
605.361	144063
605.429	144918
605.498	147413
605.566	150790
605.634	156741
605.702	161056
605.771	163016
605.839	164483
605.907	161169
605.975	157310
606.043	154503
606.111	152127
606.180	155656
606.248	151547
606.316	149992
606.384	155386
606.452	157200
606.520	158460
606.588	153928
606.656	148430
606.724	147734
606.792	140060
606.860	128267
606.928	116806
606.996	112453
607.064	111061
607.132	114060
607.200	118731
607.267	123579
607.335	126672
607.403	128362
607.471	124768
607.539	121259
607.607	122544
607.674	108539
607.742	111044
607.810	111194
607.878	108948
607.946	110234
608.013	116110
608.081	116911
608.149	117656
608.216	120517
608.284	124048
608.352	126106
608.419	125734
608.487	132518
608.555	122722
608.622	121811
608.690	128574
608.757	139643
608.825	141102
608.893	140000
608.960	138747
609.028	137352
609.095	142828
609.163	131140
609.230	120111
609.298	108627
609.365	113211
609.432	121387
609.500	131720
609.567	148122
609.635	167936
609.702	175202
609.769	170297
609.837	139683
609.904	119509
609.971	120997
610.039	132178
610.106	164660
610.173	283720
610.241	614156
610.308	511045
610.375	274721
610.442	145568
610.509	123229
610.577	120680
610.644	121034
610.711	125577
610.778	127684
610.845	131391
610.912	139263
610.980	143367
611.047	142768
611.114	140973
611.181	136213
611.248	134967
611.315	142088
611.382	144231
611.449	148247
611.516	151037
611.583	149148
611.650	150811
611.717	151665
611.784	155845
611.851	160998
611.918	170662
611.984	191863
612.051	253523
612.118	465287
612.185	1065104
612.252	730449
612.319	226161
612.386	192013
612.452	178397
612.519	173632
612.586	183146
612.653	175727
612.719	176627
612.786	168814
612.853	158642
612.919	152911
612.986	156835
613.053	147884
613.120	141262
613.186	134417
613.253	137243
613.319	135576
613.386	138473
613.453	139613
613.519	145827
613.586	151120
613.652	170349
613.719	157707
613.785	150950
613.852	141708
613.918	139534
613.985	141496
614.051	145957
614.118	148103
614.184	141057
614.250	137383
614.317	142117
614.383	137975
614.449	142391
614.516	141801
614.582	144217
614.648	138671
614.715	139449
614.781	137115
614.847	139410
614.914	140011
614.980	136783
615.046	135514
615.112	136912
615.179	139109
615.245	145090
615.311	149862
615.377	172983
615.443	179297
615.509	154529
615.575	149968
615.642	147679
615.708	151353
615.774	158786
615.840	169085
615.906	186244
615.972	229279
616.038	351916
616.104	613469
616.170	1255970
616.236	1130107
616.302	310551
616.368	230765
616.434	184344
616.500	172563
616.565	180303
616.631	210495
616.697	186570
616.763	185929
616.829	247804
616.895	399906
616.961	392509
617.026	202486
617.092	156050
617.158	150189
617.224	146964
617.289	138793
617.355	134287
617.421	133852
617.487	133917
617.552	128636
617.618	125655
617.684	125502
617.749	129388
617.815	122144
617.880	119171
617.946	120565
618.012	125024
618.077	127714
618.143	121585
618.208	123379
618.274	132203
618.339	134971
618.405	114864
618.470	113707
618.536	117230
618.601	119173
618.667	113256
618.732	106420
618.798	106026
618.863	103989
618.928	102260
618.994	107360
619.059	109619
619.124	125912
619.190	111200
619.255	102746
619.320	104325
619.386	104130
619.451	101212
619.516	98962
619.581	100318
619.647	102720
619.712	102697
619.777	99789
619.842	102099
619.907	103409
619.972	105231
620.038	105516
620.103	101781
620.168	100933
620.233	101489
620.298	100848
620.363	101940
620.428	104347
620.493	105934
620.558	107043
620.623	108914
620.688	108464
620.753	105553
620.818	107727
620.883	109244
620.948	109456
621.013	108556
621.078	107735
621.143	108603
621.207	112058
621.272	111305
621.337	110833
621.402	113106
621.467	122720
621.532	124572
621.596	116287
621.661	110915
621.726	107560
621.791	109139
621.855	111525
621.920	114126
621.985	115220
622.049	119797
622.114	118453
622.179	113780
622.243	118766
622.308	119466
622.373	122252
622.437	121209
622.502	116196
622.566	115853
622.631	115019
622.695	117704
622.760	117645
622.824	116084
622.889	116910
622.953	122693
623.018	142182
623.082	142475
623.147	120291
623.211	118492
623.276	120867
623.340	114686
623.404	110810
623.469	111670
623.533	113616
623.597	110250
623.662	111596
623.726	104989
623.790	100745
623.854	100093
623.919	100131
623.983	100051
624.047	103679
624.111	103286
624.176	103241
624.240	106139
624.304	111757
624.368	103338
624.432	102171
624.496	105419
624.560	111497
624.625	117660
624.689	107841
624.753	110775
624.817	106395
624.881	104535
624.945	98519
625.009	95242
625.073	97223
625.137	102427
625.201	113004
625.265	115981
625.329	100647
625.393	103426
625.456	100649
625.520	104639
625.584	108587
625.648	118682
625.712	140162
625.776	220561
625.839	240261
625.903	133062
625.967	95608
626.031	121913
626.095	167695
626.158	105586
626.222	82002
626.286	78198
626.349	76877
626.413	72825
626.477	77241
626.540	73800
626.604	71165
626.668	71512
626.731	71751
626.795	72794
626.858	72705
626.922	70514
626.986	69886
627.049	69113
627.113	71246
627.176	69428
627.240	66912
627.303	67654
627.366	68028
627.430	69714
627.493	68050
627.557	68682
627.620	68748
627.684	69569
627.747	69446
627.810	65291
627.874	62778
627.937	58687
628.000	62693
628.064	63789
628.127	55322
628.190	56877
628.253	55722
628.317	55161
628.380	53411
628.443	53048
628.506	53237
628.569	52212
628.632	49316
628.696	48524
628.759	49585
628.822	48608
628.885	48553
628.948	48088
629.011	47701
629.074	48327
629.137	44689
629.200	46309
629.263	47534
629.326	44961
629.389	45329
629.452	45935
629.515	46996
629.578	44666
629.641	46070
629.704	46267
629.767	47273
629.830	44734
629.892	43703
629.955	42231
630.018	45939
630.081	47305
630.144	53152
630.207	46288
630.269	47114
630.332	47087
630.395	44130
630.458	42046
630.520	39692
630.583	42396
630.646	39268
630.708	41498
630.771	40179
630.834	41043
630.896	39820
630.959	40649
631.021	39096
631.084	40697
631.146	42864
631.209	44610
631.272	40071
631.334	39334
631.397	39552
631.459	38862
631.522	40840
631.584	40463
631.646	42278
631.709	43845
631.771	47929
631.834	43154
631.896	40836
631.958	38036
632.021	39473
632.083	37540
632.145	38914
632.208	39731
632.270	38947
632.332	36816
632.395	36990
632.457	38459
632.519	36984
632.581	37084
632.643	35887
632.706	37844
632.768	34847
632.830	36527
632.892	35673
632.954	37171
633.016	37679
633.078	35653
633.141	35889
633.203	35780
633.265	36676
633.327	35531
633.389	34262
633.451	39436
633.513	41445
633.575	41360
633.637	40328
633.698	38840
633.760	37252
633.822	37170
633.884	37133
633.946	36744
634.008	36519
634.070	36400
634.132	36946
634.193	38822
634.255	40928
634.317	40178
634.379	40477
634.441	37640
634.502	36043
634.564	36811
634.626	33210
634.687	34176
634.749	32853
634.811	33898
634.873	31849
634.934	33050
634.996	32807
635.057	32581
635.119	32171
635.181	34328
635.242	34328
635.304	31936
635.365	35026
635.427	32979
635.488	34177
635.550	31755
635.611	33061
635.673	31104
635.734	35324
635.796	35392
635.857	38258
635.918	35018
635.980	37739
636.041	38187
636.102	39405
636.164	39494
636.225	39092
636.286	36281
636.348	35514
636.409	32816
636.470	32316
636.531	32587
636.593	33844
636.654	33127
636.715	29031
636.776	29267
636.838	28402
636.899	30001
636.960	29295
637.021	29021
637.082	27782
637.143	27821
637.204	27193
637.265	26860
637.326	28016
637.387	28523
637.448	26576
637.509	28689
637.570	27886
637.631	28798
637.692	27179
637.753	26130
637.814	27294
637.875	26751
637.936	26651
637.997	26869
638.058	26837
638.119	28539
638.179	26396
638.240	26656
638.301	26455
638.362	26277
638.423	25690
638.483	27052
638.544	24451
638.605	25386
638.666	24584
638.726	26652
638.787	24841
638.848	24931
638.908	23956
638.969	24856
639.030	24511
639.090	23480
639.151	24739
639.211	26440
639.272	31060
639.332	41911
639.393	29887
639.453	25276
639.514	25674
639.574	23633
639.635	22789
639.695	24825
639.756	22651
639.816	24989
639.877	26797
639.937	37584
639.997	44705
640.058	24795
640.118	22190
640.178	22745
640.239	21721
640.299	21945
640.359	22003
640.420	22796
640.480	24104
640.540	26215
640.600	23717
640.661	24500
640.721	23924
640.781	29464
640.841	23144
640.901	23222
640.961	23160
641.021	24525
641.082	25737
641.142	32504
641.202	25925
641.262	19929
641.322	21941
641.382	20658
641.442	22319
641.502	21276
641.562	22123
641.622	20873
641.682	22271
641.742	23519
641.802	23406
641.861	24032
641.921	21936
641.981	24872
642.041	23518
642.101	28295
642.161	21957
642.221	20630
642.280	19837
642.340	20173
642.400	20278
642.460	21238
642.519	21003
642.579	21526
642.639	22138
642.698	19719
642.758	22625
642.818	21427
642.877	20792
642.937	22574
642.997	24984
643.056	31044
643.116	22628
643.175	22379
643.235	20698
643.294	21458
643.354	22369
643.414	23225
643.473	25378
643.532	28340
643.592	34215
643.651	48382
643.711	77989
643.770	146169
643.830	335491
643.889	734078
643.948	191329
644.008	41110
644.067	29726
644.126	24169
644.186	22494
644.245	21615
644.304	19852
644.363	21640
644.423	19251
644.482	19983
644.541	19647
644.600	19392
644.659	23339
644.719	25779
644.778	33767
644.837	48619
644.896	89461
644.955	204930
645.014	78054
645.073	26710
645.132	21960
645.191	21215
645.250	20549
645.309	21685
645.368	21279
645.427	24312
645.486	30713
645.545	50237
645.604	22188
645.663	19122
645.722	18913
645.781	20365
645.840	20900
645.898	23947
645.957	31645
646.016	43268
646.075	72334
646.134	137794
646.192	350117
646.251	542095
646.310	90578
646.369	30837
646.427	26157
646.486	21741
646.545	19414
646.603	19331
646.662	18387
646.721	17011
646.779	16577
646.838	18080
646.896	20319
646.955	24393
647.014	32283
647.072	51837
647.131	130963
647.189	70980
647.248	18215
647.306	16924
647.365	17140
647.423	14557
647.481	17806
647.540	15085
647.598	15887
647.657	14862
647.715	15349
647.773	14473
647.832	15532
647.890	14384
647.948	14345
648.007	15165
648.065	13895
648.123	14003
648.181	15821
648.240	14300
648.298	13476
648.356	15118
648.414	14381
648.472	14729
648.531	14745
648.589	14207
648.647	12779
648.705	14164
648.763	13941
648.821	14347
648.879	14627
648.937	16262
648.995	16739
649.053	18560
649.111	25773
649.169	36151
649.227	60951
649.285	114971
649.343	332054
649.401	175872
649.459	52025
649.516	34137
649.574	17362
649.632	20349
649.690	19954
649.748	22025
649.806	23374
649.863	38006
649.921	91399
649.979	66393
650.037	16543
650.094	13056
650.152	13454
650.210	12945
650.268	12621
650.325	12569
650.383	12990
650.440	11494
650.498	12526
650.556	12300
650.613	10974
650.671	12609
650.728	12207
650.786	13255
650.843	13257
650.901	11644
650.958	11516
651.016	12049
651.073	11204
651.131	11888
651.188	9979
651.246	12135
651.303	10932
651.360	10933
651.418	10492
651.475	11180
651.532	9406
651.590	11493
651.647	10184
651.704	11343
651.762	9946
651.819	10922
651.876	10525
651.933	10673
651.990	10664
652.048	9745
652.105	9437
652.162	10599
652.219	9234
652.276	11060
652.333	9313
652.390	9384
652.448	10457
652.505	10811
652.562	9339
652.619	9460
652.676	10766
652.733	10324
652.790	8988
652.847	7857
652.904	9781
652.961	8789
653.017	9840
653.074	10452
653.131	10553
653.188	8799
653.245	8655
653.302	9744
653.359	8855
653.415	10415
653.472	8686
653.529	9577
653.586	8771
653.642	9756
653.699	8536
653.756	9018
653.813	9004
653.869	9763
653.926	9076
653.983	9409
654.039	9789
654.096	8551
654.152	10230
654.209	8725
654.266	9794
654.322	9051
654.379	10875
654.435	11929
654.492	10962
654.548	14173
654.605	21093
654.661	13142
654.717	9429
654.774	9354
654.830	9728
654.887	10148
654.943	9876
655.000	10349
655.056	10261
655.112	10755
655.168	8161
655.225	9073
655.281	11163
655.337	13223
655.394	18716
655.450	15368
655.506	13330
655.562	19065
655.618	16839
655.675	9361
655.731	8968
655.787	8992
655.843	9095
655.899	8684
655.955	9115
656.011	9621
656.067	8218
656.123	10215
656.179	9015
656.235	10662
656.291	8126
656.347	9737
656.403	9445
656.459	11126
656.515	10699
656.571	11068
656.627	10294
656.683	10585
656.739	9692
656.795	9527
656.850	9774
656.906	11855
656.962	9746
657.018	8673
657.074	9125
657.129	11034
657.185	12536
657.241	18970
657.297	13299
657.352	9848
657.408	8235
657.464	11690
657.519	9504
657.575	8590
657.630	8970
657.686	9190
657.742	8617
657.797	8687
657.853	9801
657.908	11072
657.964	7495
658.019	9019
658.075	9842
658.130	9267
658.186	7662
658.241	9677
658.297	8341
658.352	8168
658.407	9138
658.463	8639
658.518	9090
658.573	9356
658.629	8190
658.684	8143
658.739	8709
658.795	7735
658.850	8553
658.905	8804
658.960	8856
659.016	7411
659.071	8384
659.126	9203
659.181	9815
659.236	14792
659.291	15017
659.346	10288
659.401	9572
659.457	9225
659.512	8197
659.567	10104
659.622	9004
659.677	9014
659.732	8269
659.787	8500
659.842	9888
659.897	12973
659.952	9342
660.007	9261
660.061	8263
660.116	8591
660.171	8056
660.226	8688
660.281	8467
660.336	7689
660.391	8853
660.445	8428
660.500	8889
660.555	8515
660.610	8985
660.664	8444
660.719	7548
660.774	8812
660.828	8370
660.883	9179
660.938	9294
660.992	7354
661.047	8419
661.101	8990
661.156	7769
661.211	7695
661.265	8599
661.320	8629
661.374	7868
661.429	8065
661.483	8727
661.538	8323
661.592	8716
661.647	8293
661.701	8263
661.755	8060
661.810	8432
661.864	8429
661.919	7556
661.973	9231
662.027	7335
662.081	8541
662.136	8439
662.190	8778
662.244	9577
662.299	8502
662.353	8028
662.407	8870
662.461	7706
662.515	8446
662.569	8310
662.624	9772
662.678	8413
662.732	8395
662.786	8452
662.840	9142
662.894	9375
662.948	8956
663.002	8044
663.056	7796
663.110	7241
663.164	8653
663.218	8573
663.272	9135
663.326	9241
663.380	8807
663.434	8483
663.488	8143
663.542	9019
663.595	8617
663.649	8263
663.703	8542
663.757	8367
663.811	8268
663.864	7994
663.918	8083
663.972	8417
664.026	8663
664.079	7493
664.133	9188
664.187	7425
664.240	7447
664.294	7996
664.348	8951
664.401	7852
664.455	8384
664.508	7347
664.562	8650
664.615	7721
664.669	7522
664.722	7939
664.776	7952
664.829	6929
664.883	8715
664.936	7163
664.990	8055
665.043	9447
665.097	8798
665.150	9712
665.203	9445
665.257	8509
665.310	9215
665.363	7699
665.417	9226
665.470	8171
665.523	9300
665.576	8746
665.630	8232
665.683	8495
665.736	9450
665.789	9050
665.842	8553
665.895	8818
665.949	8845
666.002	8350
666.055	8852
666.108	9520
666.161	8610
666.214	9167
666.267	9587
666.320	10088
666.373	9238
666.426	9082
666.479	8943
666.532	9259
666.585	10013
666.638	10515
666.691	9967
666.744	10303
666.796	10529
666.849	9710
666.902	9392
666.955	8117
667.008	8090
667.060	8289
667.113	7115
667.166	8362
667.219	8602
667.271	8526
667.324	8244
667.377	8946
667.430	7185
667.482	8215
667.535	8501
667.587	9376
667.640	9849
667.693	10954
667.745	14699
667.798	15147
667.850	9834
667.903	8107
667.955	9488
668.008	8394
668.060	10349
668.113	8949
668.165	10692
668.218	9464
668.270	9920
668.322	9219
668.375	8513
668.427	9170
668.479	8572
668.532	9499
668.584	9777
668.636	8126
668.689	8973
668.741	8590
668.793	8976
668.845	8436
668.898	8669
668.950	8313
669.002	9728
669.054	8875
669.106	9845
669.158	9157
669.211	9174
669.263	8800
669.315	9356
669.367	8756
669.419	9449
669.471	9994
669.523	10795
669.575	11671
669.627	11443
669.679	9493
669.731	9809
669.783	9791
669.835	10462
669.886	9628
669.938	10110
669.990	9604
670.042	9321
670.094	9584
670.146	11272
670.197	11623
670.249	13852
670.301	15654
670.353	19363
670.404	25894
670.456	35351
670.508	54769
670.560	89883
670.611	151429
670.663	264959
670.715	575813
670.766	824249
670.818	323163
670.869	73696
670.921	39357
670.972	26961
671.024	20750
671.075	17499
671.127	15689
671.178	13329
671.230	11973
671.281	11900
671.333	11895
671.384	11846
671.436	12639
671.487	14378
671.538	14065
671.590	17777
671.641	24191
671.692	35011
671.744	61153
671.795	43452
671.846	18173
671.897	12872
671.949	11667
672.000	10421
672.051	9479
672.102	10068
672.153	8733
672.204	9046
672.256	9915
672.307	9619
672.358	8937
672.409	8977
672.460	8705
672.511	8739
672.562	7974
672.613	8243
672.664	8242
672.715	8642
672.766	7926
672.817	7526
672.868	8625
672.919	8459
672.970	7697
673.021	8781
673.071	7004
673.122	8010
673.173	7526
673.224	8427
673.275	8091
673.326	8063
673.376	8110
673.427	7008
673.478	7308
673.528	8564
673.579	7127
673.630	7890
673.680	8050
673.731	7806
673.782	6550
673.832	7498
673.883	7776
673.934	7316
673.984	7908
674.035	7771
674.085	7380
674.136	8092
674.186	7950
674.237	9307
674.287	12490
674.338	8753
674.388	8056
674.438	7815
674.489	7490
674.539	7999
674.589	8018
674.640	7846
674.690	7776
674.740	8442
674.791	8641
674.841	7823
674.891	7673
674.942	7052
674.992	7565
675.042	6306
675.092	6107
675.142	8073
675.193	6357
675.243	6700
675.293	6824
675.343	6791
675.393	7811
675.443	8231
675.493	7204
675.543	6791
675.593	7636
675.643	7899
675.693	6640
675.743	6722
675.793	7096
675.843	6782
675.893	6040
675.943	7065
675.993	7006
676.043	7345
676.093	6001
676.142	6165
676.192	7368
676.242	7020
676.292	5792
676.341	7037
676.391	7322
676.441	6722
676.491	6492
676.540	6523
676.590	6170
676.640	6108
676.689	5926
676.739	5507
676.789	5800
676.838	6020
676.888	5648
676.937	6510
676.987	6043
677.037	5875
677.086	5055
677.136	6343
677.185	4677
677.235	6025
677.284	5910
677.333	6153
677.383	4492
677.432	5559
677.482	6143
677.531	6056
677.580	5522
677.630	6109
677.679	4979
677.728	6190
677.778	5592
677.827	5625
677.876	5075
677.925	4870
677.975	5032
678.024	5784
678.073	5658
678.122	6509
678.171	6264
678.220	6762
678.269	6563
678.319	6518
678.368	6306
678.417	6350
678.466	5618
678.515	7517
678.564	6311
678.613	5968
678.662	6108
678.711	6100
678.760	4962
678.809	5872
678.857	5242
678.906	6240
678.955	5754
679.004	6058
679.053	5384
679.102	5401
679.151	5373
679.199	5257
679.248	5879
679.297	6822
679.346	6219
679.394	6288
679.443	4741
679.492	5897
679.540	4317
679.589	5803
679.638	5538
679.686	5520
679.735	4842
679.784	6307
679.832	5749
679.881	5654
679.929	4803
679.978	5348
680.026	4251
680.075	5308
680.123	5117
680.172	5415
680.220	4080
680.268	5397
680.317	4865
680.365	4883
680.414	4743
680.462	5567
680.510	5438
680.559	4866
680.607	4744
680.655	4826
680.703	4412
680.752	5251
680.800	3760
680.848	4099
680.896	4506
680.945	5446
680.993	4771
681.041	5783
681.089	4458
681.137	4051
681.185	4660
681.233	4674
681.258	4886
681.281	5016
681.329	4185
681.377	4560
681.380	4674
681.425	5416
681.473	5903
681.502	6400
681.521	6617
681.569	5461
681.617	6038
681.624	5989
681.665	5110
681.713	7489
681.745	6962
681.761	6606
681.809	6353
681.857	6194
681.867	6389
681.904	6770
681.952	5874
681.989	6603
682.000	6733
682.048	6921
682.096	6491
682.111	6680
682.143	6864
682.191	7708
682.233	7552
682.239	7458
682.286	6758
682.334	7719
682.354	7814
682.382	7783
682.430	8469
682.476	9557
682.477	9515
682.525	7716
682.572	7877
682.598	7946
682.620	7978
682.667	8976
682.715	9394
682.720	9472
682.763	9478
682.810	8492
682.841	9352
682.857	9713
682.905	9060
682.952	9853
682.963	10087
683.000	10656
683.047	9550
683.085	10238
683.095	10358
683.142	9831
683.190	10042
683.206	10375
683.237	10809
683.284	10868
683.328	10998
683.332	10954
683.379	9834
683.426	10579
683.449	10529
683.473	10411
683.521	10980
683.568	10994
683.571	11086
683.615	11476
683.662	11457
683.693	11322
683.709	11209
683.757	11011
683.804	12202
683.814	12291
683.851	12464
683.898	12358
683.936	12926
683.945	12995
683.992	12350
684.039	13044
684.057	13141
684.086	13224
684.133	12823
684.179	13240
684.180	13203
684.227	13535
684.274	13879
684.300	13972
684.321	14042
684.368	13832
684.415	13501
684.422	13610
684.462	13813
684.509	13462
684.543	14267
684.556	14543
684.603	14143
684.649	14372
684.665	14316
684.696	14124
684.743	15196
684.786	14784
684.790	14728
684.837	15562
684.883	15716
684.908	16184
684.930	16540
684.977	16440
685.023	17001
685.029	16942
685.070	15858
685.117	16522
685.150	16327
685.164	16386
685.210	17806
685.257	18550
685.272	18584
685.303	18170
685.350	17632
685.393	18301
685.396	18344
685.443	17533
685.490	18898
685.514	18819
685.536	18642
685.583	19117
685.629	18537
685.636	18573
685.675	18473
685.722	18365
685.757	18777
685.768	18972
685.815	19379
685.861	19960
685.878	19873
685.908	19601
685.954	19652
686.000	19885
686.000	19878
686.047	20485
686.093	22071
686.121	22326
686.139	22120
686.185	21473
686.232	20465
686.242	20493
686.278	20382
686.324	20385
686.363	19427
686.370	19296
686.416	19660
686.463	20007
686.484	19700
686.509	19468
686.555	19546
686.601	19952
686.606	19962
686.647	19800
686.693	19862
686.727	19883
686.739	19963
686.785	20418
686.831	20444
686.848	20560
686.877	20430
686.923	20216
686.969	19779
686.969	19776
687.015	20671
687.061	20793
687.090	20862
687.107	20772
687.153	21296
687.199	21118
687.211	20965
687.245	20667
687.291	21095
687.332	21816
687.336	21904
687.382	22125
687.428	22338
687.453	22303
687.474	21966
687.520	21995
687.565	21007
687.574	20986
687.611	21362
687.657	21605
687.695	22085
687.702	22263
687.748	22953
687.794	23404
687.816	23835
687.839	23627
687.885	22915
687.931	21805
687.937	21777
687.976	22325
688.022	22353
688.058	22827
688.067	22959
688.113	22908
688.158	23229
688.179	23227
688.204	23086
688.249	23801
688.295	23417
688.300	23399
688.340	24032
688.386	24095
688.421	24688
688.431	24687
688.477	24584
688.522	25194
688.542	24677
688.567	24156
688.613	24569
688.658	23979
688.663	24012
688.703	24573
688.749	24128
688.784	24521
688.794	24640
688.839	24665
688.884	24759
688.905	24521
688.930	24168
688.975	24422
689.020	24484
689.026	24457
689.065	24858
689.110	24940
689.146	25310
689.155	25335
689.201	24603
689.246	24758
689.267	24593
689.291	24732
689.336	25585
689.381	25309
689.388	25400
689.426	25602
689.471	24814
689.509	25365
689.516	25511
689.561	24982
689.606	25187
689.630	25124
689.651	25178
689.696	25489
689.741	25110
689.750	25159
689.785	25595
689.830	25315
689.871	25794
689.875	25852
689.920	25608
689.965	25630
689.992	25605
690.010	25664
690.054	25974
690.099	25408
690.112	25510
690.144	25797
690.189	25422
690.233	25331
690.233	25363
690.278	25448
690.323	25375
690.354	25051
690.367	25055
690.412	25381
690.457	25286
690.474	25445
690.501	25601
690.546	25231
690.590	25334
690.595	25275
690.635	25249
690.680	25228
690.716	25057
690.724	25096
690.769	25484
690.813	25832
690.836	25799
690.857	25804
690.902	25512
690.946	26101
690.957	26146
690.991	26676
691.035	27168
691.077	27602
691.080	27679
691.124	27924
691.168	28985
691.198	29247
691.213	29290
691.257	29358
691.301	29172
691.318	29312
691.346	29103
691.390	28407
691.434	27410
691.439	27292
691.478	27777
691.522	28282
691.559	28516
691.567	28609
691.611	29434
691.655	29276
691.680	29248
691.699	29066
691.743	29297
691.787	29114
691.800	28883
691.831	29069
691.875	29748
691.919	30688
691.921	30650
691.964	30807
692.008	31261
692.041	31137
692.052	31030
692.096	30582
692.139	30373
692.162	30118
692.183	30238
692.227	30401
692.271	30319
692.282	30354
692.315	30534
692.359	30635
692.402	30360
692.403	30415
692.447	30630
692.490	30521
692.523	30543
692.534	30730
692.578	31264
692.622	31968
692.643	31950
692.666	31573
692.709	31174
692.753	30493
692.763	30371
692.797	30464
692.840	29972
692.884	29773
692.884	29835
692.928	30435
692.971	30974
693.004	31129
693.015	31138
693.059	31100
693.102	30946
693.124	30994
693.146	31232
693.189	31007
693.233	31309
693.245	31260
693.276	31545
693.320	31987
693.363	32049
693.365	32005
693.407	32306
693.450	32389
693.485	32341
693.493	32392
693.537	32158
693.580	31776
693.605	31805
693.624	31938
693.667	32015
693.710	31622
693.725	31539
693.753	31926
693.797	32792
693.840	33150
693.845	33104
693.883	32692
693.926	32521
693.966	32065
693.970	32085
694.013	31839
694.056	31075
694.086	30961
694.099	31375
694.142	32135
694.185	32926
694.206	33261
694.229	33352
694.272	33562
694.315	33326
694.326	33235
694.358	33521
694.401	33612
694.444	34182
694.446	34127
694.487	34521
694.530	34827
694.566	34805
694.573	34643
694.616	33249
694.659	31863
694.686	31025
694.702	31150
694.745	31235
694.787	31145
694.806	31119
694.830	31439
694.873	31795
694.916	32034
694.926	32067
694.959	32179
695.002	32073
695.044	32130
695.046	32057
695.087	32712
695.130	33135
695.166	33591
695.172	33647
695.215	33350
695.258	33287
695.286	32960
695.301	32981
695.343	33000
695.386	33250
695.406	33032
695.428	32955
695.471	32973
695.514	32979
695.526	32873
695.556	33395
695.599	34290
695.641	34994
695.646	34981
695.684	34443
695.726	33833
695.766	33241
695.769	33327
695.811	33408
695.854	33315
695.886	33380
695.896	33606
695.938	33748
695.981	34363
696.005	34531
696.023	34600
696.065	34723
696.108	34593
696.125	34532
696.150	34730
696.192	34768
696.235	34924
696.245	34855
696.277	34701
696.319	34460
696.361	34143
696.365	34039
696.404	34212
696.446	34206
696.485	34295
696.488	34403
696.530	34498
696.572	34663
696.604	34730
696.614	34779
696.656	34670
696.698	34395
696.724	34224
696.740	34281
696.783	34148
696.825	34077
696.844	33914
696.867	34028
696.909	34250
696.951	34211
696.964	34167
696.992	34316
697.034	34324
697.076	34422
697.083	34344
697.118	34475
697.160	34545
697.202	34599
697.203	34511
697.244	34476
697.286	34462
697.323	34269
697.327	34344
697.369	34291
697.411	34179
697.442	34002
697.453	34236
697.494	34914
697.536	35571
697.562	35875
697.578	35844
697.620	35418
697.661	35145
697.682	34880
697.703	35468
697.744	36547
697.786	37596
697.801	37847
697.828	38336
697.869	38971
697.911	39698
697.921	39772
697.952	38989
697.994	37762
698.035	36465
698.040	36232
698.077	35951
698.118	35370
698.160	34906
698.160	34812
698.201	35011
698.243	35167
698.279	35262
698.284	35392
698.325	35703
698.367	35981
698.399	36120
698.408	36090
698.449	35529
698.491	34947
698.518	34454
698.532	34837
698.573	35767
698.614	36666
698.638	37094
698.656	37144
698.697	37017
698.738	36914
698.757	36758
698.779	37195
698.820	37839
698.862	38494
698.877	38638
698.903	38922
698.944	39198
698.985	39483
698.996	39459
699.026	39133
699.067	38537
699.116	37726
699.235	36489
699.354	35549
699.474	36917
699.593	38967
699.713	38811
699.832	35896
699.951	38574
700.070	36844
700.190	36160
700.309	36004
700.428	36578
700.547	36551
700.667	36245
700.786	37047
700.905	34368
701.024	34511
701.143	35822
701.262	32843
701.381	32984
701.500	34940
701.619	35653
701.738	33311
701.857	32100
701.976	31376
702.095	32046
702.214	34311
702.333	34015
702.452	33108
702.571	32014
702.690	33082
702.809	31689
702.928	30899
703.047	31553
703.165	31792
703.284	30220
703.403	30196
703.522	31774
703.640	32335
703.759	34882
703.878	41758
703.997	31726
704.115	30451
704.234	28879
704.353	29934
704.471	30211
704.590	28538
704.708	29206
704.827	29076
704.946	28512
705.064	30457
705.183	30518
705.301	34564
705.420	47088
705.538	42746
705.656	37856
705.775	34042
705.893	36124
706.012	39758
706.130	36703
706.249	37166
706.367	36993
706.485	37979
706.604	37616
706.722	36392
706.840	41168
706.958	40459
707.077	37219
707.195	35414
707.313	34475
707.431	33804
707.549	34099
707.668	33844
707.786	34975
707.904	34065
708.022	33376
708.140	32401
708.258	31889
708.376	34479
708.494	32613
708.612	36753
708.730	47638
708.848	47733
708.966	43140
709.084	40681
709.202	38343
709.320	40300
709.438	41170
709.556	40332
709.674	39758
709.791	39691
709.909	39119
710.027	38286
710.145	38760
710.263	40094
710.380	37174
710.498	37175
710.616	37669
710.733	36637
710.851	37075
710.969	38308
711.086	35721
711.204	36347
711.322	36834
711.439	36385
711.557	36498
711.674	35218
711.792	34337
711.909	35331
712.027	34168
712.144	33732
712.262	34425
712.379	38406
712.497	50162
712.614	52591
712.732	45156
712.849	42264
712.966	42387
713.084	50064
713.201	45430
713.318	44394
713.436	43541
713.553	43464
713.670	43061
713.787	43915
713.905	45193
714.022	42769
714.139	40910
714.256	44085
714.373	48821
714.490	60904
714.608	103501
714.725	362826
714.842	457151
714.959	60509
715.076	41789
715.193	39187
715.310	38843
715.427	36847
715.544	36237
715.661	36845
715.778	36521
715.895	39860
716.011	38642
716.128	37209
716.245	37078
716.362	39115
716.479	40730
716.596	35825
716.713	35298
716.829	35397
716.946	34687
717.063	33189
717.180	33901
717.296	32370
717.413	33414
717.530	32751
717.646	32792
717.763	32737
717.880	30633
717.996	31121
718.113	32327
718.229	31473
718.346	29875
718.462	31648
718.579	35444
718.695	47375
718.812	41173
718.928	37578
719.045	32512
719.161	30300
719.277	29012
719.394	28222
719.510	30129
719.626	29374
719.743	36063
719.859	37168
719.975	46752
720.092	112447
720.208	271413
720.324	57134
720.440	31891
720.557	33482
720.673	40277
720.789	50149
720.905	87167
721.021	43868
721.137	28386
721.253	28951
721.369	28802
721.486	30389
721.602	37638
721.718	28302
721.834	25253
721.950	27741
722.066	25660
722.181	26063
722.297	27268
722.413	25122
722.529	25607
722.645	25285
722.761	24478
722.877	24059
722.993	23675
723.108	26572
723.224	24744
723.340	25607
723.456	23290
723.571	24476
723.687	23226
723.803	23695
723.918	23473
724.034	23894
724.150	23076
724.265	25061
724.381	37987
724.497	49666
724.612	22821
724.728	21945
724.843	21220
724.959	24299
725.074	35437
725.190	45578
725.305	23321
725.421	22813
725.536	21161
725.651	21121
725.767	20652
725.882	20651
725.997	20517
726.113	20941
726.228	20326
726.343	21162
726.459	18790
726.574	21123
726.689	20116
726.804	19595
726.920	19866
727.035	20051
727.150	20253
727.265	20359
727.380	20621
727.495	19735
727.610	18223
727.725	19569
727.841	18831
727.956	19261
728.071	21272
728.186	19437
728.301	17686
728.416	19731
728.531	18393
728.645	17426
728.760	18274
728.875	18710
728.990	18348
729.105	17934
729.220	18033
729.335	18988
729.449	17604
729.564	16662
729.679	16441
729.794	18116
729.908	18425
730.023	18505
730.138	16205
730.253	16995
730.367	16383
730.482	16509
730.596	16760
730.711	18293
730.826	16822
730.940	17064
731.055	17883
731.169	16871
731.284	15392
731.398	16166
731.513	18409
731.627	17305
731.742	19204
731.856	20955
731.970	16061
732.085	18958
732.199	20636
732.313	26363
732.428	47482
732.542	127349
732.656	92620
732.771	24221
732.885	18533
732.999	17735
733.113	19052
733.227	18595
733.342	16710
733.456	16229
733.570	16875
733.684	16756
733.798	16063
733.912	17350
734.026	15803
734.140	16020
734.254	16627
734.368	23053
734.482	29863
734.596	16243
734.710	15644
734.824	15235
734.938	14831
735.052	15632
735.166	17450
735.280	15740
735.393	14697
735.507	14778
735.621	18350
735.735	27025
735.849	17712
735.962	14704
736.076	15965
736.190	14795
736.303	18001
736.417	22566
736.531	15198
736.644	15796
736.758	14194
736.872	13635
736.985	13442
737.099	14307
737.212	13080
737.326	14315
737.439	13987
737.553	14613
737.666	13926
737.780	13376
737.893	13494
738.007	13237
738.120	13847
738.233	13703
738.347	12081
738.460	12997
738.573	13795
738.687	13786
738.800	12904
738.913	15586
739.026	14428
739.140	12626
739.253	12383
739.366	14090
739.479	12441
739.592	12794
739.705	12054
739.818	12976
739.932	12189
740.045	12022
740.158	12220
740.271	12846
740.384	12364
740.497	12042
740.610	12356
740.723	12562
740.836	11993
740.949	13071
741.062	15555
741.174	14982
741.287	11852
741.400	12110
741.513	11869
741.626	12279
741.739	12170
741.851	12281
741.964	11360
742.077	12162
742.189	11437
742.302	12598
742.415	12196
742.527	11481
742.640	11397
742.753	11724
742.865	10305
742.978	11267
743.090	11945
743.203	10749
743.316	10248
743.428	10644
743.541	10250
743.653	11740
743.766	10600
743.878	10742
743.990	12932
744.103	14092
744.215	10617
744.327	11251
744.440	12648
744.552	16591
744.664	12489
744.777	11057
744.889	10641
745.001	10927
745.113	10556
745.226	10361
745.338	10177
745.450	9813
745.562	10358
745.674	10241
745.786	10094
745.898	9548
746.010	9476
746.122	9939
746.234	10483
746.347	9815
746.459	10563
746.570	9859
746.682	9568
746.794	9732
746.906	9243
747.018	9533
747.130	10307
747.242	9738
747.354	9129
747.466	11121
747.577	9028
747.689	10299
747.801	9791
747.913	9262
748.024	8454
748.136	9459
748.248	9624
748.359	9461
748.471	8748
748.583	9946
748.694	8426
748.806	10282
748.918	11381
749.029	10717
749.141	10558
749.252	10088
749.364	10753
749.475	17354
749.587	14952
749.698	9360
749.809	9179
749.921	10215
750.032	8863
750.144	9019
750.255	8565
750.366	8575
750.478	9252
750.589	9491
750.700	9841
750.811	10214
750.923	11568
751.034	18279
751.145	19600
751.256	9605
751.367	8790
751.479	8608
751.590	7957
751.701	9464
751.812	7945
751.923	8401
752.034	8587
752.145	9474
752.256	8648
752.367	8412
752.478	8522
752.589	8023
752.700	8189
752.811	8519
752.922	8314
753.032	9419
753.143	10563
753.254	8331
753.365	8534
753.476	8977
753.586	8489
753.697	7906
753.808	8190
753.919	7473
754.029	8353
754.140	8063
754.251	8818
754.361	7407
754.472	7372
754.582	8782
754.693	8128
754.804	7854
754.914	7393
755.025	7858
755.135	8096
755.246	7348
755.356	7730
755.466	8117
755.577	8165
755.687	7478
755.798	7124
755.908	7893
756.018	7707
756.129	7175
756.239	7606
756.349	8513
756.460	6938
756.570	9458
756.680	8148
756.790	7991
756.900	8902
757.011	7441
757.121	7794
757.231	7843
757.341	7000
757.451	6649
757.561	6889
757.671	6888
757.781	7123
757.891	8370
758.001	7680
758.111	7723
758.221	7626
758.331	8457
758.441	8422
758.551	11254
758.661	9804
758.771	8431
758.880	7790
758.990	8651
759.100	8716
759.210	7076
759.320	8259
759.429	7654
759.539	8136
759.649	8146
759.758	7664
759.868	8916
759.978	8353
760.087	8625
760.197	7983
760.307	8746
760.416	8247
760.526	8037
760.635	8743
760.745	8204
760.854	8632
760.964	8993
761.073	8820
761.182	8446
761.292	8115
761.401	8320
761.511	9068
761.620	7623
761.729	7789
761.839	7671
761.948	7935
762.057	8178
762.166	8069
762.276	6811
762.385	8080
762.494	7674
762.603	7398
762.712	7620
762.822	8265
762.931	8735
763.040	6808
763.149	8058
763.258	7340
763.367	8259
763.476	7553
763.585	8243
763.694	8209
763.803	8113
763.912	8127
764.021	7783
764.130	7450
764.238	8240
764.347	7983
764.456	8304
764.565	7589
764.674	7911
764.783	7415
764.891	6712
765.000	8118
765.109	8083
765.217	8510
765.326	8898
765.435	9241
765.543	8832
765.652	8174
765.761	9394
765.869	9468
765.978	12924
766.086	18561
766.195	30473
766.303	75961
766.412	283745
766.520	328544
766.629	47076
766.737	17441
766.846	13603
766.954	10670
767.062	11439
767.171	9922
767.279	10938
767.387	9230
767.496	9477
767.604	8897
767.712	8759
767.820	7839
767.928	9039
768.037	7981
768.145	9414
768.253	8083
768.361	8989
768.469	8020
768.577	8090
768.685	8858
768.793	8427
768.901	7732
769.009	8516
769.117	8399
769.225	8488
769.333	10563
769.441	11779
769.549	16472
769.657	29517
769.765	94752
769.873	293242
769.981	93168
770.088	16224
770.196	10923
770.304	9901
770.412	9167
770.519	9140
770.627	9505
770.735	9041
770.842	8589
770.950	9428
771.058	8682
771.165	8282
771.273	9015
771.380	9051
771.488	8793
771.595	8893
771.703	8712
771.810	8803
771.918	8405
772.025	8545
772.133	9210
772.240	9249
772.348	9718
772.455	9949
772.562	8986
772.670	8516
772.777	8666
772.884	8226
772.991	9315
773.099	8243
773.206	7940
773.313	9568
773.420	8708
773.528	8934
773.635	7778
773.742	9164
773.849	8392
773.956	8307
774.063	8276
774.170	7775
774.277	8651
774.384	8696
774.491	8210
774.598	8397
774.705	9154
774.812	10790
774.919	9658
775.026	9419
775.133	9012
775.239	8227
775.346	8078
775.453	8452
775.560	8041
775.667	8520
775.773	7630
775.880	8519
775.987	8569
776.093	8137
776.200	8163
776.307	7974
776.413	8485
776.520	8766
776.627	8007
776.733	8023
776.840	6416
776.946	9873
777.053	7955
777.159	8851
777.266	7056
777.372	8834
777.478	7631
777.585	8048
777.691	6754
777.798	8753
777.904	8857
778.010	9923
778.117	9623
778.223	8353
778.329	8068
778.435	8406
778.542	7459
778.648	7994
778.754	6487
778.860	7902
778.966	8310
779.072	8263
779.178	7747
779.284	7863
779.391	6169
779.497	6466
779.603	7460
779.708	7398
779.815	7257
779.920	7739
780.026	8547
780.132	6913
780.238	7872
780.344	6880
780.450	8093
780.556	7243
780.661	6540
780.767	7906
780.873	6715
780.979	7257
781.085	7566
781.190	7554
781.296	6517
781.402	6615
781.507	7090
781.613	8040
781.719	5659
781.824	7520
781.930	7452
782.035	7394
782.141	7188
782.246	6440
782.352	6744
782.457	6779
782.563	7888
782.668	6816
782.773	7345
782.879	6568
782.984	6733
783.090	8026
783.195	9475
783.300	9306
783.405	7751
783.511	7422
783.616	6861
783.721	7060
783.826	6119
783.932	6386
784.037	7101
784.142	6413
784.247	6519
784.352	7436
784.457	6269
784.562	7197
784.667	6997
784.772	6240
784.877	6093
784.982	7363
785.087	5961
785.192	7165
785.297	6628
785.402	6734
785.507	5768
785.611	7186
785.716	6650
785.821	6566
785.926	6182
786.031	6128
786.135	5402
786.240	5968
786.345	5208
786.450	6197
786.554	5354
786.659	6654
786.763	4313
786.868	7761
786.973	6696
787.077	6588
787.182	5801
787.286	7049
787.391	5818
787.495	6343
787.600	5590
787.704	5180
787.809	4892
787.913	5449
788.017	5455
788.122	5489
788.226	5553
788.330	5313
788.435	4807
788.539	6805
788.643	5211
788.747	5392
788.852	4621
788.956	5199
789.060	6277
789.164	5386
789.268	4765
789.372	6238
789.476	5623
789.580	5682
789.684	4735
789.788	6125
789.892	5416
789.996	5595
790.100	5196
790.204	5300
790.308	5168
790.412	5198
790.516	4869
790.620	5319
790.724	5959
790.828	5421
790.931	4579
791.035	6194
791.139	4985
791.242	4677
791.346	5628
791.450	6132
791.554	4445
791.657	5160
791.761	5888
791.864	5816
791.968	5244
792.072	5605
792.175	4619
792.279	5397
792.382	5936
792.486	5179
792.589	5002
792.693	5231
792.796	4734
792.899	5714
793.003	5058
793.106	4063
793.209	4771
793.313	6748
793.416	4167
793.519	5869
793.623	6751
793.726	9608
793.829	6839
793.932	5551
794.035	4403
794.138	6266
794.242	5383
794.345	5730
794.448	5386
794.551	7474
794.654	8102
794.757	5957
794.860	6672
794.963	5650
795.066	4812
795.169	5503
795.272	4746
795.375	5452
795.477	3932
795.580	5311
795.683	2999
795.786	4857
795.889	3460
795.991	5476
796.094	4831
796.197	4319
796.300	6170
796.402	4276
796.505	3557
796.608	4314
796.710	4231
796.813	4376
796.915	3773
797.018	5412
797.120	4821
797.223	3653
797.326	6448
797.428	3882
797.530	4171
797.633	4735
797.735	5048
797.838	6322
797.940	6892
798.042	4126
798.145	4032
798.247	4938
798.349	2859
798.452	4950
798.554	4309
798.656	3958
798.758	5101
798.860	3647
798.962	3080
799.065	3408
799.167	3690
799.269	5718
799.371	4652
799.473	5255
799.575	5007
799.677	6022
799.779	6027
799.881	7146
799.983	6839
800.085	4586
800.187	4610
800.289	3759
800.390	4327
800.492	4449
800.594	4444
800.696	3719
800.798	4120
800.899	4760
801.001	4310
801.103	3557
801.205	4185
801.306	3756
801.408	2848
801.509	3375
801.611	3823
801.713	3810
801.814	3346
801.916	3481
802.017	3835
802.119	3290
802.220	4090
802.322	2308
802.423	6173
802.525	3765
802.626	3926
802.727	4596
802.829	4002
802.930	2747
803.031	4996
803.133	3781
803.234	4108
803.335	4222
803.436	2526
803.538	4177
803.639	2948
803.740	3975
803.841	2842
803.942	4369
804.043	3564
804.144	3447
804.245	3924
804.346	3193
804.447	3584
804.548	5434
804.649	5684
804.750	3718
804.851	3157
804.952	3130
805.053	3668
805.154	2760
805.255	3843
805.355	3032
805.456	3076
805.557	3535
805.658	2594
805.758	3576
805.859	3839
805.960	4136
806.061	2786
806.161	2606
806.262	3600
806.362	3294
806.463	3504
806.564	3660
806.664	3894
806.765	4397
806.865	4576
806.966	4277
807.066	2762
807.166	4143
807.267	3475
807.367	2254
807.468	4058
807.568	2443
807.668	4211
807.769	4025
807.869	3447
807.969	3363
808.069	3423
808.170	3227
808.270	3473
808.370	4228
808.470	5473
808.570	4053
808.670	3505
808.770	3985
808.870	3041
808.970	3564
809.070	2517
809.170	2944
809.271	3494
809.370	3156
809.470	2951
809.570	2559
809.670	2294
809.770	2985
809.870	4114
809.970	3258
810.070	3097
810.169	3659
810.269	1401
810.369	4381
810.469	2903
810.568	2994
810.668	2617
810.768	2923
810.867	3240
810.967	3017
811.066	2733
811.166	3150
811.265	3345
811.365	3274
811.464	2779
811.564	3552
811.663	3480
811.763	2382
811.862	3929
811.962	4601
812.061	4040
812.160	2577
812.260	4039
812.359	4576
812.458	6596
812.557	14733
812.657	23461
812.756	9850
812.855	4423
812.954	3825
813.053	4075
813.153	4741
813.252	3383
813.351	2947
813.450	3791
813.549	2940
813.648	4006
813.747	3554
813.846	3905
813.945	3416
814.044	2424
814.143	3498
814.242	3431
814.341	3231
814.439	3853
814.538	5113
814.637	2418
814.736	2877
814.835	4690
814.933	3317
815.032	4547
815.131	4889
815.229	4086
815.328	5241
815.427	4667
815.525	5059
815.624	4455
815.722	4488
815.821	5360
815.919	5046
816.018	4726
816.116	5603
816.215	5237
816.313	5148
816.412	5664
816.510	6508
816.609	7412
816.707	7509
816.805	6628
816.904	7139
817.002	7800
817.100	8734
817.198	8625
817.296	9968
817.395	10412
817.493	12389
817.591	12845
817.689	17484
817.787	22707
817.885	34458
817.983	57124
818.081	110866
818.179	236249
818.277	506102
818.375	501098
818.473	194511
818.571	81310
818.669	51246
818.767	41839
818.865	41638
818.963	48975
819.061	67102
819.158	104684
819.256	194205
819.354	386855
819.452	672987
819.549	546411
819.647	245571
819.745	112420
819.842	65905
819.940	45843
820.038	32568
820.135	25003
820.233	21758
820.330	16060
820.428	14281
820.525	13915
820.623	11763
820.720	9573
820.818	10371
820.915	9105
821.012	8413
821.110	7270
821.207	8326
821.304	6045
821.402	6719
821.499	5420
821.596	6346
821.693	6091
821.791	7603
821.888	6550
821.985	10143
822.082	9825
822.179	5691
822.276	4933
822.373	4724
822.470	4777
822.567	4901
822.664	4484
822.761	5432
822.858	4147
822.955	4695
823.052	3647
823.149	4721
823.246	3970
823.343	3440
823.440	4445
823.536	3466
823.633	3951
823.730	3418
823.827	3677
823.923	3212
824.020	4549
824.117	3789
824.213	2695
824.310	3768
824.407	3937
824.503	3846
824.600	2831
824.696	3323
824.793	4051
824.889	3790
824.986	3853
825.082	2760
825.179	3076
825.275	2923
825.371	1868
825.468	3400
825.564	2245
825.660	3457
825.757	2946
825.853	3278
825.949	2476
826.045	3124
826.142	2760
826.238	3133
826.334	3804
826.430	2808
826.526	2795
826.622	1810
826.718	2992
826.814	3521
826.910	3114
827.006	2634
827.102	1589
827.198	3896
827.294	3797
827.390	3089
827.486	3403
827.582	1699
827.678	2371
827.774	3908
827.869	2083
827.965	3384
828.061	1818
828.157	2535
828.252	2711
828.348	2206
828.444	2623
828.539	1891
828.635	2767
828.731	3487
828.826	1197
828.922	2889
829.017	2723
829.113	3715
829.208	2447
829.304	2365
829.399	3928
829.495	3079
829.590	2514
829.685	2171
829.781	2425
829.876	3018
829.971	1401
830.066	1950
830.162	2353
830.257	2305
830.352	1842
830.447	2939
830.543	2449
830.638	1543
830.733	3240
830.828	1877
830.923	3587
831.018	2475
831.113	2625
831.208	2431
831.303	2905
831.398	2875
831.493	2502
831.588	3201
831.683	1172
831.778	2798
831.873	2361
831.967	2869
832.062	1965
832.157	1414
832.252	3340
832.346	2715
832.441	3701
832.536	4529
832.631	9025
832.725	8624
832.820	1746
832.914	2585
833.009	2497
833.104	3638
833.198	4153
833.293	2447
833.387	2127
833.482	2779
833.576	1638
833.670	3015
833.765	2050
833.859	2923
833.954	3255
834.048	3040
834.142	2556
834.237	1938
834.331	2768
834.425	2953
834.519	1546
834.613	3030
834.708	2277
834.802	2260
834.896	1772
834.990	3027
835.084	2606
835.178	3093
835.272	2379
835.366	2467
835.460	2918
835.554	2529
835.648	1704
835.742	1797
835.836	2046
835.930	1950
836.024	2273
836.117	3049
836.211	2476
836.305	3332
836.399	5073
836.493	2246
836.586	2293
836.680	1305
836.774	1793
836.867	2761
836.961	1933
837.055	493
837.148	1571
837.242	1956
837.335	867
837.429	2464
837.522	2846
837.616	2883
837.709	4790
837.803	4210
837.896	2460
837.989	2545
838.083	4925
838.176	5586
838.269	6107
838.363	4050
838.456	1921
838.549	4433
838.642	4974
838.735	11125
838.829	6054
838.922	1605
839.015	2081
839.108	1933
839.201	2223
839.294	2414
839.387	2245
839.480	2292
839.573	3401
839.666	4773
839.759	2551
839.852	1635
839.945	2492
840.038	1708
840.131	2032
840.223	2097
840.316	2107
840.409	2268
840.502	1538
840.594	2741
840.687	1319
840.780	2691
840.873	1256
840.965	2324
841.058	2743
841.150	5318
841.243	3907
841.336	2856
841.428	1573
841.521	1888
841.613	1046
841.706	2953
841.798	1556
841.890	2277
841.983	1762
842.075	2520
842.167	1574
842.260	1946
842.352	2950
842.444	3761
842.537	6356
842.629	10543
842.721	2570
842.813	1480
842.905	1600
842.997	2420
843.090	2465
843.182	4427
843.274	5976
843.366	11876
843.458	24208
843.550	18302
843.642	3523
843.734	3529
843.826	2627
843.918	3076
844.009	2268
844.101	2239
844.193	1890
844.285	1529
844.377	1933
844.469	2886
844.560	1501
844.652	2338
844.744	2280
844.835	1885
844.927	2310
845.019	3591
845.110	1946
845.202	1870
845.293	1819
845.385	816
845.476	2200
845.568	2191
845.659	1820
845.751	2314
845.842	1350
845.934	2010
846.025	1860
846.116	2379
846.208	1295
846.299	1304
846.390	1765
846.482	1941
846.573	2953
846.664	3418
846.755	4431
846.846	4919
846.937	475
847.029	2428
847.120	1272
847.211	2109
847.302	2849
847.393	1055
847.484	1325
847.575	1809
847.666	767
847.757	1875
847.847	1688
847.938	2783
848.029	1461
848.120	1128
848.211	1542
848.302	1831
848.392	1135
848.483	1793
848.574	1030
848.664	1108
848.755	1509
848.846	2361
848.936	1786
849.027	1660
849.118	2272
849.208	2381
849.299	2250
849.389	2632
849.480	4043
849.570	6923
849.661	11835
849.751	20247
849.841	9938
849.932	2359
850.022	1209
850.112	1343
850.203	1974
850.293	1397
850.383	2060
850.474	1316
850.564	1164
850.654	2454
850.744	957
850.834	1286
850.924	1517
851.014	1374
851.104	1472
851.194	1290
851.284	2803
851.374	2901
851.464	2193
851.554	2524
851.644	1518
851.734	3671
851.824	2908
851.914	1527
852.004	1613
852.094	1658
852.183	386
852.273	2333
852.363	1476
852.452	1631
852.542	1740
852.632	1549
852.721	878
852.811	1391
852.901	1698
852.990	1758
853.080	1109
853.169	1930
853.259	1934
853.348	2358
853.438	2004
853.527	3304
853.617	2434
853.706	6005
853.795	8441
853.885	19518
853.974	36727
854.063	62247
854.152	113628
854.242	50829
854.331	8721
854.420	3754
854.509	2860
854.598	2908
854.687	3318
854.777	2912
854.866	1078
854.955	2723
855.044	1133
855.133	1421
855.222	1569
855.311	1564
855.400	1889
855.488	1353
855.577	1385
855.666	1120
855.755	1326
855.844	1741
855.933	1573
856.021	1347
856.110	1727
856.199	989
856.288	1369
856.376	1497
856.465	1382
856.554	1664
856.642	1673
856.731	1475
856.819	1701
856.908	1008
856.996	1376
857.085	1380
857.173	985
857.262	676
857.350	1943
857.438	601
857.527	1492
857.615	1568
857.703	1778
857.792	1731
857.880	654
857.968	1370
858.056	2069
858.145	1605
858.233	1493
858.321	971
858.409	1654
858.497	716
858.585	595
858.673	1956
858.761	986
858.849	1582
858.937	558
859.025	1390
859.113	1424
859.201	867
859.289	1288
859.377	1847
859.465	933
859.552	1686
859.640	1162
859.728	1730
859.816	1731
859.903	1695
859.991	829
860.079	1574
860.166	1496
860.254	1065
860.342	1818
860.429	1582
860.517	213
860.604	1509
860.692	1751
860.779	1738
860.867	1281
860.954	1707
861.042	841
861.129	3130
861.216	1025
861.304	948
861.391	1237
861.478	1743
861.565	1378
861.653	2184
861.740	706
861.827	1118
861.914	678
862.001	1316
862.089	1652
862.176	1495
862.263	1033
862.350	977
862.437	1205
862.524	1308
862.611	1316
862.698	1450
862.785	1147
862.871	1677
862.958	276
863.045	1068
863.132	1631
863.219	1326
863.306	-116
863.392	1843
863.479	961
863.566	1488
863.652	1794
863.739	1261
863.826	1373
863.912	1723
863.999	1145
864.086	1824
864.172	1868
864.259	1658
864.345	1559
864.432	1766
864.518	936
864.604	1616
864.691	1430
864.777	2000
864.863	1453
864.950	2570
865.036	1739
865.122	3077
865.209	3053
865.295	2753
865.381	2654
865.467	2479
865.553	2908
865.639	3513
865.726	5190
865.812	11690
865.898	20491
865.984	28992
866.070	51456
866.156	64044
866.242	20332
866.328	5457
866.414	2749
866.499	2974
866.585	2777
866.671	2169
866.757	2692
866.843	2147
866.928	2488
867.014	2071
867.100	2202
867.186	3125
867.271	3582
867.357	3831
867.442	3540
867.528	2334
867.614	2256
867.699	2033
867.785	2363
867.870	2193
867.956	2087
868.041	2860
868.127	1369
868.212	2712
868.297	2398
868.383	2599
868.468	2931
868.553	5421
868.639	6945
868.724	10935
868.809	12508
868.894	4098
868.979	2416
869.065	2036
869.150	2050
869.235	2368
869.320	1896
869.405	1759
869.490	1208
869.575	1652
869.660	1160
869.745	2122
869.830	1451
869.915	2346
870.000	1987
870.085	2178
870.169	1345
870.254	1939
870.339	1242
870.424	1226
870.509	2473
870.593	2705
870.678	1490
870.763	676
870.847	1918
870.932	1939
871.016	2085
871.101	1403
871.186	901
871.270	2796
871.355	1621
871.439	1357
871.523	1806
871.608	1547
871.692	1006
871.777	1759
871.861	2040
871.945	1504
872.030	1552
872.114	1213
872.198	809
872.282	1902
872.367	741
872.451	1130
872.535	1709
872.619	1506
872.703	1198
872.787	1680
872.871	1848
872.955	928
873.039	1461
873.123	1256
873.207	2091
873.291	1605
873.375	1891
873.459	2355
873.543	1246
873.627	1080
873.711	1054
873.794	2299
873.878	1072
873.962	822
874.045	1562
874.129	1601
874.137	1586
874.213	1438
874.245	1384
874.296	1299
874.352	1543
874.380	1659
874.460	499
874.464	453
874.547	-338
874.568	277
874.631	2095
874.676	1899
874.714	1741
874.784	1874
874.798	1899
874.881	2260
874.892	2161
874.965	1487
874.999	1164
875.048	739
875.107	891
875.131	925
875.215	1188
875.215	1187
875.298	1155
875.323	1071
875.381	845
875.430	1162
875.465	1417
875.538	1395
875.548	1382
875.631	1098
875.646	1118
875.714	1170
875.753	1058
875.798	988
875.861	1204
875.881	1279
875.964	579
875.968	622
876.047	1248
876.076	1238
876.130	1332
876.183	1351
876.213	1313
876.291	1951
876.296	2001
876.379	962
876.398	1028
876.462	1099
876.506	986
876.545	967
876.613	1129
876.628	1160
876.711	1098
876.721	1181
876.794	1751
876.828	1400
876.877	879
876.935	1139
876.960	1317
877.043	1030
877.043	1032
877.125	1325
877.150	1349
877.208	1601
877.258	1377
877.291	1125
877.365	776
877.374	763
877.456	1722
877.472	1705
877.539	1334
877.579	1230
877.622	1303
877.687	1635
877.704	1695
877.787	1229
877.794	1232
877.869	1293
877.901	1452
877.952	1649
878.008	1303
878.034	1174
878.115	1316
878.117	1319
878.199	1195
878.222	1026
878.282	394
878.329	621
878.364	910
878.437	960
878.447	990
878.529	882
878.544	955
878.611	955
878.651	830
878.694	806
878.758	1221
878.776	1284
878.858	909
878.865	902
878.941	1102
878.972	970
879.023	758
879.078	800
879.105	805
879.185	1200
879.187	1202
879.269	1219
879.292	1085
879.351	923
879.399	964
879.433	941
879.506	897
879.516	904
879.598	1057
879.613	968
879.680	568
879.720	773
879.762	994
879.827	716
879.844	603
879.926	1021
879.933	1014
880.007	1423
880.040	1662
880.089	1662
880.147	1758
880.171	1939
880.253	2887
880.254	2896
880.335	3781
880.360	4069
880.417	4931
880.467	6687
880.499	8012
880.574	11216
880.580	11331
880.662	4361
880.680	3584
880.744	1133
880.787	634
880.825	485
880.893	419
880.907	426
880.989	171
881.000	295
881.070	1133
881.106	930
881.152	486
881.213	481
881.233	533
881.315	644
881.319	639
881.396	419
881.426	365
881.478	414
881.532	638
881.559	679
881.639	570
881.641	577
881.722	1343
881.745	1261
881.803	658
881.852	674
881.885	723
881.958	708
881.966	723
882.047	832
882.064	986
882.129	1748
882.171	1758
882.210	1627
882.277	2717
882.291	2961
882.372	1990
882.383	1906
882.454	1066
882.489	998
882.535	1081
882.596	1042
882.616	907
882.697	301
882.702	290
882.778	1217
882.808	1383
882.859	1021
882.914	763
882.940	640
883.020	690
883.021	693
883.102	766
883.127	780
883.183	954
883.233	1086
883.264	858
883.339	224
883.345	234
883.426	585
883.445	714
883.507	778
883.551	709
883.587	668
883.657	728
883.668	804
883.749	1085
883.763	1126
883.830	916
883.869	701
883.910	331
883.975	126
883.991	211
884.072	261
884.081	322
884.152	548
884.187	523
884.233	590
884.292	748
884.314	809
884.394	701
884.398	709
884.475	710
884.504	719
884.555	550
884.610	198
884.636	236
884.716	536
884.716	537
884.797	589
884.821	647
884.877	944
884.927	858
884.958	844
885.033	1077
885.038	1079
885.118	808
885.139	771
885.199	418
885.244	355
885.279	571
885.350	878
885.359	862
885.439	723
885.456	599
885.520	311
885.561	449
885.600	377
885.667	-8
885.680	101
885.760	756
885.773	868
885.840	542
885.878	336
885.920	169
885.984	-27
886.000	59
886.080	742
886.089	772
886.160	871
886.195	1041
886.240	813
886.300	252
886.320	271
886.400	531
886.406	558
886.480	341
886.511	240
886.560	706
886.616	1104
886.640	1106
886.720	1374
886.722	1373
886.800	641
886.827	453
886.879	593
886.932	621
886.959	675
887.038	1105
887.039	1102
887.119	474
887.143	356
887.198	572
887.248	758
887.278	823
887.354	738
887.358	738
887.437	850
887.459	886
887.517	673
887.564	542
887.596	591
887.669	543
887.676	550
887.755	834
887.774	871
887.835	840
887.880	813
887.914	660
887.985	322
887.994	397
888.073	1070
888.090	1214
888.153	908
888.195	714
888.232	955
888.300	1383
888.311	1355
888.391	1135
888.405	1091
888.470	671
888.510	392
888.549	601
888.615	1014
888.628	998
888.708	863
888.720	842
888.787	619
888.825	486
888.866	503
888.930	533
888.945	513
889.024	395
889.035	387
889.103	1090
889.140	1442
889.182	1065
889.245	526
889.261	523
889.340	508
889.349	511
889.419	556
889.454	575
889.498	528
889.559	481
889.577	394
889.656	36
889.664	5
889.735	950
889.768	1405
889.814	975
889.873	400
889.978	935
890.083	767
890.187	790
890.292	847
890.397	572
890.501	677
890.606	1094
890.710	566
890.815	855
890.919	543
891.024	334
891.128	76
891.233	544
891.337	520
891.442	1159
891.546	507
891.650	788
891.755	-29
891.859	1623
891.963	369
892.068	916
892.172	1034
892.276	229
892.380	-3
892.484	839
892.589	219
892.693	1204
892.797	486
892.901	802
893.005	391
893.109	1293
893.213	1262
893.317	1039
893.421	-92
893.525	500
893.629	-101
893.733	1036
893.837	506
893.941	797
894.045	473
894.148	651
894.252	608
894.356	814
894.460	976
894.564	1205
894.667	270
894.771	878
894.875	-395
894.978	688
895.082	646
895.186	1290
895.289	326
895.393	1396
895.496	983
895.600	49
895.703	600
895.807	527
895.910	625
896.014	1423
896.117	487
896.221	1591
896.324	150
896.427	-236
896.531	-72
896.634	420
896.737	456
896.840	1824
896.944	1087
897.047	813
897.150	509
897.253	85
897.356	401
897.460	186
897.563	-211
897.666	833
897.769	56
897.872	590
897.975	-205
898.078	669
898.181	471
898.284	-488
898.387	215
898.490	945
898.593	808
898.695	350
898.798	-126
898.901	369
899.004	941
899.107	1245
899.209	446
899.312	624
899.415	14
899.518	261
899.620	247
899.723	1044
899.826	131
899.928	1545
900.031	915
900.133	504
900.236	-429
900.338	248
900.441	498
900.543	700
900.646	247
900.748	1007
900.851	1175
900.953	584
901.055	-164
901.158	502
901.260	128
901.362	1098
901.465	288
901.567	962
901.669	1018
901.771	444
901.873	588
901.976	641
902.078	739
902.180	383
902.282	-116
902.384	-432
902.486	299
902.588	452
902.690	171
902.792	1340
902.894	990
902.996	806
903.098	126
903.200	266
903.302	988
903.404	-146
903.505	-121
903.607	59
903.709	883
903.811	779
903.913	-243
904.014	95
904.116	913
904.218	1476
904.319	272
904.421	260
904.523	-250
904.624	752
904.726	1237
904.827	209
904.929	-572
905.030	1158
905.132	703
905.233	892
905.335	-49
905.436	11
905.537	529
905.639	1109
905.740	272
905.841	668
905.943	426
906.044	895
906.145	385
906.247	49
906.348	-187
906.449	414
906.550	134
906.651	528
906.752	185
906.854	1169
906.955	-706
907.056	478
907.157	87
907.258	480
907.359	-159
907.460	229
907.561	-606
907.662	589
907.762	550
907.863	339
907.964	240
908.065	788
908.166	-18
908.267	-368
908.367	178
908.468	740
908.569	49
908.670	632
908.770	548
908.871	716
908.971	552
909.072	766
909.173	57
909.273	432
909.374	429
909.474	987
909.575	506
909.675	15
909.776	-51
909.876	601
909.977	698
910.077	742
910.177	-218
910.278	1409
910.378	-300
910.478	727
910.579	479
910.679	57
910.779	-164
910.879	423
910.980	119
911.080	1152
911.180	503
911.280	903
911.380	286
911.480	583
911.580	234
911.680	503
911.780	245
911.880	741
911.980	-345
912.080	962
912.180	26
912.280	1864
912.380	192
912.480	-376
912.580	367
912.679	714
912.779	-369
912.879	238
912.979	480
913.078	309
913.178	239
913.278	377
913.377	637
913.477	647
913.577	371
913.676	1083
913.776	608
913.875	1190
913.975	-127
914.074	358
914.174	-167
914.273	-24
914.373	-202
914.472	336
914.572	-503
914.671	213
914.770	518
914.870	929
914.969	-538
915.068	944
915.167	819
915.267	81
915.366	-14
915.465	698
915.564	-429
915.663	-93
915.763	-17
915.862	759
915.961	620
916.060	-290
916.159	-585
916.258	515
916.357	390
916.456	286
916.555	627
916.654	534
916.752	220
916.851	808
916.950	341
917.049	615
917.148	218
917.247	313
917.345	11
917.444	314
917.543	1335
917.642	404
917.740	53
917.839	530
917.937	452
918.036	1463
918.135	32
918.233	178
918.332	353
918.430	348
918.529	233
918.627	428
918.726	93
918.824	463
918.923	57
919.021	266
919.119	-328
919.218	642
919.316	-279
919.414	193
919.512	1075
919.611	275
919.709	869
919.807	600
919.905	148
920.003	920
920.102	225
920.200	-89
920.298	435
920.396	483
920.494	789
920.592	771
920.690	-96
920.788	334
920.886	1158
920.984	743
921.082	-238
921.180	1040
921.277	920
921.375	342
921.473	558
921.571	1240
921.669	902
921.766	829
921.864	751
921.962	854
922.060	942
922.157	572
922.255	432
922.352	942
922.450	2094
922.548	983
922.645	319
922.743	1143
922.840	1614
922.938	1658
923.035	1082
923.133	1502
923.230	993
923.327	2013
923.425	1176
923.522	2397
923.619	1251
923.717	1155
923.814	2165
923.911	1630
924.008	1480
924.106	1359
924.203	872
924.300	1398
924.397	1017
924.494	1661
924.591	1597
924.688	1890
924.786	456
924.883	1586
924.979	760
925.077	1878
925.173	1296
925.270	1219
925.367	478
925.464	2110
925.561	1455
925.658	1419
925.755	1211
925.852	1746
925.948	585
926.045	1170
926.142	484
926.239	1571
926.335	321
926.432	1661
926.529	1191
926.625	1172
926.722	314
926.818	1760
926.915	944
927.011	2006
927.108	919
927.204	1243
927.301	817
927.397	1276
927.494	1335
927.590	1637
927.687	345
927.783	1094
927.879	618
927.976	1344
928.072	637
928.168	2008
928.264	451
928.361	1669
928.457	1434
928.553	596
928.649	839
928.745	1144
928.841	1048
928.937	1760
929.033	747
929.129	2101
929.225	1434
929.321	1600
929.417	880
929.513	1614
929.609	1305
929.705	877
929.801	1422
929.897	1142
929.993	886
930.089	978
930.184	1472
930.280	739
930.376	1276
930.471	1517
930.567	1033
930.663	1866
930.758	873
930.854	945
930.950	1455
931.045	1142
931.141	594
931.236	1736
931.332	491
931.427	536
931.523	1046
931.618	1905
931.714	938
931.809	476
931.905	995
932.000	594
932.095	612
932.191	1243
932.286	357
932.381	886
932.476	427
932.572	546
932.667	615
932.762	1037
932.857	1157
932.952	1255
933.047	1028
933.142	1236
933.237	994
933.332	1266
933.427	534
933.522	1033
933.617	375
933.712	1091
933.807	785
933.902	687
933.997	1315
934.092	591
934.187	317
934.282	365
934.376	264
934.471	1105
934.566	307
934.661	822
934.755	422
934.850	731
934.945	960
935.039	1873
935.134	136
935.228	1534
935.323	1704
935.417	1539
935.512	811
935.606	462
935.701	1140
935.795	514
935.890	-57
935.984	1159
936.079	83
936.173	327
936.267	323
936.362	1261
936.456	960
936.550	961
936.644	959
936.738	911
936.833	878
936.927	453
937.021	903
937.115	1118
937.209	14
937.303	1535
937.397	122
937.491	802
937.585	692
937.679	945
937.773	392
937.867	756
937.961	214
938.055	540
938.149	474
938.243	717
938.337	535
938.430	841
938.524	724
938.618	441
938.712	555
938.805	846
938.899	392
938.993	601
939.086	375
939.180	77
939.274	574
939.367	423
939.461	803
939.554	529
939.648	74
939.741	296
939.835	211
939.928	865
940.022	1432
940.115	559
940.208	1043
940.302	840
940.395	266
940.488	-82
940.582	1190
940.675	43
940.768	409
940.861	1135
940.954	488
941.048	229
941.141	564
941.234	380
941.327	-38
941.420	847
941.513	373
941.606	706
941.699	308
941.792	476
941.885	183
941.978	1026
942.071	361
942.164	383
942.257	113
942.349	115
942.442	388
942.535	236
942.628	653
942.721	274
942.813	2
942.906	698
942.999	310
943.091	167
943.184	-746
943.277	253
943.369	276
943.462	468
943.554	76
943.647	-235
943.739	1054
943.832	890
943.924	-22
944.017	195
944.109	-486
944.201	747
944.294	220
944.386	345
944.478	-444
944.571	1042
944.663	145
944.755	271
944.847	867
944.940	602
945.032	-741
945.124	440
945.216	295
945.308	664
945.400	-706
945.492	365
945.584	-438
945.676	638
945.768	149
945.860	615
945.952	60
946.044	1116
946.136	-833
946.228	448
946.320	-340
946.412	1246
946.503	-8
946.595	-137
946.687	-513
946.779	336
946.870	-134
946.962	258
947.054	265
947.145	484
947.237	34
947.329	-140
947.420	77
947.512	-207
947.603	-307
947.695	-13
947.786	-1335
947.878	692
947.969	37
948.061	-298
948.152	-123
948.243	803
948.335	-229
948.426	396
948.517	-511
948.609	850
948.700	156
948.791	443
948.882	754
948.973	-18
949.065	56
949.156	429
949.247	-573
949.338	228
949.429	-1214
949.520	-92
949.611	-1100
949.702	853
949.793	-249
949.884	1082
949.975	-965
950.066	-272
950.157	-304
950.247	239
950.338	-156
950.429	-34
950.520	-207
950.611	254
950.701	-241
950.792	-81
950.883	-91
950.973	281
951.064	-980
951.155	6
951.245	308
951.336	131
951.427	-562
951.517	486
951.608	165
951.698	-478
951.788	272
951.879	-1521
951.969	489
952.060	970
952.150	-775
952.240	861
952.331	-613
952.421	999
952.511	-481
952.602	-185
952.692	-768
952.782	-85
952.872	-410
952.962	-93
953.052	382
953.143	220
953.233	-38
953.323	850
953.413	55
953.503	-119
953.593	709
953.683	569
953.773	-923
953.863	-143
953.953	-632
954.042	247
954.132	-511
954.222	475
954.312	26
954.402	-465
954.492	-317
954.581	1335
954.671	98
954.761	-599
954.850	474
954.940	-696
955.030	-118
955.119	-503
955.209	510
955.298	191
955.388	-700
955.477	542
955.567	-820
955.656	557
955.746	-13
955.835	433
955.925	-1154
956.014	-611
956.103	-1157
956.193	66
956.282	342
956.371	127
956.461	-527
956.550	-316
956.639	50
956.728	191
956.817	-816
956.906	-473
956.995	282
957.085	-612
957.174	83
957.263	428
957.352	-188
957.441	667
957.530	-38
957.619	400
957.708	-520
957.796	-488
957.885	-700
957.974	-463
958.063	-291
958.152	-379
958.241	224
958.329	-151
958.418	-414
958.507	35
958.596	-380
958.684	-509
958.773	-505
958.861	-206
958.950	-116
959.039	347
959.127	-623
959.216	81
959.304	59
959.393	147
959.481	-269
959.570	-105
959.658	476
959.746	-377
959.835	-307
959.923	738
960.011	-808
960.100	598
960.188	466
960.276	-1051
960.365	-298
960.453	-324
960.541	-478
960.629	-192
960.717	-559
960.805	-1201
960.893	-296
960.981	-487
961.069	-688
961.158	140
961.245	427
961.333	337
961.421	-945
961.509	161
961.597	376
961.685	519
961.773	-495
961.861	-383
961.949	534
962.036	-208
962.124	119
962.212	-334
962.299	-819
962.387	289
962.475	52
962.562	-673
962.650	-154
962.738	212
962.825	-339
962.913	-411
963.000	-252
963.088	507
963.175	-489
963.263	378
963.350	36
963.438	533
963.525	-596
963.612	889
963.700	1019
963.787	4240
963.874	3398
963.962	28
964.049	-241
964.136	-143
964.223	-750
964.310	71
964.398	-29
964.485	-905
964.572	24
964.659	321
964.746	457
964.833	570
964.920	427
965.007	637
965.094	-1025
965.181	-437
965.268	520
965.355	613
965.441	-783
965.528	88
965.615	-457
965.702	-531
965.789	-738
965.875	172
965.962	-670
966.049	-528
966.136	-335
966.222	-575
966.309	43
966.395	-336
966.482	246
966.569	417
966.655	-555
966.742	-63
966.828	59
966.915	255
967.001	-814
967.087	-191
967.174	-460
967.260	623
967.347	503
967.433	1419
967.519	2905
967.605	1411
967.692	287
967.778	-428
967.864	-472
967.950	-407
968.036	432
968.123	240
968.209	-16
968.295	-930
968.381	1068
968.467	213
968.553	-962
968.639	684
968.725	-1297
968.811	243
968.897	190
968.983	-57
969.069	-1212
969.154	-10
969.240	-51
969.326	-248
969.412	-263
969.497	-607
969.583	-801
969.669	392
969.755	154
969.840	-9
969.926	51
970.012	-465
970.097	354
970.183	167
970.268	-865
970.354	68
970.439	-363
970.525	3199
970.610	-353
970.696	638
970.781	-231
970.866	-117
970.952	-336
971.037	-521
971.122	319
971.208	-397
971.293	-572
971.378	-595
971.463	-340
971.549	-88
971.634	-458
971.719	235
971.804	-64
971.889	22
971.974	-626
972.059	-479
972.144	-583
972.229	681
972.314	-613
972.399	167
972.484	-912
972.569	508
972.654	-817
972.739	2037
972.824	377
972.908	335
972.993	-539
973.078	-534
973.163	-70
973.247	555
973.332	-1252
973.417	473
973.501	-812
973.586	188
973.671	-393
973.755	-75
973.840	-206
973.924	612
974.009	-210
974.093	-112
974.178	695
974.262	495
974.346	-660
974.431	-152
974.515	517
974.600	200
974.684	276
974.768	-481
974.852	891
974.937	-568
975.021	74
975.105	283
975.189	-745
975.273	70
975.358	-460
975.442	111
975.526	391
975.610	-420
975.694	-1305
975.778	526
975.862	-326
975.946	-1147
976.030	446
976.114	-236
976.198	-663
976.281	-560
976.365	-89
976.449	-47
976.533	-65
976.617	-7
976.700	134
976.784	-49
976.868	310
976.951	117
977.035	-308
977.119	625
977.202	112
977.286	-113
977.369	-606
977.453	225
977.536	-427
977.620	-800
977.703	-141
977.787	-1033
977.870	693
977.953	1039
978.037	-985
978.120	1547
978.203	22
978.287	1051
978.370	-34
978.453	-383
978.536	-788
978.620	567
978.703	330
978.786	362
978.869	-930
978.952	-658
979.035	1228
979.118	-12
979.201	-856
979.284	528
979.367	-823
979.450	1163
979.533	-515
979.616	-335
979.699	-846
979.782	115
979.865	247
979.948	1047
980.030	22
980.113	-587
980.196	-1442
980.279	278
980.361	-464
980.444	-382
980.526	-618
980.609	989
980.692	-322
980.774	485
980.857	-905
980.939	515
981.022	-67
981.104	-175
981.187	-518
981.269	288
981.352	-876
981.434	-431
981.516	-712
981.599	1485
981.681	171
981.763	194
981.846	764
981.928	201
982.010	-592
982.092	-1301
982.174	1036
982.256	-117
982.339	-1299
982.421	-436
982.503	-847
982.585	-924
982.667	857
982.749	702
982.831	-831
982.913	-871
982.995	222
983.077	-1088
983.158	56
983.240	-582
983.322	509
983.404	-198
983.486	-805
983.568	1295
983.649	-958
983.731	165
983.813	-705
983.894	428
983.976	-842
984.058	-98
984.139	351
984.221	-381
984.302	679
984.384	600
984.465	-978
984.547	-338
984.628	-832
984.710	357
984.791	-975
984.872	-418
984.954	-432
985.035	-573
985.116	-1122
985.198	-901
985.279	272
985.360	-269
985.441	-675
985.522	659
985.604	-377
985.685	-1055
985.766	268
985.847	1460
985.928	-572
986.009	36
986.090	-974
986.171	200
986.252	-584
986.333	746
986.414	-243
986.495	10
986.576	-320
986.656	91
986.737	412
986.818	221
986.899	-1299
986.980	-762
987.060	824
987.141	202
987.222	171
987.302	-562
987.383	61
987.464	231
987.544	-128
987.625	-382
987.705	240
987.786	331
987.866	-549
987.947	-937
988.027	-119
988.108	227
988.188	50
988.268	147
988.349	-209
988.429	257
988.509	-39
988.589	-140
988.670	-1669
988.750	869
988.830	-702
988.910	54
988.990	-434
989.070	-413
989.151	-276
989.231	9
989.311	333
989.391	144
989.471	-1208
989.551	-366
989.631	-572
989.711	284
989.791	-835
989.870	-829
989.950	960
990.030	-385
990.110	-175
990.190	-970
990.269	-435
990.349	-280
990.429	371
990.509	359
990.588	-95
990.668	-524
990.747	-580
990.827	44
990.907	179
990.986	124
991.066	-643
991.145	-833
991.225	40
991.304	-148
991.383	-205
991.463	-125
991.542	620
991.622	-230
991.701	-1001
991.780	-131
991.859	-99
991.939	-285
992.018	-813
992.097	-610
992.176	-868
992.256	421
992.335	-836
992.414	222
992.493	-432
992.572	-476
992.651	350
992.730	-1263
992.809	146
992.888	-1111
992.967	-249
993.046	-36
993.125	-887
993.203	-904
993.282	-383
993.361	-40
993.440	-605
993.519	-728
993.597	-178
993.676	-597
993.755	419
993.834	-662
993.912	-1078
993.991	305
994.069	-725
994.148	-333
994.226	-98
994.305	-153
994.384	-163
994.462	678
994.540	-597
994.619	-788
994.697	159
994.776	145
994.854	-705
994.932	-1080
995.011	434
995.089	-122
995.167	-368
995.245	138
995.324	-1213
995.402	291
995.480	-600
995.558	33
995.636	-692
995.714	-671
995.792	-596
995.870	-170
995.948	54
996.026	-419
996.104	-1305
996.182	455
996.260	-989
996.338	-216
996.416	-1708
996.494	-829
996.572	152
996.649	-460
996.727	-1224
996.805	-574
996.883	-765
996.960	-421
997.038	-442
997.116	794
997.193	-1881
997.271	611
997.348	-856
997.426	-426
997.504	-204
997.581	-43
997.658	366
997.736	-888
997.813	-1432
997.891	-700
997.968	-541
998.046	384
998.123	-942
998.200	107
998.277	-995
998.355	-481
998.432	-1300
998.509	-391
998.586	-70
998.663	-338
998.741	-721
998.818	200
998.895	-853
998.972	-750
999.049	-443
999.126	-966
999.203	-374
999.280	-706
999.357	-473
999.434	-793
999.511	-94
999.587	-151
999.664	-1164
999.741	371
999.818	-587
999.895	-813
999.971	-1422
1000.048	-274
1000.125	742
1000.202	-1039
1000.278	-692
1000.355	9
1000.431	-333
1000.508	-117
1000.584	-828
1000.661	-72
1000.738	-554
1000.814	-464
1000.890	-255
1000.967	-568
1001.043	-886
1001.120	-892
1001.196	-353
1001.272	-1301
1001.349	-676
1001.425	-86
1001.501	-353
1001.577	-696
1001.654	-438
1001.730	-544
1001.806	-902
1001.882	-880
1001.958	-449
1002.034	-366
1002.110	-411
1002.186	-788
1002.262	-708
1002.338	-1380
1002.414	-364
1002.490	-199
1002.566	-930
1002.642	-231
1002.718	-103
1002.794	-644
1002.870	-296
1002.945	-450
1003.021	-33
1003.097	-686
1003.173	-227
1003.248	-701
1003.324	-469
1003.400	-102
1003.475	-623
1003.551	81
1003.626	-1160
1003.702	-897
1003.777	-220
1003.853	-720
1003.928	-657
1004.004	-1194
1004.079	-79
1004.155	-342
1004.230	-1773
1004.305	-230
1004.381	-1157
1004.456	-541
1004.531	-1224
1004.607	-740
1004.682	-346
1004.757	-99
1004.832	-560
1004.907	-283
1004.982	-442
1005.057	-504
1005.133	-1113
1005.208	-63
1005.283	-1097
1005.358	199
1005.433	-970
1005.508	399
1005.583	-1025
1005.657	-549
1005.732	100
1005.807	-698
1005.882	-446
1005.957	-170
1006.032	-1278
1006.106	-111
1006.181	-745
1006.256	278
1006.331	-1330
1006.405	-656
1006.480	-797
1006.554	-418
1006.629	-700
1006.704	-1277
1006.778	-113
1006.853	-352
1006.927	-2024
1007.002	-1295
1007.076	-1354
1007.150	313
1007.225	-1061
1007.299	-122
1007.373	-1340
1007.448	-660
1007.522	352
1007.596	-607
1007.671	-1143
1007.745	-576
1007.819	-1890
1007.893	-319
1007.967	-334
1008.041	-1006
1008.115	-840
1008.190	-1121
1008.264	-625
1008.338	-1837
1008.412	-684
1008.486	-85
1008.560	-1034
1008.633	-1401
1008.707	-1091
1008.781	-542
1008.855	-1379
1008.929	-403
1009.003	-1476
1009.076	-1530
1009.150	-1635
1009.224	-440
1009.298	-308
1009.371	-2183
1009.445	-290
1009.519	-247
1009.592	-737
1009.666	59
1009.739	-962
1009.813	-1414
1009.886	174
1009.960	-1244
1010.033	-392
1010.107	-91
1010.180	-1656
1010.253	-250
1010.327	-1177
1010.400	-863
1010.473	-1479
1010.547	541
1010.620	-1201
1010.693	-754
1010.766	-1647
1010.840	-763
1010.913	-1125
1010.986	-869
1011.059	-583
1011.132	-1056
1011.205	-29
1011.278	-834
1011.351	-1418
1011.424	-614
1011.497	-948
1011.570	-153
1011.643	-1167
1011.716	-478
1011.789	-1115
1011.862	-323
1011.934	-441
1012.007	-1194
1012.080	-862
1012.153	-497
1012.225	-531
1012.298	-622
1012.371	-1503
1012.443	-119
1012.516	-2080
1012.588	13
1012.661	-1259
1012.733	-1308
1012.806	-113
1012.879	-780
1012.951	-257
1013.023	-616
1013.096	-1291
1013.168	-1072
1013.241	-530
1013.313	-227
1013.385	-973
1013.458	-761
1013.530	-766
1013.602	-718
1013.674	28
1013.746	-515
1013.819	-2036
1013.891	-779
1013.963	-1219
1014.035	-637
1014.107	-1647
1014.179	-265
1014.251	-385
1014.323	829
1014.395	-779
1014.467	-950
1014.539	-1410
1014.611	-312
1014.683	-726
1014.754	-472
1014.826	-1389
1014.898	-125
1014.970	-1518
1015.042	194
1015.113	-836
1015.185	-858
1015.257	-924
1015.328	208
1015.400	-1963
1015.471	-84
1015.543	-1051
1015.615	-1130
1015.686	-1581
1015.757	-829
1015.829	-1027
1015.901	-577
1015.972	-401
1016.043	-1016
1016.115	-736
1016.186	-44
1016.257	-1669
1016.328	181
1016.400	-636
1016.471	-994
1016.542	-969
1016.613	-638
1016.685	-712
1016.756	-23
1016.827	-1225
1016.898	-861
1016.969	-762
1017.040	-1157
1017.111	-1652
1017.182	-650
1017.253	-960
1017.324	-1093
1017.395	-858
1017.466	-239
1017.537	-1161
1017.608	-944
1017.678	-740
1017.749	-836
1017.820	-402
1017.891	-764
1017.961	-1295
1018.032	-36
1018.103	-823
1018.173	-871
1018.244	-1103
1018.315	-999
1018.385	-622
1018.456	-788
1018.526	-1280
1018.597	-937
1018.667	-1032
1018.738	-315
1018.808	-874
1018.878	-700
1018.949	-307
1019.019	54
1019.089	-1751
1019.160	-167
1019.230	-968
1019.300	-908
1019.371	-1277
1019.441	339
1019.511	-554
1019.581	-261
1019.651	-1016
1019.721	79
1019.791	-634
1019.861	-241
1019.931	-826
1020.001	-248
1020.071	-552
1020.141	-646
1020.211	-1169
1020.281	-1302
1020.351	-480
1020.421	-129
1020.491	-63
1020.560	-651
1020.630	-1276
1020.700	-53
1020.770	-1665
1020.839	-284
1020.909	-1195
1020.979	-1460
1021.048	-609
1021.118	-719
1021.187	-1296
1021.257	-930
1021.326	-194
1021.396	-922
1021.465	-596
1021.535	-517
1021.604	-1204
1021.674	-303
1021.743	-714
1021.812	-329
1021.882	-1113
1021.951	-213
1022.020	-712
1022.089	-1092
1022.159	-1250
1022.228	-387
1022.297	-1291
1022.366	-1019
1022.435	-1455
1022.504	-1134
1022.573	-1528
1022.642	-341
1022.711	-1103
1022.781	-602
1022.849	-422
1022.918	-1077
1022.987	-453
1023.056	-948
1023.125	-1223
1023.194	-590
1023.263	-678
1023.331	90
1023.400	-1427
1023.469	-1104
1023.538	-748
1023.606	-610
1023.675	-936
1023.744	-1356
1023.812	-1012
1023.881	-24
1023.949	-709
1024.018	-496
1024.086	-752
1024.155	-211
1024.223	-1058
1024.292	-339
1024.360	-746
1024.429	-1143
1024.497	-970
1024.565	-1015
1024.634	-973
1024.702	-612
1024.770	-1351
1024.838	-1252
1024.907	-722
1024.975	-409
1025.043	-615
1025.111	-1010
1025.179	-425
1025.247	-1261
1025.315	-679
1025.383	-1271
1025.451	-698
1025.519	-629
1025.587	-1325
1025.655	-655
1025.723	-305
1025.791	-866
1025.859	-1012
1025.927	-104
1025.995	-696
1026.062	-860
1026.130	-1031
1026.198	-389
1026.266	-1063
1026.333	-324
1026.401	-1133
1026.469	-859
1026.536	-1314
1026.604	-633
1026.671	-711
1026.739	-661
1026.806	-1284
1026.874	11
1026.941	-1438
1027.009	269
1027.076	-1029
1027.144	38
1027.211	-1243
1027.278	-660
1027.345	-1192
1027.413	-708
1027.480	-869
1027.547	-821
1027.614	-1564
1027.682	-798
1027.749	-350
1027.816	-932
1027.883	-1045
1027.950	67
1028.017	-1213
1028.084	-551
1028.151	-529
1028.218	-838
1028.285	-352
1028.352	-367
1028.419	-1540
1028.486	-368
1028.553	-849
1028.619	-605
1028.686	-659
1028.753	-802
1028.820	-1145
1028.886	172
1028.953	-530
1029.020	-722
1029.086	-375
1029.153	-572
1029.220	-1494
1029.286	-593
1029.353	-1142
1029.419	-760
1029.486	-616
1029.552	-979
1029.619	-1325
1029.685	-566
1029.751	-1326
1029.818	495
1029.884	-701
1029.951	-181
1030.017	-1065
1030.083	-382
1030.149	-1162
1030.216	-1096
1030.282	-1017
1030.348	-334
1030.414	-1681
1030.480	-330
1030.546	-1076
1030.612	45
1030.678	-2069
1030.744	-1081
1030.810	-717
1030.876	-169
1030.942	-604
1031.008	-168
1031.074	-682
1031.140	-727
1031.206	-408
1031.272	-761
1031.337	-666
1031.403	538
1031.469	-779
1031.534	-648
1031.600	-1328
1031.666	-878
1031.731	-1030
1031.797	-563
1031.863	-542
1031.928	-806
1031.994	-841
1032.059	-755
1032.125	-1196
1032.190	-992
1032.256	-979
1032.321	-359
1032.386	-668
1032.452	-374
1032.517	-1038
1032.582	-972
1032.647	-1125
1032.713	-300
1032.778	-1044
1032.843	-271
1032.908	-1447
1032.974	-47
1033.039	-905
1033.104	-832
1033.169	-1047
1033.234	-490
1033.299	-705
1033.364	-383
1033.429	-1361
1033.494	-1168
1033.559	-111
1033.624	-400
1033.688	-1159
1033.753	-1164
1033.818	-1049
1033.883	-210
1033.948	-1026
1034.013	-665
1034.077	-816
1034.142	511
1034.207	-1107
1034.271	-505
1034.336	-462
1034.400	214
1034.465	-299
1034.530	-606
1034.594	-617
1034.658	-1066
1034.723	-470
1034.787	-525
1034.852	-918
1034.916	-346
1034.981	-1341
1035.045	102
1035.109	-128
1035.173	-694
1035.238	-860
1035.302	-1228
1035.366	-605
1035.430	-751
1035.495	-1481
1035.559	-544
1035.623	-841
1035.687	-352
1035.751	-254
1035.815	-490
1035.879	-985
1035.943	-301
1036.007	-632
1036.071	-746
1036.135	-993
1036.198	-955
1036.262	-807
1036.326	-573
1036.390	-991
1036.454	-507
1036.517	-899
1036.581	-700
1036.645	197
1036.709	-785
1036.772	-1554
1036.836	-438
1036.900	-654
1036.963	-1142
1037.026	-1151
1037.090	-806
1037.154	-1047
1037.217	-746
1037.280	-1168
1037.344	-534
1037.407	-1419
1037.471	-436
1037.534	-1183
1037.597	-908
1037.661	-1384
1037.724	-1365
1037.787	-703
1037.850	-1171
1037.913	-1417
1037.977	-488
1038.040	-525
1038.103	-927
1038.166	-873
1038.229	-380
1038.292	-1322
1038.355	-785
1038.418	-996
1038.481	-433
1038.544	-856
1038.607	-518
1038.670	-1165
1038.732	-334
1038.795	-748
1038.858	-931
1038.921	-1454
1038.984	216
1039.046	-993
1039.109	-1173
1039.172	-788
1039.234	-474
1039.297	-1249
1039.360	-1088
1039.422	-1419
1039.485	-705
1039.547	-1176
1039.610	-1198
1039.672	-930
1039.734	-389
1039.797	-1155
1039.859	-424
1039.922	-1656
1039.984	-973
1040.046	-851
1040.109	-1145
1040.171	-1503
1040.233	-793
1040.295	-1101
1040.358	-1109
1040.420	-807
1040.482	-830
1040.544	-933
1040.606	-866
1040.668	-1173
1040.730	-881
1040.792	-714
1040.854	-1171
1040.916	-983
1040.978	-832
1041.040	-468
1041.102	-1304
1041.164	-796
1041.225	-907
1041.287	-1824
1041.349	-951
1041.411	-858
1041.472	-1026
1041.534	-1431
1041.596	-1515
1041.657	-1255
1041.719	-425
1041.781	-1145
1041.842	-1030
1041.904	-2293
1041.965	-908
1042.027	-810
1042.088	-533
1042.150	-773
1042.211	-881
1042.272	-797
1042.334	-841
1042.395	-818
1042.456	-892
1042.518	-1433
1042.579	-480
1042.640	-1585
1042.701	-1082
1042.763	-442
1042.824	-127
1042.885	-1647
1042.946	246
1043.007	-634
1043.068	-1433
1043.129	-1075
1043.190	-518
1043.251	-1535
1043.312	-1216
1043.373	-417
1043.434	-693
1043.495	-1200
1043.556	-664
1043.616	-1733
1043.677	-753
1043.738	-624
1043.799	-812
1043.859	-689
1043.920	-749
1043.981	-1178
1044.041	-604
1044.102	-897
1044.162	-1193
1044.223	-1602
1044.284	-1149
1044.344	-1352
1044.405	-849
1044.465	-1950
1044.525	-1041
1044.586	-1331
1044.646	-830
1044.707	-1044
1044.767	-623
1044.827	-939
1044.887	-506
1044.948	-615
1045.008	-530
1045.068	-1407
1045.128	-578
1045.188	-935
1045.249	-398
1045.309	-799
1045.369	-582
1045.429	-1273
1045.489	-866
1045.549	-689
1045.609	-313
1045.669	-582
1045.729	-1454
1045.789	-1028
1045.848	-310
1045.908	-845
1045.968	-41
1046.028	-954
1046.088	249
1046.147	-750
1046.207	-1013
1046.267	-261
1046.326	-794
1046.386	-522
1046.446	-96
1046.505	-142
1046.565	-94
1046.624	-274
1046.684	384
1046.743	-570
1046.803	-172
1046.862	452
1046.922	0
