'Start Wavelength	183.907
'End Wavelength	1046.922
'Gate Delay	5.000
'Gate Width (ms)	1.050
'Laser Output Level	0.000
'X Position	0.000
'Y Position	0.000
'Z Position	0.000
'Grid Point Number	1.000
'Shot Number	100.000
183.907	-256.000
183.977	649.000
184.047	-8
184.116	368
184.186	-16
184.256	276
184.325	-210
184.395	228
184.465	-40
184.534	203
184.604	-378
184.674	420
184.743	-210
184.813	-286
184.883	-254
184.952	469
185.022	-13
185.092	672
185.161	-182
185.231	388
185.301	54
185.370	484
185.440	-731
185.509	767
185.579	-447
185.649	416
185.718	-177
185.788	1148
185.857	-282
185.927	208
185.996	-176
186.066	717
186.136	430
186.205	50
186.275	-141
186.344	616
186.414	-364
186.483	209
186.553	225
186.622	830
186.692	-77
186.761	675
186.831	-280
186.900	146
186.970	-37
187.039	535
187.109	285
187.178	381
187.248	-150
187.317	431
187.387	-354
187.456	493
187.526	232
187.595	891
187.664	-190
187.734	1170
187.803	782
187.873	620
187.942	162
188.012	656
188.081	-129
188.150	-218
188.220	-178
188.289	726
188.358	-44
188.428	-89
188.497	-336
188.567	391
188.636	253
188.705	248
188.775	-711
188.844	140
188.913	-209
188.983	1305
189.052	397
189.121	373
189.191	-149
189.260	598
189.329	253
189.399	54
189.468	330
189.537	586
189.606	-43
189.676	280
189.745	876
189.814	475
189.883	-88
189.953	145
190.022	384
190.091	1527
190.161	938
190.230	260
190.299	32
190.368	489
190.437	-183
190.507	672
190.576	-401
190.645	606
190.714	-170
190.783	383
190.853	-146
190.922	103
190.991	-176
191.060	813
191.129	245
191.198	152
191.268	-188
191.337	-180
191.406	410
191.475	-307
191.544	-91
191.613	-543
191.682	5
191.752	308
191.821	-715
191.890	263
191.959	-303
192.028	992
192.097	-46
192.166	1207
192.235	262
192.304	458
192.373	116
192.442	227
192.511	225
192.580	527
192.650	-166
192.719	328
192.788	-23
192.857	485
192.926	164
192.995	1239
193.064	1025
193.133	463
193.202	994
193.271	1319
193.340	1150
193.409	1068
193.478	1103
193.547	1775
193.615	1017
193.684	1102
193.753	416
193.822	952
193.891	137
193.960	703
194.029	179
194.098	907
194.167	483
194.236	343
194.305	-366
194.374	359
194.443	644
194.512	484
194.580	-124
194.649	-81
194.718	525
194.787	658
194.856	-447
194.925	1136
194.994	580
195.062	437
195.131	555
195.200	647
195.269	337
195.338	771
195.407	187
195.475	807
195.544	203
195.613	506
195.682	140
195.751	1490
195.819	593
195.888	606
195.957	817
196.026	690
196.094	687
196.163	1015
196.232	601
196.301	402
196.369	872
196.438	849
196.507	630
196.576	770
196.644	-107
196.713	-47
196.782	464
196.850	740
196.919	708
196.988	260
197.056	508
197.125	1241
197.194	911
197.262	939
197.331	-409
197.400	428
197.468	845
197.537	709
197.606	1383
197.674	1982
197.743	1131
197.812	431
197.880	1625
197.949	1030
198.017	1798
198.086	1132
198.155	438
198.223	1157
198.292	1562
198.360	1121
198.429	561
198.497	716
198.566	1588
198.635	1595
198.703	1169
198.772	1803
198.840	1972
198.909	1315
198.977	634
199.046	984
199.114	651
199.183	703
199.251	410
199.320	1414
199.388	179
199.457	391
199.525	119
199.594	153
199.662	622
199.731	845
199.799	-318
199.867	1347
199.936	672
200.004	656
200.073	713
200.141	1380
200.210	-149
200.278	933
200.346	551
200.415	538
200.483	315
200.552	490
200.620	46
200.688	309
200.757	214
200.825	607
200.893	470
200.962	451
201.030	331
201.098	492
201.167	1035
201.235	796
201.303	809
201.372	589
201.440	291
201.508	846
201.577	390
201.645	296
201.713	299
201.781	178
201.850	263
201.918	709
201.986	418
202.055	939
202.123	834
202.191	832
202.259	484
202.327	1131
202.396	223
202.464	1079
202.532	1008
202.600	2096
202.669	328
202.737	1167
202.805	185
202.873	416
202.941	621
203.009	1747
203.078	813
203.146	927
203.214	705
203.282	674
203.350	-151
203.418	1140
203.487	302
203.555	400
203.623	885
203.691	948
203.759	-263
203.827	243
203.895	295
203.963	447
204.031	1059
204.099	551
204.168	731
204.236	1531
204.304	459
204.372	1232
204.440	846
204.508	846
204.576	181
204.644	1136
204.712	74
204.780	547
204.848	686
204.916	643
204.984	484
205.052	1267
205.120	557
205.188	986
205.256	133
205.324	976
205.392	755
205.460	1266
205.528	-190
205.596	1168
205.664	800
205.732	1628
205.799	3742
205.867	3011
205.935	1455
206.003	1223
206.071	207
206.139	864
206.207	534
206.275	1170
206.343	422
206.411	535
206.478	-3
206.546	899
206.614	664
206.682	1002
206.750	688
206.818	1133
206.885	925
206.953	757
207.021	1054
207.089	1773
207.157	1062
207.225	1256
207.292	156
207.360	845
207.428	1029
207.496	881
207.563	382
207.631	1271
207.699	167
207.767	1821
207.834	542
207.902	1587
207.970	659
208.038	1737
208.105	1419
208.173	1587
208.241	1235
208.309	1075
208.376	1045
208.444	2389
208.512	951
208.579	1222
208.647	1661
208.715	1306
208.782	1077
208.850	1477
208.918	587
208.985	1815
209.053	1405
209.120	1098
209.188	1310
209.256	1221
209.323	951
209.391	1560
209.459	1064
209.526	2069
209.594	468
209.661	1364
209.729	974
209.796	1202
209.864	1290
209.932	916
209.999	1448
210.067	1533
210.134	1436
210.202	1723
210.269	1539
210.337	834
210.404	1057
210.472	1548
210.539	1134
210.607	1545
210.674	1351
210.742	1020
210.809	821
210.877	2176
210.944	1527
211.012	1692
211.079	2436
211.146	1352
211.214	1061
211.281	1470
211.349	868
211.416	1664
211.484	1022
211.551	1769
211.618	942
211.686	1589
211.753	1244
211.821	1968
211.888	994
211.955	1073
212.023	1676
212.090	1656
212.157	839
212.225	1914
212.292	3286
212.359	6165
212.427	8969
212.494	4291
212.561	1924
212.629	2323
212.696	1569
212.763	1750
212.831	1564
212.898	2557
212.965	1584
213.032	1297
213.100	1774
213.167	1381
213.234	1553
213.301	2110
213.369	1253
213.436	2269
213.503	1914
213.570	2046
213.638	1696
213.705	1760
213.772	1742
213.839	2804
213.906	1573
213.973	2405
214.041	1099
214.108	1860
214.175	1402
214.242	1324
214.309	1633
214.376	2424
214.444	1074
214.511	1569
214.578	1801
214.645	2111
214.712	1490
214.779	1768
214.846	1478
214.913	2290
214.980	2280
215.048	2599
215.115	2429
215.182	2062
215.249	1592
215.316	1896
215.383	1915
215.450	1827
215.517	1667
215.584	1765
215.651	1181
215.718	1719
215.785	1793
215.852	2190
215.919	1554
215.986	2068
216.053	1579
216.120	1741
216.187	1213
216.254	1845
216.321	1651
216.388	1962
216.455	1740
216.522	2103
216.589	1367
216.656	2886
216.722	2551
216.789	3395
216.856	3141
216.923	2673
216.990	1651
217.057	2550
217.124	3052
217.191	2528
217.258	3692
217.324	4443
217.391	4223
217.458	3399
217.525	2191
217.592	2939
217.659	1609
217.725	2578
217.792	3164
217.859	2019
217.926	1005
217.993	1796
218.059	707
218.126	1778
218.193	1078
218.260	1766
218.327	1183
218.393	1380
218.460	1742
218.527	1241
218.594	1461
218.660	2691
218.727	1980
218.794	1051
218.860	819
218.927	971
218.994	1314
219.061	1268
219.127	970
219.194	2117
219.261	757
219.327	1370
219.394	661
219.461	1374
219.527	796
219.594	1495
219.661	1192
219.727	481
219.794	1475
219.860	1670
219.927	786
219.994	3198
220.060	2443
220.127	2523
220.193	2549
220.260	2652
220.326	3866
220.393	6405
220.460	6553
220.526	4629
220.593	2999
220.659	3513
220.726	4021
220.792	7200
220.859	6938
220.925	9769
220.992	10568
221.058	10536
221.125	7766
221.191	5915
221.258	2790
221.324	2540
221.391	2063
221.457	2483
221.524	2345
221.590	3347
221.657	6875
221.723	4035
221.789	4601
221.856	4026
221.922	2567
221.989	1963
222.055	1638
222.121	1214
222.188	1834
222.254	1837
222.321	891
222.387	1128
222.453	1520
222.520	1426
222.586	1083
222.652	1675
222.719	1346
222.785	1394
222.851	1118
222.918	1301
222.984	1301
223.050	1412
223.116	90
223.183	1376
223.249	1388
223.315	1247
223.382	980
223.448	1286
223.514	214
223.580	907
223.647	839
223.713	1451
223.779	471
223.845	1492
223.911	643
223.978	277
224.044	821
224.110	607
224.176	1282
224.242	999
224.309	167
224.375	1225
224.441	837
224.507	1602
224.573	555
224.639	1363
224.705	722
224.772	491
224.838	1310
224.904	1540
224.970	695
225.036	1289
225.102	1263
225.168	1223
225.234	1500
225.300	589
225.366	434
225.432	1270
225.499	977
225.565	1094
225.631	1755
225.697	1548
225.763	2078
225.829	2065
225.895	2236
225.961	2925
226.027	2668
226.093	2986
226.159	4084
226.225	6446
226.291	13105
226.357	14958
226.423	8350
226.489	4831
226.554	3421
226.620	3622
226.686	3971
226.752	6972
226.818	13383
226.884	20662
226.950	14954
227.016	7244
227.082	4205
227.148	3317
227.214	3202
227.279	3096
227.345	2322
227.411	2473
227.477	1611
227.543	3012
227.609	3129
227.674	2724
227.740	1625
227.806	1670
227.872	1440
227.938	2400
228.003	2585
228.069	1384
228.135	606
228.201	2271
228.267	811
228.332	1437
228.398	1076
228.464	1483
228.530	515
228.595	1405
228.661	1640
228.727	2123
228.792	981
228.858	1731
228.924	389
228.990	2700
229.055	1368
229.121	1919
229.187	1067
229.252	1835
229.318	788
229.384	795
229.449	1175
229.515	1122
229.581	-180
229.646	1978
229.712	815
229.777	2921
229.843	2335
229.909	2452
229.974	2804
230.040	3233
230.105	1871
230.171	2868
230.236	2962
230.302	4573
230.368	3186
230.433	2471
230.499	1503
230.564	3172
230.630	1441
230.695	1189
230.761	1771
230.826	854
230.892	1624
230.957	1404
231.023	1069
231.088	1531
231.154	1143
231.219	1791
231.284	1865
231.350	1699
231.415	1231
231.481	1556
231.546	947
231.612	1560
231.677	1169
231.742	622
231.808	1066
231.873	1457
231.939	300
232.004	2690
232.069	1394
232.135	1252
232.200	1507
232.265	1837
232.331	1077
232.396	937
232.461	823
232.527	831
232.592	63
232.657	1284
232.723	1560
232.788	1216
232.853	980
232.918	1015
232.984	258
233.049	789
233.114	1749
233.179	1447
233.245	2814
233.310	2690
233.375	446
233.440	1316
233.506	587
233.571	606
233.636	1005
233.701	1137
233.766	2277
233.832	2482
233.897	1192
233.962	1390
234.027	702
234.092	1291
234.157	1435
234.222	1403
234.288	1986
234.353	6419
234.418	4524
234.483	3543
234.548	1792
234.613	1671
234.678	2463
234.743	3025
234.808	6873
234.873	3374
234.938	1981
235.004	2068
235.069	1675
235.134	1564
235.199	1485
235.264	1235
235.329	1473
235.394	1941
235.459	1162
235.524	1691
235.589	1311
235.654	1937
235.719	1261
235.784	2352
235.849	2313
235.913	3631
235.978	4001
236.043	4485
236.108	2324
236.173	1933
236.238	1772
236.303	1763
236.368	1286
236.433	4017
236.498	4619
236.563	4977
236.627	10771
236.692	25364
236.757	17209
236.822	8178
236.887	6003
236.952	5152
237.017	3992
237.081	4955
237.146	6866
237.211	15533
237.276	27514
237.341	32008
237.405	15487
237.470	8250
237.535	5425
237.600	4224
237.664	3243
237.729	2821
237.794	4961
237.859	8211
237.923	4628
237.988	2461
238.053	3964
238.118	4105
238.182	10284
238.247	5869
238.312	2959
238.376	3011
238.441	1476
238.506	2722
238.570	658
238.635	1837
238.700	2167
238.764	1400
238.829	4582
238.893	4154
238.958	2589
239.023	2975
239.087	1511
239.152	1870
239.216	799
239.281	2086
239.346	1485
239.410	1536
239.475	2071
239.539	9655
239.604	4091
239.668	2375
239.733	848
239.797	2303
239.862	3757
239.926	5449
239.991	2515
240.055	1711
240.120	1577
240.184	2116
240.249	333
240.313	1139
240.378	1481
240.442	6535
240.507	6849
240.571	2817
240.635	3956
240.700	3731
240.764	1627
240.829	1029
240.893	809
240.957	1440
241.022	5799
241.086	8068
241.151	2163
241.215	1388
241.279	3276
241.344	3929
241.408	2698
241.472	2240
241.537	2282
241.601	2531
241.665	1156
241.730	1724
241.794	2513
241.858	2382
241.922	1760
241.987	2146
242.051	1617
242.115	1692
242.179	508
242.244	1303
242.308	2308
242.372	2331
242.436	1410
242.501	2483
242.565	811
242.629	1455
242.693	1818
242.757	2116
242.822	702
242.886	2408
242.950	1901
243.014	2183
243.078	1462
243.142	2604
243.206	1712
243.271	2342
243.335	2044
243.399	4369
243.463	18367
243.527	29818
243.591	7558
243.655	4192
243.719	2316
243.783	3185
243.847	4503
243.911	6095
243.975	5176
244.040	3385
244.104	2775
244.168	2357
244.232	3129
244.296	4840
244.360	3953
244.424	2623
244.488	2068
244.552	2309
244.615	1471
244.679	1528
244.743	1930
244.807	2001
244.871	1403
244.935	1586
244.999	361
245.063	1297
245.127	1526
245.191	5077
245.255	3123
245.319	1959
245.383	1435
245.446	2492
245.510	1172
245.574	1633
245.638	1754
245.702	2073
245.766	4916
245.829	2820
245.893	1892
245.957	2166
246.021	2632
246.085	2004
246.149	2057
246.212	6078
246.276	6387
246.340	3130
246.404	2408
246.467	3364
246.531	3446
246.595	3342
246.659	2766
246.722	2117
246.786	2286
246.850	4085
246.913	3673
246.977	1484
247.041	1854
247.104	2289
247.168	2599
247.232	7002
247.295	9811
247.359	4880
247.423	2054
247.486	4478
247.550	2157
247.614	2582
247.677	2809
247.741	2109
247.804	2134
247.868	2651
247.932	6248
247.995	9132
248.059	2756
248.122	1045
248.186	2778
248.249	7107
248.313	18476
248.376	14480
248.440	9269
248.503	2588
248.567	3783
248.630	6346
248.694	6068
248.757	10743
248.821	17070
248.884	9551
248.948	10471
249.011	14268
249.075	21867
249.138	14742
249.202	6758
249.265	5270
249.328	6289
249.392	4324
249.455	3897
249.519	3901
249.582	3708
249.645	6219
249.709	4231
249.772	5016
249.835	3776
249.899	3782
249.962	2635
250.025	3143
250.089	8684
250.152	7796
250.215	4512
250.279	3475
250.342	4124
250.405	3568
250.468	3474
250.532	5701
250.595	9500
250.658	39461
250.721	40447
250.785	14454
250.848	8999
250.911	5532
250.974	5250
251.038	8390
251.101	10654
251.164	6792
251.227	6907
251.290	6745
251.354	14239
251.417	48451
251.480	34158
251.543	35791
251.606	75011
251.669	45107
251.732	20014
251.795	19708
251.859	23563
251.922	48371
251.985	20762
252.048	10601
252.111	6834
252.174	7720
252.237	13526
252.300	22361
252.363	34408
252.426	52817
252.489	18770
252.552	10930
252.615	7699
252.678	9663
252.741	19945
252.804	35190
252.867	56605
252.930	28406
252.993	14874
253.056	9833
253.119	7715
253.182	7683
253.245	11692
253.308	7993
253.371	6256
253.434	5542
253.497	6397
253.559	10328
253.622	6699
253.685	9751
253.748	6048
253.811	4403
253.874	6087
253.937	4446
254.000	3522
254.062	8241
254.125	9073
254.188	12277
254.251	6444
254.314	3923
254.376	7684
254.439	7018
254.502	5981
254.565	8525
254.628	9917
254.690	6036
254.753	2831
254.816	3402
254.878	4196
254.941	9350
255.004	5697
255.067	3000
255.129	2360
255.192	1972
255.255	992
255.317	2866
255.380	1669
255.443	1726
255.505	767
255.568	951
255.631	2029
255.693	2130
255.756	925
255.819	2708
255.881	1214
255.944	1957
256.006	631
256.069	1111
256.132	996
256.194	2687
256.257	6076
256.319	4707
256.382	2851
256.444	2786
256.507	2310
256.569	2403
256.632	2306
256.694	5196
256.757	20121
256.819	38456
256.882	12555
256.944	5464
257.007	5115
257.069	3955
257.132	4154
257.194	3283
257.257	3314
257.319	2828
257.381	3965
257.444	15761
257.506	52231
257.569	41998
257.631	18813
257.693	9459
257.756	5472
257.818	4512
257.880	3067
257.943	3028
258.005	1968
258.067	3704
258.130	1740
258.192	2864
258.254	5097
258.317	2555
258.379	2503
258.441	7672
258.503	5336
258.566	10112
258.628	8593
258.690	2210
258.753	3158
258.815	4113
258.877	2009
258.939	2563
259.001	3162
259.064	3006
259.126	2446
259.188	4043
259.250	2908
259.312	4350
259.375	10056
259.437	4373
259.499	2360
259.561	2682
259.623	1287
259.685	2497
259.747	2579
259.809	10807
259.872	13381
259.934	26093
259.996	16827
260.058	4758
260.120	2202
260.182	3396
260.244	1823
260.306	1889
260.368	1863
260.430	1225
260.492	6543
260.554	10965
260.616	5168
260.678	14848
260.740	10947
260.802	3009
260.864	2914
260.926	2638
260.988	2208
261.050	3395
261.112	10893
261.174	20620
261.236	7982
261.298	3762
261.359	7630
261.421	7357
261.483	1897
261.545	2277
261.607	937
261.669	1525
261.731	5771
261.793	8916
261.854	3084
261.916	3222
261.978	2867
262.040	2831
262.102	1834
262.164	4297
262.225	2744
262.287	2275
262.349	4793
262.411	3395
262.472	2005
262.534	6192
262.596	7317
262.658	2859
262.719	1760
262.781	3969
262.843	7547
262.904	2825
262.966	3056
263.028	4694
263.090	29246
263.151	45493
263.213	13203
263.275	6217
263.336	3269
263.398	2721
263.459	1970
263.521	1820
263.583	5783
263.644	3035
263.706	1280
263.767	461
263.829	828
263.891	887
263.952	418
264.014	610
264.075	5664
264.137	9420
264.198	2680
264.260	1475
264.321	1253
264.383	7759
264.444	13217
264.506	3893
264.567	2133
264.629	9273
264.690	11618
264.752	3688
264.813	2193
264.875	1995
264.936	1746
264.998	2195
265.059	1176
265.120	1614
265.182	4811
265.243	29043
265.305	16813
265.366	3854
265.427	2347
265.489	3056
265.550	1018
265.611	2501
265.673	1451
265.734	1179
265.795	1200
265.857	1226
265.918	1924
265.979	9084
266.040	42517
266.102	22173
266.163	7106
266.224	4955
266.286	3262
266.347	1820
266.408	1899
266.469	2172
266.530	534
266.592	649
266.653	3321
266.714	4679
266.775	56
266.836	1143
266.898	1050
266.959	4230
267.020	1455
267.081	1303
267.142	795
267.203	1121
267.264	547
267.326	1974
267.387	775
267.448	1011
267.509	1110
267.570	734
267.631	937
267.692	420
267.753	1266
267.814	958
267.875	4486
267.936	5734
267.997	5047
268.058	3625
268.119	1503
268.180	1602
268.241	775
268.302	1358
268.363	1474
268.424	719
268.485	1117
268.546	146
268.607	236
268.668	711
268.729	108
268.790	822
268.851	1646
268.912	5125
268.972	3042
269.033	1642
269.094	-448
269.155	1389
269.216	1246
269.277	1824
269.338	803
269.398	1757
269.459	527
269.520	2537
269.581	2080
269.642	2619
269.702	1224
269.763	1982
269.824	1607
269.885	1922
269.945	2445
270.006	1274
270.067	60
270.128	864
270.188	289
270.249	979
270.310	850
270.370	1086
270.431	1139
270.492	109
270.553	1280
270.613	3376
270.674	5656
270.734	1849
270.795	751
270.856	2616
270.916	341
270.977	1062
271.038	1913
271.098	1940
271.159	2844
271.219	2172
271.280	1479
271.340	967
271.401	1196
271.462	3947
271.522	2127
271.583	1031
271.643	1498
271.704	965
271.764	2140
271.825	5327
271.885	18852
271.946	15969
272.006	4683
272.066	11593
272.127	12707
272.187	4034
272.248	1716
272.308	3519
272.369	11701
272.429	4757
272.489	5116
272.550	3671
272.610	5487
272.671	2895
272.731	4792
272.791	5000
272.852	1738
272.912	2885
272.972	1235
273.033	2044
273.093	2877
273.153	2907
273.214	1691
273.274	2519
273.334	13146
273.394	14693
273.455	5206
273.515	8997
273.575	13283
273.635	5334
273.696	8923
273.756	13167
273.816	3455
273.876	4052
273.936	10838
273.997	12111
274.057	2581
274.117	2933
274.177	4975
274.237	24257
274.297	14777
274.358	10296
274.418	12586
274.478	8138
274.538	3031
274.598	3264
274.658	13395
274.718	12040
274.778	3295
274.838	2361
274.898	10134
274.958	19946
275.018	15708
275.078	7840
275.138	2941
275.198	2397
275.258	1145
275.318	3548
275.378	4225
275.438	3881
275.498	3116
275.558	13632
275.618	17954
275.678	8839
275.738	6897
275.798	5099
275.858	2883
275.918	1994
275.978	1175
276.038	2003
276.098	1249
276.157	5784
276.217	9690
276.277	3997
276.337	1887
276.397	1836
276.457	1683
276.517	1795
276.576	739
276.636	743
276.696	2428
276.756	6998
276.815	2842
276.875	1603
276.935	2025
276.995	2461
277.055	1163
277.114	1567
277.174	2994
277.234	8653
277.293	2594
277.353	1466
277.413	1393
277.472	1539
277.532	983
277.592	2456
277.651	8329
277.711	9786
277.771	4184
277.830	18052
277.890	8759
277.950	12816
278.009	25791
278.069	6757
278.128	10437
278.188	10663
278.248	5523
278.307	14781
278.367	6116
278.426	2348
278.486	1685
278.545	670
278.605	1327
278.664	1174
278.724	1898
278.783	10177
278.843	14507
278.902	2747
278.962	2860
279.021	3705
279.081	3436
279.140	4057
279.199	2617
279.259	3342
279.318	2883
279.378	4208
279.437	10061
279.496	35620
279.556	93814
279.615	44400
279.675	12401
279.734	8659
279.793	15244
279.853	20050
279.912	6469
279.971	4097
280.031	3622
280.090	12066
280.149	14305
280.208	15673
280.268	72265
280.327	40816
280.386	9939
280.445	10241
280.505	6930
280.564	4618
280.623	4132
280.682	6965
280.742	6311
280.801	2465
280.860	2010
280.919	1905
280.978	1915
281.037	2015
281.097	1462
281.156	1529
281.215	1416
281.274	3385
281.333	12434
281.392	5331
281.451	978
281.510	2353
281.569	1071
281.628	1197
281.688	692
281.747	1830
281.806	1006
281.865	245
281.924	1125
281.983	1165
282.042	297
282.101	477
282.160	215
282.219	798
282.278	1812
282.337	5497
282.396	1895
282.454	1006
282.513	2453
282.572	9599
282.631	3349
282.690	2125
282.749	655
282.808	1587
282.867	1438
282.926	1213
282.985	835
283.043	781
283.102	227
283.161	1563
283.220	6707
283.279	9287
283.338	1780
283.396	1634
283.455	1492
283.514	1797
283.573	3123
283.631	2260
283.690	443
283.749	1498
283.808	4256
283.866	2716
283.925	495
283.984	2080
284.043	2356
284.101	2426
284.160	1031
284.219	4002
284.277	1214
284.336	4227
284.395	13364
284.453	7432
284.512	2988
284.570	3964
284.629	3225
284.688	3475
284.746	2893
284.805	3825
284.863	4271
284.922	5674
284.981	7066
285.039	10631
285.098	20766
285.156	58759
285.215	104763
285.273	88118
285.332	42950
285.390	21801
285.449	13037
285.507	9852
285.566	7596
285.624	5682
285.683	4254
285.741	3916
285.799	3551
285.858	2836
285.916	2399
285.975	1805
286.033	1031
286.091	1760
286.150	756
286.208	2141
286.267	1603
286.325	2202
286.383	3690
286.442	2495
286.500	880
286.558	2006
286.616	1093
286.675	3294
286.733	1501
286.791	1250
286.850	2619
286.908	3723
286.966	4598
287.024	1562
287.083	1293
287.141	1150
287.199	2023
287.257	2520
287.315	1531
287.374	3089
287.432	5875
287.490	3018
287.548	1949
287.606	1556
287.664	2033
287.723	3148
287.781	3718
287.839	2808
287.897	3814
287.955	4314
288.013	7361
288.071	22215
288.129	88751
288.187	148640
288.245	58878
288.303	22201
288.361	12640
288.419	11040
288.477	6559
288.535	4551
288.593	4019
288.651	3986
288.709	1829
288.767	2471
288.825	1650
288.883	995
288.941	961
288.999	1255
289.057	1232
289.115	1505
289.173	1106
289.231	2158
289.289	859
289.346	1287
289.404	1903
289.462	3041
289.520	2441
289.578	1174
289.636	800
289.694	1100
289.751	568
289.809	1177
289.867	1429
289.925	2423
289.983	1506
290.040	1508
290.098	1286
290.156	1866
290.214	1148
290.271	1279
290.329	-11
290.387	728
290.444	345
290.502	588
290.560	1228
290.617	1219
290.675	369
290.733	672
290.790	1182
290.848	911
290.906	321
290.963	717
291.021	1636
291.078	1249
291.136	2123
291.194	9579
291.251	12637
291.309	3939
291.366	715
291.424	1084
291.481	254
291.539	1369
291.596	721
291.654	1044
291.711	372
291.769	2049
291.826	2614
291.884	1110
291.941	-83
291.999	778
292.056	1353
292.114	842
292.171	411
292.228	1325
292.286	1835
292.343	3164
292.401	2956
292.458	1835
292.515	1606
292.573	1922
292.630	1598
292.687	1725
292.745	1589
292.802	4198
292.859	9785
292.917	13774
292.974	4931
293.031	2168
293.089	1404
293.146	1098
293.203	246
293.260	962
293.318	2627
293.375	4513
293.432	1761
293.489	1218
293.546	879
293.604	2291
293.661	9429
293.718	19134
293.775	8636
293.832	3400
293.889	2579
293.947	4299
294.004	1887
294.061	3026
294.118	7616
294.175	16423
294.232	19943
294.289	6805
294.346	2934
294.403	2897
294.460	2358
294.517	2492
294.574	1077
294.631	2019
294.688	2441
294.745	8973
294.802	29122
294.859	27584
294.916	9467
294.973	5105
295.030	4237
295.087	3603
295.144	2667
295.201	1901
295.258	1517
295.315	3011
295.372	10507
295.429	13738
295.486	6335
295.542	5737
295.599	20467
295.656	24758
295.713	16481
295.770	13876
295.827	4822
295.883	3727
295.940	2941
295.997	5278
296.054	4297
296.111	2075
296.167	1686
296.224	733
296.281	957
296.338	1662
296.394	1514
296.451	3614
296.508	8988
296.564	13836
296.621	9906
296.678	21351
296.734	22112
296.791	8326
296.848	4633
296.904	6379
296.961	11032
297.018	18753
297.074	12296
297.131	5358
297.187	3953
297.244	6104
297.301	22060
297.357	25920
297.414	8544
297.470	4444
297.527	2876
297.583	2338
297.640	2211
297.696	2421
297.753	1394
297.809	1316
297.866	804
297.922	1549
297.979	1318
298.035	2346
298.092	3572
298.148	11243
298.204	8488
298.261	4232
298.317	10935
298.374	22192
298.430	9972
298.486	5634
298.543	3244
298.599	3729
298.656	4906
298.712	10836
298.768	24302
298.824	13452
298.881	4937
298.937	3047
298.993	2124
299.050	3891
299.106	2909
299.162	2545
299.218	1676
299.275	2128
299.331	1855
299.387	7217
299.443	19388
299.500	14464
299.556	6006
299.612	3226
299.668	2720
299.724	2995
299.780	2354
299.837	2941
299.893	5406
299.949	18512
300.005	15363
300.061	17488
300.117	24661
300.173	10739
300.229	5076
300.285	6680
300.341	6082
300.397	3445
300.453	1657
300.510	2659
300.566	1952
300.622	2645
300.678	6972
300.734	13533
300.790	15107
300.845	16686
300.901	9260
300.957	14723
301.013	9058
301.069	3715
301.125	3239
301.181	3338
301.237	2236
301.293	1950
301.349	1623
301.405	2338
301.461	1632
301.516	3695
301.572	3121
301.628	4529
301.684	3953
301.740	8015
301.796	9583
301.851	6886
301.907	12117
301.963	12327
302.019	24764
302.074	54210
302.130	42867
302.186	19920
302.242	8036
302.297	6097
302.353	6720
302.409	12212
302.464	9933
302.520	9557
302.576	20689
302.631	19770
302.687	9494
302.743	5164
302.798	2709
302.854	3047
302.910	3730
302.965	4990
303.021	7226
303.076	6521
303.132	7696
303.187	7630
303.243	3792
303.299	2685
303.354	1300
303.410	3016
303.465	1544
303.521	2482
303.576	1696
303.632	3246
303.687	7846
303.743	17563
303.798	11139
303.853	4987
303.909	2423
303.964	3315
304.020	5061
304.075	7015
304.130	6422
304.186	11289
304.241	9801
304.297	8227
304.352	4570
304.358	4421
304.407	3216
304.449	2896
304.463	2789
304.518	2991
304.539	2924
304.573	2825
304.629	3526
304.630	3576
304.684	5919
304.720	11718
304.739	14703
304.794	16333
304.811	14097
304.850	8549
304.902	4302
304.905	4040
304.960	3686
304.992	3855
305.015	3987
305.071	3333
305.083	3074
305.126	2055
305.173	1841
305.181	1819
305.236	1592
305.264	2094
305.292	2581
305.347	2104
305.354	2251
305.402	3212
305.445	3405
305.457	3466
305.512	4494
305.535	4264
305.567	3935
305.622	4360
305.626	4617
305.678	9322
305.716	18215
305.733	21811
305.788	19651
305.807	17596
305.843	13486
305.897	17253
305.898	17302
305.953	15323
305.988	10817
306.008	8135
306.063	5151
306.078	4706
306.118	3925
306.168	2429
306.173	2286
306.228	2357
306.259	2343
306.283	2364
306.338	1365
306.349	1686
306.393	3053
306.440	3229
306.448	3241
306.503	4031
306.530	4349
306.558	5266
306.613	13185
306.620	13710
306.668	16444
306.711	18194
306.723	18286
306.778	12577
306.801	9868
306.833	6418
306.888	3542
306.892	3427
306.943	2765
306.982	2445
306.997	2344
307.052	3513
307.072	3223
307.107	2910
307.162	5087
307.163	5117
307.217	8133
307.253	10254
307.272	11062
307.327	10479
307.343	9668
307.381	7027
307.434	5593
307.436	5691
307.491	13134
307.524	17952
307.546	19614
307.600	16069
307.614	14374
307.655	8650
307.704	5690
307.710	5625
307.765	5958
307.795	8375
307.819	11396
307.874	19416
307.885	19283
307.929	13749
307.975	9761
307.984	9685
308.038	13107
308.065	17356
308.093	26137
308.148	55506
308.156	62004
308.202	105092
308.246	121890
308.257	117610
308.312	66724
308.336	48374
308.366	36015
308.421	20603
308.426	19542
308.475	13207
308.517	9687
308.530	8876
308.585	7523
308.607	7143
308.639	7042
308.694	7788
308.697	7964
308.748	14295
308.787	21110
308.803	21971
308.857	16478
308.877	14756
308.912	11777
308.967	9785
308.967	9783
309.021	11890
309.058	15059
309.076	17936
309.130	31015
309.148	37531
309.185	65923
309.238	117517
309.239	118112
309.293	139552
309.328	136521
309.348	117715
309.402	59480
309.418	45149
309.457	30984
309.508	17780
309.511	17293
309.566	14099
309.598	12730
309.620	12668
309.674	13591
309.688	14015
309.729	13735
309.778	11738
309.783	11409
309.837	8298
309.868	7066
309.892	7686
309.946	10850
309.959	12046
310.001	17149
310.049	20697
310.055	20188
310.109	13517
310.139	9746
310.163	7455
310.218	4111
310.229	3523
310.272	3069
310.319	3291
310.326	3270
310.381	2804
310.409	2705
310.435	2707
310.489	2732
310.499	2743
310.543	2932
310.589	3109
310.598	3089
310.652	3133
310.679	3070
310.706	2612
310.760	1735
310.769	1589
310.814	1590
310.859	1777
310.868	1777
310.923	1698
310.948	1722
310.977	1826
311.031	2160
311.038	2184
311.085	2229
311.128	2334
311.139	2280
311.193	1932
311.218	1762
311.247	1641
311.301	1654
311.308	1632
311.356	1472
311.398	1410
311.410	1368
311.464	1187
311.488	1149
311.518	1248
311.572	1260
311.578	1289
311.626	1905
311.668	2341
311.680	2302
311.734	2297
311.758	2229
311.788	2298
311.842	2478
311.847	2509
311.896	3187
311.937	3854
311.950	3857
312.004	3860
312.027	3880
312.058	3228
312.112	2084
312.117	1981
312.165	1638
312.207	1370
312.297	1780
312.386	2087
312.476	1968
312.566	2417
312.656	2119
312.745	1634
312.835	2330
312.925	1834
313.015	2542
313.104	2995
313.194	1877
313.284	1258
313.374	1013
313.463	1612
313.553	1847
313.643	990
313.732	1353
313.822	680
313.912	1842
314.001	1609
314.091	1821
314.180	2751
314.270	1996
314.360	2858
314.449	2195
314.539	712
314.628	621
314.718	1809
314.808	2492
314.897	1846
314.987	681
315.076	1662
315.166	2002
315.255	2783
315.345	2251
315.434	2248
315.524	1746
315.613	2716
315.703	2776
315.792	2716
315.881	4643
315.971	2999
316.060	4336
316.150	9452
316.239	10704
316.328	4934
316.418	1171
316.507	553
316.597	1512
316.686	1893
316.775	3647
316.865	12124
316.954	3559
317.043	697
317.133	673
317.222	369
317.311	938
317.400	241
317.490	1860
317.579	1176
317.668	1167
317.757	1689
317.847	3384
317.936	8360
318.025	5811
318.114	2608
318.203	2778
318.293	2801
318.382	5958
318.471	5612
318.560	7839
318.649	23947
318.738	7623
318.828	2269
318.917	2519
319.006	2855
319.095	12004
319.184	26795
319.273	17686
319.362	4659
319.451	2114
319.540	1575
319.629	2691
319.718	5748
319.807	4485
319.896	7528
319.985	32717
320.074	15731
320.163	3291
320.252	6199
320.341	4703
320.430	3679
320.519	3307
320.608	1954
320.697	1820
320.786	1311
320.875	2127
320.964	2175
321.053	3300
321.142	3921
321.230	6240
321.319	3846
321.408	11324
321.497	6432
321.586	4809
321.675	7845
321.764	8893
321.852	5704
321.941	5300
322.030	4515
322.119	4520
322.207	11311
322.296	15627
322.385	6781
322.474	4541
322.562	10826
322.651	8818
322.740	4187
322.829	8900
322.917	13352
323.006	7150
323.095	4335
323.183	4442
323.272	5891
323.361	11514
323.449	43809
323.538	20190
323.626	26884
323.715	25112
323.804	7180
323.892	25350
323.981	18381
324.069	4895
324.158	13040
324.246	19135
324.335	3294
324.424	4517
324.512	1920
324.601	3194
324.689	6959
324.778	18691
324.866	11785
324.954	3252
325.043	2480
325.131	4405
325.220	12674
325.308	14814
325.397	7942
325.485	6644
325.574	803
325.662	1202
325.750	699
325.839	1539
325.927	274
326.015	1958
326.104	3749
326.192	8335
326.280	1822
326.369	1276
326.457	888
326.545	3419
326.634	1887
326.722	924
326.810	740
326.898	1122
326.987	1200
327.075	3347
327.163	4839
327.251	3495
327.340	5308
327.428	11493
327.516	1552
327.604	1271
327.692	1690
327.781	1817
327.869	4933
327.957	3702
328.045	1857
328.133	1182
328.221	2327
328.309	1348
328.397	900
328.485	2042
328.574	1882
328.662	5519
328.750	6236
328.838	3062
328.926	1627
329.014	1286
329.102	1894
329.190	5708
329.278	4590
329.366	1591
329.454	540
329.542	930
329.630	1258
329.718	1388
329.806	1801
329.893	2003
329.981	2913
330.069	4436
330.157	15946
330.245	52812
330.333	36383
330.421	6394
330.509	2871
330.597	7130
330.684	6459
330.772	3375
330.860	4491
330.948	6913
331.036	2899
331.123	920
331.211	991
331.299	1834
331.387	3529
331.475	9497
331.562	3390
331.650	1385
331.738	1152
331.825	2724
331.913	1138
332.001	848
332.089	2186
332.176	4908
332.264	13122
332.352	13337
332.439	2596
332.527	2100
332.614	1890
332.702	3313
332.790	1662
332.877	4367
332.965	14585
333.052	3736
333.140	2215
333.228	5132
333.315	2128
333.403	1677
333.490	6787
333.578	7475
333.665	3570
333.753	1827
333.840	1194
333.928	1753
334.015	7573
334.103	12037
334.190	40983
334.278	15496
334.365	3179
334.452	2793
334.540	1268
334.627	2800
334.715	4219
334.802	7348
334.889	44117
334.977	65901
335.064	6945
335.151	2434
335.239	2377
335.326	4043
335.413	14820
335.501	31322
335.588	3390
335.675	1653
335.762	1756
335.850	5666
335.937	3395
336.024	8336
336.111	51263
336.199	28456
336.286	3383
336.373	1365
336.460	1935
336.547	1360
336.635	1281
336.722	1829
336.809	1220
336.896	2209
336.983	8226
337.070	25110
337.157	42717
337.245	33859
337.332	34121
337.419	2828
337.506	1936
337.593	2176
337.680	6459
337.767	28365
337.854	8705
337.941	7521
338.028	11490
338.115	4356
338.202	3882
338.289	7307
338.376	34270
338.463	14946
338.550	12583
338.637	20901
338.724	5721
338.811	12643
338.898	2588
338.984	735
339.071	1787
339.158	1532
339.245	4184
339.332	4088
339.419	5044
339.506	8434
339.593	796
339.679	1060
339.766	212
339.853	817
339.940	2286
340.027	1536
340.113	940
340.200	1200
340.287	1095
340.374	1057
340.460	2729
340.547	886
340.634	1662
340.720	6165
340.807	5314
340.894	971
340.980	889
341.067	1203
341.154	884
341.240	1238
341.327	3121
341.414	1565
341.500	1371
341.587	547
341.674	451
341.760	1764
341.847	2793
341.933	839
342.020	-794
342.106	925
342.193	730
342.279	1900
342.366	792
342.452	2016
342.539	1008
342.625	2387
342.712	6255
342.798	4178
342.885	929
342.971	790
343.058	378
343.144	960
343.230	829
343.317	744
343.403	244
343.490	329
343.576	95
343.662	820
343.749	911
343.835	2137
343.921	2641
344.008	15215
344.094	50560
344.180	15253
344.267	3102
344.353	9271
344.439	16263
344.525	4572
344.612	1840
344.698	1105
344.784	673
344.870	616
344.957	655
345.043	1438
345.129	236
345.215	1411
345.301	1745
345.387	1111
345.474	-192
345.560	217
345.646	1139
345.732	973
345.818	236
345.904	749
345.990	430
346.076	2167
346.162	4072
346.249	1688
346.335	289
346.421	673
346.507	2772
346.593	16723
346.679	5584
346.765	1443
346.851	679
346.937	266
347.023	665
347.108	1367
347.194	600
347.280	1056
347.366	684
347.452	3783
347.538	18115
347.624	15434
347.710	13754
347.796	2041
347.882	1100
347.967	628
348.053	1522
348.139	701
348.225	573
348.311	240
348.397	415
348.482	1059
348.568	826
348.654	182
348.740	383
348.825	983
348.911	1355
348.997	6735
349.083	21467
349.168	5154
349.254	688
349.340	1264
349.425	596
349.511	47
349.597	1690
349.682	2201
349.768	8503
349.854	5965
349.939	1626
350.025	682
350.110	710
350.196	163
350.282	-195
350.367	-169
350.453	2177
350.538	3130
350.624	1277
350.709	1542
350.795	-278
350.880	1085
350.966	839
351.051	1876
351.137	1990
351.222	360
351.308	1795
351.393	7422
351.479	2267
351.564	736
351.649	559
351.735	-438
351.820	406
351.906	712
351.991	1102
352.076	4002
352.162	8470
352.247	1506
352.332	903
352.418	1772
352.503	2877
352.588	9318
352.673	10119
352.759	1939
352.844	1142
352.929	347
353.014	1236
353.100	500
353.185	1184
353.270	2593
353.355	2026
353.441	1166
353.526	1132
353.611	1690
353.696	2377
353.781	2490
353.866	509
353.952	317
354.037	1347
354.122	5111
354.207	4686
354.292	2129
354.377	278
354.462	800
354.547	916
354.632	759
354.717	1547
354.802	2037
354.887	978
354.972	507
355.057	48
355.142	-552
355.227	433
355.312	1321
355.397	2862
355.482	7191
355.567	4852
355.652	2645
355.737	2682
355.822	9465
355.907	11782
355.991	2301
356.076	-120
356.161	991
356.246	640
356.331	1205
356.416	1576
356.501	18246
356.585	30870
356.670	3556
356.755	1448
356.840	2307
356.924	11064
357.009	54107
357.094	28495
357.179	3688
357.263	2651
357.348	2069
357.433	2644
357.517	1880
357.602	1242
357.687	1948
357.771	2334
357.856	8058
357.941	6562
358.025	7624
358.110	52868
358.195	34980
358.279	3738
358.364	2427
358.448	5654
358.533	18541
358.617	16567
358.702	14874
358.787	6559
358.871	2586
358.956	1943
359.040	731
359.125	35
359.209	521
359.294	2779
359.378	7352
359.462	2282
359.547	1843
359.631	1173
359.716	143
359.800	473
359.885	2045
359.969	635
360.053	1513
360.138	1125
360.222	1184
360.306	1597
360.391	2170
360.475	2943
360.559	9527
360.644	7119
360.728	6200
360.812	7134
360.896	36277
360.981	16320
361.065	8243
361.149	1739
361.233	1814
361.318	502
361.402	1695
361.486	2004
361.570	304
361.654	857
361.739	2921
361.823	16007
361.907	41895
361.991	8093
362.075	2494
362.159	3725
362.243	4786
362.327	2550
362.411	3103
362.495	2356
362.580	1560
362.664	702
362.748	-51
362.832	741
362.916	806
363.000	3265
363.084	15793
363.168	44882
363.252	11829
363.336	2363
363.420	3713
363.503	19459
363.587	38364
363.671	5598
363.755	1623
363.839	3055
363.923	1014
364.007	2441
364.091	3938
364.175	5329
364.258	37905
364.342	25415
364.426	7291
364.510	4458
364.594	4024
364.677	4152
364.761	25087
364.845	28335
364.929	4731
365.013	4413
365.096	3687
365.180	4625
365.264	6854
365.347	41731
365.431	25052
365.515	4468
365.598	1209
365.682	1040
365.766	2485
365.849	5491
365.933	1784
366.017	2336
366.100	2109
366.184	-156
366.267	1611
366.351	606
366.435	620
366.518	-334
366.602	458
366.685	264
366.769	770
366.852	3095
366.936	4307
367.019	2227
367.103	1070
367.186	5705
367.270	1026
367.353	421
367.436	291
367.520	167
367.603	674
367.687	1013
367.770	1717
367.853	1824
367.937	4605
368.020	13911
368.104	3390
368.187	1790
368.270	2801
368.353	2482
368.437	5297
368.520	21111
368.603	13747
368.687	6038
368.770	17310
368.853	4850
368.936	3590
369.020	4707
369.103	1634
369.186	686
369.269	345
369.352	1758
369.436	2844
369.519	1953
369.602	911
369.685	673
369.768	911
369.851	1017
369.934	651
370.018	292
370.101	1649
370.184	2331
370.267	1418
370.350	1753
370.433	4304
370.516	11302
370.599	20040
370.682	4386
370.765	6439
370.848	8364
370.931	20813
371.014	11793
371.097	1993
371.180	629
371.263	547
371.346	161
371.429	496
371.511	42
371.594	891
371.677	3161
371.760	5655
371.843	3028
371.926	12159
372.009	45869
372.091	17263
372.174	6409
372.257	21566
372.340	11017
372.423	5424
372.505	9115
372.588	3806
372.671	3975
372.754	18016
372.836	13635
372.919	7792
373.002	25481
373.085	8323
373.167	2007
373.250	6164
373.332	18246
373.415	24097
373.498	66612
373.580	27476
373.663	20332
373.746	43575
373.828	10067
373.911	3038
373.993	2913
374.076	18476
374.159	27325
374.241	6550
374.324	14936
374.406	13470
374.489	11618
374.571	50324
374.654	25790
374.736	7632
374.819	27848
374.901	41849
374.983	55126
375.066	11270
375.148	2086
375.231	12987
375.313	40999
375.395	15043
375.478	2276
375.560	1508
375.643	1770
375.725	6437
375.807	35895
375.890	42902
375.972	24042
376.054	8364
376.136	17259
376.219	9970
376.301	6777
376.383	31797
376.465	16671
376.548	4631
376.630	5159
376.712	24540
376.794	16985
376.877	1447
376.959	282
377.041	684
377.123	3226
377.205	5210
377.287	956
377.369	320
377.452	428
377.534	-108
377.616	-104
377.698	637
377.780	-1002
377.862	30
377.944	78
378.026	-65
378.108	182
378.190	133
378.272	400
378.354	-197
378.436	63
378.518	-14
378.600	6607
378.682	6053
378.764	8699
378.846	10614
378.928	1760
379.010	2063
379.091	1983
379.173	925
379.255	-757
379.337	63
379.419	2667
379.501	15182
379.583	8883
379.664	2023
379.746	1892
379.828	8210
379.910	12971
379.991	14514
380.073	2664
380.155	378
380.237	729
380.318	485
380.400	1097
380.482	805
380.564	2590
380.645	2530
380.727	2950
380.809	1523
380.890	770
380.972	390
381.053	773
381.135	757
381.217	1755
381.298	10324
381.380	6245
381.461	3333
381.543	19227
381.624	38508
381.706	7747
381.787	2029
381.869	1959
381.951	6322
382.032	44310
382.113	38384
382.195	5460
382.276	4141
382.358	4856
382.439	21310
382.521	25194
382.602	47856
382.684	20933
382.765	25979
382.846	29577
382.928	25668
383.009	18058
383.090	7988
383.172	30229
383.253	68231
383.334	28520
383.416	34116
383.497	22859
383.578	6061
383.659	7302
383.741	24354
383.822	94816
383.903	65722
383.984	17723
384.066	38362
384.147	28865
384.228	5525
384.309	2560
384.390	2537
384.471	1334
384.553	1242
384.634	2362
384.715	3078
384.796	870
384.877	740
384.958	7100
385.039	12186
385.120	3765
385.201	1022
385.282	2161
385.363	2568
385.444	1775
385.525	2928
385.606	13986
385.687	19563
385.768	4104
385.849	3419
385.930	14148
386.011	41113
386.092	13457
386.173	2025
386.254	1254
386.335	1893
386.416	984
386.496	3969
386.577	10933
386.658	5455
386.739	1785
386.820	2805
386.901	1980
386.981	1239
387.062	248
387.143	1494
387.224	7970
387.304	11656
387.385	2855
387.466	2385
387.547	3141
387.627	1754
387.708	2430
387.789	15804
387.869	28073
387.950	9824
388.031	832
388.111	49
388.192	5086
388.273	8824
388.353	4845
388.434	1786
388.514	2261
388.595	16859
388.676	29752
388.756	11539
388.837	8238
388.917	6819
388.998	950
389.078	1097
389.159	1182
389.239	46
389.320	1956
389.400	598
389.480	2902
389.561	11714
389.641	8082
389.722	1557
389.802	1955
389.883	3709
389.963	13539
390.043	12911
390.124	4141
390.204	2615
390.284	9938
390.365	8955
390.445	10707
390.525	38831
390.605	41528
390.686	9460
390.766	2696
390.846	1352
390.927	208
391.007	-213
391.087	1088
391.167	1563
391.247	175
391.328	3343
391.408	4885
391.488	3544
391.568	-190
391.648	688
391.728	1321
391.808	1461
391.888	1381
391.969	4655
392.049	9214
392.129	5187
392.209	3811
392.289	12436
392.369	9242
392.449	8786
392.529	4928
392.609	2641
392.689	2697
392.769	10342
392.849	13261
392.929	6662
393.009	19539
393.089	16752
393.169	6059
393.248	15956
393.328	106476
393.408	180454
393.488	40180
393.568	6562
393.648	3464
393.728	2433
393.807	1104
393.887	2479
393.967	2109
394.047	2623
394.127	3370
394.206	6860
394.286	21471
394.366	119640
394.446	189714
394.525	52027
394.605	10073
394.685	4634
394.764	11708
394.844	22730
394.924	19190
395.003	4718
395.083	2741
395.163	2482
395.242	1653
395.322	2053
395.402	403
395.481	2222
395.561	5623
395.640	24846
395.720	18673
395.799	26626
395.879	30972
395.958	13168
396.038	34085
396.117	161689
396.197	248693
396.276	83281
396.356	22020
396.435	13179
396.515	8318
396.594	5000
396.673	6925
396.753	21041
396.832	115712
396.912	120767
396.991	25060
397.070	5171
397.150	1504
397.229	2344
397.308	695
397.388	2666
397.467	2406
397.546	714
397.625	-705
397.705	1854
397.784	560
397.863	18
397.942	610
398.022	415
398.101	4052
398.180	25977
398.259	17542
398.338	3571
398.417	5
398.497	928
398.576	783
398.655	69
398.734	694
398.813	856
398.892	4212
398.971	27365
399.050	20417
399.129	1683
399.208	23
399.287	772
399.366	-156
399.445	239
399.524	693
399.603	30
399.682	407
399.761	3778
399.840	25105
399.919	30444
399.998	3094
400.077	340
400.156	-1199
400.235	2031
400.313	-9
400.392	-187
400.471	3397
400.550	7842
400.629	2518
400.708	962
400.786	76
400.865	3982
400.944	6081
401.023	3192
401.102	-896
401.180	-39
401.259	76
401.338	637
401.416	1073
401.495	594
401.574	1686
401.652	-554
401.731	257
401.810	694
401.888	-66
401.967	-1018
402.046	36
402.124	343
402.203	851
402.281	-104
402.360	66
402.438	5690
402.517	5259
402.596	1767
402.674	388
402.753	567
402.831	791
402.910	217
402.988	1771
403.066	13888
403.145	11147
403.223	2819
403.302	9772
403.380	9534
403.459	8318
403.537	3635
403.615	861
403.694	-1076
403.772	-93
403.850	-1046
403.929	-440
404.007	-481
404.085	1602
404.164	1440
404.242	-44
404.320	2276
404.398	8797
404.477	12003
404.555	28117
404.633	38670
404.711	9975
404.789	5540
404.868	1061
404.946	29
405.024	-827
405.102	-452
405.180	-1066
405.258	-1252
405.336	378
405.415	-1017
405.493	1521
405.571	1286
405.649	-387
405.727	-893
405.805	723
405.883	597
405.961	418
406.039	1159
406.117	-328
406.195	482
406.273	2312
406.351	23314
406.429	21803
406.507	2526
406.585	170
406.663	9
406.740	-144
406.818	66
406.896	-258
406.974	392
407.052	-733
407.130	9508
407.208	23512
407.285	5659
407.363	315
407.441	161
407.519	-354
407.596	-177
407.674	-18
407.752	5747
407.830	9452
407.907	5625
407.985	734
408.063	247
408.141	-836
408.218	263
408.296	1009
408.373	139
408.451	3
408.529	-833
408.606	-722
408.684	57
408.762	-796
408.839	-1201
408.917	-835
408.994	-547
409.072	-1624
409.149	-1042
409.227	-292
409.304	-651
409.382	-320
409.459	4
409.537	-984
409.614	-96
409.692	-676
409.769	-1016
409.846	-190
409.924	360
410.001	-251
410.079	-518
410.156	-491
410.233	133
410.311	-348
410.388	-1711
410.465	-578
410.543	-1184
410.620	-411
410.697	-712
410.775	-362
410.852	-1910
410.929	-650
411.006	142
411.083	-1041
411.161	53
411.238	1062
411.315	647
411.392	-595
411.469	-215
411.547	-619
411.624	-1241
411.701	-948
411.778	405
411.855	176
411.932	-117
412.009	-607
412.086	-95
412.163	-384
412.240	-43
412.317	-135
412.394	103
412.471	-715
412.548	58
412.625	-1365
412.702	-545
412.779	-36
412.856	658
412.933	-1273
413.010	-1011
413.087	159
413.164	1704
413.241	6703
413.318	729
413.395	868
413.471	107
413.548	322
413.625	220
413.702	-739
413.779	1118
413.855	-1116
413.932	-1377
414.009	-1005
414.086	-496
414.162	-137
414.239	-38
414.316	2033
414.393	9013
414.469	4483
414.546	-124
414.623	-599
414.699	-584
414.776	-414
414.853	-930
414.929	-95
415.006	-845
415.082	-411
415.159	-177
415.236	-316
415.312	-375
415.389	-275
415.465	439
415.542	47
415.618	-1305
415.695	474
415.771	-327
415.848	-677
415.924	-698
416.000	-362
416.077	-1031
416.153	-1282
416.230	-1788
416.306	-623
416.383	-162
416.459	-359
416.535	-812
416.612	-1040
416.688	-170
416.764	-474
416.841	-801
416.917	-770
416.993	-199
417.069	313
417.146	166
417.222	175
417.298	-423
417.374	-550
417.451	11
417.527	-805
417.603	-149
417.679	-194
417.755	-209
417.831	-1833
417.908	-403
417.984	13
418.060	-917
418.136	-262
418.212	1116
418.288	5
418.364	230
418.440	-1315
418.516	98
418.592	79
418.668	1378
418.744	1617
418.820	1959
418.896	-805
418.972	-525
419.048	-505
419.124	431
419.200	-39
419.276	-12
419.352	-1198
419.428	-731
419.504	-1957
419.579	-820
419.655	-991
419.731	-439
419.807	364
419.883	1686
419.959	1353
420.034	-21
420.110	-328
420.186	4096
420.262	5920
420.337	244
420.413	-350
420.489	-501
420.565	376
420.640	-651
420.716	-173
420.792	-1887
420.867	245
420.943	-1098
421.019	-1370
421.094	-543
421.170	-376
421.245	-1553
421.321	-645
421.397	-705
421.472	369
421.548	1932
421.623	2449
421.699	228
421.774	9
421.850	-308
421.925	256
422.001	-351
422.076	181
422.152	-18
422.227	301
422.302	1188
422.378	1057
422.453	910
422.529	5487
422.604	27968
422.679	95812
422.755	69297
422.830	14583
422.905	3492
422.981	979
423.056	618
423.131	-19
423.207	194
423.282	-417
423.357	1112
423.432	132
423.508	94
423.583	1549
423.658	2013
423.733	-224
423.808	473
423.883	-73
423.959	-682
424.034	-804
424.109	-720
424.184	-838
424.259	-988
424.334	-895
424.409	-309
424.484	-824
424.559	-519
424.634	-1395
424.709	-16
424.784	-218
424.859	-684
424.934	-1058
425.009	1584
425.084	6857
425.159	3568
425.234	-10
425.309	-534
425.384	619
425.459	3099
425.534	349
425.609	-345
425.683	-186
425.758	-510
425.833	-571
425.908	213
425.983	-58
426.058	5658
426.132	3259
426.207	-251
426.282	1315
426.357	759
426.431	-1188
426.506	-604
426.581	-635
426.655	-821
426.730	-422
426.805	-517
426.879	-101
426.954	-1422
427.029	-500
427.103	3212
427.178	18728
427.253	14259
427.327	786
427.402	238
427.476	3669
427.551	2958
427.625	95
427.700	380
427.774	-1241
427.849	362
427.923	-1160
427.998	-1067
428.072	-1584
428.147	318
428.221	1675
428.296	8802
428.370	7951
428.444	-183
428.519	1147
428.593	3687
428.667	4866
428.742	3948
428.816	3947
428.890	6504
428.965	15137
429.039	6943
429.113	5935
429.188	2263
429.262	-822
429.336	-462
429.410	1774
429.485	2694
429.559	2905
429.633	4339
429.707	123
429.781	-315
429.855	7839
429.930	17387
430.004	12372
430.078	23625
430.152	25348
430.226	15363
430.300	21584
430.374	3708
430.448	179
430.522	3419
430.596	22556
430.670	19415
430.744	10364
430.818	28817
430.892	10176
430.966	-136
431.040	-72
431.114	-1205
431.188	-794
431.262	-754
431.336	-624
431.410	1125
431.484	4315
431.557	5227
431.631	-1040
431.705	-905
431.779	-868
431.853	5616
431.927	7934
432.000	945
432.074	-195
432.148	-32
432.222	-145
432.295	-555
432.369	-1072
432.443	-298
432.516	3160
432.590	21409
432.664	14054
432.737	366
432.811	-1021
432.885	-1167
432.958	-614
433.032	-898
433.106	-1046
433.179	-822
433.253	-1254
433.326	-1065
433.400	-1228
433.473	-1093
433.547	-1996
433.620	-186
433.694	-1354
433.767	-329
433.841	-1147
433.914	-857
433.988	-1687
434.061	-1046
434.134	-2022
434.208	-1426
434.281	-931
434.355	-709
434.428	-287
434.501	-1346
434.575	-1503
434.648	-1132
434.721	-998
434.795	-1217
434.868	-1879
434.941	-1948
435.014	-1507
435.088	-1132
435.161	-628
435.234	-975
435.307	528
435.381	-552
435.454	-786
435.527	-1138
435.600	-1339
435.673	-30
435.746	-1314
435.819	-1594
435.892	-1388
435.966	-1058
436.039	-936
436.112	-764
436.185	-1925
436.258	-1344
436.331	-1613
436.404	-1409
436.477	-1344
436.550	-1703
436.623	-1193
436.696	-1384
436.769	-621
436.842	-987
436.915	-611
436.987	-891
437.060	-1194
437.133	-1087
437.206	-998
437.279	-641
437.352	-1287
437.425	-1344
437.498	-909
437.570	-593
437.643	-555
437.716	-639
437.789	-1266
437.861	-1003
437.934	1280
438.007	1563
438.080	-771
438.152	-937
438.225	-521
438.298	4833
438.370	33979
438.443	25367
438.516	3684
438.588	-205
438.661	-1464
438.734	-1213
438.806	-1410
438.879	-748
438.951	-1035
439.024	-59
439.096	-495
439.169	-729
439.241	-400
439.314	-1357
439.386	-468
439.459	259
439.531	1586
439.604	204
439.676	-649
439.749	-794
439.821	-783
439.893	-1047
439.966	-809
440.038	-371
440.110	-408
440.183	-439
440.255	-1466
440.327	-350
440.400	1350
440.472	14881
440.544	19797
440.617	2412
440.689	140
440.761	-85
440.833	850
440.905	375
440.978	-818
441.050	-992
441.122	-1172
441.194	-1687
441.266	-943
441.338	-1513
441.411	-924
441.483	1851
441.555	8294
441.627	2943
441.699	50
441.771	431
441.843	-42
441.915	-827
441.987	-1612
442.059	-1004
442.131	-274
442.203	-301
442.275	38
442.347	617
442.419	-149
442.491	296
442.563	6412
442.635	5631
442.706	3820
442.778	6288
442.850	984
442.922	-1044
442.994	-46
443.066	287
443.137	-624
443.209	-822
443.281	-1026
443.353	-310
443.425	2314
443.496	10440
443.568	18482
443.640	7907
443.711	1152
443.783	-524
443.855	-975
443.926	-406
443.998	-665
444.070	-323
444.141	-440
444.213	-267
444.285	-515
444.356	567
444.428	54
444.499	-75
444.571	-1139
444.642	-1250
444.714	-1601
444.785	-535
444.857	-224
444.928	2799
445.000	2643
445.071	1027
445.143	3259
445.214	916
445.285	241
445.357	6009
445.428	10529
445.500	27903
445.571	28686
445.642	11797
445.714	4869
445.785	8153
445.856	3331
445.928	436
445.999	-72
446.070	307
446.141	-9
446.213	229
446.284	121
446.355	-81
446.426	-333
446.497	-241
446.569	-435
446.640	782
446.711	129
446.782	-700
446.853	-213
446.924	167
446.995	-636
447.066	-117
447.138	676
447.209	1239
447.280	-1617
447.351	-1336
447.422	-1335
447.493	-1298
447.564	-796
447.635	-973
447.706	-690
447.777	-1204
447.847	-1131
447.918	-1311
447.989	-695
448.060	-131
448.131	2773
448.202	2678
448.273	739
448.344	734
448.414	-352
448.485	-1327
448.556	-297
448.627	-1473
448.698	-428
448.768	-1092
448.839	-585
448.910	-667
448.981	745
449.051	-2
449.122	-1193
449.193	-773
449.263	-221
449.334	-905
449.405	-705
449.475	180
449.546	352
449.616	1801
449.687	1613
449.758	540
449.828	-355
449.899	-50
449.969	15
450.040	-1275
450.110	22
450.181	590
450.251	-188
450.322	-912
450.392	-681
450.463	-502
450.533	-432
450.604	-906
450.674	-1233
450.744	-87
450.815	-924
450.885	103
450.955	-587
451.026	-1038
451.096	-96
451.166	-33
451.237	-460
451.307	4657
451.377	4457
451.447	234
451.518	-148
451.588	-895
451.658	-293
451.728	-398
451.799	2890
451.869	8707
451.939	2926
452.009	245
452.079	-949
452.149	-254
452.219	-706
452.289	4018
452.360	7949
452.430	2007
452.500	-697
452.570	-107
452.640	208
452.710	1541
452.780	5613
452.850	4226
452.920	1733
452.990	1079
453.060	658
453.129	-251
453.199	912
453.269	3365
453.339	21770
453.409	40221
453.479	25847
453.549	41630
453.619	50117
453.688	33169
453.758	6576
453.828	704
453.898	-220
453.968	54
454.037	-220
454.087	-79
454.107	-39
454.168	-30
454.177	-50
454.247	-182
454.249	-158
454.316	-119
454.330	-138
454.386	-228
454.411	701
454.456	1687
454.492	4368
454.525	6641
454.574	4050
454.595	2967
454.655	560
454.665	194
454.734	442
454.736	524
454.804	2101
454.817	3114
454.873	5748
454.898	7603
454.943	10200
454.979	7322
455.013	5082
455.060	2389
455.082	1444
455.141	1633
455.152	1679
455.221	5749
455.222	5986
455.291	13207
455.303	13513
455.360	14384
455.384	17907
455.430	21303
455.465	19125
455.499	17437
455.546	11784
455.569	8680
455.627	7016
455.638	6923
455.707	1737
455.708	1750
455.777	264
455.789	317
455.846	422
455.869	478
455.916	609
455.950	429
455.985	176
456.031	840
456.054	1104
456.112	525
456.124	424
456.193	503
456.193	483
456.262	1164
456.274	1326
456.332	1744
456.355	1991
456.401	2172
456.436	1616
456.470	1075
456.516	748
456.540	611
456.597	425
456.609	376
456.678	544
456.678	528
456.747	269
456.759	174
456.817	68
456.840	216
456.886	267
456.920	542
456.955	834
457.001	629
457.024	691
457.082	1073
457.093	1115
457.162	2430
457.163	2459
457.232	3347
457.243	3259
457.301	2068
457.324	1575
457.370	1073
457.405	1090
457.439	1108
457.485	651
457.508	525
457.566	760
457.577	771
457.646	1303
457.647	1322
457.715	1619
457.727	1651
457.784	1912
457.808	2386
457.853	3347
457.889	3684
457.922	3165
457.969	2671
457.991	2908
458.050	3183
458.060	3221
458.129	4303
458.130	4339
458.198	3782
458.211	3773
458.267	2965
458.292	2228
458.336	1661
458.372	1789
458.405	2276
458.453	2193
458.474	2439
458.533	4812
458.543	5131
458.611	7117
458.614	7247
458.680	5687
458.694	4902
458.749	3123
458.775	2668
458.818	2505
458.855	1917
458.887	1540
458.936	1710
458.955	1720
459.016	1576
459.024	1550
459.093	1929
459.097	1919
459.162	1899
459.177	2059
459.230	2335
459.257	2386
459.299	2663
459.338	3103
459.368	3372
459.418	3884
459.437	3695
459.499	2410
459.505	2393
459.574	2567
459.579	2590
459.643	2321
459.659	2342
459.711	2373
459.740	2312
459.780	2541
459.820	2809
459.849	2900
459.900	3006
459.917	3007
459.981	3011
459.986	2970
460.054	2985
460.061	2948
460.123	3035
460.141	3132
460.191	3699
460.222	3987
460.260	4125
460.302	4442
460.328	4129
460.382	3011
460.397	2901
460.462	3027
460.465	3092
460.534	4389
460.543	4627
460.602	12012
460.623	14652
460.671	25871
460.703	34515
460.739	30872
460.783	27202
460.808	23015
460.864	8267
460.876	7836
460.944	4021
460.945	3964
461.013	3566
461.024	3406
461.081	3194
461.104	3321
461.150	3334
461.184	3190
461.218	3069
461.264	3156
461.286	3340
461.345	3267
461.355	3206
461.423	3514
461.425	3524
461.491	3962
461.505	3984
461.559	7174
461.585	8559
461.628	15587
461.665	22269
461.696	25470
461.745	31698
461.764	26562
461.825	8834
461.832	8643
461.901	3999
461.905	3807
461.969	4167
461.985	4360
462.037	4159
462.065	4166
462.105	4744
462.145	5091
462.173	7406
462.225	12094
462.241	13881
462.305	20889
462.310	20237
462.378	11020
462.385	9787
462.446	6088
462.465	4876
462.514	4389
462.545	4418
462.582	4495
462.625	4501
462.650	4387
462.705	4445
462.718	4659
462.785	5567
462.786	5603
462.854	7423
462.865	7715
462.922	9929
462.945	11046
462.990	8034
463.025	5457
463.058	4958
463.104	3937
463.126	3793
463.184	3779
463.194	3919
463.262	4555
463.264	4580
463.330	4432
463.344	4402
463.398	5110
463.424	5479
463.466	5446
463.504	5556
463.533	5870
463.583	6045
463.601	6058
463.663	6081
463.669	6258
463.737	8438
463.743	8624
463.805	12611
463.823	13804
463.873	22960
463.903	28481
463.940	31161
463.982	34608
464.008	27409
464.062	11685
464.076	10924
464.142	5784
464.144	5754
464.211	5037
464.221	4986
464.279	4796
464.301	4786
464.347	5811
464.381	6469
464.414	7431
464.461	8925
464.482	9308
464.540	10217
464.550	9755
464.617	6290
464.620	6163
464.685	7697
464.699	7986
464.753	9773
464.779	10680
464.820	12141
464.859	13679
464.888	13388
464.938	12504
464.956	12770
465.018	13780
465.023	13554
465.091	10319
465.098	9964
465.158	10176
465.177	10265
465.226	9954
465.257	9623
465.293	9722
465.336	9841
465.361	10433
465.416	11857
465.428	12576
465.495	16247
465.496	16356
465.563	28981
465.575	31199
465.631	41424
465.654	45763
465.698	29306
465.734	15512
465.765	13680
465.813	10209
465.833	10169
465.893	10578
465.900	10599
465.968	10660
465.972	10652
466.035	10885
466.052	10884
466.102	10980
466.131	11054
466.170	11258
466.210	11405
466.237	11625
466.290	12003
466.304	12231
466.369	13110
466.372	13162
466.439	13979
466.449	14076
466.506	15473
466.528	15954
466.573	19645
466.607	22347
466.641	32516
466.687	46594
466.708	52362
466.766	68077
466.775	63339
466.842	26825
466.845	25038
466.909	19065
466.925	17586
466.977	16695
467.004	16265
467.044	16689
467.083	17068
467.111	18287
467.163	20465
467.178	20995
467.242	23003
467.245	22961
467.312	21162
467.321	20881
467.379	20115
467.400	19777
467.446	20516
467.480	20979
467.559	19469
467.638	16405
467.717	15628
467.796	15452
467.875	17762
467.955	16877
468.034	22204
468.113	51652
468.192	81797
468.271	25734
468.350	13355
468.429	13921
468.508	13705
468.588	12738
468.667	13825
468.746	15411
468.825	15010
468.904	12617
468.983	13978
469.062	20315
469.141	27685
469.220	13598
469.299	11963
469.378	14181
469.456	16800
469.535	15057
469.614	14538
469.693	15061
469.772	17417
469.851	23932
469.930	19263
470.009	12760
470.088	12514
470.166	13290
470.245	13490
470.324	14903
470.403	13703
470.482	12232
470.560	11735
470.639	11656
470.718	13180
470.797	11881
470.875	13985
470.954	19646
471.033	23125
471.111	11028
471.190	11383
471.269	9476
471.347	9882
471.426	10337
471.505	13055
471.583	13646
471.662	13765
471.740	11853
471.819	12101
471.898	11315
471.976	11991
472.055	10809
472.133	12320
472.212	16828
472.290	18471
472.369	12343
472.447	11173
472.526	9980
472.604	11090
472.683	10548
472.761	10629
472.839	10141
472.918	10492
472.996	11043
473.075	12341
473.153	12520
473.231	10450
473.310	11338
473.388	12049
473.466	10826
473.545	11998
473.623	13096
473.701	14005
473.780	10438
473.858	11150
473.936	11781
474.014	11143
474.093	10857
474.171	16024
474.249	24683
474.327	17390
474.405	9413
474.484	9680
474.562	9277
474.640	10173
474.718	10536
474.796	11931
474.874	10372
474.952	10376
475.030	10693
475.108	11218
475.187	12572
475.265	13807
475.343	13945
475.421	16308
475.499	12048
475.577	10675
475.655	13168
475.733	26508
475.811	49173
475.889	46466
475.966	33038
476.044	11066
476.122	11093
476.200	12858
476.278	11517
476.356	9239
476.434	10412
476.512	10175
476.590	13007
476.667	13903
476.745	8256
476.823	10063
476.901	9432
476.979	9865
477.056	9567
477.134	11213
477.212	9771
477.290	9353
477.367	7706
477.445	9157
477.523	8658
477.601	9321
477.678	8990
477.756	10882
477.834	13287
477.911	8519
477.989	8633
478.066	8639
478.144	9730
478.222	10939
478.299	12942
478.377	13742
478.454	8353
478.532	8039
478.609	8173
478.687	9202
478.764	7558
478.842	8808
478.919	8968
478.997	8807
479.074	8433
479.152	10883
479.229	13081
479.307	9586
479.384	7107
479.461	7609
479.539	7928
479.616	10298
479.694	8033
479.771	9293
479.848	9657
479.926	13637
480.003	15765
480.080	8325
480.157	7832
480.235	7438
480.312	7477
480.389	9394
480.467	14527
480.544	20578
480.621	10350
480.698	8568
480.775	10097
480.853	11060
480.930	8744
481.007	9108
481.084	11250
481.161	11187
481.238	10494
481.315	8400
481.392	6612
481.470	8990
481.547	7985
481.624	8385
481.701	7880
481.778	8409
481.855	9563
481.932	13340
482.009	25070
482.086	19379
482.163	8399
482.240	9758
482.317	13662
482.393	12744
482.470	7239
482.547	8269
482.624	7290
482.701	8272
482.778	8288
482.855	6750
482.932	6854
483.009	6049
483.085	7395
483.162	8669
483.239	9027
483.316	6590
483.393	6692
483.469	6711
483.546	8214
483.623	10593
483.699	7879
483.776	7999
483.853	9437
483.930	14047
484.006	34059
484.083	73914
484.160	36263
484.236	49748
484.313	40136
484.389	30214
484.466	24589
484.543	24457
484.619	23888
484.696	24684
484.772	26307
484.849	29508
484.925	23958
485.002	22802
485.078	23451
485.155	24403
485.231	21704
485.308	22150
485.384	22058
485.461	26804
485.537	40978
485.614	54403
485.690	23486
485.766	20266
485.843	20256
485.919	23228
485.995	24832
486.072	20156
486.148	19307
486.224	19726
486.301	18916
486.377	22784
486.453	22910
486.530	21443
486.606	29094
486.682	34580
486.758	37603
486.835	46448
486.911	32838
486.987	53114
487.063	45329
487.139	42115
487.215	33988
487.292	23082
487.368	20910
487.444	22163
487.520	24445
487.596	22729
487.672	21978
487.748	31583
487.824	42375
487.900	27649
487.976	19986
488.052	21798
488.128	24024
488.204	21950
488.280	19984
488.356	22839
488.432	42716
488.508	78521
488.584	28158
488.660	17008
488.736	17031
488.812	18566
488.888	21668
488.964	24036
489.039	33957
489.115	52664
489.191	38435
489.267	19218
489.343	18875
489.418	16469
489.494	15934
489.570	14774
489.646	15867
489.722	16250
489.797	16683
489.873	23373
489.949	53574
490.024	54228
490.100	16320
490.176	15810
490.251	15557
490.327	19423
490.403	14562
490.478	14341
490.554	13240
490.629	13714
490.705	12797
490.781	13799
490.856	13337
490.932	15682
491.007	13923
491.083	15059
491.158	14952
491.234	18508
491.309	39118
491.385	48733
491.460	15675
491.536	15547
491.611	13836
491.686	13026
491.762	15115
491.837	22203
491.913	38481
491.988	50750
492.063	65122
492.139	30521
492.214	22129
492.289	12327
492.365	9970
492.440	13788
492.515	12779
492.590	14036
492.666	10986
492.741	14571
492.816	24420
492.891	14718
492.967	11721
493.042	10880
493.117	11991
493.192	12960
493.267	18835
493.342	61968
493.418	112450
493.493	24238
493.568	10675
493.643	9996
493.718	12247
493.793	17891
493.868	18111
493.943	10550
494.018	10409
494.093	10722
494.168	8950
494.243	9969
494.318	8000
494.393	8517
494.468	8554
494.543	7813
494.618	9158
494.693	9291
494.768	7885
494.842	10188
494.917	7915
494.992	8874
495.067	8494
495.142	7372
495.217	8455
495.292	8425
495.366	9203
495.441	11963
495.516	14419
495.591	17418
495.665	35720
495.740	93966
495.815	50104
495.890	14799
495.964	10538
496.039	13052
496.114	12199
496.188	12480
496.263	13285
496.338	11692
496.412	12816
496.487	17397
496.561	14464
496.636	16390
496.710	14326
496.785	15446
496.860	18849
496.934	15122
497.009	14461
497.083	14955
497.158	16420
497.232	18372
497.307	22937
497.381	20256
497.455	23070
497.530	33352
497.604	26108
497.679	26305
497.753	37880
497.827	51303
497.902	49099
497.976	55294
498.050	85392
498.125	305525
498.199	397168
498.273	73701
498.348	53295
498.422	46771
498.496	41013
498.570	37249
498.645	31945
498.719	30273
498.793	31846
498.867	42546
498.941	55536
499.016	108335
499.090	375490
499.164	162936
499.238	22942
499.312	15928
499.386	17228
499.460	18430
499.534	16522
499.609	20029
499.683	31665
499.757	31263
499.831	49898
499.905	215242
499.979	269958
500.053	40472
500.127	33476
500.201	18415
500.275	14056
500.349	14605
500.422	16061
500.496	21096
500.570	36113
500.644	99758
500.718	269334
500.792	69499
500.866	15139
500.940	20461
501.013	17382
501.087	15039
501.161	21786
501.235	32494
501.309	69065
501.382	206288
501.456	225623
501.530	40110
501.603	76335
501.677	33561
501.751	13136
501.825	15034
501.898	24388
501.972	87488
502.046	67600
502.119	16547
502.193	30504
502.266	98246
502.340	55850
502.413	35541
502.487	88199
502.561	53000
502.634	15905
502.708	10177
502.781	8921
502.855	8363
502.928	7720
503.002	7745
503.075	6797
503.149	9076
503.222	9045
503.295	10923
503.369	13554
503.442	19044
503.516	50833
503.589	167721
503.662	127034
503.736	31644
503.809	71186
503.882	66165
503.956	80035
504.029	87682
504.102	23197
504.175	22501
504.249	12108
504.322	11735
504.395	11333
504.468	8551
504.542	8627
504.615	6135
504.688	6102
504.761	5709
504.834	8236
504.907	8605
504.980	12308
505.053	8672
505.127	7590
505.200	12086
505.273	13804
505.346	9260
505.419	6981
505.492	6470
505.565	4793
505.638	4993
505.711	5200
505.784	5647
505.857	5162
505.930	6761
506.003	5222
506.076	7722
506.149	8910
506.221	14367
506.294	11393
506.367	26721
506.440	113637
506.513	76348
506.586	15205
506.659	8353
506.731	5631
506.804	7529
506.877	9068
506.950	9593
507.022	5727
507.095	8079
507.168	12255
507.241	6147
507.313	4616
507.386	6109
507.459	7283
507.531	5580
507.604	5425
507.677	6231
507.749	4349
507.822	6460
507.894	12453
507.967	18934
508.040	12220
508.112	10548
508.185	9650
508.257	8711
508.330	10685
508.402	9459
508.475	9387
508.547	10109
508.620	9726
508.692	16370
508.765	10884
508.837	7639
508.909	7445
508.982	7817
509.054	7950
509.127	8487
509.199	6252
509.271	7399
509.344	6249
509.416	6620
509.488	6852
509.560	6806
509.633	7058
509.705	7980
509.777	7672
509.849	10098
509.922	8629
509.994	8426
510.066	8158
510.138	8435
510.210	17495
510.283	16838
510.355	14611
510.427	11594
510.499	10635
510.571	10346
510.643	10023
510.715	12297
510.787	10501
510.859	10902
510.931	11770
511.003	12579
511.076	12365
511.148	9922
511.219	9356
511.291	15237
511.363	21430
511.435	11015
511.507	8601
511.579	8573
511.651	8826
511.723	9011
511.795	8611
511.867	9111
511.939	10278
512.010	21280
512.082	19771
512.154	8842
512.226	9227
512.298	12765
512.369	19767
512.441	15526
512.513	12049
512.585	10873
512.656	10807
512.728	11181
512.800	10369
512.871	9601
512.943	10390
513.015	9284
513.086	9428
513.158	9964
513.230	10021
513.301	11621
513.373	13156
513.444	9390
513.516	8291
513.588	8556
513.659	9328
513.731	9757
513.802	8541
513.874	12207
513.945	21477
514.016	12084
514.088	8924
514.159	9149
514.231	11319
514.302	17159
514.374	14412
514.445	13301
514.516	24693
514.588	22918
514.659	12791
514.730	22871
514.802	18469
514.873	15736
514.944	19090
515.016	14108
515.087	12964
515.158	16129
515.229	25770
515.301	18403
515.372	26437
515.443	19324
515.514	14228
515.585	9838
515.656	9007
515.728	8795
515.799	8139
515.870	9586
515.941	8995
516.012	8675
516.083	11762
516.154	13589
516.225	13416
516.296	12275
516.367	11847
516.438	11428
516.509	13545
516.580	17340
516.651	33068
516.722	122756
516.793	80140
516.864	19994
516.935	19832
517.006	20491
517.077	25211
517.148	45544
517.219	116757
517.289	257720
517.360	135263
517.431	62128
517.502	13984
517.573	13029
517.643	12586
517.714	14375
517.785	14133
517.856	13246
517.926	15144
517.997	16579
518.068	18410
518.138	23532
518.209	31310
518.280	76342
518.350	331194
518.421	181757
518.492	24442
518.562	15730
518.633	15607
518.703	12283
518.774	15166
518.845	23594
518.915	25319
518.986	16544
519.056	15542
519.127	23471
519.197	36940
519.268	106454
519.338	97996
519.408	20229
519.479	15509
519.549	14233
519.620	10844
519.690	9153
519.760	9533
519.831	8569
519.901	9192
519.971	8702
520.042	9788
520.112	11527
520.182	10114
520.253	12254
520.323	10296
520.393	11746
520.463	18984
520.534	12255
520.604	27796
520.674	15785
520.744	13718
520.814	27891
520.885	30087
520.955	32374
521.025	140165
521.095	77484
521.165	12441
521.235	10521
521.305	8860
521.375	8262
521.445	8765
521.515	10000
521.585	10167
521.655	10024
521.725	9490
521.795	9009
521.865	7751
521.935	12061
522.005	13090
522.075	7980
522.145	7970
522.215	9284
522.285	14169
522.355	17812
522.424	35726
522.494	35485
522.564	13784
522.634	16074
522.704	41573
522.774	22659
522.843	8488
522.913	7174
522.983	8274
523.053	7767
523.122	7237
523.192	8342
523.262	20886
523.331	26357
523.401	7827
523.471	6090
523.540	6235
523.610	5440
523.680	6193
523.749	6565
523.819	8169
523.888	9813
523.958	6312
524.027	6257
524.097	7122
524.166	6243
524.236	6086
524.305	8128
524.375	6410
524.444	6232
524.514	6285
524.583	7160
524.653	9183
524.722	10859
524.791	7615
524.861	7147
524.930	5517
524.999	5883
525.069	7996
525.138	7798
525.207	10597
525.277	8443
525.346	6347
525.415	6743
525.484	6733
525.554	7699
525.623	8069
525.692	7272
525.761	6931
525.830	6355
525.900	7039
525.969	9213
526.038	11281
526.107	12125
526.176	30577
526.245	32061
526.314	14383
526.383	21809
526.452	26972
526.522	38291
526.591	56575
526.660	28496
526.729	15022
526.797	15348
526.867	25329
526.935	103547
527.004	138234
527.073	78323
527.142	11828
527.211	8188
527.280	6832
527.349	7575
527.418	4011
527.487	5127
527.555	4840
527.624	4875
527.693	4318
527.762	5641
527.831	3946
527.899	4469
527.968	4875
528.037	5011
528.106	6306
528.174	9141
528.243	9915
528.312	11530
528.380	16329
528.449	7158
528.518	5014
528.586	3489
528.655	4515
528.723	5649
528.792	3481
528.861	5356
528.929	4877
528.998	4944
529.066	3943
529.135	4695
529.203	3779
529.272	3308
529.340	4877
529.409	5428
529.477	4350
529.545	6838
529.614	8753
529.682	8227
529.751	9518
529.819	9317
529.887	7166
529.956	4946
530.024	4538
530.092	3361
530.161	4655
530.229	6706
530.297	4642
530.365	4300
530.434	3818
530.502	3544
530.570	3473
530.638	2723
530.707	4025
530.775	5338
530.843	3456
530.911	4230
530.979	4304
531.047	3736
531.115	4635
531.183	4566
531.252	4072
531.320	4149
531.388	3661
531.456	4373
531.524	2679
531.592	4482
531.660	5205
531.728	3819
531.796	3601
531.864	4430
531.932	3978
532.000	4311
532.067	4229
532.135	4440
532.203	6197
532.271	5962
532.339	8677
532.407	17658
532.475	13836
532.542	7563
532.610	7965
532.678	8735
532.746	22694
532.814	84433
532.881	26703
532.949	7264
533.017	5228
533.084	4194
533.152	4122
533.220	4605
533.287	3605
533.355	4736
533.423	3891
533.490	3743
533.558	4019
533.625	5347
533.693	6078
533.761	6000
533.828	5925
533.896	5448
533.963	8672
534.031	11617
534.098	13211
534.166	9012
534.233	5465
534.300	5409
534.368	5810
534.435	5129
534.503	5761
534.570	5466
534.637	5318
534.705	4822
534.772	5415
534.840	6239
534.907	13756
534.974	23463
535.041	6461
535.109	7977
535.176	5459
535.243	5260
535.310	4444
535.378	4681
535.445	4014
535.512	3653
535.579	4285
535.646	3677
535.714	4814
535.781	6977
535.848	6408
535.915	6911
535.982	6594
536.049	6575
536.116	6941
536.183	6054
536.250	5105
536.317	5412
536.384	6398
536.451	7779
536.518	7766
536.585	6086
536.652	6840
536.719	9910
536.786	7021
536.853	6643
536.920	9306
536.987	13564
537.053	11214
537.120	33660
537.187	42637
537.254	6743
537.321	4337
537.388	6482
537.454	3861
537.521	4566
537.588	5082
537.654	6225
537.721	7148
537.788	7586
537.855	4436
537.921	5643
537.988	4916
538.055	6127
538.121	5197
538.188	5311
538.254	7379
538.321	11432
538.388	9044
538.454	5648
538.521	5355
538.587	5235
538.654	3967
538.720	4834
538.787	4309
538.853	5112
538.920	6378
538.986	7354
539.053	5978
539.119	6095
539.185	5434
539.252	5961
539.318	7629
539.385	7596
539.451	6816
539.517	8084
539.583	7698
539.650	11314
539.716	32036
539.782	12760
539.849	5053
539.915	6430
539.981	5665
540.047	6610
540.114	6075
540.180	6502
540.246	5544
540.312	6706
540.378	11342
540.444	14004
540.510	11264
540.576	32588
540.643	16412
540.709	5476
540.775	5774
540.841	6075
540.907	8113
540.973	13576
541.039	10148
541.105	9467
541.171	6412
541.237	5603
541.303	6591
541.369	7467
541.435	6889
541.500	10010
541.566	8167
541.632	5122
541.698	4930
541.764	6362
541.830	4436
541.896	4597
541.961	4678
542.027	5273
542.093	6228
542.159	4931
542.224	6028
542.290	9002
542.356	10203
542.421	13285
542.487	7369
542.553	6575
542.618	7626
542.684	6538
542.750	5706
542.815	6854
542.881	9624
542.947	24840
543.012	26088
543.078	5826
543.143	5542
543.209	6792
543.274	5688
543.340	6652
543.405	9582
543.471	19432
543.536	6371
543.602	6066
543.667	4643
543.732	6257
543.798	4706
543.863	5510
543.928	5017
543.994	4839
544.059	4771
544.124	5042
544.190	4497
544.255	4613
544.320	5454
544.386	5329
544.451	6400
544.516	7655
544.581	7786
544.646	15923
544.712	30912
544.777	10629
544.842	7496
544.907	8749
544.972	7847
545.037	6675
545.102	7093
545.168	7113
545.233	7662
545.298	8970
545.363	8584
545.428	9836
545.493	11571
545.558	23012
545.623	14996
545.688	7865
545.753	6786
545.818	7693
545.883	7711
545.947	7602
546.012	7927
546.077	8528
546.142	7697
546.207	7556
546.272	7315
546.337	8814
546.401	8410
546.466	8256
546.531	6616
546.596	8569
546.661	7989
546.725	7792
546.790	6121
546.855	6003
546.919	5989
546.984	7385
547.049	7694
547.113	11053
547.178	7712
547.243	9176
547.307	9988
547.372	10897
547.436	12982
547.501	9206
547.565	8329
547.630	9910
547.695	10329
547.759	13258
547.823	11578
547.888	8738
547.952	8360
548.017	8010
548.081	10137
548.146	13409
548.210	13282
548.274	8579
548.339	8581
548.403	8723
548.468	7161
548.532	7465
548.596	7781
548.660	8829
548.725	8291
548.789	10410
548.853	12676
548.917	9115
548.982	12130
549.046	14821
549.110	7137
549.174	7932
549.238	7242
549.303	6896
549.367	8534
549.431	8415
549.495	7641
549.559	7714
549.623	8270
549.687	9013
549.751	11610
549.815	10098
549.879	10484
549.943	8099
550.007	10716
550.071	10141
550.135	11280
550.199	9846
550.263	10183
550.327	10773
550.391	14042
550.455	11704
550.519	9062
550.582	11159
550.646	10301
550.710	12124
550.774	11318
550.838	10412
550.901	10391
550.965	11925
551.029	11667
551.093	14185
551.156	17504
551.220	30073
551.284	39345
551.347	19656
551.411	33744
551.475	50238
551.538	14941
551.602	10089
551.666	9694
551.729	8550
551.793	9802
551.856	10100
551.920	9597
551.983	9274
552.047	8125
552.110	9585
552.174	9035
552.237	9508
552.301	9193
552.364	8894
552.428	8453
552.491	8297
552.554	9063
552.618	9029
552.681	9666
552.745	9225
552.808	11233
552.871	14468
552.934	12559
552.998	9370
553.061	10136
553.124	10350
553.187	10449
553.251	11315
553.314	13055
553.377	13777
553.440	18527
553.503	44109
553.567	101981
553.630	27628
553.693	10952
553.756	10526
553.819	8935
553.882	8413
553.945	7997
554.008	8369
554.071	7491
554.134	8921
554.197	7860
554.260	7947
554.323	8748
554.386	7972
554.449	7410
554.512	8894
554.575	7611
554.638	8308
554.701	8145
554.764	8123
554.827	7370
554.889	6771
554.952	6668
555.015	6260
555.078	5977
555.141	8514
555.203	6639
555.266	6772
555.329	7427
555.391	7319
555.454	6972
555.517	6841
555.580	6669
555.642	6005
555.705	6425
555.768	7467
555.830	6591
555.893	6585
555.955	5505
556.018	6733
556.080	6195
556.143	6445
556.206	5852
556.268	7953
556.330	6647
556.393	7225
556.455	6840
556.518	9313
556.580	12345
556.643	6094
556.705	5943
556.767	4837
556.830	7308
556.892	6695
556.955	7646
557.017	8474
557.079	6844
557.142	6033
557.204	6310
557.266	10823
557.328	10340
557.391	5603
557.453	5316
557.515	6349
557.577	6551
557.639	7617
557.701	5428
557.764	4938
557.826	4865
557.888	7243
557.950	6114
558.012	5561
558.074	6628
558.136	10109
558.198	20234
558.260	13639
558.322	6015
558.384	6791
558.446	7611
558.508	7886
558.570	10490
558.632	14516
558.694	21609
558.756	19272
558.818	36333
558.880	118608
558.942	54590
559.003	23224
559.065	16623
559.127	7966
559.189	8190
559.251	10104
559.312	10244
559.374	18187
559.436	60931
559.498	48640
559.559	8565
559.621	8802
559.683	10000
559.744	13734
559.806	29186
559.868	53510
559.929	17511
559.991	10090
560.052	9993
560.114	21069
560.176	18945
560.237	13014
560.299	21886
560.360	10970
560.422	6461
560.483	7283
560.545	6626
560.606	6986
560.667	6346
560.729	6698
560.790	5513
560.852	6385
560.913	6334
560.974	6858
561.036	6002
561.097	6902
561.158	6752
561.220	6991
561.281	5901
561.342	6339
561.403	7821
561.465	7625
561.526	12319
561.587	20340
561.648	8529
561.709	6506
561.771	6335
561.832	6680
561.893	6304
561.954	6940
562.015	5839
562.076	6761
562.137	5843
562.198	5638
562.259	6350
562.320	5616
562.381	6697
562.442	7637
562.503	7834
562.564	6144
562.625	5287
562.686	5906
562.747	5550
562.808	6459
562.869	5788
562.930	8962
562.991	8078
563.051	7518
563.112	7087
563.173	7312
563.234	5602
563.294	6648
563.355	6511
563.416	6964
563.477	6083
563.537	6138
563.598	7299
563.659	7450
563.720	6471
563.780	7002
563.841	6750
563.901	7138
563.962	6656
564.023	7263
564.083	6750
564.144	8177
564.204	7210
564.265	8185
564.325	9195
564.386	15509
564.446	18417
564.507	8053
564.567	6642
564.628	7376
564.688	7359
564.749	6831
564.809	8153
564.869	10590
564.930	7871
564.990	7896
565.050	5865
565.111	7600
565.171	6624
565.231	7188
565.292	7520
565.352	6718
565.412	7054
565.472	7356
565.532	7305
565.593	7130
565.653	7254
565.713	7490
565.773	8026
565.833	8397
565.893	10417
565.953	8972
566.013	7208
566.074	9856
566.134	10933
566.194	15614
566.254	18228
566.314	13652
566.374	9695
566.434	10088
566.494	10508
566.554	10226
566.614	11508
566.673	11585
566.733	12268
566.793	12721
566.853	13593
566.913	14461
566.973	14480
567.033	15458
567.092	14000
567.152	14200
567.212	14529
567.272	15275
567.331	15991
567.391	16862
567.451	17625
567.511	20483
567.570	22140
567.630	16536
567.690	14847
567.749	15699
567.809	17336
567.868	19886
567.928	22960
567.988	26978
568.047	30744
568.107	38724
568.166	51492
568.226	74936
568.285	108719
568.345	108508
568.404	88363
568.464	74327
568.523	68675
568.582	67914
568.642	75209
568.701	89562
568.761	120206
568.820	177509
568.879	204198
568.939	163966
568.998	121720
569.057	92150
569.116	73624
569.176	57928
569.235	46571
569.294	39301
569.353	33306
569.413	30623
569.472	27132
569.531	23031
569.590	20205
569.649	18387
569.708	17247
569.767	16745
569.827	16057
569.886	15638
569.945	13590
570.004	12336
570.063	12268
570.122	12137
570.181	11894
570.240	12339
570.299	12725
570.358	12155
570.417	9328
570.475	9371
570.534	9195
570.593	9266
570.652	9190
570.711	8495
570.770	8105
570.829	9788
570.887	9078
570.946	8630
571.005	6374
571.064	7825
571.122	7336
571.181	8738
571.240	7225
571.299	7902
571.357	7562
571.416	8796
571.475	8466
571.533	10228
571.592	7516
571.650	8470
571.709	6221
571.768	7469
571.826	6428
571.885	6849
571.943	6483
572.002	6451
572.060	7129
572.119	6047
572.177	6287
572.236	5340
572.294	5788
572.352	5856
572.411	5060
572.469	4997
572.528	5304
572.586	6251
572.644	5924
572.703	7024
572.761	6144
572.819	5825
572.877	5362
572.936	5251
572.994	5275
573.052	5546
573.110	5840
573.169	5595
573.227	5328
573.285	5796
573.343	5084
573.401	6525
573.459	5758
573.517	4886
573.576	6019
573.634	6348
573.692	5846
573.750	5534
573.808	5532
573.866	6284
573.924	6893
573.982	7501
574.040	5763
574.098	6000
574.155	5088
574.213	5528
574.271	5212
574.329	5343
574.387	5207
574.445	4965
574.503	5588
574.560	4813
574.618	4691
574.676	5088
574.734	5110
574.792	5669
574.849	5186
574.907	3915
574.965	4560
575.022	4676
575.080	4208
575.138	4691
575.195	4687
575.253	5028
575.311	4791
575.368	5220
575.426	4693
575.483	5714
575.541	5184
575.598	4982
575.656	5585
575.713	5312
575.771	5167
575.828	5609
575.886	4342
575.943	5895
576.001	5681
576.058	5327
576.115	5304
576.173	6566
576.230	7487
576.287	7565
576.345	7467
576.402	6274
576.459	6037
576.517	6893
576.574	6578
576.631	7218
576.688	6575
576.746	6648
576.803	5990
576.860	5682
576.917	5847
576.974	5349
577.031	5359
577.089	5239
577.146	6108
577.203	6483
577.260	6354
577.317	5722
577.374	7493
577.431	7212
577.488	6440
577.545	5396
577.602	6093
577.659	6048
577.716	6938
577.773	7843
577.830	6164
577.886	6582
577.943	5910
578.000	6015
578.057	6712
578.114	7362
578.171	6997
578.227	8710
578.284	8919
578.341	7789
578.398	6625
578.454	7647
578.511	7051
578.568	8447
578.625	6986
578.681	6623
578.738	6204
578.794	6650
578.851	6175
578.908	6745
578.964	6036
579.021	7207
579.077	6082
579.134	6863
579.190	5981
579.247	6048
579.303	5420
579.360	4927
579.416	5008
579.473	5433
579.529	5315
579.586	6407
579.642	6617
579.698	6749
579.755	6684
579.811	6141
579.867	6749
579.924	6709
579.980	6481
580.036	7521
580.093	9038
580.149	10070
580.205	12158
580.261	11103
580.317	8951
580.374	8310
580.430	8084
580.486	9367
580.542	7391
580.598	7479
580.619	7352
580.654	7143
580.692	6727
580.710	6534
580.765	6601
580.767	6611
580.823	7015
580.838	6938
580.879	6754
580.911	6953
580.935	7113
580.984	6408
580.991	6322
581.047	7575
581.057	7471
581.103	7042
581.130	7115
581.159	7207
581.203	7816
581.215	7991
581.270	8863
581.276	8773
581.326	7937
581.349	7760
581.382	7543
581.422	7315
581.438	7230
581.494	7629
581.494	7618
581.550	7194
581.567	7372
581.606	7778
581.640	7365
581.661	7123
581.713	7730
581.717	7782
581.773	7715
581.786	7563
581.829	7125
581.859	7014
581.885	6911
581.932	7758
581.940	7923
581.996	7401
582.004	7396
582.052	7371
582.077	6917
582.107	6408
582.150	7628
582.163	7992
582.219	7194
582.223	7224
582.274	7734
582.296	7767
582.330	7755
582.368	8321
582.386	8607
582.441	7590
582.441	7591
582.497	8211
582.514	8101
582.552	7875
582.587	8209
582.608	8479
582.659	8087
582.663	8038
582.719	7848
582.732	7707
582.774	7290
582.805	7606
582.830	7973
582.877	8347
582.885	8381
582.941	8143
582.950	8203
582.996	8644
583.023	8602
583.052	8584
583.095	8335
583.107	8264
583.162	10028
583.168	10069
583.218	10383
583.240	10045
583.273	9613
583.313	9768
583.328	9787
583.384	9329
583.385	9296
583.439	8163
583.458	8223
583.494	8588
583.531	8368
583.549	8140
583.603	8521
583.605	8542
583.660	7846
583.676	8170
583.715	8824
583.748	8645
583.770	8591
583.820	9024
583.825	9061
583.881	9678
583.893	9635
583.936	9413
583.965	9159
583.991	8889
584.038	9469
584.046	9571
584.101	8129
584.110	8223
584.156	9060
584.183	9341
584.211	9325
584.255	9338
584.266	9380
584.321	8814
584.328	8829
584.376	8888
584.400	9190
584.431	9744
584.472	9427
584.486	9222
584.541	9071
584.545	9114
584.596	9892
584.617	9937
584.651	10112
584.689	10318
584.706	10262
584.761	10590
584.762	10593
584.816	10608
584.834	10743
584.871	10808
584.906	10915
584.926	10948
584.978	10546
584.980	10537
585.035	11076
585.051	11317
585.090	11877
585.123	12751
585.145	13192
585.195	12986
585.200	12963
585.254	12597
585.267	12898
585.309	14212
585.340	15079
585.364	15699
585.412	15107
585.419	14903
585.473	15052
585.484	14920
585.528	14802
585.556	15478
585.583	16303
585.628	17836
585.637	18343
585.692	23311
585.700	24893
585.747	34178
585.772	33916
585.801	29893
585.845	20000
585.856	18028
585.910	16083
585.917	15867
585.965	15455
585.989	15580
586.019	15572
586.061	15587
586.074	15659
586.128	16635
586.133	16691
586.183	17078
586.205	17165
586.237	17121
586.277	17734
586.292	18029
586.346	18921
586.349	18966
586.401	19000
586.421	19030
586.455	18965
586.493	19495
586.509	20023
586.564	22614
586.565	22766
586.618	29651
586.637	31104
586.672	31484
586.709	27373
586.727	24905
586.781	22647
586.781	22614
586.835	22660
586.853	23033
586.889	23920
586.925	23965
586.944	23914
586.996	25110
586.998	25115
587.052	25911
587.068	26398
587.106	27266
587.140	27954
587.161	28199
587.212	29129
587.215	29151
587.269	30413
587.284	30985
587.323	32317
587.356	33163
587.377	33660
587.427	35865
587.431	35955
587.485	37432
587.499	38109
587.539	39901
587.571	41039
587.593	41945
587.643	45112
587.648	45281
587.702	47148
587.715	47954
587.755	50557
587.786	52525
587.810	54080
587.858	58704
587.864	59114
587.917	63908
587.930	65273
587.971	69940
588.001	74165
588.025	77562
588.073	85094
588.079	85862
588.133	94647
588.145	97191
588.187	106616
588.217	113579
588.241	119391
588.288	133314
588.295	135055
588.348	153452
588.360	158123
588.402	176906
588.431	192241
588.456	205147
588.503	232849
588.510	237012
588.564	278371
588.575	288818
588.617	331692
588.646	364025
588.671	399313
588.718	475121
588.725	489727
588.778	615202
588.789	641661
588.832	777971
588.861	860525
588.886	913841
588.932	965391
588.939	951580
588.993	816424
589.004	811283
589.047	902808
589.075	973097
589.100	955458
589.147	846869
589.154	826350
589.207	649675
589.218	616115
589.261	547097
589.290	510680
589.314	504053
589.361	508111
589.368	515670
589.421	600451
589.433	620774
589.475	747493
589.504	826755
589.528	862774
589.576	884756
589.582	875848
589.635	851059
589.647	849525
589.689	783505
589.718	696770
589.742	606339
589.790	422810
589.795	409697
589.849	305630
589.861	284570
589.902	241280
589.932	212777
589.955	195032
590.004	161628
590.009	158580
590.062	133596
590.075	128358
590.115	115755
590.146	107157
590.168	101405
590.218	90499
590.222	89514
590.275	80756
590.289	78888
590.328	72862
590.360	68510
590.381	65866
590.431	60710
590.435	60270
590.488	56056
590.503	55204
590.541	51708
590.574	49106
590.594	47632
590.645	44212
590.647	43950
590.700	41210
590.716	40525
590.753	39180
590.787	38159
590.806	37178
590.859	35153
590.859	35012
590.912	33176
590.930	32706
590.965	31220
591.001	29948
591.018	29543
591.071	28892
591.072	28976
591.124	27199
591.143	26799
591.177	26295
591.214	25774
591.230	25386
591.283	24492
591.285	24533
591.336	23675
591.356	23530
591.389	22831
591.427	21875
591.442	21545
591.495	20819
591.498	20832
591.547	20140
591.569	19987
591.600	19580
591.640	19062
591.653	18783
591.706	18031
591.711	18004
591.759	18012
591.782	18221
591.811	18384
591.853	18627
591.864	18384
591.917	17420
591.924	17336
591.969	16046
591.995	15447
592.022	15386
592.066	15439
592.075	15402
592.127	15495
592.137	15585
592.180	16581
592.208	17313
592.233	16836
592.279	15950
592.285	15729
592.338	14341
592.350	14067
592.390	13330
592.421	12892
592.443	12985
592.491	13331
592.495	13279
592.548	13223
592.562	13259
592.600	12865
592.633	12606
592.653	12252
592.704	11406
592.705	11482
592.775	12093
592.846	11292
592.916	11888
592.987	11424
593.058	11528
593.128	10353
593.199	10889
593.270	9846
593.341	9838
593.411	10452
593.482	8300
593.553	10012
593.623	9763
593.694	9004
593.764	9569
593.835	9694
593.906	8905
593.976	8599
594.047	9511
594.117	9840
594.188	11264
594.258	8937
594.329	8176
594.399	8394
594.470	8122
594.540	8014
594.611	8630
594.681	7728
594.751	7619
594.822	8269
594.892	9403
594.963	8162
595.033	8228
595.103	7247
595.174	8225
595.244	10143
595.314	15213
595.384	9822
595.455	7505
595.525	7865
595.595	7863
595.665	7960
595.736	7723
595.806	7675
595.876	7252
595.946	6947
596.016	7055
596.087	8117
596.157	7494
596.227	7331
596.297	7207
596.367	6996
596.437	8365
596.507	8814
596.577	12755
596.647	9479
596.717	6971
596.787	6346
596.857	6962
596.927	6356
596.997	6822
597.067	6787
597.137	7679
597.207	8078
597.277	7266
597.347	6917
597.417	7140
597.487	7311
597.557	7038
597.626	7642
597.696	7171
597.766	7771
597.836	11296
597.906	10353
597.975	6788
598.045	6612
598.115	6837
598.185	6565
598.254	6529
598.324	6288
598.394	6599
598.464	7272
598.533	6296
598.603	6962
598.672	7545
598.742	6311
598.812	6557
598.881	6797
598.951	6616
599.020	6658
599.090	6137
599.159	6813
599.229	5968
599.299	5452
599.368	6240
599.437	5853
599.507	6355
599.576	6813
599.646	6016
599.715	7232
599.785	6483
599.854	5358
599.924	6800
599.993	7382
600.062	5282
600.132	6126
600.201	5371
600.270	6262
600.340	6873
600.409	6251
600.478	5819
600.547	5872
600.617	6410
600.686	4982
600.755	5468
600.824	5684
600.894	5941
600.963	4956
601.032	5605
601.101	4950
601.170	4623
601.239	4404
601.308	4872
601.378	5113
601.447	5324
601.516	4986
601.585	4998
601.654	5089
601.723	5313
601.792	5267
601.861	5257
601.930	5943
601.999	6133
602.068	4824
602.137	5755
602.206	6354
602.275	5162
602.343	5717
602.412	6329
602.481	5583
602.550	5057
602.619	4208
602.688	5239
602.756	4948
602.825	5808
602.894	5657
602.963	4488
603.032	4921
603.100	5127
603.169	4792
603.238	4657
603.307	4988
603.375	5746
603.444	4721
603.513	4818
603.581	5096
603.650	5076
603.719	4580
603.787	4408
603.856	5185
603.924	4465
603.993	5466
604.061	4938
604.130	4504
604.198	5082
604.267	5580
604.335	5196
604.404	5331
604.472	4992
604.541	5258
604.609	4872
604.678	4955
604.746	5084
604.815	5380
604.883	5566
604.951	4901
605.020	5686
605.088	5105
605.156	5063
605.225	4573
605.293	5132
605.361	5212
605.429	5667
605.498	5445
605.566	5497
605.634	5126
605.702	5036
605.771	5309
605.839	5644
605.907	5286
605.975	5166
606.043	5265
606.111	4769
606.180	5618
606.248	6142
606.316	8083
606.384	6779
606.452	6512
606.520	6388
606.588	5016
606.656	4812
606.724	4658
606.792	5331
606.860	4810
606.928	4890
606.996	4680
607.064	4283
607.132	4330
607.200	4373
607.267	4635
607.335	4754
607.403	4249
607.471	4623
607.539	4576
607.607	4437
607.674	4159
607.742	4577
607.810	4671
607.878	4271
607.946	4461
608.013	3969
608.081	4054
608.149	3570
608.216	4439
608.284	4521
608.352	4033
608.419	5020
608.487	6176
608.555	6313
608.622	4141
608.690	4433
608.757	4079
608.825	5252
608.893	4343
608.960	5448
609.028	6137
609.095	7974
609.163	6007
609.230	4443
609.298	4901
609.365	5214
609.432	3719
609.500	3426
609.567	4892
609.635	5819
609.702	5311
609.769	6441
609.837	5114
609.904	5401
609.971	4862
610.039	5006
610.106	5814
610.173	10837
610.241	24473
610.308	34583
610.375	22847
610.442	8805
610.509	5140
610.577	5403
610.644	4560
610.711	4334
610.778	4478
610.845	4343
610.912	5013
610.980	5393
611.047	7363
611.114	8268
611.181	4848
611.248	4249
611.315	4960
611.382	4574
611.449	3842
611.516	4690
611.583	5062
611.650	4563
611.717	5400
611.784	4723
611.851	4883
611.918	5856
611.984	6802
612.051	8818
612.118	18504
612.185	45248
612.252	61654
612.319	12623
612.386	6760
612.452	6893
612.519	6189
612.586	7957
612.653	8446
612.719	5620
612.786	5221
612.853	4856
612.919	4564
612.986	5012
613.053	4355
613.120	4709
613.186	3453
613.253	4797
613.319	5195
613.386	4326
613.453	4146
613.519	4763
613.586	5583
613.652	7172
613.719	6639
613.785	5265
613.852	5759
613.918	4039
613.985	5655
614.051	8273
614.118	15574
614.184	27987
614.250	8491
614.317	5344
614.383	5209
614.449	4065
614.516	4816
614.582	4893
614.648	4040
614.715	3808
614.781	4789
614.847	4305
614.914	4238
614.980	4864
615.046	4734
615.112	4390
615.179	5235
615.245	6706
615.311	8264
615.377	17316
615.443	27451
615.509	15946
615.575	8618
615.642	6244
615.708	6345
615.774	6572
615.840	9009
615.906	11760
615.972	18369
616.038	39184
616.104	66794
616.170	78966
616.236	108543
616.302	29423
616.368	11361
616.434	8279
616.500	6690
616.565	7576
616.631	7990
616.697	6964
616.763	6913
616.829	7533
616.895	13920
616.961	18106
617.026	11183
617.092	5615
617.158	4650
617.224	4490
617.289	4200
617.355	4337
617.421	4764
617.487	5487
617.552	4025
617.618	4353
617.684	4274
617.749	4383
617.815	4240
617.880	4038
617.946	3978
618.012	4499
618.077	4028
618.143	2916
618.208	4056
618.274	4309
618.339	5341
618.405	4639
618.470	4667
618.536	3007
618.601	4659
618.667	4499
618.732	4428
618.798	5361
618.863	3727
618.928	3873
618.994	3909
619.059	4929
619.124	5596
619.190	5574
619.255	3668
619.320	4462
619.386	4000
619.451	3597
619.516	3903
619.581	3828
619.647	4174
619.712	4517
619.777	3462
619.842	4123
619.907	4645
619.972	4072
620.038	3743
620.103	4194
620.168	3470
620.233	4620
620.298	3411
620.363	3511
620.428	4083
620.493	3366
620.558	3634
620.623	3853
620.688	3666
620.753	3358
620.818	3157
620.883	3421
620.948	3508
621.013	3580
621.078	3604
621.143	3566
621.207	5285
621.272	4885
621.337	4499
621.402	5066
621.467	6167
621.532	7865
621.596	5441
621.661	4931
621.726	3768
621.791	4345
621.855	4366
621.920	4487
621.985	4780
622.049	6274
622.114	6079
622.179	5244
622.243	5753
622.308	4595
622.373	4725
622.437	4161
622.502	5218
622.566	3922
622.631	3860
622.695	4537
622.760	4592
622.824	4255
622.889	4099
622.953	4790
623.018	6044
623.082	7268
623.147	5004
623.211	3866
623.276	5074
623.340	4367
623.404	4120
623.469	4054
623.533	4037
623.597	4160
623.662	3584
623.726	4322
623.790	4292
623.854	3324
623.919	4456
623.983	4179
624.047	4850
624.111	4509
624.176	4075
624.240	4849
624.304	4559
624.368	4858
624.432	3978
624.496	4293
624.560	4855
624.625	5028
624.689	3615
624.753	4319
624.817	4221
624.881	3588
624.945	3585
625.009	3402
625.073	4199
625.137	3803
625.201	5037
625.265	5348
625.329	3557
625.393	3569
625.456	4543
625.520	3337
625.584	4979
625.648	6299
625.712	9055
625.776	20203
625.839	32540
625.903	20686
625.967	5480
626.031	7840
626.095	16239
626.158	10104
626.222	3822
626.286	3823
626.349	3741
626.413	2687
626.477	3028
626.540	3350
626.604	2370
626.668	3125
626.731	2489
626.795	3286
626.858	3126
626.922	3238
626.986	2781
627.049	3946
627.113	2369
627.176	3390
627.240	3120
627.303	2915
627.366	3092
627.430	2572
627.493	2420
627.557	1922
627.620	3391
627.684	3182
627.747	3230
627.810	2267
627.874	3200
627.937	1665
628.000	3156
628.064	2415
628.127	2704
628.190	2476
628.253	2050
628.317	1979
628.380	2384
628.443	2056
628.506	3060
628.569	2863
628.632	1871
628.696	2398
628.759	2321
628.822	2354
628.885	2408
628.948	2494
629.011	2502
629.074	1906
629.137	1837
629.200	2190
629.263	2645
629.326	2181
629.389	2556
629.452	2269
629.515	2642
629.578	2238
629.641	3140
629.704	3067
629.767	1549
629.830	2586
629.892	2614
629.955	2015
630.018	1936
630.081	1732
630.144	3485
630.207	1529
630.269	3033
630.332	2641
630.395	2103
630.458	2184
630.520	1440
630.583	3222
630.646	1808
630.708	1946
630.771	1433
630.834	2308
630.896	1680
630.959	1944
631.021	1472
631.084	2177
631.146	2142
631.209	2934
631.272	2190
631.334	1996
631.397	1303
631.459	1142
631.522	1155
631.584	1703
631.646	1828
631.709	2006
631.771	2177
631.834	2435
631.896	1760
631.958	1763
632.021	1517
632.083	1998
632.145	2220
632.208	1452
632.270	1803
632.332	487
632.395	1605
632.457	2005
632.519	1919
632.581	1588
632.643	1406
632.706	1928
632.768	1610
632.830	1840
632.892	1184
632.954	1226
633.016	1651
633.078	1225
633.141	1909
633.203	1125
633.265	2115
633.327	828
633.389	1395
633.451	1710
633.513	1744
633.575	2217
633.637	2324
633.698	1457
633.760	2412
633.822	1368
633.884	2061
633.946	1197
634.008	1032
634.070	1375
634.132	2057
634.193	2042
634.255	1485
634.317	1114
634.379	1370
634.441	1335
634.502	1436
634.564	2020
634.626	1165
634.687	2205
634.749	1253
634.811	1451
634.873	1375
634.934	2474
634.996	965
635.057	1253
635.119	784
635.181	694
635.242	1941
635.304	545
635.365	2593
635.427	768
635.488	741
635.550	1188
635.611	1229
635.673	407
635.734	1375
635.796	996
635.857	1577
635.918	1306
635.980	1157
636.041	1749
636.102	1830
636.164	1718
636.225	2289
636.286	1287
636.348	1501
636.409	1684
636.470	1099
636.531	1123
636.593	1151
636.654	2039
636.715	910
636.776	1073
636.838	747
636.899	1571
636.960	462
637.021	1562
637.082	940
637.143	1383
637.204	67
637.265	817
637.326	174
637.387	1214
637.448	167
637.509	1185
637.570	711
637.631	1027
637.692	588
637.753	-27
637.814	835
637.875	986
637.936	1136
637.997	500
638.058	1210
638.119	1392
638.179	607
638.240	1037
638.301	902
638.362	463
638.423	996
638.483	1145
638.544	582
638.605	1137
638.666	252
638.726	1531
638.787	1129
638.848	789
638.908	678
638.969	652
639.030	830
639.090	458
639.151	1219
639.211	1264
639.272	1026
639.332	1471
639.393	1309
639.453	-62
639.514	324
639.574	981
639.635	419
639.695	868
639.756	744
639.816	619
639.877	-90
639.937	1903
639.997	2192
640.058	1385
640.118	701
640.178	787
640.239	412
640.299	-213
640.359	210
640.420	856
640.480	1172
640.540	-346
640.600	89
640.661	116
640.721	-366
640.781	992
640.841	44
640.901	802
640.961	1276
641.021	1114
641.082	36
641.142	644
641.202	1249
641.262	-163
641.322	1218
641.382	841
641.442	-89
641.502	547
641.562	644
641.622	538
641.682	286
641.742	-124
641.802	740
641.861	988
641.921	40
641.981	1340
642.041	873
642.101	1139
642.161	765
642.221	70
642.280	-13
642.340	-64
642.400	-69
642.460	442
642.519	810
642.579	-21
642.639	897
642.698	-412
642.758	1555
642.818	939
642.877	-222
642.937	-49
642.997	880
643.056	654
643.116	-97
643.175	252
643.235	189
643.294	1176
643.354	1046
643.414	759
643.473	1018
643.532	1525
643.592	931
643.651	2085
643.711	4040
643.770	8161
643.830	15651
643.889	50740
643.948	36664
644.008	3828
644.067	721
644.126	470
644.186	107
644.245	892
644.304	478
644.363	1574
644.423	-287
644.482	62
644.541	-358
644.600	-213
644.659	707
644.719	138
644.778	215
644.837	1251
644.896	2393
644.955	7579
645.014	6032
645.073	2238
645.132	501
645.191	766
645.250	-130
645.309	415
645.368	-128
645.427	730
645.486	342
645.545	1599
645.604	427
645.663	397
645.722	566
645.781	454
645.840	-181
645.898	170
645.957	1394
646.016	1400
646.075	3531
646.134	5700
646.192	13864
646.251	39266
646.310	15636
646.369	1263
646.427	1089
646.486	-14
646.545	211
646.603	568
646.662	319
646.721	-370
646.779	354
646.838	-229
646.896	-74
646.955	295
647.014	1298
647.072	1453
647.131	3265
647.189	5600
647.248	5
647.306	73
647.365	44
647.423	-1232
647.481	979
647.540	-731
647.598	-137
647.657	-235
647.715	396
647.773	-1038
647.832	-25
647.890	-491
647.948	-316
648.007	821
648.065	-497
648.123	212
648.181	941
648.240	-229
648.298	558
648.356	185
648.414	561
648.472	8
648.531	941
648.589	396
648.647	487
648.705	-349
648.763	-451
648.821	-27
648.879	-86
648.937	338
648.995	-2
649.053	177
649.111	857
649.169	1191
649.227	2553
649.285	3580
649.343	12429
649.401	17120
649.459	4629
649.516	3714
649.574	2245
649.632	4786
649.690	10925
649.748	3998
649.806	1465
649.863	4869
649.921	3690
649.979	3560
650.037	1266
650.094	-66
650.152	100
650.210	-507
650.268	784
650.325	-59
650.383	-712
650.440	-775
650.498	849
650.556	-137
650.613	-411
650.671	833
650.728	-64
650.786	-111
650.843	-12
650.901	-313
650.958	98
651.016	447
651.073	-156
651.131	-666
651.188	-241
651.246	49
651.303	-1276
651.360	524
651.418	-647
651.475	-647
651.532	-947
651.590	691
651.647	-472
651.704	369
651.762	317
651.819	15
651.876	-691
651.933	2
651.990	-604
652.048	-1088
652.105	-680
652.162	131
652.219	-760
652.276	131
652.333	360
652.390	-880
652.448	-763
652.505	-75
652.562	-413
652.619	49
652.676	-159
652.733	1551
652.790	452
652.847	-904
652.904	266
652.961	-800
653.017	-597
653.074	529
653.131	-477
653.188	-767
653.245	-1020
653.302	-255
653.359	-385
653.415	-137
653.472	-577
653.529	-257
653.586	-1340
653.642	-404
653.699	815
653.756	-911
653.813	120
653.869	-410
653.926	-839
653.983	-848
654.039	228
654.096	-485
654.152	386
654.209	-1058
654.266	-308
654.322	-1201
654.379	-242
654.435	220
654.492	0
654.548	342
654.605	737
654.661	1823
654.717	-105
654.774	-86
654.830	-162
654.887	-241
654.943	-127
655.000	-155
655.056	-65
655.112	-221
655.168	-627
655.225	-778
655.281	867
655.337	-380
655.394	1043
655.450	1134
655.506	452
655.562	279
655.618	1719
655.675	-1018
655.731	10
655.787	40
655.843	-492
655.899	-341
655.955	434
656.011	177
656.067	-680
656.123	-88
656.179	1282
656.235	651
656.291	455
656.347	520
656.403	239
656.459	31
656.515	217
656.571	-207
656.627	164
656.683	-169
656.739	1077
656.795	114
656.850	-24
656.906	-78
656.962	168
657.018	-1307
657.074	-675
657.129	-283
657.185	563
657.241	-25
657.297	-448
657.352	116
657.408	-630
657.464	439
657.519	-900
657.575	-1094
657.630	-429
657.686	-954
657.742	-1138
657.797	-78
657.853	-1148
657.908	524
657.964	-705
658.019	-254
658.075	-330
658.130	-367
658.186	-527
658.241	-473
658.297	-266
658.352	-1351
658.407	-513
658.463	-716
658.518	-278
658.573	-381
658.629	-1098
658.684	-663
658.739	-749
658.795	-636
658.850	-449
658.905	-1362
658.960	-363
659.016	53
659.071	-899
659.126	-660
659.181	-1150
659.236	110
659.291	373
659.346	-664
659.401	-324
659.457	321
659.512	-158
659.567	156
659.622	-179
659.677	-1034
659.732	-1584
659.787	-466
659.842	-519
659.897	-581
659.952	155
660.007	-176
660.061	-515
660.116	-1013
660.171	-1062
660.226	-892
660.281	-198
660.336	-1177
660.391	-918
660.445	-669
660.500	-400
660.555	-776
660.610	-1059
660.664	278
660.719	-1351
660.774	-10
660.828	-955
660.883	-270
660.938	-535
660.992	-779
661.047	-602
661.101	-617
661.156	-822
661.211	-1373
661.265	-325
661.320	-514
661.374	-1017
661.429	-1051
661.483	-228
661.538	-1165
661.592	-913
661.647	-585
661.701	-382
661.755	-872
661.810	-55
661.864	-944
661.919	-1274
661.973	-117
662.027	-520
662.081	-863
662.136	-834
662.190	-412
662.244	7
662.299	-328
662.353	130
662.407	-1119
662.461	-1671
662.515	-472
662.569	97
662.624	-122
662.678	-1079
662.732	-354
662.786	-1021
662.840	-705
662.894	216
662.948	-1327
663.002	-785
663.056	-540
663.110	-1061
663.164	-822
663.218	57
663.272	-1475
663.326	12
663.380	-280
663.434	-569
663.488	-1158
663.542	-859
663.595	-1142
663.649	-1208
663.703	232
663.757	65
663.811	-777
663.864	-548
663.918	-109
663.972	-494
664.026	56
664.079	-607
664.133	-532
664.187	-103
664.240	-894
664.294	-893
664.348	-975
664.401	-578
664.455	22
664.508	-1275
664.562	-569
664.615	-993
664.669	-952
664.722	-412
664.776	-439
664.829	-811
664.883	-41
664.936	-1158
664.990	13
665.043	-597
665.097	-666
665.150	900
665.203	-702
665.257	-243
665.310	-500
665.363	-1286
665.417	-437
665.470	-448
665.523	-706
665.576	-21
665.630	-743
665.683	-215
665.736	-67
665.789	-734
665.842	-613
665.895	-616
665.949	394
666.002	-442
666.055	-301
666.108	258
666.161	-508
666.214	-165
666.267	-292
666.320	-210
666.373	-477
666.426	-206
666.479	-1134
666.532	-213
666.585	-392
666.638	201
666.691	-846
666.744	275
666.796	-777
666.849	-566
666.902	-62
666.955	-374
667.008	-1492
667.060	-204
667.113	-850
667.166	-118
667.219	5
667.271	281
667.324	-858
667.377	-1133
667.430	-8
667.482	-1331
667.535	-734
667.587	-327
667.640	76
667.693	-515
667.745	-996
667.798	1372
667.850	197
667.903	-328
667.955	-904
668.008	-683
668.060	-231
668.113	-738
668.165	-432
668.218	-977
668.270	-572
668.322	-297
668.375	-795
668.427	568
668.479	-266
668.532	-309
668.584	-317
668.636	-594
668.689	-647
668.741	-302
668.793	-669
668.845	-1304
668.898	-227
668.950	-653
669.002	-320
669.054	87
669.106	-660
669.158	-101
669.211	-977
669.263	-621
669.315	-15
669.367	1001
669.419	-40
669.471	402
669.523	-50
669.575	1177
669.627	117
669.679	-165
669.731	-209
669.783	-201
669.835	320
669.886	74
669.938	-3
669.990	-244
670.042	-581
670.094	-107
670.146	242
670.197	301
670.249	9
670.301	104
670.353	946
670.404	2370
670.456	2836
670.508	6089
670.560	11045
670.611	19962
670.663	35087
670.715	67132
670.766	176381
670.818	139980
670.869	22234
670.921	5069
670.972	3011
671.024	1442
671.075	1292
671.127	991
671.178	297
671.230	309
671.281	370
671.333	571
671.384	-384
671.436	5
671.487	113
671.538	-96
671.590	512
671.641	680
671.692	761
671.744	1327
671.795	2966
671.846	602
671.897	183
671.949	76
672.000	422
672.051	307
672.102	-855
672.153	123
672.204	-629
672.256	-341
672.307	-467
672.358	-464
672.409	-337
672.460	71
672.511	381
672.562	-1150
672.613	-464
672.664	-151
672.715	-321
672.766	-378
672.817	-525
672.868	-412
672.919	-26
672.970	-902
673.021	-362
673.071	-973
673.122	-104
673.173	-563
673.224	-669
673.275	-4
673.326	-236
673.376	31
673.427	-544
673.478	-452
673.528	110
673.579	-445
673.630	-829
673.680	-756
673.731	-1425
673.782	-995
673.832	-631
673.883	231
673.934	-638
673.984	132
674.035	-686
674.085	-820
674.136	38
674.186	-1286
674.237	-1300
674.287	-192
674.338	56
674.388	-209
674.438	-1309
674.489	-19
674.539	-716
674.589	-679
674.640	-565
674.690	-686
674.740	-595
674.791	-675
674.841	-374
674.891	-821
674.942	-503
674.992	-191
675.042	-781
675.092	-1042
675.142	-29
675.193	-977
675.243	270
675.293	-629
675.343	-580
675.393	163
675.443	-26
675.493	-822
675.543	-817
675.593	-442
675.643	-599
675.693	-469
675.743	-300
675.793	-769
675.843	-1066
675.893	-403
675.943	-646
675.993	-635
676.043	-644
676.093	122
676.142	-884
676.192	-622
676.242	-280
676.292	-1459
676.341	-846
676.391	-565
676.441	-887
676.491	-1046
676.540	-857
676.590	-1099
676.640	-836
676.689	-835
676.739	-1477
676.789	-1291
676.838	-924
676.888	-1045
676.937	-467
676.987	-406
677.037	-979
677.086	-1278
677.136	-1411
677.185	-285
677.235	-1227
677.284	-939
677.333	-1368
677.383	-1722
677.432	-708
677.482	-560
677.531	-1062
677.580	-1263
677.630	-778
677.679	-929
677.728	-676
677.778	-957
677.827	-828
677.876	-1226
677.925	-1021
677.975	-403
678.024	-872
678.073	-1459
678.122	-814
678.171	-674
678.220	-815
678.269	-861
678.319	-581
678.368	-489
678.417	-577
678.466	-744
678.515	-875
678.564	-977
678.613	-668
678.662	-950
678.711	-522
678.760	-366
678.809	-689
678.857	-518
678.906	-971
678.955	-1183
679.004	-292
679.053	-602
679.102	-616
679.151	-815
679.199	-1097
679.248	-551
679.297	-808
679.346	-1018
679.394	-1365
679.443	-725
679.492	-736
679.540	-534
679.589	-854
679.638	-513
679.686	-648
679.735	-926
679.784	-1227
679.832	-1129
679.881	-521
679.929	-1095
679.978	-1171
680.026	-1671
680.075	-764
680.123	-1230
680.172	-691
680.220	-1264
680.268	-1141
680.317	-770
680.365	-781
680.414	-348
680.462	-746
680.510	-386
680.559	-1036
680.607	-630
680.655	-1309
680.703	0
680.752	-1532
680.800	-697
680.848	-1140
680.896	-1462
680.945	-751
680.993	-1245
681.041	-710
681.089	-1231
681.137	-951
681.185	-1932
681.233	-1016
681.258	-1053
681.281	-1108
681.329	-472
681.377	-1219
681.380	-1145
681.425	-156
681.473	-778
681.502	-761
681.521	-783
681.569	-708
681.617	-745
681.624	-709
681.665	-604
681.713	-634
681.745	-487
681.761	-447
681.809	-677
681.857	-389
681.867	-428
681.904	-642
681.952	-631
681.989	-189
682.000	-81
682.048	-711
682.096	-333
682.111	-351
682.143	-466
682.191	-338
682.233	203
682.239	263
682.286	-257
682.334	-973
682.354	-729
682.382	-422
682.430	-308
682.476	-68
682.477	-80
682.525	-763
682.572	-320
682.598	-303
682.620	-316
682.667	22
682.715	87
682.720	119
682.763	289
682.810	-119
682.841	129
682.857	222
682.905	574
682.952	616
682.963	653
683.000	686
683.047	-164
683.085	359
683.095	484
683.142	219
683.190	49
683.206	109
683.237	205
683.284	444
683.328	629
683.332	628
683.379	521
683.426	745
683.449	764
683.473	766
683.521	585
683.568	823
683.571	839
683.615	844
683.662	781
683.693	748
683.709	723
683.757	1050
683.804	1061
683.814	1028
683.851	836
683.898	1520
683.936	956
683.945	807
683.992	1007
684.039	1219
684.057	1020
684.086	677
684.133	1273
684.179	1189
684.180	1174
684.227	1780
684.274	1300
684.300	1118
684.321	943
684.368	1511
684.415	1188
684.422	1285
684.462	1867
684.509	1251
684.543	1412
684.556	1420
684.603	1549
684.649	1342
684.665	1329
684.696	1347
684.743	1904
684.786	1908
684.790	1899
684.837	2118
684.883	2021
684.908	1755
684.930	1511
684.977	2356
685.023	2349
685.029	2344
685.070	2137
685.117	2393
685.150	1747
685.164	1489
685.210	2477
685.257	2004
685.272	2172
685.303	2578
685.350	2431
685.393	2936
685.396	2962
685.443	2042
685.490	2775
685.514	2760
685.536	2695
685.583	2794
685.629	2352
685.636	2394
685.675	2698
685.722	3172
685.757	2943
685.768	2844
685.815	2434
685.861	2351
685.878	2429
685.908	2684
685.954	2916
686.000	3198
686.000	3194
686.047	3042
686.093	3064
686.121	3098
686.139	3176
686.185	3330
686.232	3747
686.242	3630
686.278	3018
686.324	3532
686.363	2922
686.370	2830
686.416	3161
686.463	3306
686.484	3216
686.509	3182
686.555	3156
686.601	3931
686.606	3885
686.647	3329
686.693	3575
686.727	3591
686.739	3558
686.785	3395
686.831	2980
686.848	2945
686.877	3096
686.923	3270
686.969	3687
686.969	3687
687.015	3202
687.061	3304
687.090	3374
687.107	3428
687.153	3672
687.199	3801
687.211	3808
687.245	3697
687.291	2917
687.332	3399
687.336	3472
687.382	3297
687.428	3282
687.453	3979
687.474	4394
687.520	4153
687.565	3977
687.574	3831
687.611	3471
687.657	3763
687.695	3664
687.702	3655
687.748	3601
687.794	4149
687.816	4080
687.839	3959
687.885	4056
687.931	4524
687.937	4494
687.976	4123
688.022	3839
688.058	3780
688.067	3823
688.113	4089
688.158	4021
688.179	4023
688.204	3947
688.249	3937
688.295	3560
688.300	3560
688.340	3889
688.386	4434
688.421	4570
688.431	4566
688.477	4127
688.522	4628
688.542	4715
688.567	4792
688.613	4192
688.658	4672
688.663	4648
688.703	4575
688.749	4731
688.784	4946
688.794	5019
688.839	4717
688.884	4807
688.905	4831
688.930	4772
688.975	4616
689.020	4283
689.026	4306
689.065	4687
689.110	5056
689.146	4872
689.155	4786
689.201	4447
689.246	4964
689.267	4465
689.291	4128
689.336	4895
689.381	4699
689.388	4723
689.426	4539
689.471	4420
689.509	4480
689.516	4539
689.561	4733
689.606	4277
689.630	4359
689.651	4516
689.696	4547
689.741	4655
689.750	4797
689.785	5332
689.830	5368
689.871	5168
689.875	5122
689.920	5343
689.965	5112
689.992	4882
690.010	4826
690.054	4998
690.099	5085
690.112	5048
690.144	5063
690.189	4807
690.233	5230
690.233	5240
690.278	5282
690.323	4893
690.354	5094
690.367	5226
690.412	5379
690.457	5300
690.474	5439
690.501	5750
690.546	5794
690.590	6188
690.595	6166
690.635	6111
690.680	6383
690.716	6558
690.724	6658
690.769	7602
690.813	8401
690.836	8380
690.857	8629
690.902	9895
690.946	10654
690.957	10917
690.991	14139
691.035	18354
691.077	22564
691.080	22936
691.124	29251
691.168	34576
691.198	38481
691.213	36766
691.257	31751
691.301	26325
691.318	24283
691.346	21816
691.390	17227
691.434	13075
691.439	12570
691.478	11277
691.522	10012
691.559	8493
691.567	8400
691.611	8298
691.655	7828
691.680	7602
691.699	7388
691.743	6867
691.787	6484
691.800	6198
691.831	6028
691.875	6381
691.919	6812
691.921	6798
691.964	6827
692.008	7055
692.041	7224
692.052	7274
692.096	7131
692.139	7161
692.162	6938
692.183	6671
692.227	6706
692.271	6751
692.282	6742
692.315	7077
692.359	7256
692.402	7568
692.403	7584
692.447	7325
692.490	6888
692.523	6927
692.534	7024
692.578	7152
692.622	7039
692.643	7112
692.666	7245
692.709	7231
692.753	7604
692.763	7604
692.797	7322
692.840	6861
692.884	6375
692.884	6395
692.928	7069
692.971	7593
693.004	7729
693.015	7675
693.059	7755
693.102	7988
693.124	7835
693.146	7804
693.189	7969
693.233	8232
693.245	8193
693.276	8257
693.320	8735
693.363	8999
693.365	8988
693.407	9526
693.450	9968
693.485	10346
693.493	10624
693.537	12044
693.580	13347
693.605	14055
693.624	15291
693.667	18323
693.710	21439
693.725	22363
693.753	28198
693.797	37810
693.840	47160
693.845	48253
693.883	60650
693.926	73881
693.966	86013
693.970	84952
694.013	71963
694.056	59163
694.086	50171
694.099	47253
694.142	37583
694.185	27883
694.206	23192
694.229	21751
694.272	18830
694.315	16053
694.326	15315
694.358	14486
694.401	13162
694.444	11885
694.446	11786
694.487	11277
694.530	11103
694.566	10474
694.573	10362
694.616	9637
694.659	9025
694.686	8626
694.702	8612
694.745	8421
694.787	8269
694.806	8085
694.830	7904
694.873	8071
694.916	7722
694.926	7665
694.959	7689
695.002	7597
695.044	7552
695.046	7535
695.087	7900
695.130	8127
695.166	8235
695.172	8247
695.215	8222
695.258	8317
695.286	8197
695.301	8134
695.343	7959
695.386	7849
695.406	7702
695.428	7640
695.471	7624
695.514	7724
695.526	7714
695.556	7798
695.599	7674
695.641	7572
695.646	7560
695.684	7622
695.726	7648
695.766	7493
695.769	7523
695.811	7686
695.854	7988
695.886	8080
695.896	8031
695.938	7601
695.981	7481
696.005	7254
696.023	7271
696.065	7432
696.108	7506
696.125	7525
696.150	7473
696.192	7288
696.235	7140
696.245	7054
696.277	7226
696.319	7628
696.361	7864
696.365	7873
696.404	8141
696.446	8221
696.485	8390
696.488	8415
696.530	8363
696.572	8272
696.604	8215
696.614	8324
696.656	8662
696.698	9023
696.724	9281
696.740	9093
696.783	8174
696.825	7686
696.844	7322
696.867	7470
696.909	7730
696.951	8060
696.964	8141
696.992	8095
697.034	7887
697.076	7767
697.083	7719
697.118	7933
697.160	8181
697.202	8407
697.203	8387
697.244	8226
697.286	8089
697.323	7891
697.327	7908
697.369	7898
697.411	7916
697.442	7837
697.453	7864
697.494	7883
697.536	7929
697.562	7953
697.578	8020
697.620	8048
697.661	8185
697.682	8180
697.703	8208
697.744	8303
697.786	8406
697.801	8383
697.828	8296
697.869	8113
697.911	7952
697.921	7907
697.952	7985
697.994	7944
698.035	7973
698.040	7952
698.077	8020
698.118	8010
698.160	8041
698.160	8015
698.201	7915
698.243	7735
698.279	7587
698.284	7631
698.325	7805
698.367	7947
698.399	8046
698.408	8066
698.449	8063
698.491	8008
698.518	7961
698.532	8011
698.573	8082
698.614	8138
698.638	8149
698.656	8110
698.697	7985
698.738	7829
698.757	7733
698.779	7905
698.820	8176
698.862	8469
698.877	8552
698.903	8627
698.944	8698
698.985	8765
698.996	8759
699.026	8642
699.067	8444
699.116	8183
699.235	8719
699.354	8315
699.474	7961
699.593	8947
699.713	8486
699.832	7512
699.951	8900
700.070	8167
700.190	8102
700.309	7793
700.428	7576
700.547	8264
700.667	7674
700.786	7164
700.905	8815
701.024	8119
701.143	8413
701.262	7406
701.381	7667
701.500	7395
701.619	7636
701.738	7266
701.857	7152
701.976	6710
702.095	7396
702.214	6729
702.333	7535
702.452	7256
702.571	6897
702.690	7482
702.809	7562
702.928	6362
703.047	6605
703.165	7169
703.284	6473
703.403	6879
703.522	7823
703.640	7446
703.759	7889
703.878	8678
703.997	8956
704.115	6737
704.234	6802
704.353	6588
704.471	7221
704.590	7281
704.708	7032
704.827	5624
704.946	6901
705.064	7327
705.183	7760
705.301	6866
705.420	10226
705.538	10560
705.656	10309
705.775	9134
705.893	12811
706.012	24989
706.130	13326
706.249	9710
706.367	8658
706.485	8402
706.604	9298
706.722	8659
706.840	8932
706.958	10039
707.077	9720
707.195	8204
707.313	8604
707.431	7934
707.549	8448
707.668	7418
707.786	8778
707.904	8168
708.022	7193
708.140	6457
708.258	7427
708.376	7411
708.494	7729
708.612	7833
708.730	10022
708.848	12098
708.966	10325
709.084	9127
709.202	9482
709.320	9326
709.438	8956
709.556	9564
709.674	9495
709.791	9359
709.909	8819
710.027	9021
710.145	9562
710.263	8787
710.380	9460
710.498	9849
710.616	7659
710.733	8992
710.851	9097
710.969	8991
711.086	8362
711.204	8739
711.322	8491
711.439	8046
711.557	8754
711.674	7708
711.792	8664
711.909	9268
712.027	10539
712.144	8875
712.262	7759
712.379	7922
712.497	10433
712.614	13017
712.732	11767
712.849	10517
712.966	9995
713.084	9974
713.201	11462
713.318	9827
713.436	9710
713.553	9715
713.670	9934
713.787	10083
713.905	11214
714.022	9837
714.139	9193
714.256	9172
714.373	9354
714.490	10151
714.608	13217
714.725	25428
714.842	69617
714.959	20796
715.076	10248
715.193	9115
715.310	8895
715.427	8587
715.544	7786
715.661	8814
715.778	8235
715.895	9573
716.011	9588
716.128	9490
716.245	8697
716.362	8602
716.479	9735
716.596	9040
716.713	8218
716.829	8453
716.946	8927
717.063	8263
717.180	8673
717.296	7861
717.413	8024
717.530	8372
717.646	8484
717.763	8459
717.880	7945
717.996	7664
718.113	7337
718.229	7498
718.346	7268
718.462	7020
718.579	7788
718.695	8252
718.812	9636
718.928	8587
719.045	10273
719.161	6576
719.277	6916
719.394	7307
719.510	7095
719.626	6542
719.743	7786
719.859	7843
719.975	8321
720.092	10260
720.208	24893
720.324	18314
720.440	7731
720.557	6883
720.673	8566
720.789	11118
720.905	17482
721.021	22384
721.137	7180
721.253	7201
721.369	7090
721.486	6792
721.602	8777
721.718	8513
721.834	5999
721.950	5999
722.066	5821
722.181	5577
722.297	6383
722.413	6083
722.529	5893
722.645	5643
722.761	5642
722.877	5570
722.993	6037
723.108	5855
723.224	6352
723.340	5598
723.456	5321
723.571	5697
723.687	5394
723.803	6298
723.918	4998
724.034	6007
724.150	6154
724.265	5450
724.381	7133
724.497	15105
724.612	8498
724.728	5545
724.843	5128
724.959	5951
725.074	6712
725.190	14371
725.305	7349
725.421	4860
725.536	4832
725.651	4352
725.767	5510
725.882	4996
725.997	4264
726.113	4864
726.228	4792
726.343	4174
726.459	4619
726.574	4004
726.689	5010
726.804	4301
726.920	4722
727.035	5132
727.150	4892
727.265	4121
727.380	5357
727.495	5468
727.610	4603
727.725	4502
727.841	4618
727.956	7095
728.071	12275
728.186	6166
728.301	4196
728.416	3775
728.531	5020
728.645	3847
728.760	4118
728.875	4855
728.990	4111
729.105	3987
729.220	4016
729.335	4341
729.449	4164
729.564	3485
729.679	3907
729.794	4308
729.908	3927
730.023	5041
730.138	4714
730.253	3722
730.367	3734
730.482	3869
730.596	4007
730.711	3823
730.826	4359
730.940	4219
731.055	4600
731.169	3728
731.284	3851
731.398	3486
731.513	3298
731.627	4742
731.742	4339
731.856	4747
731.970	4653
732.085	2854
732.199	3404
732.313	3783
732.428	5460
732.542	8095
732.656	12250
732.771	5262
732.885	4287
732.999	4194
733.113	4113
733.227	3564
733.342	4164
733.456	3239
733.570	3111
733.684	3478
733.798	3628
733.912	3747
734.026	3330
734.140	3150
734.254	3977
734.368	3700
734.482	8431
734.596	4434
734.710	3129
734.824	3433
734.938	2600
735.052	2936
735.166	3441
735.280	4105
735.393	3716
735.507	3077
735.621	3723
735.735	5772
735.849	5950
735.962	3953
736.076	3357
736.190	4049
736.303	2757
736.417	6015
736.531	3516
736.644	2683
736.758	2726
736.872	2841
736.985	2841
737.099	3290
737.212	3389
737.326	3317
737.439	2760
737.553	3106
737.666	3038
737.780	2944
737.893	3554
738.007	2725
738.120	2950
738.233	2275
738.347	2665
738.460	2939
738.573	2685
738.687	2788
738.800	2862
738.913	3161
739.026	3355
739.140	3747
739.253	3397
739.366	2062
739.479	3686
739.592	1953
739.705	2272
739.818	2777
739.932	3418
740.045	3140
740.158	3143
740.271	2201
740.384	2614
740.497	2690
740.610	2900
740.723	2978
740.836	3044
740.949	2746
741.062	2948
741.174	3382
741.287	3619
741.400	2835
741.513	3549
741.626	2596
741.739	2996
741.851	2830
741.964	2121
742.077	2547
742.189	2820
742.302	3444
742.415	3097
742.527	2783
742.640	2706
742.753	2938
742.865	2304
742.978	1942
743.090	2459
743.203	2477
743.316	3280
743.428	2473
743.541	1766
743.653	1599
743.766	2185
743.878	2880
743.990	2281
744.103	3774
744.215	2621
744.327	3244
744.440	2601
744.552	2954
744.664	2642
744.777	2770
744.889	3032
745.001	2398
745.113	2426
745.226	2458
745.338	2191
745.450	2013
745.562	3873
745.674	2470
745.786	2708
745.898	2121
746.010	3195
746.122	1722
746.234	1590
746.347	1577
746.459	2594
746.570	2406
746.682	2913
746.794	3294
746.906	2909
747.018	2156
747.130	2506
747.242	2272
747.354	3066
747.466	2281
747.577	2546
747.689	2865
747.801	2121
747.913	1188
748.024	2533
748.136	2634
748.248	3011
748.359	2637
748.471	2893
748.583	2207
748.694	2521
748.806	2729
748.918	2958
749.029	2585
749.141	2946
749.252	2547
749.364	2245
749.475	3144
749.587	3018
749.698	2220
749.809	3034
749.921	2154
750.032	1946
750.144	1848
750.255	2242
750.366	2721
750.478	2274
750.589	2494
750.700	2891
750.811	2411
750.923	2945
751.034	3145
751.145	3790
751.256	2071
751.367	2911
751.479	2175
751.590	2073
751.701	2502
751.812	2596
751.923	2059
752.034	2403
752.145	2046
752.256	1788
752.367	2223
752.478	2266
752.589	2499
752.700	1820
752.811	2052
752.922	2078
753.032	2319
753.143	2450
753.254	2766
753.365	2633
753.476	2653
753.586	2837
753.697	1747
753.808	1910
753.919	2264
754.029	2182
754.140	2108
754.251	1947
754.361	2503
754.472	1987
754.582	2087
754.693	2459
754.804	2581
754.914	2364
755.025	2022
755.135	2371
755.246	1637
755.356	2459
755.466	2270
755.577	2344
755.687	2259
755.798	2426
755.908	2334
756.018	2997
756.129	1797
756.239	2455
756.349	2422
756.460	2173
756.570	2591
756.680	2047
756.790	2808
756.900	2287
757.011	2939
757.121	2440
757.231	1965
757.341	2515
757.451	2458
757.561	1644
757.671	2406
757.781	2475
757.891	2564
758.001	2655
758.111	2833
758.221	3324
758.331	2069
758.441	2738
758.551	2376
758.661	3873
758.771	2630
758.880	3730
758.990	2821
759.100	3241
759.210	2870
759.320	3756
759.429	3531
759.539	2752
759.649	2999
759.758	3544
759.868	3611
759.978	3041
760.087	3120
760.197	3421
760.307	3497
760.416	3373
760.526	2313
760.635	3920
760.745	4499
760.854	3753
760.964	3361
761.073	4830
761.182	4335
761.292	4754
761.401	4299
761.511	5093
761.620	3509
761.729	4565
761.839	4537
761.948	4952
762.057	4938
762.166	5111
762.276	4472
762.385	6186
762.494	5177
762.603	5342
762.712	5521
762.822	6197
762.931	7107
763.040	6517
763.149	6751
763.258	7618
763.367	8182
763.476	8313
763.585	8613
763.694	8491
763.803	8988
763.912	9932
764.021	10470
764.130	10586
764.238	11743
764.347	12507
764.456	12512
764.565	13974
764.674	15293
764.783	16070
764.891	18193
765.000	21184
765.109	23302
765.217	26782
765.326	30620
765.435	36474
765.543	43335
765.652	52449
765.761	66526
765.869	87844
765.978	118984
766.086	171181
766.195	253476
766.303	388457
766.412	509384
766.520	397804
766.629	452348
766.737	390691
766.846	256873
766.954	173557
767.062	123685
767.171	91164
767.279	69794
767.387	54025
767.496	44953
767.604	38009
767.712	31419
767.820	28906
767.928	25650
768.037	24043
768.145	21715
768.253	20927
768.361	20256
768.469	19959
768.577	19965
768.685	19863
768.793	21810
768.901	23538
769.009	25596
769.117	30573
769.225	38344
769.333	50589
769.441	70321
769.549	108549
769.657	184308
769.765	323802
769.873	445870
769.981	381371
770.088	335391
770.196	193045
770.304	116464
770.412	78246
770.519	57588
770.627	45029
770.735	35414
770.842	29562
770.950	24597
771.058	21299
771.165	19070
771.273	17023
771.380	15238
771.488	14151
771.595	12707
771.703	11557
771.810	10817
771.918	9773
772.025	9604
772.133	8005
772.240	7928
772.348	7979
772.455	6560
772.562	6993
772.670	7226
772.777	7371
772.884	6380
772.991	5787
773.099	6427
773.206	5856
773.313	5043
773.420	5685
773.528	4955
773.635	4406
773.742	5014
773.849	5025
773.956	4797
774.063	4973
774.170	4339
774.277	3388
774.384	3874
774.491	3754
774.598	3938
774.705	3887
774.812	4314
774.919	4907
775.026	3642
775.133	4337
775.239	2214
775.346	3529
775.453	2865
775.560	3590
775.667	3021
775.773	3722
775.880	2834
775.987	3635
776.093	3158
776.200	3620
776.307	2446
776.413	3783
776.520	2215
776.627	3343
776.733	2106
776.840	2721
776.946	2869
777.053	3847
777.159	4801
777.266	3649
777.372	4488
777.478	4321
777.585	4180
777.691	2703
777.798	3241
777.904	2546
778.010	3331
778.117	3343
778.223	2387
778.329	1992
778.435	2411
778.542	2544
778.648	1940
778.754	1737
778.860	1858
778.966	2287
779.072	2096
779.178	2736
779.284	1623
779.391	1547
779.497	1717
779.603	2718
779.708	3366
779.815	5870
779.920	17124
780.026	67253
780.132	53781
780.238	7108
780.344	3093
780.450	2720
780.556	2458
780.661	1519
780.767	1725
780.873	1917
780.979	1795
781.085	1624
781.190	1471
781.296	1713
781.402	1400
781.507	1100
781.613	1705
781.719	1055
781.824	1864
781.930	1785
782.035	2346
782.141	1869
782.246	1395
782.352	1905
782.457	1440
782.563	1324
782.668	1887
782.773	1729
782.879	1213
782.984	2290
783.090	1260
783.195	1891
783.300	1511
783.405	1881
783.511	1599
783.616	1176
783.721	1359
783.826	1333
783.932	1051
784.037	2069
784.142	1165
784.247	1294
784.352	640
784.457	1985
784.562	1759
784.667	1831
784.772	1380
784.877	911
784.982	1931
785.087	955
785.192	1748
785.297	1463
785.402	1074
785.507	1490
785.611	918
785.716	1477
785.821	1407
785.926	1347
786.031	909
786.135	1500
786.240	628
786.345	88
786.450	925
786.554	1387
786.659	1078
786.763	1040
786.868	820
786.973	1123
787.077	1108
787.182	1164
787.286	981
787.391	983
787.495	550
787.600	1776
787.704	1070
787.809	1346
787.913	640
788.017	669
788.122	840
788.226	855
788.330	683
788.435	1963
788.539	796
788.643	537
788.747	638
788.852	1175
788.956	145
789.060	395
789.164	-530
789.268	395
789.372	553
789.476	1072
789.580	1003
789.684	179
789.788	1085
789.892	1067
789.996	890
790.100	770
790.204	671
790.308	57
790.412	69
790.516	591
790.620	163
790.724	1045
790.828	1272
790.931	1088
791.035	1338
791.139	991
791.242	885
791.346	1353
791.450	406
791.554	618
791.657	633
791.761	1186
791.864	611
791.968	1180
792.072	1576
792.175	730
792.279	882
792.382	467
792.486	1073
792.589	1019
792.693	1022
792.796	344
792.899	689
793.003	816
793.106	468
793.209	743
793.313	892
793.416	593
793.519	166
793.623	1109
793.726	1182
793.829	1731
793.932	537
794.035	346
794.138	1034
794.242	707
794.345	511
794.448	2317
794.551	2803
794.654	8861
794.757	34578
794.860	32917
794.963	3308
795.066	1207
795.169	1667
795.272	990
795.375	479
795.477	1502
795.580	1027
795.683	-107
795.786	436
795.889	307
795.991	426
796.094	555
796.197	-377
796.300	1238
796.402	1098
796.505	-96
796.608	388
796.710	605
796.813	1247
796.915	42
797.018	450
797.120	78
797.223	-138
797.326	423
797.428	217
797.530	414
797.633	475
797.735	623
797.838	1114
797.940	1882
798.042	181
798.145	464
798.247	502
798.349	267
798.452	3
798.554	168
798.656	156
798.758	-99
798.860	1123
798.962	709
799.065	356
799.167	-78
799.269	490
799.371	635
799.473	467
799.575	583
799.677	454
799.779	778
799.881	-99
799.983	596
800.085	601
800.187	345
800.289	-343
800.390	1022
800.492	173
800.594	910
800.696	-408
800.798	310
800.899	938
801.001	238
801.103	-416
801.205	277
801.306	1128
801.408	647
801.509	32
801.611	19
801.713	498
801.814	-291
801.916	-650
802.017	309
802.119	-529
802.220	-8
802.322	-678
802.423	1440
802.525	316
802.626	543
802.727	-323
802.829	553
802.930	-459
803.031	1593
803.133	-185
803.234	458
803.335	127
803.436	597
803.538	-23
803.639	121
803.740	490
803.841	133
803.942	484
804.043	-165
804.144	-154
804.245	303
804.346	-141
804.447	28
804.548	166
804.649	539
804.750	-121
804.851	-285
804.952	-62
805.053	209
805.154	-835
805.255	424
805.355	181
805.456	487
805.557	-259
805.658	-634
805.758	-38
805.859	414
805.960	330
806.061	66
806.161	-288
806.262	365
806.362	-356
806.463	413
806.564	229
806.664	-58
806.765	294
806.865	722
806.966	88
807.066	327
807.166	958
807.267	94
807.367	-195
807.468	1394
807.568	201
807.668	90
807.769	-142
807.869	263
807.969	654
808.069	583
808.170	-181
808.270	544
808.370	279
808.470	-673
808.570	491
808.670	-465
808.770	-153
808.870	-128
808.970	248
809.070	1
809.170	13
809.271	283
809.370	-361
809.470	-326
809.570	11
809.670	-818
809.770	336
809.870	385
809.970	439
810.070	206
810.169	719
810.269	-427
810.369	427
810.469	-542
810.568	53
810.668	174
810.768	-18
810.867	200
810.967	129
811.066	89
811.166	-114
811.265	232
811.365	-568
811.464	439
811.564	-243
811.663	439
811.763	-161
811.862	227
811.962	685
812.061	56
812.160	-230
812.260	-298
812.359	195
812.458	256
812.557	1184
812.657	2215
812.756	2441
812.855	717
812.954	515
813.053	357
813.153	696
813.252	115
813.351	563
813.450	747
813.549	318
813.648	51
813.747	-370
813.846	665
813.945	-131
814.044	688
814.143	517
814.242	431
814.341	216
814.439	715
814.538	764
814.637	766
814.736	991
814.835	652
814.933	1278
815.032	893
815.131	1631
815.229	714
815.328	1970
815.427	1442
815.525	1819
815.624	1011
815.722	974
815.821	1266
815.919	1222
816.018	1623
816.116	2517
816.215	1730
816.313	2491
816.412	1814
816.510	2893
816.609	2344
816.707	2592
816.805	3038
816.904	3689
817.002	3170
817.100	4909
817.198	4746
817.296	5720
817.395	6240
817.493	8006
817.591	10037
817.689	12270
817.787	16583
817.885	24015
817.983	37769
818.081	62926
818.179	120441
818.277	239304
818.375	358008
818.473	263215
818.571	127273
818.669	72110
818.767	50801
818.865	43711
818.963	44341
819.061	52308
819.158	72912
819.256	115858
819.354	199413
819.452	345059
819.549	395669
819.647	294253
819.745	168939
819.842	95323
819.940	61135
820.038	42703
820.135	31987
820.233	24502
820.330	19166
820.428	14588
820.525	13068
820.623	10281
820.720	9403
820.818	8309
820.915	7928
821.012	6565
821.110	5751
821.207	5220
821.304	4417
821.402	4426
821.499	4565
821.596	3730
821.693	4005
821.791	3403
821.888	3002
821.985	2463
822.082	2390
822.179	1995
822.276	2608
822.373	1648
822.470	2377
822.567	1376
822.664	1844
822.761	1554
822.858	323
822.955	1330
823.052	781
823.149	331
823.246	596
823.343	1035
823.440	846
823.536	542
823.633	887
823.730	492
823.827	845
823.923	591
824.020	1250
824.117	1231
824.213	639
824.310	1234
824.407	447
824.503	1031
824.600	1094
824.696	413
824.793	718
824.889	-232
824.986	253
825.082	353
825.179	-211
825.275	-493
825.371	-544
825.468	273
825.564	-525
825.660	-7
825.757	528
825.853	129
825.949	-41
826.045	513
826.142	-94
826.238	-307
826.334	-302
826.430	-397
826.526	384
826.622	-585
826.718	-244
826.814	-125
826.910	177
827.006	-397
827.102	-212
827.198	896
827.294	-483
827.390	189
827.486	39
827.582	-537
827.678	-562
827.774	-274
827.869	-783
827.965	957
828.061	-114
828.157	-114
828.252	157
828.348	-191
828.444	-427
828.539	-76
828.635	17
828.731	-32
828.826	-1157
828.922	-940
829.017	44
829.113	-326
829.208	97
829.304	-902
829.399	870
829.495	-204
829.590	-387
829.685	-491
829.781	225
829.876	-158
829.971	-290
830.066	-140
830.162	-312
830.257	-378
830.352	-164
830.447	602
830.543	-123
830.638	-854
830.733	-140
830.828	-714
830.923	-199
831.018	-84
831.113	58
831.208	-482
831.303	-321
831.398	-905
831.493	-318
831.588	206
831.683	-1193
831.778	-608
831.873	-775
831.967	-364
832.062	-1071
832.157	-484
832.252	512
832.346	-175
832.441	-656
832.536	275
832.631	-131
832.725	-99
832.820	-640
832.914	-446
833.009	-981
833.104	-161
833.198	290
833.293	-820
833.387	-329
833.482	-886
833.576	-384
833.670	136
833.765	-1360
833.859	-171
833.954	-245
834.048	-460
834.142	-49
834.237	-562
834.331	-294
834.425	-345
834.519	52
834.613	556
834.708	-1388
834.802	-528
834.896	-765
834.990	-594
835.084	-254
835.178	-980
835.272	-1026
835.366	-346
835.460	474
835.554	-899
835.648	104
835.742	-734
835.836	-534
835.930	-1020
836.024	-521
836.117	369
836.211	-760
836.305	360
836.399	-294
836.493	-481
836.586	-546
836.680	-883
836.774	-219
836.867	-733
836.961	-763
837.055	-585
837.148	-836
837.242	-38
837.335	-1262
837.429	-731
837.522	-836
837.616	-724
837.709	208
837.803	-157
837.896	-879
837.989	-431
838.083	-77
838.176	-4
838.269	752
838.363	556
838.456	-565
838.549	-648
838.642	430
838.735	952
838.829	788
838.922	-676
839.015	-498
839.108	-915
839.201	-617
839.294	-304
839.387	-557
839.480	-244
839.573	-390
839.666	-713
839.759	1
839.852	-794
839.945	-331
840.038	-536
840.131	-1230
840.223	-1248
840.316	-239
840.409	-644
840.502	-1557
840.594	-661
840.687	-1298
840.780	-548
840.873	-940
840.965	-717
841.058	-404
841.150	-780
841.243	693
841.336	109
841.428	-642
841.521	-1024
841.613	-650
841.706	-627
841.798	-549
841.890	-981
841.983	-1392
842.075	-792
842.167	-320
842.260	-780
842.352	-229
842.444	-425
842.537	109
842.629	1583
842.721	710
842.813	-702
842.905	-1131
842.997	-666
843.090	-352
843.182	-661
843.274	496
843.366	2024
843.458	4294
843.550	7228
843.642	1799
843.734	-426
843.826	143
843.918	242
844.009	-1009
844.101	-458
844.193	-799
844.285	-193
844.377	9
844.469	472
844.560	-1091
844.652	-473
844.744	-289
844.835	-690
844.927	262
845.019	-607
845.110	-300
845.202	-1217
845.293	-572
845.385	-613
845.476	-1585
845.568	-289
845.659	-361
845.751	-1125
845.842	-201
845.934	-1440
846.025	-331
846.116	-234
846.208	-557
846.299	-955
846.390	-127
846.482	-562
846.573	-508
846.664	-507
846.755	-471
846.846	-250
846.937	-975
847.029	-1505
847.120	-534
847.211	-1248
847.302	-263
847.393	-1220
847.484	-342
847.575	-1122
847.666	-850
847.757	-821
847.847	-852
847.938	-358
848.029	-1158
848.120	-838
848.211	-781
848.302	-573
848.392	-923
848.483	-996
848.574	-621
848.664	-369
848.755	-601
848.846	-157
848.936	-76
849.027	-529
849.118	-674
849.208	-932
849.299	-862
849.389	-1237
849.480	186
849.570	-276
849.661	-446
849.751	380
849.841	422
849.932	-1269
850.022	121
850.112	-981
850.203	-849
850.293	-1202
850.383	-591
850.474	-712
850.564	-530
850.654	-653
850.744	-437
850.834	-519
850.924	-769
851.014	-605
851.104	-887
851.194	-1255
851.284	-481
851.374	-1338
851.464	-904
851.554	-645
851.644	-833
851.734	-1341
851.824	792
851.914	-550
852.004	353
852.094	60
852.183	-96
852.273	-518
852.363	-652
852.452	-1418
852.542	-866
852.632	-1303
852.721	-635
852.811	-1598
852.901	-1052
852.990	-361
853.080	-836
853.169	-1265
853.259	-1134
853.348	-1040
853.438	-975
853.527	-363
853.617	-953
853.706	-506
853.795	-427
853.885	242
853.974	1130
854.063	3507
854.152	7932
854.242	8500
854.331	1222
854.420	-703
854.509	-1128
854.598	-1376
854.687	485
854.777	-207
854.866	-903
854.955	-293
855.044	-536
855.133	-64
855.222	-1521
855.311	-1733
855.400	-660
855.488	-1580
855.577	-1045
855.666	-1594
855.755	-766
855.844	-1018
855.933	-988
856.021	-279
856.110	172
856.199	-1069
856.288	-525
856.376	-926
856.465	-994
856.554	-447
856.642	-1034
856.731	-1252
856.819	-1461
856.908	-259
856.996	-991
857.085	-1288
857.173	-1570
857.262	-1386
857.350	-70
857.438	-1306
857.527	-982
857.615	-1219
857.703	-486
857.792	-1632
857.880	-1154
857.968	-1286
858.056	-1318
858.145	-1146
858.233	-1070
858.321	-933
858.409	49
858.497	-1403
858.585	-944
858.673	-1491
858.761	-382
858.849	-848
858.937	-797
859.025	-760
859.113	-681
859.201	-1602
859.289	-146
859.377	-1279
859.465	-790
859.552	-718
859.640	-590
859.728	-1815
859.816	-1201
859.903	-815
859.991	-1460
860.079	-823
860.166	-1086
860.254	-966
860.342	-1227
860.429	-788
860.517	-851
860.604	-613
860.692	-515
860.779	-2087
860.867	-862
860.954	-723
861.042	-939
861.129	-1228
861.216	-754
861.304	-1357
861.391	-480
861.478	-1563
861.565	-1087
861.653	-1020
861.740	-1623
861.827	-466
861.914	-927
862.001	-1033
862.089	-935
862.176	-1523
862.263	-1206
862.350	-677
862.437	-1151
862.524	-1617
862.611	-1357
862.698	-1863
862.785	-535
862.871	-1127
862.958	-1396
863.045	-757
863.132	-1105
863.219	-1015
863.306	-1004
863.392	-588
863.479	-1510
863.566	-1157
863.652	-382
863.739	-2056
863.826	-1399
863.912	-1351
863.999	-1497
864.086	-1145
864.172	-1077
864.259	-1375
864.345	-1504
864.432	-996
864.518	-1342
864.604	-965
864.691	-446
864.777	-1619
864.863	-879
864.950	-915
865.036	-1586
865.122	-998
865.209	-675
865.295	-1134
865.381	-907
865.467	-1324
865.553	-446
865.639	-1611
865.726	-674
865.812	-578
865.898	195
865.984	1665
866.070	2478
866.156	4999
866.242	2297
866.328	-162
866.414	-1213
866.499	-1288
866.585	-1154
866.671	-1270
866.757	-236
866.843	-1148
866.928	-1053
867.014	-1170
867.100	-712
867.186	-1481
867.271	-667
867.357	-670
867.442	-1380
867.528	-327
867.614	-886
867.699	-815
867.785	-996
867.870	-882
867.956	-578
868.041	-411
868.127	-338
868.212	-887
868.297	-338
868.383	-968
868.468	-310
868.553	-528
868.639	-220
868.724	-183
868.809	173
868.894	-19
868.979	-1072
869.065	-539
869.150	-1453
869.235	-1187
869.320	-1501
869.405	-803
869.490	-1044
869.575	-1088
869.660	-1427
869.745	-851
869.830	-1359
869.915	-1568
870.000	-336
870.085	-2100
870.169	-915
870.254	-1525
870.339	-1709
870.424	-1397
870.509	-782
870.593	-1864
870.678	-1303
870.763	-1244
870.847	-731
870.932	-1231
871.016	-1916
871.101	-1562
871.186	-1600
871.270	-991
871.355	-905
871.439	-1160
871.523	-1452
871.608	-1320
871.692	-941
871.777	-954
871.861	-1101
871.945	-1490
872.030	-397
872.114	-990
872.198	-1071
872.282	-1737
872.367	-1231
872.451	-1622
872.535	-1034
872.619	-2083
872.703	-1015
872.787	-1077
872.871	-1514
872.955	-1494
873.039	-1325
873.123	-1510
873.207	-973
873.291	-1127
873.375	-1555
873.459	-870
873.543	-1293
873.627	-925
873.711	-1053
873.794	-1018
873.878	-1347
873.962	-2138
874.045	-1087
874.129	-1329
874.137	-1350
874.213	-1557
874.245	-1451
874.296	-1285
874.352	-1493
874.380	-1602
874.460	-1704
874.464	-1707
874.547	-1340
874.568	-1349
874.631	-1376
874.676	-1119
874.714	-921
874.784	-838
874.798	-812
874.881	-1429
874.892	-1413
874.965	-1363
874.999	-1319
875.048	-1237
875.107	-1274
875.131	-1302
875.215	-744
875.215	-745
875.298	-1311
875.323	-1175
875.381	-914
875.430	-1133
875.465	-1245
875.538	-946
875.548	-918
875.631	-1942
875.646	-1883
875.714	-1599
875.753	-1387
875.798	-1094
875.861	-970
875.881	-949
875.964	-1000
875.968	-1007
876.047	-1144
876.076	-1176
876.130	-1169
876.183	-1042
876.213	-999
876.291	-1295
876.296	-1311
876.379	-924
876.398	-945
876.462	-1032
876.506	-1310
876.545	-1564
876.613	-634
876.628	-442
876.711	-282
876.721	-425
876.794	-1275
876.828	-974
876.877	-752
876.935	-1234
876.960	-1354
877.043	-657
877.043	-658
877.125	-817
877.150	-604
877.208	-46
877.258	143
877.291	196
877.365	-717
877.374	-795
877.456	-822
877.472	-814
877.539	-1055
877.579	-1279
877.622	-1339
877.687	-702
877.704	-541
877.787	-881
877.794	-874
877.869	-954
877.901	-977
877.952	-914
878.008	-1031
878.034	-1063
878.115	-395
878.117	-387
878.199	-1465
878.222	-1331
878.282	-650
878.329	-631
878.364	-805
878.437	-1249
878.447	-1273
878.529	-1042
878.544	-1002
878.611	-931
878.651	-908
878.694	-888
878.758	-679
878.776	-576
878.858	-1339
878.865	-1270
878.941	-520
878.972	-512
879.023	-454
879.078	-822
879.105	-1078
879.185	-739
879.187	-730
879.269	-1031
879.292	-1013
879.351	-674
879.399	-838
879.433	-1129
879.506	-931
879.516	-871
879.598	-641
879.613	-631
879.680	-661
879.720	-668
879.762	-622
879.827	-855
879.844	-981
879.926	-1002
879.933	-993
880.007	-632
880.040	-720
880.089	-876
880.147	-860
880.171	-861
880.253	-499
880.254	-498
880.335	-253
880.360	-308
880.417	74
880.467	397
880.499	464
880.574	787
880.580	798
880.662	378
880.680	281
880.744	-381
880.787	-667
880.825	-718
880.893	-972
880.907	-993
880.989	-582
881.000	-566
881.070	-584
881.106	-769
881.152	-763
881.213	-314
881.233	-274
881.315	-207
881.319	-227
881.396	-638
881.426	-825
881.478	-1123
881.532	-931
881.559	-706
881.639	-746
881.641	-752
881.722	-754
881.745	-784
881.803	-658
881.852	-654
881.885	-799
881.958	-345
881.966	-270
882.047	-614
882.064	-595
882.129	-383
882.171	-310
882.210	-411
882.277	-232
882.291	-147
882.372	1
882.383	-80
882.454	-858
882.489	-871
882.535	-778
882.596	-458
882.616	-348
882.697	-666
882.702	-665
882.778	-378
882.808	-318
882.859	-627
882.914	-772
882.940	-660
883.020	-790
883.021	-790
883.102	-701
883.127	-717
883.183	-469
883.233	-376
883.264	-450
883.339	-392
883.345	-359
883.426	-272
883.445	-200
883.507	-150
883.551	-167
883.587	-248
883.657	-504
883.668	-542
883.749	-334
883.763	-428
883.830	-523
883.869	-280
883.910	-241
883.975	-791
883.991	-796
884.072	-59
884.081	-3
884.152	-205
884.187	-350
884.233	-74
884.292	405
884.314	317
884.394	-309
884.398	-353
884.475	-876
884.504	-929
884.555	-552
884.610	-262
884.636	-362
884.716	-798
884.716	-793
884.797	-379
884.821	-265
884.877	-109
884.927	-101
884.958	-309
885.033	-772
885.038	-737
885.118	-184
885.139	-63
885.199	-362
885.244	-603
885.279	-563
885.350	-256
885.359	-279
885.439	-962
885.456	-1057
885.520	-570
885.561	-123
885.600	-288
885.667	-738
885.680	-689
885.760	-467
885.773	-421
885.840	-57
885.878	-38
885.920	167
885.984	812
886.000	627
886.080	-372
886.089	-512
886.160	-447
886.195	-303
886.240	-252
886.300	-306
886.320	-326
886.400	-330
886.406	-340
886.480	-284
886.511	-276
886.560	-229
886.616	-86
886.640	-165
886.720	-558
886.722	-570
886.800	-230
886.827	-137
886.879	-1
886.932	166
886.959	224
887.038	371
887.039	371
887.119	-62
887.143	-223
887.198	-235
887.248	-259
887.278	-267
887.354	-362
887.358	-359
887.437	-248
887.459	-218
887.517	-272
887.564	-390
887.596	-190
887.669	307
887.676	284
887.755	-92
887.774	-183
887.835	-1
887.880	181
887.914	244
887.985	262
887.994	204
888.073	-392
888.090	-498
888.153	-427
888.195	-425
888.232	-261
888.300	118
888.311	98
888.391	-112
888.405	-167
888.470	-53
888.510	45
888.549	127
888.615	265
888.628	207
888.708	-191
888.720	-258
888.787	-368
888.825	-446
888.866	-61
888.930	558
888.945	485
889.024	103
889.035	43
889.103	72
889.140	67
889.182	-190
889.245	-540
889.261	-478
889.340	-218
889.349	-187
889.419	-271
889.454	-325
889.498	224
889.559	977
889.577	808
889.656	48
889.664	-29
889.735	-39
889.768	-43
889.814	140
889.873	382
889.978	121
890.083	-535
890.187	281
890.292	-531
890.397	288
890.501	491
890.606	114
890.710	857
890.815	831
890.919	-119
891.024	691
891.128	-518
891.233	440
891.337	-567
891.442	367
891.546	-6
891.650	503
891.755	-12
891.859	681
891.963	-628
892.068	776
892.172	54
892.276	-76
892.380	-554
892.484	369
892.589	-551
892.693	337
892.797	383
892.901	-55
893.005	-514
893.109	-132
893.213	-566
893.317	148
893.421	-192
893.525	-557
893.629	-537
893.733	635
893.837	559
893.941	270
894.045	-370
894.148	945
894.252	80
894.356	144
894.460	690
894.564	576
894.667	-329
894.771	727
894.875	-458
894.978	293
895.082	-249
895.186	222
895.289	522
895.393	299
895.496	-198
895.600	-154
895.703	-253
895.807	805
895.910	-382
896.014	105
896.117	287
896.221	1183
896.324	40
896.427	516
896.531	-119
896.634	276
896.737	532
896.840	1010
896.944	-144
897.047	845
897.150	799
897.253	-266
897.356	235
897.460	568
897.563	-452
897.666	490
897.769	69
897.872	-188
897.975	201
898.078	305
898.181	567
898.284	264
898.387	-245
898.490	-107
898.593	-1132
898.695	25
898.798	-453
898.901	806
899.004	-255
899.107	575
899.209	181
899.312	-151
899.415	-274
899.518	138
899.620	275
899.723	871
899.826	-473
899.928	467
900.031	-92
900.133	-32
900.236	550
900.338	902
900.441	-104
900.543	303
900.646	-57
900.748	106
900.851	239
900.953	-16
901.055	283
901.158	-2
901.260	611
901.362	-428
901.465	-768
901.567	512
901.669	186
901.771	117
901.873	-23
901.976	-311
902.078	-258
902.180	-616
902.282	-170
902.384	407
902.486	384
902.588	-208
902.690	395
902.792	441
902.894	716
902.996	-466
903.098	-403
903.200	-113
903.302	104
903.404	385
903.505	-214
903.607	-497
903.709	-235
903.811	637
903.913	-27
904.014	209
904.116	-188
904.218	-101
904.319	-742
904.421	555
904.523	566
904.624	309
904.726	163
904.827	186
904.929	-487
905.030	201
905.132	69
905.233	279
905.335	-95
905.436	147
905.537	23
905.639	98
905.740	386
905.841	87
905.943	393
906.044	-213
906.145	-19
906.247	-300
906.348	-1122
906.449	562
906.550	92
906.651	99
906.752	-290
906.854	457
906.955	-1141
907.056	6
907.157	-599
907.258	-290
907.359	-472
907.460	762
907.561	613
907.662	-160
907.762	-1063
907.863	-431
907.964	-124
908.065	-70
908.166	-746
908.267	499
908.367	-895
908.468	449
908.569	-472
908.670	-271
908.770	-703
908.871	651
908.971	271
909.072	915
909.173	-189
909.273	272
909.374	-525
909.474	-233
909.575	155
909.675	-685
909.776	-734
909.876	316
909.977	334
910.077	296
910.177	-283
910.278	-311
910.378	294
910.478	-123
910.579	-764
910.679	291
910.779	234
910.879	564
910.980	-665
911.080	45
911.180	-63
911.280	-426
911.380	69
911.480	-315
911.580	-359
911.680	712
911.780	222
911.880	308
911.980	-242
912.080	-83
912.180	-602
912.280	-252
912.380	-674
912.480	-911
912.580	547
912.679	-492
912.779	-426
912.879	-189
912.979	258
913.078	134
913.178	-351
913.278	243
913.377	-710
913.477	405
913.577	119
913.676	290
913.776	-544
913.875	49
913.975	-204
914.074	107
914.174	-335
914.273	-403
914.373	-359
914.472	146
914.572	-916
914.671	217
914.770	144
914.870	188
914.969	-466
915.068	804
915.167	-85
915.267	-4
915.366	-211
915.465	-479
915.564	-81
915.663	-764
915.763	-141
915.862	918
915.961	76
916.060	-444
916.159	-747
916.258	257
916.357	311
916.456	461
916.555	-841
916.654	25
916.752	-224
916.851	-300
916.950	-259
917.049	206
917.148	12
917.247	-96
917.345	-310
917.444	620
917.543	-458
917.642	-370
917.740	-100
917.839	-265
917.937	205
918.036	615
918.135	-141
918.233	-47
918.332	-754
918.430	-217
918.529	-280
918.627	314
918.726	-595
918.824	48
918.923	-1404
919.021	-223
919.119	-397
919.218	672
919.316	-711
919.414	255
919.512	-109
919.611	302
919.709	-885
919.807	-170
919.905	119
920.003	459
920.102	52
920.200	-1077
920.298	-5
920.396	-478
920.494	-588
920.592	-350
920.690	-24
920.788	-414
920.886	-501
920.984	176
921.082	63
921.180	-104
921.277	-470
921.375	-412
921.473	123
921.571	-62
921.669	-1030
921.766	175
921.864	-307
921.962	-389
922.060	222
922.157	-16
922.255	-143
922.352	-34
922.450	-443
922.548	-336
922.645	-952
922.743	-421
922.840	-351
922.938	-174
923.035	-752
923.133	-140
923.230	-740
923.327	-387
923.425	355
923.522	-189
923.619	-1040
923.717	154
923.814	-299
923.911	-552
924.008	-126
924.106	-445
924.203	-710
924.300	579
924.397	-613
924.494	-186
924.591	-758
924.688	-567
924.786	177
924.883	-514
924.979	302
925.077	-120
925.173	-572
925.270	-115
925.367	-57
925.464	383
925.561	304
925.658	-129
925.755	472
925.852	871
925.948	-429
926.045	368
926.142	-223
926.239	734
926.335	-661
926.432	413
926.529	109
926.625	788
926.722	108
926.818	752
926.915	-602
927.011	-382
927.108	-140
927.204	529
927.301	-157
927.397	-475
927.494	-872
927.590	29
927.687	-604
927.783	-640
927.879	-1008
927.976	-835
928.072	-1283
928.168	-396
928.264	-355
928.361	-815
928.457	-786
928.553	-202
928.649	-272
928.745	-251
928.841	-570
928.937	407
929.033	-489
929.129	300
929.225	-209
929.321	-105
929.417	-378
929.513	-361
929.609	76
929.705	82
929.801	-348
929.897	-54
929.993	-426
930.089	-339
930.184	-86
930.280	-398
930.376	-339
930.471	142
930.567	-221
930.663	453
930.758	-990
930.854	-361
930.950	-225
931.045	65
931.141	61
931.236	-438
931.332	-401
931.427	-310
931.523	-179
931.618	464
931.714	-818
931.809	-356
931.905	-68
932.000	-174
932.095	-475
932.191	125
932.286	-99
932.381	-210
932.476	-57
932.572	144
932.667	106
932.762	-446
932.857	-125
932.952	-80
933.047	561
933.142	-661
933.237	-109
933.332	-293
933.427	-829
933.522	171
933.617	-464
933.712	169
933.807	-437
933.902	-343
933.997	-57
934.092	-502
934.187	-934
934.282	-363
934.376	-242
934.471	607
934.566	-283
934.661	271
934.755	-875
934.850	-495
934.945	100
935.039	74
935.134	-34
935.228	-400
935.323	114
935.417	10
935.512	-85
935.606	-470
935.701	-178
935.795	-190
935.890	-145
935.984	493
936.079	-75
936.173	-81
936.267	-872
936.362	-70
936.456	35
936.550	-249
936.644	-565
936.738	-305
936.833	-465
936.927	-240
937.021	34
937.115	217
937.209	-320
937.303	-164
937.397	-373
937.491	-558
937.585	-618
937.679	370
937.773	-391
937.867	17
937.961	392
938.055	25
938.149	-434
938.243	648
938.337	-408
938.430	-167
938.524	-43
938.618	361
938.712	204
938.805	66
938.899	-443
938.993	-161
939.086	-360
939.180	-616
939.274	141
939.367	616
939.461	-543
939.554	-226
939.648	-815
939.741	421
939.835	-482
939.928	55
940.022	-667
940.115	-198
940.208	-224
940.302	488
940.395	38
940.488	33
940.582	-492
940.675	-651
940.768	-706
940.861	351
940.954	-523
941.048	-763
941.141	-715
941.234	-571
941.327	-769
941.420	664
941.513	384
941.606	-801
941.699	-460
941.792	-340
941.885	-555
941.978	70
942.071	-661
942.164	-42
942.257	14
942.349	-105
942.442	-569
942.535	-239
942.628	-815
942.721	-243
942.813	-1068
942.906	-225
942.999	-889
943.091	-1077
943.184	-775
943.277	-354
943.369	-267
943.462	127
943.554	-924
943.647	-198
943.739	-1147
943.832	382
943.924	-599
944.017	470
944.109	-672
944.201	-341
944.294	113
944.386	-426
944.478	-322
944.571	-387
944.663	-1605
944.755	-962
944.847	-484
944.940	24
945.032	-1749
945.124	-163
945.216	-67
945.308	-625
945.400	-871
945.492	-696
945.584	-625
945.676	-1309
945.768	479
945.860	-284
945.952	-1650
946.044	-277
946.136	-1293
946.228	-814
946.320	-1472
946.412	-1052
946.503	-842
946.595	-724
946.687	-274
946.779	-400
946.870	-800
946.962	-557
947.054	96
947.145	-133
947.237	-1062
947.329	30
947.420	-567
947.512	-1239
947.603	-35
947.695	-762
947.786	-764
947.878	-689
947.969	-470
948.061	14
948.152	-764
948.243	-1146
948.335	-678
948.426	-739
948.517	-1011
948.609	-978
948.700	-1033
948.791	-684
948.882	-277
948.973	-1359
949.065	-1015
949.156	7
949.247	-840
949.338	-246
949.429	-1091
949.520	-385
949.611	-1500
949.702	-351
949.793	-414
949.884	-542
949.975	-5
950.066	-752
950.157	-854
950.247	-1280
950.338	-1075
950.429	101
950.520	-438
950.611	-1266
950.701	-965
950.792	-1073
950.883	-790
950.973	-314
951.064	-1118
951.155	-556
951.245	-1312
951.336	-205
951.427	-1229
951.517	3
951.608	-1267
951.698	-356
951.788	-982
951.879	-222
951.969	-1183
952.060	-342
952.150	-953
952.240	-3
952.331	-2772
952.421	259
952.511	-849
952.602	-397
952.692	-599
952.782	-1065
952.872	-801
952.962	323
953.052	-830
953.143	-932
953.233	-675
953.323	-437
953.413	-1522
953.503	59
953.593	-1207
953.683	-421
953.773	-1604
953.863	39
953.953	-882
954.042	-676
954.132	-1294
954.222	-1020
954.312	-1241
954.402	-816
954.492	-1125
954.581	-139
954.671	-309
954.761	-614
954.850	-1345
954.940	-54
955.030	-862
955.119	-523
955.209	-1371
955.298	-681
955.388	-1131
955.477	-516
955.567	-1129
955.656	-1381
955.746	-1326
955.835	-672
955.925	-1588
956.014	-1326
956.103	-1118
956.193	-1242
956.282	-928
956.371	-748
956.461	-1266
956.550	-1682
956.639	-752
956.728	-1221
956.817	-941
956.906	-551
956.995	-1113
957.085	-454
957.174	-752
957.263	-469
957.352	-1155
957.441	-527
957.530	-519
957.619	-1208
957.708	-1241
957.796	-1329
957.885	-1428
957.974	-504
958.063	-1061
958.152	-1800
958.241	-327
958.329	108
958.418	-555
958.507	-1772
958.596	-849
958.684	-1051
958.773	-1000
958.861	-1205
958.950	-1611
959.039	-517
959.127	-1092
959.216	-34
959.304	-780
959.393	-1329
959.481	-1471
959.570	-533
959.658	-1081
959.746	-1068
959.835	-897
959.923	1255
960.011	-103
960.100	-1098
960.188	-1368
960.276	-463
960.365	-1458
960.453	-551
960.541	-1726
960.629	-404
960.717	-1619
960.805	-94
960.893	-807
960.981	-487
961.069	-800
961.158	-1021
961.245	-1002
961.333	-399
961.421	-1630
961.509	-565
961.597	-927
961.685	-587
961.773	-1123
961.861	-1110
961.949	-542
962.036	-1275
962.124	-1848
962.212	-1224
962.299	-1847
962.387	-1271
962.475	-1694
962.562	-776
962.650	-1299
962.738	-688
962.825	-1406
962.913	-1230
963.000	-1001
963.088	-1398
963.175	-604
963.263	-1161
963.350	-1432
963.438	-211
963.525	-1897
963.612	-869
963.700	-225
963.787	3449
963.874	4894
963.962	390
964.049	-869
964.136	-764
964.223	-1361
964.310	-445
964.398	-1261
964.485	-1721
964.572	-1651
964.659	-598
964.746	275
964.833	-1021
964.920	-1552
965.007	-762
965.094	-839
965.181	-1136
965.268	-1259
965.355	-361
965.441	-987
965.528	-1405
965.615	-1015
965.702	-776
965.789	-1026
965.875	-1309
965.962	-1243
966.049	-606
966.136	-736
966.222	34
966.309	-1784
966.395	-1154
966.482	-1129
966.569	-1103
966.655	-921
966.742	26
966.828	-871
966.915	-1933
967.001	-1219
967.087	-404
967.174	-1216
967.260	-438
967.347	-1612
967.433	-248
967.519	1747
967.605	2367
967.692	-258
967.778	-632
967.864	-1124
967.950	-808
968.036	-1838
968.123	-475
968.209	-1715
968.295	-1188
968.381	-518
968.467	-887
968.553	-1658
968.639	-303
968.725	-985
968.811	-430
968.897	-476
968.983	-849
969.069	-916
969.154	-631
969.240	-585
969.326	-1212
969.412	-1716
969.497	-1267
969.583	-1343
969.669	-589
969.755	-946
969.840	-1434
969.926	-1029
970.012	-969
970.097	-1018
970.183	-802
970.268	-1324
970.354	-282
970.439	-1005
970.525	1113
970.610	1015
970.696	10
970.781	-892
970.866	-1058
970.952	-1047
971.037	-2157
971.122	-829
971.208	-756
971.293	-1292
971.378	-1524
971.463	-1150
971.549	-555
971.634	-684
971.719	-1287
971.804	-369
971.889	175
971.974	-999
972.059	-937
972.144	-844
972.229	-1356
972.314	-862
972.399	-723
972.484	-1120
972.569	-1011
972.654	-1656
972.739	-121
972.824	-244
972.908	-421
972.993	-1570
973.078	-1211
973.163	-994
973.247	-597
973.332	-2287
973.417	-491
973.501	-1387
973.586	-995
973.671	-1491
973.755	-857
973.840	-1509
973.924	74
974.009	-290
974.093	-1043
974.178	180
974.262	-811
974.346	-297
974.431	-863
974.515	-1534
974.600	-1007
974.684	-1556
974.768	-1673
974.852	-654
974.937	-1225
975.021	-1032
975.105	-1515
975.189	-973
975.273	-791
975.358	-1367
975.442	-1104
975.526	-1397
975.610	-1628
975.694	-1589
975.778	-529
975.862	-1688
975.946	-2482
976.030	-629
976.114	-819
976.198	-1001
976.281	-965
976.365	-1386
976.449	-794
976.533	-1392
976.617	-841
976.700	-968
976.784	-1239
976.868	-1170
976.951	-701
977.035	-631
977.119	-397
977.202	-1163
977.286	-763
977.369	-865
977.453	-1105
977.536	-2078
977.620	-1588
977.703	-1103
977.787	-1305
977.870	-931
977.953	-341
978.037	-1568
978.120	-722
978.203	-930
978.287	-193
978.370	62
978.453	-477
978.536	-1347
978.620	-533
978.703	-794
978.786	-609
978.869	-1003
978.952	-1695
979.035	-523
979.118	-1178
979.201	-1583
979.284	-1140
979.367	-2400
979.450	-1665
979.533	-1467
979.616	-1237
979.699	-1376
979.782	-736
979.865	-1880
979.948	-937
980.030	-1890
980.113	-1571
980.196	-1329
980.279	-1479
980.361	-1445
980.444	-865
980.526	-1700
980.609	-1016
980.692	-771
980.774	-1443
980.857	-1563
980.939	-425
981.022	-1791
981.104	-985
981.187	-1511
981.269	-1894
981.352	-1372
981.434	-1665
981.516	-1736
981.599	-889
981.681	-1636
981.763	-1261
981.846	-2277
981.928	-1663
982.010	-657
982.092	-1803
982.174	-1439
982.256	-818
982.339	-1444
982.421	-1371
982.503	-1463
982.585	-1213
982.667	-1196
982.749	-1346
982.831	-787
982.913	-2278
982.995	-1125
983.077	-1579
983.158	-818
983.240	-734
983.322	-933
983.404	-1037
983.486	-1446
983.568	-685
983.649	-1963
983.731	-1107
983.813	-1275
983.894	-944
983.976	-1495
984.058	-1159
984.139	-1140
984.221	-898
984.302	-1544
984.384	-841
984.465	-1520
984.547	-1501
984.628	-1499
984.710	-732
984.791	-964
984.872	-1298
984.954	-1695
985.035	-1101
985.116	-2311
985.198	-1095
985.279	-977
985.360	-1084
985.441	-1683
985.522	-1029
985.604	-1229
985.685	-2469
985.766	-1119
985.847	-784
985.928	-1295
986.009	-1823
986.090	-2012
986.171	-1397
986.252	-637
986.333	-933
986.414	-1801
986.495	-1108
986.576	-1996
986.656	-1085
986.737	-1410
986.818	-1241
986.899	-1618
986.980	-512
987.060	-1315
987.141	-1485
987.222	-1135
987.302	-1334
987.383	-1794
987.464	-450
987.544	-1841
987.625	-1871
987.705	-1353
987.786	-1426
987.866	-1587
987.947	-806
988.027	-1495
988.108	-2031
988.188	-1165
988.268	-765
988.349	-1552
988.429	-248
988.509	-1085
988.589	-1559
988.670	-2402
988.750	-698
988.830	-2205
988.910	-1567
988.990	-2002
989.070	-1279
989.151	-1378
989.231	-1615
989.311	-992
989.391	-1699
989.471	-1390
989.551	-821
989.631	-1203
989.711	-1351
989.791	-1534
989.870	-1802
989.950	-1676
990.030	-1454
990.110	-2010
990.190	-1917
990.269	-1701
990.349	-1579
990.429	-1589
990.509	-1481
990.588	-2223
990.668	-2035
990.747	-1355
990.827	-2008
990.907	-2456
990.986	-1937
991.066	-1214
991.145	-1231
991.225	-2140
991.304	-1659
991.383	-2343
991.463	-1225
991.542	-1514
991.622	-1325
991.701	-1634
991.780	-1506
991.859	-1517
991.939	-1597
992.018	-1790
992.097	-1807
992.176	-1387
992.256	-1242
992.335	-2027
992.414	-1672
992.493	-1951
992.572	-1493
992.651	-918
992.730	-380
992.809	-2543
992.888	-1349
992.967	-2090
993.046	-1633
993.125	-1299
993.203	-2127
993.282	-1784
993.361	-752
993.440	-1502
993.519	-1770
993.597	-1655
993.676	-1705
993.755	-1535
993.834	-1054
993.912	-2143
993.991	-1066
994.069	-1103
994.148	-1487
994.226	-1750
994.305	-1648
994.384	-1923
994.462	-1449
994.540	-2249
994.619	-1587
994.697	-991
994.776	-2364
994.854	-807
994.932	-1489
995.011	-1154
995.089	-1251
995.167	-1444
995.245	-1430
995.324	-2344
995.402	-1427
995.480	-2014
995.558	-1471
995.636	-2285
995.714	-2349
995.792	-1092
995.870	-1288
995.948	-1739
996.026	-1729
996.104	-2121
996.182	-1345
996.260	-1662
996.338	-1840
996.416	-2533
996.494	-1445
996.572	-1291
996.649	-1840
996.727	-2031
996.805	-1330
996.883	-2262
996.960	-1302
997.038	-1288
997.116	-1161
997.193	-2507
997.271	-741
997.348	-2335
997.426	-1095
997.504	-2538
997.581	-665
997.658	-2285
997.736	-1557
997.813	-2492
997.891	-1514
997.968	-2522
998.046	-977
998.123	-1365
998.200	-1533
998.277	-2312
998.355	-839
998.432	-1971
998.509	-1171
998.586	-2119
998.663	-835
998.741	-1915
998.818	-1923
998.895	-1272
998.972	-1439
999.049	-1851
999.126	-1426
999.203	-728
999.280	-748
999.357	-2445
999.434	-1501
999.511	-1582
999.587	-1315
999.664	-1602
999.741	-1895
999.818	-1788
999.895	-779
999.971	-2768
1000.048	-1396
1000.125	-1335
1000.202	-1669
1000.278	-1507
1000.355	-1330
1000.431	-2105
1000.508	-1628
1000.584	-1612
1000.661	-1782
1000.738	-2705
1000.814	-1494
1000.890	-1202
1000.967	-1589
1001.043	-2014
1001.120	-2801
1001.196	-1821
1001.272	-2026
1001.349	-1584
1001.425	-395
1001.501	-2270
1001.577	-1765
1001.654	-960
1001.730	-1924
1001.806	-1713
1001.882	-2447
1001.958	-1642
1002.034	-1495
1002.110	-1819
1002.186	-1429
1002.262	-1857
1002.338	-2393
1002.414	-1770
1002.490	-1356
1002.566	-1885
1002.642	-1792
1002.718	-1909
1002.794	-1963
1002.870	-1827
1002.945	-1458
1003.021	-2166
1003.097	-1708
1003.173	-1531
1003.248	-1527
1003.324	-1300
1003.400	-1370
1003.475	-1673
1003.551	-1855
1003.626	-1947
1003.702	-1574
1003.777	-1823
1003.853	-1929
1003.928	-1793
1004.004	-1828
1004.079	-1980
1004.155	-1341
1004.230	-2101
1004.305	-1024
1004.381	-2500
1004.456	-1056
1004.531	-1798
1004.607	-1529
1004.682	-1510
1004.757	-1711
1004.832	-1142
1004.907	-1453
1004.982	-1997
1005.057	-1205
1005.133	-1107
1005.208	-1473
1005.283	-1846
1005.358	-1369
1005.433	-1761
1005.508	-996
1005.583	-2070
1005.657	-1153
1005.732	-530
1005.807	-2090
1005.882	-1346
1005.957	-1704
1006.032	-1744
1006.106	-1003
1006.181	-2073
1006.256	-2323
1006.331	-2031
1006.405	-1327
1006.480	-960
1006.554	-1715
1006.629	-1771
1006.704	-2451
1006.778	-1603
1006.853	-1700
1006.927	-2558
1007.002	-1548
1007.076	-2205
1007.150	-1614
1007.225	-1566
1007.299	-1434
1007.373	-2493
1007.448	-1498
1007.522	-1168
1007.596	-1858
1007.671	-2453
1007.745	-1185
1007.819	-2240
1007.893	-2135
1007.967	-1837
1008.041	-2164
1008.115	-1644
1008.190	-1720
1008.264	-1679
1008.338	-1897
1008.412	-1721
1008.486	-2353
1008.560	-2486
1008.633	-1415
1008.707	-1580
1008.781	-1218
1008.855	-2067
1008.929	-955
1009.003	-2436
1009.076	-2950
1009.150	-2359
1009.224	-1899
1009.298	-1460
1009.371	-1925
1009.445	-1947
1009.519	-1590
1009.592	-2749
1009.666	-1684
1009.739	-2564
1009.813	-2387
1009.886	-1638
1009.960	-2107
1010.033	-2572
1010.107	-1636
1010.180	-1858
1010.253	-1712
1010.327	-2562
1010.400	-1598
1010.473	-2449
1010.547	-639
1010.620	-1911
1010.693	-2045
1010.766	-2143
1010.840	-1351
1010.913	-1447
1010.986	-2066
1011.059	-2041
1011.132	-1528
1011.205	-1813
1011.278	-1529
1011.351	-1947
1011.424	-1476
1011.497	-1991
1011.570	-1359
1011.643	-2160
1011.716	-2118
1011.789	-2288
1011.862	-1796
1011.934	-1915
1012.007	-2376
1012.080	-1706
1012.153	-2351
1012.225	-1902
1012.298	-2280
1012.371	-2241
1012.443	-862
1012.516	-2263
1012.588	-1537
1012.661	-2055
1012.733	-1955
1012.806	-2124
1012.879	-2654
1012.951	-2220
1013.023	-1921
1013.096	-1881
1013.168	-2412
1013.241	-1149
1013.313	-997
1013.385	-2422
1013.458	-2196
1013.530	-1854
1013.602	-2964
1013.674	-2777
1013.746	-2184
1013.819	-2241
1013.891	-1324
1013.963	-2673
1014.035	-1640
1014.107	-2096
1014.179	-2434
1014.251	-2968
1014.323	-1420
1014.395	-1856
1014.467	-1381
1014.539	-1406
1014.611	-1909
1014.683	-2274
1014.754	-1806
1014.826	-1367
1014.898	-2738
1014.970	-2841
1015.042	-1771
1015.113	-1944
1015.185	-2316
1015.257	-2772
1015.328	-1662
1015.400	-2228
1015.471	-2769
1015.543	-2672
1015.615	-1101
1015.686	-2359
1015.757	-1901
1015.829	-1945
1015.901	-1822
1015.972	-2407
1016.043	-2611
1016.115	-2049
1016.186	-1845
1016.257	-2994
1016.328	-1144
1016.400	-1655
1016.471	-1904
1016.542	-2372
1016.613	-3214
1016.685	-2345
1016.756	-2071
1016.827	-2508
1016.898	-3006
1016.969	-1219
1017.040	-2313
1017.111	-2319
1017.182	-2345
1017.253	-2227
1017.324	-2435
1017.395	-2407
1017.466	-1905
1017.537	-2311
1017.608	-2406
1017.678	-2600
1017.749	-2224
1017.820	-2580
1017.891	-2585
1017.961	-2425
1018.032	-1844
1018.103	-2001
1018.173	-1633
1018.244	-2718
1018.315	-2129
1018.385	-2013
1018.456	-2409
1018.526	-2751
1018.597	-1327
1018.667	-2888
1018.738	-2798
1018.808	-2131
1018.878	-2518
1018.949	-2485
1019.019	-2358
1019.089	-2407
1019.160	-2651
1019.230	-2076
1019.300	-2673
1019.371	-2687
1019.441	-1201
1019.511	-2098
1019.581	-2042
1019.651	-2369
1019.721	-2090
1019.791	-2595
1019.861	-2276
1019.931	-2433
1020.001	-3131
1020.071	-2383
1020.141	-2124
1020.211	-2620
1020.281	-2019
1020.351	-2395
1020.421	-1590
1020.491	-2580
1020.560	-1647
1020.630	-2798
1020.700	-1502
1020.770	-2775
1020.839	-1576
1020.909	-2399
1020.979	-2481
1021.048	-2614
1021.118	-1861
1021.187	-2029
1021.257	-2696
1021.326	-2332
1021.396	-2295
1021.465	-2638
1021.535	-2732
1021.604	-2258
1021.674	-2095
1021.743	-2392
1021.812	-2702
1021.882	-1382
1021.951	-1458
1022.020	-1882
1022.089	-2532
1022.159	-2235
1022.228	-2030
1022.297	-2087
1022.366	-2674
1022.435	-2656
1022.504	-2604
1022.573	-3345
1022.642	-1856
1022.711	-2959
1022.781	-1926
1022.849	-2616
1022.918	-2386
1022.987	-2227
1023.056	-1616
1023.125	-2130
1023.194	-2505
1023.263	-2341
1023.331	-2860
1023.400	-3060
1023.469	-2298
1023.538	-2145
1023.606	-2364
1023.675	-2760
1023.744	-2488
1023.812	-3026
1023.881	-1855
1023.949	-2857
1024.018	-1979
1024.086	-2314
1024.155	-2726
1024.223	-2434
1024.292	-2981
1024.360	-2763
1024.429	-1905
1024.497	-2304
1024.565	-2524
1024.634	-1935
1024.702	-2070
1024.770	-2268
1024.838	-2726
1024.907	-2062
1024.975	-2597
1025.043	-1114
1025.111	-2302
1025.179	-2835
1025.247	-2263
1025.315	-3145
1025.383	-2485
1025.451	-2564
1025.519	-1505
1025.587	-3060
1025.655	-2603
1025.723	-1914
1025.791	-1981
1025.859	-2876
1025.927	-2375
1025.995	-2618
1026.062	-1817
1026.130	-2607
1026.198	-1654
1026.266	-2705
1026.333	-2029
1026.401	-2461
1026.469	-2189
1026.536	-2701
1026.604	-1710
1026.671	-2545
1026.739	-1851
1026.806	-2764
1026.874	-2708
1026.941	-3202
1027.009	-1754
1027.076	-2696
1027.144	-2135
1027.211	-2534
1027.278	-2561
1027.345	-3314
1027.413	-2005
1027.480	-2506
1027.547	-2201
1027.614	-3319
1027.682	-2394
1027.749	-2463
1027.816	-2232
1027.883	-2322
1027.950	-1874
1028.017	-3507
1028.084	-2233
1028.151	-2159
1028.218	-1912
1028.285	-2181
1028.352	-2155
1028.419	-2654
1028.486	-2654
1028.553	-2893
1028.619	-2585
1028.686	-1625
1028.753	-2565
1028.820	-2292
1028.886	-2493
1028.953	-2744
1029.020	-2067
1029.086	-2833
1029.153	-2450
1029.220	-2341
1029.286	-1535
1029.353	-3179
1029.419	-1967
1029.486	-2492
1029.552	-2671
1029.619	-2676
1029.685	-2267
1029.751	-2753
1029.818	-2116
1029.884	-2145
1029.951	-2349
1030.017	-2079
1030.083	-2147
1030.149	-2736
1030.216	-1300
1030.282	-2358
1030.348	-1734
1030.414	-2110
1030.480	-2477
1030.546	-2483
1030.612	-1828
1030.678	-2535
1030.744	-2056
1030.810	-2406
1030.876	-2084
1030.942	-2416
1031.008	-2132
1031.074	-2004
1031.140	-1625
1031.206	-2061
1031.272	-2666
1031.337	-2671
1031.403	-2130
1031.469	-2568
1031.534	-1888
1031.600	-2090
1031.666	-2371
1031.731	-2606
1031.797	-2280
1031.863	-1747
1031.928	-2483
1031.994	-2052
1032.059	-2344
1032.125	-2451
1032.190	-2649
1032.256	-1869
1032.321	-1993
1032.386	-2533
1032.452	-2244
1032.517	-2295
1032.582	-2259
1032.647	-1968
1032.713	-2310
1032.778	-1761
1032.843	-1879
1032.908	-2921
1032.974	-2401
1033.039	-2511
1033.104	-2243
1033.169	-1975
1033.234	-2494
1033.299	-2105
1033.364	-1965
1033.429	-2525
1033.494	-2321
1033.559	-2373
1033.624	-1555
1033.688	-2870
1033.753	-2882
1033.818	-3183
1033.883	-2323
1033.948	-2567
1034.013	-2318
1034.077	-3117
1034.142	-2063
1034.207	-2553
1034.271	-2237
1034.336	-1750
1034.400	-2124
1034.465	-2659
1034.530	-2100
1034.594	-2631
1034.658	-1973
1034.723	-2219
1034.787	-1842
1034.852	-2080
1034.916	-2648
1034.981	-2873
1035.045	-1664
1035.109	-2692
1035.173	-1553
1035.238	-3245
1035.302	-1503
1035.366	-2618
1035.430	-2321
1035.495	-1787
1035.559	-1842
1035.623	-2132
1035.687	-1732
1035.751	-2820
1035.815	-2593
1035.879	-2607
1035.943	-1890
1036.007	-2732
1036.071	-2570
1036.135	-2986
1036.198	-2541
1036.262	-2438
1036.326	-2299
1036.390	-3056
1036.454	-2676
1036.517	-2385
1036.581	-2072
1036.645	-2506
1036.709	-2323
1036.772	-2318
1036.836	-2520
1036.900	-2329
1036.963	-2554
1037.026	-2250
1037.090	-2159
1037.154	-2501
1037.217	-2403
1037.280	-2624
1037.344	-2594
1037.407	-2370
1037.471	-1327
1037.534	-2025
1037.597	-2107
1037.661	-2899
1037.724	-2127
1037.787	-2144
1037.850	-2172
1037.913	-2381
1037.977	-2614
1038.040	-2321
1038.103	-2108
1038.166	-2145
1038.229	-2806
1038.292	-2149
1038.355	-2268
1038.418	-2229
1038.481	-1692
1038.544	-2388
1038.607	-2349
1038.670	-2124
1038.732	-1949
1038.795	-2218
1038.858	-2051
1038.921	-2428
1038.984	-1943
1039.046	-2263
1039.109	-1398
1039.172	-2376
1039.234	-2123
1039.297	-2929
1039.360	-1966
1039.422	-2398
1039.485	-1913
1039.547	-2664
1039.610	-1883
1039.672	-2688
1039.734	-1325
1039.797	-2228
1039.859	-2429
1039.922	-2439
1039.984	-2470
1040.046	-1767
1040.109	-1699
1040.171	-2960
1040.233	-2311
1040.295	-2090
1040.358	-2339
1040.420	-2965
1040.482	-1654
1040.544	-2030
1040.606	-2044
1040.668	-2978
1040.730	-1972
1040.792	-2854
1040.854	-2768
1040.916	-2465
1040.978	-2047
1041.040	-2162
1041.102	-1943
1041.164	-2640
1041.225	-2641
1041.287	-2389
1041.349	-2800
1041.411	-2193
1041.472	-1964
1041.534	-2615
1041.596	-1386
1041.657	-2430
1041.719	-2929
1041.781	-2599
1041.842	-2148
1041.904	-2620
1041.965	-2509
1042.027	-2253
1042.088	-2382
1042.150	-2535
1042.211	-2644
1042.272	-2242
1042.334	-1945
1042.395	-2033
1042.456	-2298
1042.518	-3076
1042.579	-2295
1042.640	-2753
1042.701	-1916
1042.763	-3199
1042.824	-2777
1042.885	-2488
1042.946	-2363
1043.007	-1827
1043.068	-2202
1043.129	-2690
1043.190	-2388
1043.251	-2216
1043.312	-2754
1043.373	-2624
1043.434	-2094
1043.495	-3095
1043.556	-2445
1043.616	-1741
1043.677	-2684
1043.738	-2208
1043.799	-3128
1043.859	-2250
1043.920	-2640
1043.981	-2796
1044.041	-1878
1044.102	-2579
1044.162	-2070
1044.223	-2465
1044.284	-2256
1044.344	-2117
1044.405	-1696
1044.465	-2340
1044.525	-1503
1044.586	-1735
1044.646	-1392
1044.707	-3165
1044.767	-1294
1044.827	-2318
1044.887	-1713
1044.948	-2094
1045.008	-2233
1045.068	-1860
1045.128	-1417
1045.188	-2609
1045.249	-1444
1045.309	-2747
1045.369	-2318
1045.429	-3086
1045.489	-1390
1045.549	-2772
1045.609	-1729
1045.669	-2516
1045.729	-2205
1045.789	-2181
1045.848	-2522
1045.908	-2082
1045.968	-2410
1046.028	-2405
1046.088	-1595
1046.147	-1861
1046.207	-1988
1046.267	-2399
1046.326	-1427
1046.386	-2084
1046.446	-1633
1046.505	-2163
1046.565	-1462
1046.624	-1399
1046.684	-1297
1046.743	-1263
1046.803	-1731
1046.862	-1173
1046.922	0
