'Start Wavelength	183.907
'End Wavelength	1046.922
'Gate Delay	5.000
'Gate Width (ms)	1.050
'Laser Output Level	0.000
'X Position	0.000
'Y Position	0.000
'Z Position	0.000
'Grid Point Number	1.000
'Shot Number	100.000
183.907	-44.000
183.977	-840.000
184.047	-61
184.116	-161
184.186	-10
184.256	-97
184.325	530
184.395	-352
184.465	639
184.534	47
184.604	-589
184.674	-358
184.743	-32
184.813	-9
184.883	-37
184.952	75
185.022	-585
185.092	383
185.161	47
185.231	148
185.301	231
185.370	-89
185.440	347
185.509	-499
185.579	-302
185.649	586
185.718	12
185.788	59
185.857	-537
185.927	23
185.996	-450
186.066	158
186.136	227
186.205	-186
186.275	271
186.344	-363
186.414	61
186.483	168
186.553	202
186.622	13
186.692	-300
186.761	-258
186.831	114
186.900	-265
186.970	263
187.039	-69
187.109	247
187.178	-584
187.248	-33
187.317	92
187.387	393
187.456	296
187.526	809
187.595	-98
187.664	166
187.734	761
187.803	-63
187.873	599
187.942	619
188.012	-574
188.081	-523
188.150	415
188.220	358
188.289	-201
188.358	499
188.428	312
188.497	633
188.567	-328
188.636	620
188.705	490
188.775	334
188.844	-320
188.913	-99
188.983	282
189.052	467
189.121	-348
189.191	380
189.260	411
189.329	563
189.399	14
189.468	614
189.537	158
189.606	694
189.676	155
189.745	560
189.814	235
189.883	284
189.953	155
190.022	594
190.091	1616
190.161	1614
190.230	276
190.299	-130
190.368	-591
190.437	79
190.507	-129
190.576	-55
190.645	606
190.714	-26
190.783	-405
190.853	17
190.922	267
190.991	657
191.060	80
191.129	202
191.198	-358
191.268	-294
191.337	218
191.406	407
191.475	-642
191.544	493
191.613	407
191.682	393
191.752	427
191.821	536
191.890	-166
191.959	547
192.028	-90
192.097	354
192.166	572
192.235	-81
192.304	327
192.373	-111
192.442	-608
192.511	36
192.580	10
192.650	515
192.719	614
192.788	578
192.857	627
192.926	239
192.995	155
193.064	643
193.133	1341
193.202	1525
193.271	1061
193.340	1757
193.409	1070
193.478	1254
193.547	1233
193.615	2150
193.684	2200
193.753	701
193.822	672
193.891	161
193.960	694
194.029	653
194.098	442
194.167	-79
194.236	235
194.305	312
194.374	275
194.443	-579
194.512	426
194.580	318
194.649	525
194.718	894
194.787	795
194.856	822
194.925	816
194.994	223
195.062	269
195.131	506
195.200	651
195.269	610
195.338	897
195.407	965
195.475	738
195.544	795
195.613	622
195.682	493
195.751	753
195.819	610
195.888	905
195.957	760
196.026	903
196.094	709
196.163	787
196.232	820
196.301	650
196.369	847
196.438	495
196.507	334
196.576	412
196.644	504
196.713	591
196.782	-5
196.850	-278
196.919	126
196.988	943
197.056	610
197.125	-356
197.194	853
197.262	759
197.331	500
197.400	309
197.468	-409
197.537	228
197.606	348
197.674	1088
197.743	825
197.812	478
197.880	1858
197.949	1520
198.017	982
198.086	1318
198.155	-49
198.223	1432
198.292	1293
198.360	739
198.429	531
198.497	679
198.566	1126
198.635	1881
198.703	638
198.772	1370
198.840	3004
198.909	1707
198.977	1226
199.046	445
199.114	665
199.183	782
199.251	441
199.320	337
199.388	892
199.457	356
199.525	996
199.594	775
199.662	639
199.731	-57
199.799	875
199.867	565
199.936	949
200.004	471
200.073	1123
200.141	807
200.210	-293
200.278	225
200.346	795
200.415	32
200.483	834
200.552	264
200.620	1054
200.688	539
200.757	54
200.825	879
200.893	394
200.962	262
201.030	439
201.098	600
201.167	1767
201.235	1036
201.303	370
201.372	575
201.440	654
201.508	471
201.577	946
201.645	821
201.713	572
201.781	887
201.850	1066
201.918	1468
201.986	563
202.055	822
202.123	926
202.191	660
202.259	874
202.327	-380
202.396	689
202.464	617
202.532	912
202.600	3081
202.669	913
202.737	830
202.805	262
202.873	1683
202.941	1280
203.009	526
203.078	175
203.146	608
203.214	1135
203.282	614
203.350	507
203.418	1089
203.487	1030
203.555	801
203.623	1714
203.691	568
203.759	828
203.827	1135
203.895	885
203.963	1210
204.031	-286
204.099	1301
204.168	1032
204.236	435
204.304	1519
204.372	213
204.440	824
204.508	669
204.576	308
204.644	-107
204.712	1019
204.780	682
204.848	915
204.916	707
204.984	494
205.052	551
205.120	1997
205.188	1317
205.256	481
205.324	992
205.392	1121
205.460	1091
205.528	1009
205.596	141
205.664	1136
205.732	1136
205.799	3024
205.867	2896
205.935	1379
206.003	1081
206.071	935
206.139	1362
206.207	752
206.275	1615
206.343	978
206.411	1005
206.478	1452
206.546	1889
206.614	1034
206.682	1126
206.750	1480
206.818	666
206.885	900
206.953	725
207.021	1617
207.089	1361
207.157	1303
207.225	658
207.292	1069
207.360	833
207.428	1707
207.496	794
207.563	1395
207.631	1074
207.699	1755
207.767	1079
207.834	940
207.902	1074
207.970	1981
208.038	772
208.105	1545
208.173	1887
208.241	1593
208.309	2067
208.376	1124
208.444	2856
208.512	1593
208.579	1328
208.647	1118
208.715	1330
208.782	998
208.850	1211
208.918	1547
208.985	1532
209.053	1318
209.120	1480
209.188	845
209.256	1665
209.323	1254
209.391	1734
209.459	2138
209.526	1529
209.594	463
209.661	799
209.729	1685
209.796	1557
209.864	1303
209.932	918
209.999	1172
210.067	1109
210.134	1348
210.202	1506
210.269	2354
210.337	1456
210.404	1033
210.472	1183
210.539	1767
210.607	934
210.674	1837
210.742	2268
210.809	1260
210.877	1184
210.944	1821
211.012	1022
211.079	1721
211.146	1648
211.214	1480
211.281	1401
211.349	1246
211.416	2092
211.484	1219
211.551	1703
211.618	1302
211.686	1581
211.753	1591
211.821	1465
211.888	1461
211.955	2260
212.023	1913
212.090	1036
212.157	1272
212.225	1772
212.292	3046
212.359	5748
212.427	9449
212.494	4705
212.561	2343
212.629	1876
212.696	2272
212.763	1937
212.831	1510
212.898	2143
212.965	1678
213.032	1770
213.100	2094
213.167	1439
213.234	2014
213.301	2446
213.369	1696
213.436	1612
213.503	1674
213.570	1706
213.638	1990
213.705	1220
213.772	1908
213.839	2525
213.906	1213
213.973	2550
214.041	1213
214.108	1604
214.175	2557
214.242	921
214.309	2266
214.376	2440
214.444	1801
214.511	2523
214.578	1487
214.645	2412
214.712	2906
214.779	1731
214.846	2361
214.913	2745
214.980	3004
215.048	2959
215.115	3028
215.182	2803
215.249	1918
215.316	2210
215.383	1465
215.450	2001
215.517	2044
215.584	976
215.651	1817
215.718	1615
215.785	1736
215.852	2502
215.919	1878
215.986	2090
216.053	1509
216.120	2074
216.187	1785
216.254	1585
216.321	1683
216.388	2510
216.455	2121
216.522	1919
216.589	2873
216.656	3730
216.722	3551
216.789	3439
216.856	3740
216.923	3010
216.990	2872
217.057	3652
217.124	3882
217.191	3126
217.258	4168
217.324	4452
217.391	4657
217.458	3643
217.525	2997
217.592	2193
217.659	2365
217.725	2487
217.792	2753
217.859	1546
217.926	1996
217.993	1701
218.059	2215
218.126	1054
218.193	1180
218.260	1023
218.327	1222
218.393	2158
218.460	807
218.527	1711
218.594	1656
218.660	2747
218.727	1948
218.794	883
218.860	2099
218.927	404
218.994	1167
219.061	813
219.127	1516
219.194	2317
219.261	1492
219.327	944
219.394	653
219.461	1235
219.527	869
219.594	1587
219.661	1059
219.727	925
219.794	978
219.860	1131
219.927	2480
219.994	1682
220.060	3088
220.127	2121
220.193	2179
220.260	2144
220.326	4544
220.393	6603
220.460	7990
220.526	4433
220.593	3552
220.659	3217
220.726	4055
220.792	6605
220.859	7460
220.925	10058
220.992	12065
221.058	9821
221.125	7724
221.191	6281
221.258	2861
221.324	2535
221.391	2389
221.457	2161
221.524	1543
221.590	2562
221.657	7097
221.723	3393
221.789	4403
221.856	3427
221.922	1780
221.989	1756
222.055	1455
222.121	772
222.188	2258
222.254	714
222.321	1083
222.387	1724
222.453	1188
222.520	1264
222.586	730
222.652	633
222.719	728
222.785	1546
222.851	1616
222.918	641
222.984	1356
223.050	1052
223.116	532
223.183	1153
223.249	589
223.315	427
223.382	1261
223.448	998
223.514	432
223.580	411
223.647	1536
223.713	12
223.779	905
223.845	793
223.911	866
223.978	62
224.044	348
224.110	-148
224.176	390
224.242	471
224.309	645
224.375	1150
224.441	1024
224.507	-523
224.573	1137
224.639	1108
224.705	93
224.772	552
224.838	688
224.904	1254
224.970	1457
225.036	565
225.102	1692
225.168	493
225.234	1006
225.300	904
225.366	840
225.432	356
225.499	1587
225.565	1211
225.631	1638
225.697	1546
225.763	2023
225.829	1961
225.895	2171
225.961	2705
226.027	2283
226.093	3331
226.159	4198
226.225	6930
226.291	14242
226.357	16890
226.423	8399
226.489	5340
226.554	3930
226.620	3823
226.686	5159
226.752	7903
226.818	14303
226.884	21405
226.950	15865
227.016	8130
227.082	5762
227.148	3394
227.214	3360
227.279	2826
227.345	2377
227.411	1729
227.477	1606
227.543	3301
227.609	3323
227.674	2720
227.740	1659
227.806	975
227.872	1415
227.938	1713
228.003	2460
228.069	1495
228.135	1495
228.201	510
228.267	1174
228.332	1561
228.398	2064
228.464	1058
228.530	731
228.595	1002
228.661	1242
228.727	1981
228.792	1599
228.858	1664
228.924	1574
228.990	1805
229.055	2184
229.121	1999
229.187	900
229.252	1123
229.318	1021
229.384	1413
229.449	1899
229.515	-57
229.581	158
229.646	2267
229.712	1767
229.777	3929
229.843	2572
229.909	2331
229.974	2358
230.040	2165
230.105	2154
230.171	1741
230.236	2655
230.302	4191
230.368	2925
230.433	1541
230.499	1662
230.564	1942
230.630	915
230.695	674
230.761	866
230.826	454
230.892	2668
230.957	527
231.023	1407
231.088	1123
231.154	670
231.219	1144
231.284	1351
231.350	2371
231.415	775
231.481	1368
231.546	857
231.612	752
231.677	638
231.742	756
231.808	1270
231.873	893
231.939	603
232.004	3100
232.069	1878
232.135	1917
232.200	1454
232.265	728
232.331	706
232.396	598
232.461	211
232.527	668
232.592	33
232.657	788
232.723	1880
232.788	1234
232.853	997
232.918	864
232.984	1034
233.049	-378
233.114	2160
233.179	962
233.245	3420
233.310	2626
233.375	445
233.440	1395
233.506	603
233.571	351
233.636	720
233.701	757
233.766	2705
233.832	2529
233.897	789
233.962	1501
234.027	2053
234.092	1330
234.157	1586
234.222	1018
234.288	3055
234.353	6525
234.418	5458
234.483	2562
234.548	1784
234.613	2201
234.678	2100
234.743	2769
234.808	7929
234.873	3354
234.938	2231
235.004	1723
235.069	1611
235.134	1585
235.199	2052
235.264	1116
235.329	744
235.394	1509
235.459	2160
235.524	1756
235.589	1695
235.654	1538
235.719	1525
235.784	1124
235.849	2150
235.913	3364
235.978	4869
236.043	4100
236.108	2274
236.173	2056
236.238	2064
236.303	1179
236.368	1640
236.433	3987
236.498	4261
236.563	4785
236.627	11445
236.692	26574
236.757	17739
236.822	8936
236.887	5998
236.952	5349
237.017	3980
237.081	5005
237.146	7851
237.211	16536
237.276	28650
237.341	31658
237.405	16245
237.470	8967
237.535	6570
237.600	3764
237.664	3220
237.729	2800
237.794	5814
237.859	9732
237.923	4968
237.988	2792
238.053	4174
238.118	3736
238.182	9868
238.247	5862
238.312	3856
238.376	2549
238.441	1728
238.506	2044
238.570	114
238.635	1529
238.700	1521
238.764	974
238.829	5621
238.893	3538
238.958	1914
239.023	2276
239.087	1817
239.152	1665
239.216	936
239.281	1209
239.346	1988
239.410	1111
239.475	1966
239.539	10011
239.604	4120
239.668	883
239.733	1142
239.797	2854
239.862	4938
239.926	7041
239.991	2293
240.055	1522
240.120	1407
240.184	1041
240.249	1288
240.313	1050
240.378	1238
240.442	6194
240.507	6491
240.571	2604
240.635	4900
240.700	4041
240.764	2231
240.829	1318
240.893	231
240.957	1528
241.022	6943
241.086	7314
241.151	3395
241.215	565
241.279	2673
241.344	4122
241.408	2497
241.472	1777
241.537	2530
241.601	1569
241.665	1432
241.730	746
241.794	1817
241.858	1659
241.922	1419
241.987	1745
242.051	642
242.115	1271
242.179	1993
242.244	523
242.308	2002
242.372	2210
242.436	2465
242.501	2262
242.565	1489
242.629	1751
242.693	1255
242.757	1562
242.822	1560
242.886	2117
242.950	1802
243.014	1217
243.078	2225
243.142	1817
243.206	1426
243.271	2262
243.335	2271
243.399	4249
243.463	19327
243.527	27339
243.591	7584
243.655	3348
243.719	1629
243.783	2880
243.847	5816
243.911	5579
243.975	7907
244.040	3263
244.104	2107
244.168	2522
244.232	3847
244.296	5509
244.360	5278
244.424	2390
244.488	1760
244.552	1206
244.615	1423
244.679	1194
244.743	2176
244.807	2084
244.871	1535
244.935	1347
244.999	1117
245.063	1812
245.127	2802
245.191	4649
245.255	3278
245.319	3115
245.383	1999
245.446	2498
245.510	1108
245.574	1348
245.638	1336
245.702	2461
245.766	4762
245.829	2840
245.893	1739
245.957	2317
246.021	2303
246.085	1981
246.149	3664
246.212	7446
246.276	9069
246.340	4548
246.404	2823
246.467	4576
246.531	4907
246.595	2929
246.659	3494
246.722	2890
246.786	3016
246.850	4325
246.913	4801
246.977	1452
247.041	1994
247.104	1920
247.168	2766
247.232	8279
247.295	13162
247.359	5226
247.423	3211
247.486	5371
247.550	4095
247.614	2760
247.677	4530
247.741	1621
247.804	2425
247.868	3500
247.932	8263
247.995	11009
248.059	4028
248.122	2392
248.186	5007
248.249	8434
248.313	23433
248.376	18203
248.440	11319
248.503	3778
248.567	5264
248.630	7488
248.694	10618
248.757	13951
248.821	21690
248.884	12816
248.948	14383
249.011	18290
249.075	26147
249.138	17897
249.202	8179
249.265	5399
249.328	6654
249.392	4923
249.455	4526
249.519	3514
249.582	5498
249.645	8761
249.709	7035
249.772	7073
249.835	4903
249.899	4850
249.962	4035
250.025	3702
250.089	11444
250.152	10456
250.215	5680
250.279	4363
250.342	5058
250.405	4207
250.468	4373
250.532	6379
250.595	9637
250.658	37993
250.721	38183
250.785	15799
250.848	8387
250.911	4871
250.974	5623
251.038	9246
251.101	12075
251.164	7332
251.227	8936
251.290	7274
251.354	14346
251.417	45962
251.480	32856
251.543	34366
251.606	71734
251.669	43158
251.732	20998
251.795	21222
251.859	24190
251.922	45992
251.985	20390
252.048	9749
252.111	7978
252.174	8507
252.237	17308
252.300	26273
252.363	37224
252.426	50488
252.489	20948
252.552	12472
252.615	8092
252.678	10828
252.741	22378
252.804	35197
252.867	54736
252.930	30909
252.993	16470
253.056	11785
253.119	8640
253.182	7237
253.245	13126
253.308	8611
253.371	8958
253.434	6924
253.497	8086
253.559	13746
253.622	8565
253.685	14516
253.748	11191
253.811	5929
253.874	7995
253.937	5957
254.000	5152
254.062	10943
254.125	11872
254.188	14746
254.251	8756
254.314	6384
254.376	12001
254.439	11182
254.502	9149
254.565	11228
254.628	15591
254.690	9340
254.753	4655
254.816	5117
254.878	5675
254.941	11873
255.004	7831
255.067	4169
255.129	4451
255.192	2975
255.255	2169
255.317	3433
255.380	1611
255.443	2583
255.505	2105
255.568	1535
255.631	1327
255.693	2773
255.756	819
255.819	2353
255.881	1747
255.944	1370
256.006	1759
256.069	1544
256.132	1619
256.194	4133
256.257	8329
256.319	5005
256.382	3870
256.444	2953
256.507	2042
256.569	2343
256.632	3322
256.694	6309
256.757	22188
256.819	41031
256.882	14400
256.944	6333
257.007	5926
257.069	5609
257.132	4146
257.194	3537
257.257	2740
257.319	2872
257.381	5274
257.444	17206
257.506	56701
257.569	45993
257.631	21653
257.693	11509
257.756	6329
257.818	5677
257.880	4075
257.943	2950
258.005	3255
258.067	1946
258.130	1895
258.192	3826
258.254	7285
258.317	3626
258.379	3065
258.441	8904
258.503	5969
258.566	12098
258.628	8805
258.690	2605
258.753	4327
258.815	7251
258.877	2983
258.939	2392
259.001	2867
259.064	1767
259.126	3582
259.188	3345
259.250	2784
259.312	4364
259.375	9914
259.437	5104
259.499	2287
259.561	2558
259.623	2573
259.685	2316
259.747	3797
259.809	11812
259.872	14467
259.934	28628
259.996	16457
260.058	3857
260.120	3311
260.182	2723
260.244	1260
260.306	1556
260.368	2668
260.430	2473
260.492	5620
260.554	9041
260.616	5947
260.678	16673
260.740	13687
260.802	3225
260.864	4253
260.926	2619
260.988	3095
261.050	3242
261.112	8633
261.174	20450
261.236	9715
261.298	3416
261.359	9105
261.421	8595
261.483	2523
261.545	2275
261.607	1061
261.669	2524
261.731	6407
261.793	11906
261.854	4512
261.916	2694
261.978	2680
262.040	2874
262.102	2434
262.164	4903
262.225	3440
262.287	2795
262.349	7256
262.411	3946
262.472	2814
262.534	6862
262.596	9585
262.658	2674
262.719	1097
262.781	4189
262.843	10457
262.904	3391
262.966	3062
263.028	4020
263.090	30818
263.151	44002
263.213	13358
263.275	7876
263.336	3352
263.398	2823
263.459	1428
263.521	3366
263.583	7426
263.644	3532
263.706	1647
263.767	1507
263.829	955
263.891	929
263.952	947
264.014	535
264.075	4669
264.137	7243
264.198	2589
264.260	1371
264.321	1981
264.383	7338
264.444	11941
264.506	2893
264.567	2036
264.629	6699
264.690	8190
264.752	3440
264.813	2162
264.875	1599
264.936	2257
264.998	1463
265.059	1559
265.120	1774
265.182	6279
265.243	32353
265.305	18622
265.366	4325
265.427	2694
265.489	2313
265.550	900
265.611	2521
265.673	1468
265.734	1016
265.795	2122
265.857	1115
265.918	1650
265.979	10311
266.040	46145
266.102	23509
266.163	7247
266.224	4944
266.286	3085
266.347	2208
266.408	2344
266.469	2396
266.530	1968
266.592	1303
266.653	6352
266.714	7025
266.775	2157
266.836	1396
266.898	1337
266.959	3230
267.020	2005
267.081	1271
267.142	1209
267.203	742
267.264	344
267.326	1864
267.387	1794
267.448	310
267.509	1366
267.570	594
267.631	334
267.692	-8
267.753	1138
267.814	584
267.875	4702
267.936	7546
267.997	4980
268.058	3882
268.119	1972
268.180	1633
268.241	1630
268.302	1428
268.363	333
268.424	1571
268.485	1743
268.546	698
268.607	719
268.668	956
268.729	316
268.790	1631
268.851	2098
268.912	7455
268.972	5298
269.033	2373
269.094	616
269.155	1073
269.216	1218
269.277	299
269.338	1000
269.398	2317
269.459	1298
269.520	3306
269.581	4000
269.642	4253
269.702	2438
269.763	1712
269.824	1803
269.885	2438
269.945	3940
270.006	1626
270.067	490
270.128	1053
270.188	526
270.249	780
270.310	1151
270.370	780
270.431	819
270.492	966
270.553	1147
270.613	5570
270.674	8845
270.734	2304
270.795	1765
270.856	3947
270.916	2163
270.977	1352
271.038	3128
271.098	1879
271.159	4622
271.219	2467
271.280	1700
271.340	1252
271.401	2944
271.462	5332
271.522	2500
271.583	1349
271.643	1604
271.704	1847
271.764	3041
271.825	8086
271.885	25855
271.946	22250
272.006	7545
272.066	15994
272.127	16785
272.187	4627
272.248	2645
272.308	4342
272.369	15961
272.429	4849
272.489	7432
272.550	5524
272.610	7609
272.671	4105
272.731	5791
272.791	7281
272.852	3140
272.912	2932
272.972	1760
273.033	1660
273.093	3644
273.153	2923
273.214	2300
273.274	2590
273.334	14235
273.394	18596
273.455	7067
273.515	11585
273.575	18021
273.635	6952
273.696	13518
273.756	17563
273.816	6592
273.876	4168
273.936	14186
273.997	14322
274.057	3887
274.117	2995
274.177	8161
274.237	29866
274.297	17459
274.358	14793
274.418	17154
274.478	10582
274.538	4246
274.598	4687
274.658	17718
274.718	17121
274.778	6021
274.838	2881
274.898	11947
274.958	25376
275.018	20825
275.078	9447
275.138	4824
275.198	2793
275.258	2357
275.318	4057
275.378	7393
275.438	6928
275.498	4939
275.558	15674
275.618	23094
275.678	11315
275.738	10352
275.798	6888
275.858	3249
275.918	1474
275.978	3170
276.038	1740
276.098	2786
276.157	8182
276.217	16442
276.277	5894
276.337	4750
276.397	2135
276.457	3426
276.517	1223
276.576	2048
276.636	1850
276.696	4650
276.756	11602
276.815	4988
276.875	2622
276.935	3548
276.995	2615
277.055	1486
277.114	1449
277.174	4846
277.234	12485
277.293	4060
277.353	2328
277.413	1766
277.472	2387
277.532	2660
277.592	2689
277.651	13300
277.711	13680
277.771	5976
277.830	25960
277.890	12889
277.950	16097
278.009	31293
278.069	9093
278.128	14710
278.188	14429
278.248	8562
278.307	21498
278.367	8554
278.426	2948
278.486	2209
278.545	1648
278.605	1677
278.664	1567
278.724	2355
278.783	11312
278.843	17744
278.902	4368
278.962	3727
279.021	3503
279.081	3999
279.140	2947
279.199	4301
279.259	3382
279.318	3371
279.378	5549
279.437	11357
279.496	40099
279.556	99539
279.615	49951
279.675	14919
279.734	9959
279.793	18229
279.853	22715
279.912	7991
279.971	5405
280.031	4613
280.090	12566
280.149	15481
280.208	16892
280.268	75897
280.327	46920
280.386	11219
280.445	13447
280.505	9410
280.564	5334
280.623	3378
280.682	9855
280.742	9267
280.801	3165
280.860	1958
280.919	1835
280.978	1466
281.037	1083
281.097	1532
281.156	881
281.215	1294
281.274	3219
281.333	16804
281.392	6822
281.451	1760
281.510	1296
281.569	1385
281.628	1124
281.688	863
281.747	2539
281.806	2056
281.865	1298
281.924	1103
281.983	1398
282.042	657
282.101	588
282.160	1299
282.219	537
282.278	2721
282.337	9570
282.396	4223
282.454	2038
282.513	4367
282.572	14018
282.631	4923
282.690	1593
282.749	969
282.808	2779
282.867	2283
282.926	2543
282.985	1419
283.043	333
283.102	936
283.161	2294
283.220	8352
283.279	12147
283.338	3533
283.396	2022
283.455	1381
283.514	3087
283.573	4131
283.631	2412
283.690	1494
283.749	2046
283.808	6975
283.866	5328
283.925	1939
283.984	1147
284.043	3691
284.101	2557
284.160	2074
284.219	2935
284.277	2632
284.336	6177
284.395	20905
284.453	10080
284.512	3705
284.570	6332
284.629	4341
284.688	3979
284.746	4454
284.805	4999
284.863	7111
284.922	7996
284.981	9147
285.039	15032
285.098	28503
285.156	71445
285.215	104019
285.273	97559
285.332	53341
285.390	29587
285.449	18687
285.507	12381
285.566	9383
285.624	7448
285.683	5828
285.741	4339
285.799	3392
285.858	3590
285.916	2683
285.975	2711
286.033	1700
286.091	1427
286.150	1110
286.208	2273
286.267	2780
286.325	2616
286.383	5007
286.442	2919
286.500	1097
286.558	1513
286.616	1456
286.675	3321
286.733	2416
286.791	2059
286.850	1834
286.908	3992
286.966	6577
287.024	2147
287.083	1406
287.141	917
287.199	2632
287.257	3470
287.315	2344
287.374	3019
287.432	8941
287.490	3580
287.548	3049
287.606	1439
287.664	1680
287.723	3816
287.781	3297
287.839	2179
287.897	3401
287.955	4259
288.013	7811
288.071	21302
288.129	87475
288.187	149335
288.245	57164
288.303	21038
288.361	12408
288.419	9531
288.477	6687
288.535	5075
288.593	3929
288.651	2274
288.709	1323
288.767	1807
288.825	1102
288.883	467
288.941	972
288.999	890
289.057	1038
289.115	916
289.173	1123
289.231	1003
289.289	454
289.346	1378
289.404	1610
289.462	4929
289.520	4032
289.578	1282
289.636	217
289.694	588
289.751	327
289.809	928
289.867	876
289.925	1938
289.983	2018
290.040	1121
290.098	810
290.156	1287
290.214	2195
290.271	-19
290.329	377
290.387	-365
290.444	625
290.502	18
290.560	1032
290.617	424
290.675	171
290.733	1412
290.790	1052
290.848	551
290.906	1042
290.963	1417
291.021	-47
291.078	514
291.136	1436
291.194	9142
291.251	11672
291.309	2302
291.366	1230
291.424	698
291.481	1702
291.539	362
291.596	1226
291.654	371
291.711	242
291.769	1616
291.826	4547
291.884	1748
291.941	921
291.999	249
292.056	2106
292.114	887
292.171	782
292.228	602
292.286	2646
292.343	5589
292.401	5363
292.458	2790
292.515	1938
292.573	2815
292.630	2572
292.687	1961
292.745	1778
292.802	3307
292.859	9176
292.917	15682
292.974	6344
293.031	2761
293.089	1808
293.146	643
293.203	563
293.260	1149
293.318	1666
293.375	2277
293.432	807
293.489	909
293.546	1319
293.604	2038
293.661	11761
293.718	20901
293.775	9035
293.832	4093
293.889	3356
293.947	2880
294.004	2001
294.061	3052
294.118	9005
294.175	15473
294.232	16051
294.289	4858
294.346	3442
294.403	2800
294.460	2948
294.517	1426
294.574	1515
294.631	1339
294.688	2530
294.745	9796
294.802	30076
294.859	24286
294.916	9372
294.973	4551
295.030	4377
295.087	3145
295.144	2975
295.201	2382
295.258	1794
295.315	3427
295.372	13079
295.429	16713
295.486	6241
295.542	4588
295.599	15549
295.656	17840
295.713	15034
295.770	16021
295.827	5055
295.883	2788
295.940	2922
295.997	6446
296.054	5159
296.111	2485
296.167	1744
296.224	1040
296.281	851
296.338	668
296.394	1310
296.451	2600
296.508	10755
296.564	13843
296.621	9937
296.678	25506
296.734	25250
296.791	8238
296.848	4572
296.904	7222
296.961	17186
297.018	22637
297.074	12917
297.131	4727
297.187	4059
297.244	7128
297.301	25631
297.357	29600
297.414	9552
297.470	4432
297.527	2424
297.583	2867
297.640	2506
297.696	1756
297.753	2097
297.809	1042
297.866	-33
297.922	1532
297.979	1063
298.035	1856
298.092	4362
298.148	13295
298.204	9742
298.261	5080
298.317	12899
298.374	24688
298.430	11762
298.486	6768
298.543	4930
298.599	4608
298.656	5856
298.712	12530
298.768	26298
298.824	14180
298.881	4302
298.937	2007
298.993	2184
299.050	4233
299.106	2635
299.162	2970
299.218	2071
299.275	1482
299.331	2976
299.387	7421
299.443	25286
299.500	17669
299.556	6718
299.612	3837
299.668	2728
299.724	2652
299.780	3244
299.837	2769
299.893	6992
299.949	23353
300.005	21078
300.061	21787
300.117	27396
300.173	11778
300.229	7370
300.285	10226
300.341	9934
300.397	5107
300.453	2892
300.510	2136
300.566	2644
300.622	2573
300.678	9870
300.734	17128
300.790	18647
300.845	19206
300.901	13449
300.957	21737
301.013	12731
301.069	4894
301.125	5002
301.181	4694
301.237	3207
301.293	1534
301.349	1997
301.405	1339
301.461	1779
301.516	2619
301.572	3730
301.628	6954
301.684	5188
301.740	10213
301.796	13767
301.851	10072
301.907	17882
301.963	15677
302.019	30250
302.074	64835
302.130	54083
302.186	22641
302.242	10337
302.297	7072
302.353	7963
302.409	15216
302.464	11323
302.520	12665
302.576	27891
302.631	26465
302.687	15101
302.743	6123
302.798	3885
302.854	3614
302.910	3053
302.965	4898
303.021	10127
303.076	8491
303.132	12655
303.187	12591
303.243	5702
303.299	2572
303.354	2534
303.410	2156
303.465	2136
303.521	1938
303.576	2246
303.632	3484
303.687	8561
303.743	21801
303.798	14601
303.853	6363
303.909	3976
303.964	3387
304.020	8000
304.075	8928
304.130	8980
304.186	16666
304.241	14899
304.297	11475
304.352	5837
304.358	5568
304.407	3384
304.449	3520
304.463	3567
304.518	3744
304.539	3581
304.573	3314
304.629	3697
304.630	3763
304.684	6834
304.720	14235
304.739	18041
304.794	21358
304.811	18102
304.850	10043
304.902	4702
304.905	4369
304.960	3887
304.992	4506
305.015	4992
305.071	4496
305.083	4340
305.126	3659
305.173	1958
305.181	1696
305.236	1105
305.264	1792
305.292	2480
305.347	3518
305.354	3629
305.402	4373
305.445	5027
305.457	5203
305.512	6118
305.535	6120
305.567	6070
305.622	5652
305.626	5965
305.678	12106
305.716	23302
305.733	27776
305.788	25859
305.807	22881
305.843	16689
305.897	22069
305.898	22150
305.953	18942
305.988	13292
306.008	9811
306.063	6953
306.078	6155
306.118	4383
306.168	3472
306.173	3415
306.228	2675
306.259	2017
306.283	1596
306.338	2299
306.349	2273
306.393	2183
306.440	3727
306.448	3983
306.503	3652
306.530	4041
306.558	5105
306.613	11967
306.620	12743
306.668	18308
306.711	24274
306.723	25138
306.778	18507
306.801	15212
306.833	10691
306.888	5229
306.892	4991
306.943	3312
306.982	2996
306.997	3035
307.052	3378
307.072	3437
307.107	3606
307.162	4468
307.163	4484
307.217	6332
307.253	7249
307.272	7524
307.327	8183
307.343	7665
307.381	6346
307.434	6100
307.436	6214
307.491	12569
307.524	18028
307.546	21048
307.600	21552
307.614	20158
307.655	12597
307.704	6856
307.710	6597
307.765	7258
307.795	8620
307.819	10791
307.874	16751
307.885	16803
307.929	13907
307.975	12500
307.984	12899
308.038	18390
308.065	23550
308.093	35513
308.148	73219
308.156	80835
308.202	129154
308.246	149820
308.257	145192
308.312	91296
308.336	71344
308.366	55169
308.421	33273
308.426	31354
308.475	20527
308.517	14498
308.530	13557
308.585	11300
308.607	10487
308.639	10087
308.694	9929
308.697	10056
308.748	14737
308.787	19435
308.803	20265
308.857	17630
308.877	16622
308.912	14722
308.967	13869
308.967	13872
309.021	18629
309.058	23607
309.076	29223
309.130	51247
309.148	60798
309.185	95863
309.238	155707
309.239	156435
309.293	177718
309.328	174358
309.348	154641
309.402	91927
309.418	76294
309.457	54378
309.508	31214
309.511	30616
309.566	24788
309.598	21951
309.620	22317
309.674	25036
309.688	25786
309.729	26088
309.778	23790
309.783	23291
309.837	18049
309.868	15449
309.892	16790
309.946	22894
309.959	24991
310.001	36640
310.049	46354
310.055	44988
310.109	28061
310.139	19295
310.163	15426
310.218	8890
310.229	7737
310.272	6580
310.319	5473
310.326	5316
310.381	4618
310.409	4153
310.435	4108
310.489	4351
310.499	4363
310.543	4170
310.589	4025
310.598	4078
310.652	4561
310.679	4669
310.706	4127
310.760	2991
310.769	2833
310.814	3002
310.859	3184
310.868	3190
310.923	3144
310.948	3099
310.977	3384
311.031	4233
311.038	4300
311.085	3966
311.128	3743
311.139	3749
311.193	3593
311.218	3561
311.247	3366
311.301	2956
311.308	2901
311.356	2943
311.398	3021
311.410	3107
311.464	3442
311.488	3554
311.518	3354
311.572	3066
311.578	3036
311.626	4501
311.668	5706
311.680	5665
311.734	5435
311.758	5290
311.788	5254
311.842	5222
311.847	5208
311.896	5868
311.937	6483
311.950	6557
312.004	6771
312.027	6862
312.058	6090
312.112	4684
312.117	4535
312.165	4104
312.207	3719
312.297	4884
312.386	4433
312.476	4617
312.566	8419
312.656	5287
312.745	3341
312.835	3548
312.925	3781
313.015	4280
313.104	4184
313.194	3540
313.284	3163
313.374	5138
313.463	5186
313.553	3936
313.643	3408
313.732	3470
313.822	2913
313.912	4040
314.001	3636
314.091	5139
314.180	6031
314.270	5453
314.360	5142
314.449	5385
314.539	3130
314.628	2819
314.718	3053
314.808	5058
314.897	3731
314.987	4524
315.076	4067
315.166	5328
315.255	4332
315.345	5817
315.434	4091
315.524	4368
315.613	4963
315.703	6565
315.792	6890
315.881	9395
315.971	6353
316.060	8215
316.150	10256
316.239	9768
316.328	5348
316.418	3773
316.507	3180
316.597	4874
316.686	4373
316.775	4751
316.865	10631
316.954	4292
317.043	2738
317.133	3046
317.222	3273
317.311	2307
317.400	3394
317.490	4379
317.579	5547
317.668	3341
317.757	3847
317.847	6939
317.936	13849
318.025	14272
318.114	8104
318.203	6468
318.293	8682
318.382	20308
318.471	16707
318.560	19833
318.649	32987
318.738	12280
318.828	5286
318.917	6980
319.006	6108
319.095	12426
319.184	36264
319.273	29298
319.362	17031
319.451	6467
319.540	5089
319.629	8942
319.718	19149
319.807	7953
319.896	11835
319.985	47032
320.074	27768
320.163	6502
320.252	7233
320.341	7651
320.430	7186
320.519	8814
320.608	6572
320.697	5222
320.786	4648
320.875	5596
320.964	7275
321.053	11643
321.142	14863
321.230	19815
321.319	12164
321.408	28488
321.497	15090
321.586	11444
321.675	11081
321.764	14631
321.852	8478
321.941	14878
322.030	14152
322.119	10282
322.207	28746
322.296	19482
322.385	9333
322.474	10812
322.562	32736
322.651	24119
322.740	11769
322.829	18957
322.917	13874
323.006	12008
323.095	10454
323.183	7281
323.272	9068
323.361	14634
323.449	38726
323.538	19201
323.626	24446
323.715	23056
323.804	7281
323.892	22294
323.981	19944
324.069	6027
324.158	10031
324.246	15273
324.335	6164
324.424	12823
324.512	5429
324.601	7047
324.689	10550
324.778	22536
324.866	12842
324.954	5188
325.043	4558
325.131	7060
325.220	10407
325.308	12917
325.397	9122
325.485	8418
325.574	3123
325.662	3007
325.750	3957
325.839	3789
325.927	2905
326.015	3939
326.104	4844
326.192	7148
326.280	3482
326.369	3921
326.457	4857
326.545	10074
326.634	5882
326.722	3092
326.810	3030
326.898	3231
326.987	4299
327.075	7575
327.163	9430
327.251	5170
327.340	6967
327.428	14092
327.516	3517
327.604	3154
327.692	3090
327.781	3637
327.869	4405
327.957	4927
328.045	4192
328.133	3126
328.221	3818
328.309	4100
328.397	3248
328.485	5017
328.574	5188
328.662	17692
328.750	13823
328.838	4802
328.926	3190
329.014	3436
329.102	4846
329.190	9518
329.278	10253
329.366	3683
329.454	2462
329.542	3520
329.630	3615
329.718	3181
329.806	4308
329.893	5664
329.981	6906
330.069	12482
330.157	38530
330.245	108523
330.333	81167
330.421	18580
330.509	9199
330.597	23695
330.684	20567
330.772	7021
330.860	7183
330.948	8848
331.036	5129
331.123	3033
331.211	2466
331.299	4112
331.387	6195
331.475	15748
331.562	5359
331.650	3050
331.738	3363
331.825	4284
331.913	2992
332.001	3071
332.089	2555
332.176	5632
332.264	10744
332.352	12931
332.439	5439
332.527	4339
332.614	3472
332.702	3683
332.790	3357
332.877	5686
332.965	12325
333.052	5493
333.140	3675
333.228	9242
333.315	4221
333.403	3811
333.490	5718
333.578	8134
333.665	9496
333.753	7394
333.840	3301
333.928	4057
334.015	7832
334.103	12449
334.190	43374
334.278	18977
334.365	5268
334.452	3978
334.540	2506
334.627	3907
334.715	5381
334.802	8163
334.889	34011
334.977	53107
335.064	8144
335.151	4644
335.239	4643
335.326	6167
335.413	17475
335.501	40956
335.588	6336
335.675	4405
335.762	4650
335.850	8640
335.937	5763
336.024	10215
336.111	43644
336.199	28708
336.286	5580
336.373	3729
336.460	1930
336.547	3146
336.635	4046
336.722	3750
336.809	3281
336.896	4171
336.983	13020
337.070	35032
337.157	53345
337.245	30806
337.332	27154
337.419	4854
337.506	3080
337.593	3467
337.680	9155
337.767	37761
337.854	13001
337.941	11974
338.028	12421
338.115	6234
338.202	5330
338.289	7878
338.376	28133
338.463	14733
338.550	16338
338.637	28741
338.724	6730
338.811	10560
338.898	2593
338.984	3200
339.071	3471
339.158	4353
339.245	10525
339.332	9938
339.419	6003
339.506	8124
339.593	2094
339.679	2670
339.766	2535
339.853	3922
339.940	9547
340.027	3514
340.113	3137
340.200	4718
340.287	3486
340.374	3844
340.460	8425
340.547	3743
340.634	5310
340.720	19673
340.807	18633
340.894	3405
340.980	2790
341.067	3533
341.154	3392
341.240	4384
341.327	12893
341.414	5152
341.500	5687
341.587	3118
341.674	2706
341.760	7033
341.847	10068
341.933	4572
342.020	1828
342.106	1486
342.193	2641
342.279	7290
342.366	4280
342.452	8660
342.539	5457
342.625	8349
342.712	24689
342.798	13428
342.885	5164
342.971	2539
343.058	1898
343.144	2775
343.230	2623
343.317	2933
343.403	3234
343.490	2558
343.576	1677
343.662	2473
343.749	3837
343.835	4365
343.921	6322
344.008	27085
344.094	83338
344.180	27847
344.267	8089
344.353	18616
344.439	28202
344.525	13694
344.612	10886
344.698	13302
344.784	9228
344.870	4219
344.957	3195
345.043	5238
345.129	3477
345.215	7694
345.301	5570
345.387	4452
345.474	1587
345.560	1778
345.646	2624
345.732	3023
345.818	3252
345.904	4165
345.990	2670
346.076	2736
346.162	5465
346.249	4025
346.335	2542
346.421	3106
346.507	6441
346.593	30127
346.679	12289
346.765	3690
346.851	2812
346.937	3573
347.023	2379
347.108	3140
347.194	4323
347.280	2802
347.366	2824
347.452	7495
347.538	34089
347.624	31727
347.710	28355
347.796	5836
347.882	2940
347.967	2691
348.053	3961
348.139	3318
348.225	2169
348.311	2892
348.397	2731
348.482	2808
348.568	4566
348.654	1926
348.740	2364
348.825	3005
348.911	4128
348.997	12795
349.083	37611
349.168	9788
349.254	3563
349.340	3969
349.425	1736
349.511	3324
349.597	3957
349.682	6718
349.768	22660
349.854	17079
349.939	3526
350.025	2189
350.110	3529
350.196	2580
350.282	1794
350.367	2146
350.453	3075
350.538	3848
350.624	3789
350.709	4516
350.795	1891
350.880	1972
350.966	2813
351.051	4763
351.137	3199
351.222	2739
351.308	5509
351.393	25126
351.479	9409
351.564	3471
351.649	2095
351.735	2405
351.820	1953
351.906	2254
351.991	3055
352.076	11591
352.162	26250
352.247	6180
352.332	3752
352.418	6173
352.503	9138
352.588	28338
352.673	36642
352.759	7984
352.844	3728
352.929	3915
353.014	5972
353.100	3555
353.185	5539
353.270	9070
353.355	10503
353.441	4547
353.526	2804
353.611	6445
353.696	11081
353.781	7154
353.866	3739
353.952	3073
354.037	5827
354.122	17724
354.207	16518
354.292	8948
354.377	3225
354.462	2893
354.547	3636
354.632	4221
354.717	4601
354.802	8388
354.887	4453
354.972	2700
355.057	2633
355.142	3071
355.227	2669
355.312	5025
355.397	10979
355.482	26383
355.567	19031
355.652	9283
355.737	10385
355.822	23045
355.907	31316
355.991	5852
356.076	3300
356.161	3220
356.246	1714
356.331	3708
356.416	5383
356.501	31909
356.585	54609
356.670	10925
356.755	5835
356.840	6556
356.924	22486
357.009	97527
357.094	59398
357.179	11803
357.263	8031
357.348	6229
357.433	7331
357.517	6657
357.602	6927
357.687	4793
357.771	6652
357.856	22660
357.941	18568
358.025	17663
358.110	88783
358.195	67853
358.279	12674
358.364	6972
358.448	16408
358.533	54007
358.617	48787
358.702	41882
358.787	20736
358.871	9947
358.956	9741
359.040	4646
359.125	2567
359.209	3336
359.294	7679
359.378	21799
359.462	9537
359.547	6011
359.631	2526
359.716	2660
359.800	2424
359.885	4994
359.969	4190
360.053	2886
360.138	3354
360.222	4850
360.306	8132
360.391	8364
360.475	9178
360.559	31237
360.644	22450
360.728	20693
360.812	16364
360.896	61779
360.981	34217
361.065	20988
361.149	5506
361.233	4633
361.318	3476
361.402	4451
361.486	3790
361.570	3548
361.654	4048
361.739	9103
361.823	31869
361.907	71515
361.991	19697
362.075	7553
362.159	16455
362.243	13361
362.327	8371
362.411	9538
362.495	6641
362.580	4968
362.664	3310
362.748	2694
362.832	3667
362.916	5249
363.000	11886
363.084	35697
363.168	79877
363.252	27740
363.336	8232
363.420	8361
363.503	26976
363.587	50652
363.671	10586
363.755	5954
363.839	9049
363.923	5775
364.007	7755
364.091	12181
364.175	9613
364.258	47980
364.342	41615
364.426	24448
364.510	17769
364.594	10446
364.677	10762
364.761	45096
364.845	51251
364.929	16091
365.013	15667
365.096	10447
365.180	14198
365.264	10029
365.347	51331
365.431	33287
365.515	8500
365.598	4801
365.682	3810
365.766	5688
365.849	9302
365.933	4409
366.017	5409
366.100	4642
366.184	1901
366.267	2836
366.351	2538
366.435	2870
366.518	2649
366.602	2070
366.685	2484
366.769	3484
366.852	4350
366.936	11125
367.019	7770
367.103	4729
367.186	9399
367.270	4594
367.353	1300
367.436	3349
367.520	2130
367.603	3413
367.687	4240
367.770	11158
367.853	6564
367.937	12563
368.020	32097
368.104	10626
368.187	6293
368.270	12326
368.353	12340
368.437	10117
368.520	19081
368.603	16378
368.687	15903
368.770	44704
368.853	14145
368.936	9200
369.020	11005
369.103	5595
369.186	2844
369.269	3939
369.352	5601
369.436	10762
369.519	6790
369.602	4003
369.685	3410
369.768	4088
369.851	3242
369.934	2337
370.018	3003
370.101	7986
370.184	7137
370.267	5325
370.350	8282
370.433	12767
370.516	24315
370.599	39762
370.682	11568
370.765	21398
370.848	26548
370.931	46459
371.014	26249
371.097	4753
371.180	4197
371.263	2647
371.346	2532
371.429	2391
371.511	2823
371.594	4907
371.677	8470
371.760	10354
371.843	8732
371.926	26331
372.009	89799
372.091	40985
372.174	17105
372.257	40279
372.340	23517
372.423	12665
372.505	17252
372.588	8508
372.671	10201
372.754	43226
372.836	32832
372.919	12860
373.002	35755
373.085	14547
373.167	8096
373.250	18211
373.332	42435
373.415	46936
373.498	112394
373.580	58626
373.663	38898
373.746	82196
373.828	25352
373.911	9536
373.993	8113
374.076	25997
374.159	36997
374.241	12949
374.324	35918
374.406	35050
374.489	22411
374.571	88383
374.654	53897
374.736	16770
374.819	47684
374.901	71610
374.983	95241
375.066	24287
375.148	6479
375.231	16549
375.313	52952
375.395	24878
375.478	6263
375.560	4769
375.643	4115
375.725	11189
375.807	58912
375.890	62920
375.972	23614
376.054	12969
376.136	15194
376.219	9688
376.301	12455
376.383	58182
376.465	32984
376.548	15396
376.630	16042
376.712	45978
376.794	35042
376.877	4626
376.959	2788
377.041	3715
377.123	5728
377.205	9510
377.287	2817
377.369	2436
377.452	1792
377.534	2165
377.616	2538
377.698	2734
377.780	2274
377.862	3390
377.944	2653
378.026	2137
378.108	2443
378.190	2597
378.272	2265
378.354	1496
378.436	1631
378.518	2479
378.600	13237
378.682	13867
378.764	23939
378.846	30628
378.928	6679
379.010	10859
379.091	7081
379.173	2519
379.255	2095
379.337	3779
379.419	9307
379.501	38985
379.583	24158
379.664	4841
379.746	9080
379.828	25502
379.910	39372
379.991	40835
380.073	8437
380.155	3738
380.237	3881
380.318	3007
380.400	2900
380.482	4261
380.564	10241
380.645	9628
380.727	10987
380.809	6905
380.890	4044
380.972	3921
381.053	2921
381.135	4465
381.217	6231
381.298	30773
381.380	20344
381.461	10651
381.543	36850
381.624	75427
381.706	19160
381.787	6854
381.869	7440
381.951	14347
382.032	74069
382.113	71813
382.195	17321
382.276	9547
382.358	12595
382.439	43643
382.521	46665
382.602	80077
382.684	43223
382.765	57425
382.846	71823
382.928	76116
383.009	54451
383.090	28211
383.172	84214
383.253	181311
383.334	77782
383.416	68620
383.497	49336
383.578	17201
383.659	24562
383.741	71546
383.822	234924
383.903	170186
383.984	50351
384.066	85931
384.147	74329
384.228	17073
384.309	8977
384.390	8855
384.471	5583
384.553	5583
384.634	7177
384.715	10446
384.796	5173
384.877	5265
384.958	19395
385.039	39175
385.120	16542
385.201	5499
385.282	6322
385.363	6892
385.444	5223
385.525	7883
385.606	29454
385.687	39573
385.768	9808
385.849	9330
385.930	30250
386.011	77039
386.092	32087
386.173	6697
386.254	4151
386.335	5203
386.416	5071
386.496	12736
386.577	34043
386.658	14763
386.739	6086
386.820	6027
386.901	4212
386.981	5189
387.062	2380
387.143	4403
387.224	21861
387.304	33212
387.385	10563
387.466	5429
387.547	7140
387.627	5863
387.708	6404
387.789	36598
387.869	65724
387.950	23870
388.031	3859
388.111	2001
388.192	7327
388.273	12790
388.353	9279
388.434	5029
388.514	7367
388.595	32971
388.676	61028
388.756	37526
388.837	26074
388.917	24688
388.998	5049
389.078	3895
389.159	2541
389.239	2995
389.320	6029
389.400	4425
389.480	6930
389.561	27329
389.641	21864
389.722	5651
389.802	9486
389.883	9976
389.963	29356
390.043	26610
390.124	7325
390.204	7987
390.284	30196
390.365	28239
390.445	17648
390.525	53612
390.605	66108
390.686	26031
390.766	8648
390.846	4368
390.927	2494
391.007	3457
391.087	3381
391.167	3949
391.247	2094
391.328	4117
391.408	6638
391.488	7260
391.568	1826
391.648	3445
391.728	7798
391.808	5771
391.888	6738
391.969	11556
392.049	30119
392.129	15319
392.209	9100
392.289	30269
392.369	23340
392.449	13336
392.529	11175
392.609	8109
392.689	7036
392.769	24926
392.849	32080
392.929	13916
393.009	37166
393.089	37931
393.169	15718
393.248	32229
393.328	165820
393.408	284508
393.488	85495
393.568	19954
393.648	10274
393.728	7759
393.807	5837
393.887	6180
393.967	5855
394.047	7253
394.127	11218
394.206	16397
394.286	45111
394.366	190912
394.446	298215
394.525	116118
394.605	29716
394.685	15965
394.764	20949
394.844	34854
394.924	33265
395.003	12078
395.083	7972
395.163	7611
395.242	5711
395.322	7617
395.402	5451
395.481	6891
395.561	10514
395.640	38559
395.720	34639
395.799	39687
395.879	48693
395.958	30033
396.038	71779
396.117	250981
396.197	367659
396.276	174614
396.356	57495
396.435	32045
396.515	20090
396.594	15807
396.673	19337
396.753	38416
396.832	179561
396.912	209507
396.991	63224
397.070	14734
397.150	7635
397.229	5993
397.308	5422
397.388	9227
397.467	7345
397.546	3054
397.625	2249
397.705	4583
397.784	5341
397.863	3845
397.942	2703
398.022	2778
398.101	6363
398.180	33193
398.259	25929
398.338	6821
398.417	3915
398.497	2909
398.576	2829
398.655	2129
398.734	1871
398.813	2134
398.892	5235
398.971	33848
399.050	28659
399.129	3537
399.208	1915
399.287	2661
399.366	2303
399.445	1763
399.524	1604
399.603	1633
399.682	2917
399.761	8940
399.840	32299
399.919	40471
399.998	7330
400.077	1733
400.156	571
400.235	2971
400.313	1835
400.392	1893
400.471	9495
400.550	29106
400.629	11059
400.708	3528
400.786	1572
400.865	6391
400.944	10852
401.023	7129
401.102	1245
401.180	1653
401.259	1222
401.338	2149
401.416	3433
401.495	3373
401.574	1753
401.652	1691
401.731	3127
401.810	3067
401.888	1351
401.967	920
402.046	1147
402.124	1999
402.203	4195
402.281	2630
402.360	2317
402.438	9104
402.517	9345
402.596	3119
402.674	1999
402.753	1924
402.831	1753
402.910	1970
402.988	4980
403.066	31385
403.145	29235
403.223	8358
403.302	28841
403.380	27789
403.459	23775
403.537	13441
403.615	3431
403.694	1236
403.772	2625
403.850	1411
403.929	1234
404.007	1358
404.085	3589
404.164	5594
404.242	4226
404.320	9703
404.398	41246
404.477	58044
404.555	62743
404.633	79804
404.711	41537
404.789	35803
404.868	8860
404.946	3637
405.024	1309
405.102	1699
405.180	1316
405.258	1519
405.336	1763
405.415	1470
405.493	2979
405.571	5039
405.649	1939
405.727	1294
405.805	2727
405.883	3179
405.961	1899
406.039	3011
406.117	1455
406.195	3005
406.273	7867
406.351	49345
406.429	47118
406.507	8613
406.585	2509
406.663	2173
406.740	3503
406.818	3372
406.896	1902
406.974	2027
407.052	2319
407.130	21995
407.208	55865
407.285	16617
407.363	2064
407.441	2136
407.519	1227
407.596	1835
407.674	5360
407.752	16583
407.830	23699
407.907	9841
407.985	3631
408.063	2319
408.141	850
408.218	2965
408.296	3179
408.373	2738
408.451	1765
408.529	2588
408.606	1394
408.684	1003
408.762	658
408.839	630
408.917	-295
408.994	563
409.072	588
409.149	1872
409.227	1037
409.304	3242
409.382	1601
409.459	957
409.537	1913
409.614	2248
409.692	1763
409.769	1461
409.846	1788
409.924	3479
410.001	3309
410.079	2513
410.156	2099
410.233	1856
410.311	1657
410.388	1077
410.465	1535
410.543	2505
410.620	1445
410.697	1334
410.775	2791
410.852	610
410.929	1855
411.006	3883
411.083	636
411.161	4013
411.238	6944
411.315	4436
411.392	679
411.469	2567
411.547	4163
411.624	1399
411.701	1667
411.778	1368
411.855	3171
411.932	3120
412.009	767
412.086	1889
412.163	1060
412.240	1357
412.317	2207
412.394	3520
412.471	1431
412.548	806
412.625	620
412.702	1069
412.779	3759
412.856	4377
412.933	730
413.010	1381
413.087	1777
413.164	8864
413.241	25630
413.318	8205
413.395	2947
413.471	4596
413.548	2937
413.625	1316
413.702	916
413.779	2007
413.855	1095
413.932	705
414.009	485
414.086	1599
414.162	607
414.239	1746
414.316	8283
414.393	32071
414.469	18514
414.546	2698
414.623	262
414.699	551
414.776	1907
414.853	1259
414.929	1936
415.006	1047
415.082	1860
415.159	1451
415.236	799
415.312	1392
415.389	1819
415.465	4679
415.542	2770
415.618	242
415.695	2831
415.771	2233
415.848	1531
415.924	1744
416.000	985
416.077	1015
416.153	-375
416.230	-34
416.306	100
416.383	1142
416.459	800
416.535	590
416.612	338
416.688	1603
416.764	434
416.841	208
416.917	345
416.993	1213
417.069	1013
417.146	2429
417.222	5539
417.298	3696
417.374	1553
417.451	1232
417.527	1084
417.603	2006
417.679	1841
417.755	1161
417.831	734
417.908	906
417.984	32
418.060	312
418.136	2803
418.212	6213
418.288	3333
418.364	1334
418.440	-189
418.516	2159
418.592	2119
418.668	5270
418.744	9322
418.820	10413
418.896	2623
418.972	950
419.048	863
419.124	3840
419.200	4499
419.276	1432
419.352	140
419.428	422
419.504	319
419.579	1968
419.655	1220
419.731	871
419.807	4364
419.883	10548
419.959	10948
420.034	3212
420.110	2249
420.186	15159
420.262	22890
420.337	4530
420.413	2308
420.489	2123
420.565	1260
420.640	651
420.716	1093
420.792	-76
420.867	1164
420.943	1238
421.019	1981
421.094	2066
421.170	1482
421.245	37
421.321	675
421.397	1433
421.472	2507
421.548	8191
421.623	11474
421.699	4399
421.774	1976
421.850	1374
421.925	3877
422.001	3714
422.076	2444
422.152	2202
422.227	4987
422.302	5822
422.378	6595
422.453	11945
422.529	25378
422.604	78160
422.679	197992
422.755	170979
422.830	60241
422.905	20035
422.981	9820
423.056	7376
423.131	3983
423.207	3909
423.282	2456
423.357	7025
423.432	5738
423.508	4427
423.583	7519
423.658	10909
423.733	2845
423.808	2098
423.883	3502
423.959	3401
424.034	1052
424.109	1723
424.184	779
424.259	1088
424.334	1338
424.409	1624
424.484	598
424.559	1390
424.634	1178
424.709	1520
424.784	2907
424.859	1766
424.934	617
425.009	10253
425.084	25042
425.159	15870
425.234	2175
425.309	846
425.384	2713
425.459	12450
425.534	5704
425.609	1605
425.683	1229
425.758	1302
425.833	665
425.908	2325
425.983	3102
426.058	23142
426.132	17095
426.207	2803
426.282	2127
426.357	3069
426.431	668
426.506	1007
426.581	228
426.655	1483
426.730	389
426.805	364
426.879	1531
426.954	1453
427.029	1870
427.103	12574
427.178	47973
427.253	37421
427.327	4562
427.402	2523
427.476	10225
427.551	10241
427.625	1329
427.700	1990
427.774	739
427.849	1724
427.923	1076
427.998	1079
428.072	320
428.147	2493
428.221	6966
428.296	28880
428.370	25407
428.444	5125
428.519	2735
428.593	6593
428.667	8111
428.742	6428
428.816	7141
428.890	14032
428.965	39917
429.039	19983
429.113	10721
429.188	5856
429.262	1595
429.336	2246
429.410	9187
429.485	10992
429.559	5395
429.633	7487
429.707	2143
429.781	2236
429.855	15356
429.930	42085
430.004	25775
430.078	31864
430.152	36090
430.226	34309
430.300	61107
430.374	14862
430.448	2965
430.522	6162
430.596	30304
430.670	28825
430.744	25904
430.818	75828
430.892	28737
430.966	3930
431.040	1842
431.114	552
431.188	504
431.262	333
431.336	950
431.410	2068
431.484	8424
431.557	11319
431.631	1642
431.705	705
431.779	2064
431.853	20047
431.927	27022
432.000	5169
432.074	821
432.148	1598
432.222	1447
432.295	943
432.369	845
432.443	1857
432.516	9851
432.590	48261
432.664	34393
432.737	4520
432.811	1191
432.885	748
432.958	129
433.032	43
433.106	406
433.179	520
433.253	289
433.326	520
433.400	624
433.473	526
433.547	68
433.620	786
433.694	2069
433.767	3519
433.841	581
433.914	289
433.988	594
434.061	785
434.134	639
434.208	337
434.281	139
434.355	-80
434.428	727
434.501	506
434.575	516
434.648	-385
434.721	-103
434.795	864
434.868	-129
434.941	-433
435.014	161
435.088	1400
435.161	659
435.234	2199
435.307	2842
435.381	1752
435.454	-88
435.527	575
435.600	722
435.673	1021
435.746	13
435.819	1156
435.892	17
435.966	568
436.039	367
436.112	1130
436.185	639
436.258	575
436.331	-406
436.404	219
436.477	395
436.550	289
436.623	-368
436.696	20
436.769	597
436.842	771
436.915	-355
436.987	1922
437.060	682
437.133	930
437.206	-61
437.279	1356
437.352	331
437.425	297
437.498	449
437.570	3728
437.643	4674
437.716	1792
437.789	340
437.861	1949
437.934	7331
438.007	7625
438.080	1417
438.152	908
438.225	2132
438.298	12236
438.370	64487
438.443	52190
438.516	13538
438.588	3702
438.661	292
438.734	898
438.806	840
438.879	2007
438.951	1394
439.024	4531
439.096	2628
439.169	548
439.241	396
439.314	-106
439.386	627
439.459	2032
439.531	3990
439.604	3238
439.676	219
439.749	174
439.821	686
439.893	518
439.966	-98
440.038	863
440.110	1709
440.183	1158
440.255	-9
440.327	1703
440.400	4979
440.472	34600
440.544	49083
440.617	9346
440.689	3872
440.761	4335
440.833	6784
440.905	7339
440.978	1164
441.050	851
441.122	25
441.194	394
441.266	-396
441.338	665
441.411	1127
441.483	8436
441.555	29297
441.627	12140
441.699	2352
441.771	2549
441.843	179
441.915	445
441.987	794
442.059	658
442.131	179
442.203	2176
442.275	2343
442.347	2529
442.419	1263
442.491	5120
442.563	22296
442.635	19534
442.706	8983
442.778	12899
442.850	3108
442.922	819
442.994	1116
443.066	1783
443.137	2137
443.209	1078
443.281	1545
443.353	3145
443.425	8574
443.496	37734
443.568	55020
443.640	24212
443.711	5923
443.783	1859
443.855	1082
443.926	897
443.998	360
444.070	1574
444.141	1580
444.213	2632
444.285	3766
444.356	3438
444.428	2121
444.499	1623
444.571	-464
444.642	778
444.714	673
444.785	2355
444.857	2523
444.928	5965
445.000	6079
445.071	3286
445.143	5942
445.214	3359
445.285	3490
445.357	10428
445.428	24151
445.500	77169
445.571	67130
445.642	31173
445.714	11352
445.785	13599
445.856	6573
445.928	4163
445.999	3776
446.070	3940
446.141	2641
446.213	3966
446.284	2411
446.355	2164
446.426	878
446.497	1883
446.569	1897
446.640	3882
446.711	4318
446.782	1489
446.853	981
446.924	1963
446.995	1255
447.066	2100
447.138	1753
447.209	2655
447.280	20
447.351	470
447.422	279
447.493	774
447.564	1382
447.635	2858
447.706	1837
447.777	929
447.847	378
447.918	914
447.989	1101
448.060	1509
448.131	4210
448.202	5417
448.273	4500
448.344	3047
448.414	32
448.485	1036
448.556	245
448.627	376
448.698	1165
448.768	361
448.839	665
448.910	2224
448.981	3475
449.051	2365
449.122	1873
449.193	1776
449.263	528
449.334	866
449.405	1113
449.475	4486
449.546	5251
449.616	3176
449.687	3497
449.758	2785
449.828	756
449.899	398
449.969	258
450.040	1433
450.110	757
450.181	1621
450.251	1196
450.322	783
450.392	1012
450.463	1332
450.533	411
450.604	1033
450.674	1026
450.744	1462
450.815	-174
450.885	982
450.955	900
451.026	599
451.096	464
451.166	984
451.237	1880
451.307	7833
451.377	6079
451.447	1022
451.518	198
451.588	1406
451.658	1096
451.728	1820
451.799	5010
451.869	12537
451.939	4364
452.009	1507
452.079	1403
452.149	1140
452.219	1253
452.289	7616
452.360	9974
452.430	3263
452.500	791
452.570	2384
452.640	1959
452.710	3983
452.780	10372
452.850	9432
452.920	9744
452.990	5175
453.060	1522
453.129	2866
453.199	3165
453.269	5789
453.339	29242
453.409	52740
453.479	31193
453.549	51916
453.619	61653
453.688	39203
453.758	8289
453.828	2260
453.898	1945
453.968	1797
454.037	1200
454.087	1269
454.107	1293
454.168	1465
454.177	1485
454.247	757
454.249	779
454.316	1084
454.330	1099
454.386	1133
454.411	1978
454.456	3218
454.492	6565
454.525	9512
454.574	6244
454.595	4852
454.655	2201
454.665	1771
454.734	1673
454.736	1709
454.804	2709
454.817	3504
454.873	6297
454.898	8782
454.943	12986
454.979	9097
455.013	5665
455.060	3746
455.082	3015
455.141	2303
455.152	2214
455.221	5591
455.222	5761
455.291	16439
455.303	17158
455.360	19540
455.384	27439
455.430	37041
455.465	35244
455.499	34468
455.546	19223
455.569	12259
455.627	9459
455.638	9064
455.707	3680
455.708	3680
455.777	1862
455.789	1761
455.846	1442
455.869	1666
455.916	2070
455.950	1938
455.985	1723
456.031	1737
456.054	1755
456.112	1428
456.124	1366
456.193	996
456.193	987
456.262	1649
456.274	1695
456.332	1789
456.355	1975
456.401	2063
456.436	1800
456.470	1724
456.516	1505
456.540	1308
456.597	1034
456.609	1014
456.678	1143
456.678	1135
456.747	609
456.759	632
456.817	943
456.840	950
456.886	805
456.920	1070
456.955	1323
457.001	1042
457.024	1022
457.082	1224
457.093	1234
457.162	1921
457.163	1936
457.232	2328
457.243	2383
457.301	2501
457.324	2199
457.370	1697
457.405	1439
457.439	1251
457.485	1354
457.508	1410
457.566	1169
457.577	1109
457.646	1916
457.647	1924
457.715	2405
457.727	2486
457.784	2830
457.808	3145
457.853	3749
457.889	4142
457.922	4132
457.969	4189
457.991	4420
458.050	4115
458.060	4077
458.129	4883
458.130	4926
458.198	5323
458.211	5151
458.267	4307
458.292	3690
458.336	2831
458.372	2400
458.405	2373
458.453	2574
458.474	2932
458.533	4608
458.543	4867
458.611	7944
458.614	8101
458.680	8078
458.694	7069
458.749	4527
458.775	3598
458.818	2523
458.855	2157
458.887	1764
458.936	1502
458.955	1490
459.016	1175
459.024	1146
459.093	1970
459.097	1965
459.162	1840
459.177	1884
459.230	2392
459.257	2947
459.299	3336
459.338	3177
459.368	2991
459.418	3038
459.437	2966
459.499	2985
459.505	3015
459.574	2174
459.579	2157
459.643	2009
459.659	1980
459.711	2059
459.740	2027
459.780	1956
459.820	2254
459.849	2336
459.900	2187
459.917	2294
459.981	3114
459.986	3092
460.054	2860
460.061	2781
460.123	2872
460.141	2906
460.191	3446
460.222	3876
460.260	4228
460.302	5066
460.328	5030
460.382	4727
460.397	4691
460.462	3405
460.465	3399
460.534	3534
460.543	3671
460.602	9312
460.623	11377
460.671	19413
460.703	27038
460.739	26683
460.783	29005
460.808	27925
460.864	10040
460.876	8321
460.944	2771
460.945	2703
461.013	2655
461.024	2637
461.081	3062
461.104	3218
461.150	3011
461.184	2750
461.218	2481
461.264	2575
461.286	2642
461.345	2130
461.355	2130
461.423	3048
461.425	3041
461.491	2128
461.505	2166
461.559	3958
461.585	4492
461.628	7185
461.665	10151
461.696	11581
461.745	15246
461.764	13714
461.825	6692
461.832	6707
461.901	3553
461.905	3538
461.969	2869
461.985	2649
462.037	2193
462.065	2024
462.105	2330
462.145	2850
462.173	3861
462.225	5723
462.241	6448
462.305	9697
462.310	9482
462.378	6665
462.385	6108
462.446	3819
462.465	3164
462.514	2752
462.545	2778
462.582	2812
462.625	2999
462.650	2942
462.705	2627
462.718	2650
462.785	2624
462.786	2636
462.854	3739
462.865	3906
462.922	5281
462.945	5858
462.990	4612
463.025	3623
463.058	3461
463.104	2701
463.126	2397
463.184	2105
463.194	2181
463.262	2414
463.264	2439
463.330	2956
463.344	3035
463.398	3262
463.424	3257
463.466	3133
463.504	3037
463.533	2811
463.583	2702
463.601	2981
463.663	3434
463.669	3535
463.737	5248
463.743	5387
463.805	6244
463.823	6521
463.873	10312
463.903	12438
463.940	13249
463.982	15072
464.008	12647
464.062	6587
464.076	6260
464.142	3278
464.144	3240
464.211	2318
464.221	2331
464.279	3039
464.301	3214
464.347	3479
464.381	3783
464.414	4008
464.461	4111
464.482	4371
464.540	5352
464.550	5332
464.617	5017
464.620	4998
464.685	5331
464.699	5401
464.753	6046
464.779	6367
464.820	7149
464.859	8003
464.888	7853
464.938	7605
464.956	7672
465.018	7303
465.023	7198
465.091	6178
465.098	6048
465.158	5873
465.177	5845
465.226	5800
465.257	5744
465.293	5977
465.336	6273
465.361	6782
465.416	7774
465.428	7956
465.495	9141
465.496	9180
465.563	13296
465.575	14037
465.631	18780
465.654	20915
465.698	14238
465.734	8321
465.765	7637
465.813	6211
465.833	6049
465.893	5936
465.900	5852
465.968	5233
465.972	5189
466.035	5734
466.052	5841
466.102	5790
466.131	5831
466.170	5818
466.210	5726
466.237	5984
466.290	6504
466.304	6396
466.369	5866
466.372	5919
466.439	7382
466.449	7566
466.506	7919
466.528	8074
466.573	9746
466.607	10977
466.641	15161
466.687	20937
466.708	23609
466.766	31059
466.775	29083
466.842	14019
466.845	13277
466.909	9922
466.925	9146
466.977	8519
467.004	8242
467.044	8686
467.083	9145
467.111	9982
467.163	11502
467.178	11919
467.242	13614
467.245	13545
467.312	11765
467.321	11518
467.379	9883
467.400	9265
467.446	10302
467.480	11035
467.559	9510
467.638	8445
467.717	8875
467.796	9428
467.875	10291
467.955	9644
468.034	11703
468.113	23779
468.192	36039
468.271	12824
468.350	7884
468.429	7436
468.508	7862
468.588	6580
468.667	7145
468.746	8925
468.825	8944
468.904	5834
468.983	8506
469.062	11251
469.141	14328
469.220	7434
469.299	7216
469.378	8009
469.456	10350
469.535	9129
469.614	8622
469.693	8568
469.772	9705
469.851	12553
469.930	10795
470.009	8740
470.088	7979
470.166	8402
470.245	10770
470.324	12675
470.403	10709
470.482	8588
470.560	7690
470.639	7790
470.718	9861
470.797	8280
470.875	8622
470.954	10741
471.033	12627
471.111	6724
471.190	6676
471.269	4966
471.347	6059
471.426	5403
471.505	8136
471.583	8488
471.662	8113
471.740	6714
471.819	7776
471.898	6178
471.976	6946
472.055	7077
472.133	6957
472.212	8751
472.290	9603
472.369	6346
472.447	5399
472.526	5603
472.604	7298
472.683	6477
472.761	6317
472.839	7283
472.918	6265
472.996	6218
473.075	7069
473.153	7310
473.231	5860
473.310	6228
473.388	7688
473.466	6381
473.545	8760
473.623	11838
473.701	10880
473.780	6944
473.858	6627
473.936	7024
474.014	6536
474.093	6108
474.171	8718
474.249	11587
474.327	8186
474.405	5609
474.484	5782
474.562	5156
474.640	5452
474.718	6166
474.796	6572
474.874	6076
474.952	5774
475.030	6354
475.108	6952
475.187	6250
475.265	7280
475.343	8503
475.421	10047
475.499	6257
475.577	6493
475.655	6753
475.733	11764
475.811	22106
475.889	20884
475.966	15096
476.044	6314
476.122	6150
476.200	9043
476.278	7555
476.356	5203
476.434	6121
476.512	5438
476.590	7305
476.667	7932
476.745	5307
476.823	6172
476.901	5671
476.979	5036
477.056	4638
477.134	5791
477.212	6000
477.290	6064
477.367	5035
477.445	4249
477.523	3292
477.601	4683
477.678	4683
477.756	5876
477.834	6391
477.911	4171
477.989	5162
478.066	3827
478.144	5291
478.222	5811
478.299	7867
478.377	9007
478.454	3750
478.532	4305
478.609	4688
478.687	5595
478.764	4547
478.842	5050
478.919	5771
478.997	6034
479.074	3545
479.152	4867
479.229	6033
479.307	5054
479.384	3655
479.461	4020
479.539	3643
479.616	4154
479.694	4237
479.771	5122
479.848	4481
479.926	6517
480.003	8083
480.080	5036
480.157	3710
480.235	3764
480.312	3924
480.389	4029
480.467	7015
480.544	9378
480.621	5557
480.698	3727
480.775	5138
480.853	4854
480.930	4782
481.007	5327
481.084	5301
481.161	6515
481.238	5688
481.315	3207
481.392	3320
481.470	3583
481.547	3430
481.624	4660
481.701	2432
481.778	4671
481.855	4252
481.932	5101
482.009	10429
482.086	8829
482.163	3384
482.240	5248
482.317	9223
482.393	8546
482.470	3411
482.547	3483
482.624	3490
482.701	4115
482.778	3564
482.855	4025
482.932	3494
483.009	2256
483.085	2786
483.162	4159
483.239	5128
483.316	3148
483.393	2820
483.469	3385
483.546	3529
483.623	4329
483.699	3315
483.776	3543
483.853	4218
483.930	6353
484.006	15827
484.083	31864
484.160	20494
484.236	32518
484.313	27079
484.389	19482
484.466	15900
484.543	15829
484.619	15250
484.696	15762
484.772	16592
484.849	16559
484.925	13845
485.002	14726
485.078	15428
485.155	15131
485.231	13890
485.308	14055
485.384	13931
485.461	16034
485.537	22006
485.614	27588
485.690	14379
485.766	13304
485.843	13760
485.919	19219
485.995	21710
486.072	12442
486.148	12415
486.224	11812
486.301	12335
486.377	13226
486.453	14422
486.530	14365
486.606	17596
486.682	22172
486.758	21474
486.835	25554
486.911	19877
486.987	29421
487.063	36495
487.139	50262
487.215	37144
487.292	17993
487.368	14184
487.444	14624
487.520	16049
487.596	15718
487.672	16293
487.748	23976
487.824	37203
487.900	21652
487.976	13908
488.052	12591
488.128	16765
488.204	15252
488.280	12501
488.356	13202
488.432	22026
488.508	37332
488.584	17424
488.660	12521
488.736	12252
488.812	13247
488.888	16346
488.964	21086
489.039	41639
489.115	72254
489.191	47263
489.267	13802
489.343	12120
489.418	10459
489.494	9182
489.570	8777
489.646	10129
489.722	9442
489.797	10468
489.873	12216
489.949	26147
490.024	27041
490.100	9465
490.176	9777
490.251	11421
490.327	16653
490.403	10237
490.478	9303
490.554	7150
490.629	8268
490.705	7931
490.781	9922
490.856	8262
490.932	10661
491.007	10187
491.083	10494
491.158	8903
491.234	9891
491.309	19159
491.385	23136
491.460	9006
491.536	9223
491.611	9110
491.686	8819
491.762	13632
491.837	25780
491.913	47631
491.988	59680
492.063	92991
492.139	24250
492.214	12594
492.289	8389
492.365	7373
492.440	9404
492.515	8069
492.590	7934
492.666	7002
492.741	8512
492.816	12871
492.891	8206
492.967	7996
493.042	7451
493.117	9548
493.192	10866
493.267	19933
493.342	78827
493.418	147586
493.493	24236
493.568	6785
493.643	6934
493.718	7730
493.793	11163
493.868	14967
493.943	10054
494.018	6902
494.093	6484
494.168	5241
494.243	5265
494.318	4697
494.393	4579
494.468	5510
494.543	5416
494.618	6587
494.693	6146
494.768	4961
494.842	5418
494.917	4945
494.992	5903
495.067	5937
495.142	4337
495.217	5591
495.292	5658
495.366	6635
495.441	8696
495.516	10640
495.591	15656
495.665	47544
495.740	148493
495.815	72710
495.890	9731
495.964	7064
496.039	7570
496.114	6222
496.188	6455
496.263	6887
496.338	6016
496.412	6342
496.487	8027
496.561	9328
496.636	9990
496.710	7908
496.785	7568
496.860	8867
496.934	7423
497.009	7301
497.083	7393
497.158	7263
497.232	8671
497.307	11027
497.381	8705
497.455	9855
497.530	13737
497.604	10326
497.679	11130
497.753	15992
497.827	22949
497.902	23530
497.976	25580
498.050	42928
498.125	164496
498.199	230111
498.273	42308
498.348	28540
498.422	23582
498.496	21156
498.570	19987
498.645	13778
498.719	13006
498.793	14065
498.867	19414
498.941	26395
499.016	55492
499.090	199103
499.164	95828
499.238	9756
499.312	7533
499.386	9160
499.460	9387
499.534	7087
499.609	9122
499.683	14058
499.757	14120
499.831	23670
499.905	108012
499.979	142427
500.053	19417
500.127	17835
500.201	15921
500.275	8037
500.349	7656
500.422	8015
500.496	12686
500.570	29600
500.644	58817
500.718	135084
500.792	39951
500.866	7575
500.940	9932
501.013	7993
501.087	7321
501.161	14675
501.235	19704
501.309	29930
501.382	93737
501.456	112365
501.530	21070
501.603	32792
501.677	16891
501.751	5624
501.825	7576
501.898	11867
501.972	37217
502.046	31479
502.119	7761
502.193	15507
502.266	43098
502.340	25661
502.413	15095
502.487	37047
502.561	23198
502.634	7953
502.708	6660
502.781	5678
502.855	4655
502.928	3118
503.002	3940
503.075	3436
503.149	3700
503.222	3872
503.295	4054
503.369	6193
503.442	7726
503.516	21605
503.589	71661
503.662	58146
503.736	14958
503.809	30621
503.882	30927
503.956	35217
504.029	42698
504.102	16892
504.175	20349
504.249	8819
504.322	5435
504.395	5703
504.468	4532
504.542	3729
504.615	3218
504.688	3096
504.761	2904
504.834	4239
504.907	4904
504.980	13322
505.053	5254
505.127	5980
505.200	8166
505.273	6729
505.346	3303
505.419	2863
505.492	3297
505.565	2478
505.638	2623
505.711	2358
505.784	2810
505.857	1614
505.930	3581
506.003	1857
506.076	4001
506.149	4093
506.221	6045
506.294	5479
506.367	11687
506.440	49428
506.513	38582
506.586	6711
506.659	4623
506.731	3723
506.804	4276
506.877	7436
506.950	4313
507.022	3292
507.095	3704
507.168	5992
507.241	4582
507.313	2850
507.386	2548
507.459	6698
507.531	5209
507.604	3506
507.677	3107
507.749	2447
507.822	4130
507.894	11109
507.967	15434
508.040	8900
508.112	5993
508.185	5791
508.257	5371
508.330	8376
508.402	6181
508.475	5798
508.547	5874
508.620	5587
508.692	8486
508.765	6462
508.837	3948
508.909	4639
508.982	4108
509.054	5403
509.127	4883
509.199	3981
509.271	4035
509.344	3437
509.416	3136
509.488	4089
509.560	4351
509.633	4647
509.705	5648
509.777	5150
509.849	8165
509.922	6004
509.994	5450
510.066	4938
510.138	5276
510.210	11881
510.283	11590
510.355	8471
510.427	7453
510.499	6676
510.571	7360
510.643	5908
510.715	10168
510.787	11202
510.859	7428
510.931	7789
511.003	10903
511.076	9865
511.148	5424
511.219	5556
511.291	9083
511.363	11026
511.435	6684
511.507	4953
511.579	5832
511.651	5650
511.723	5568
511.795	4316
511.867	5222
511.939	5274
512.010	11132
512.082	10861
512.154	5875
512.226	6598
512.298	7724
512.369	15027
512.441	11344
512.513	10974
512.585	9373
512.656	7246
512.728	8495
512.800	6912
512.871	5772
512.943	6957
513.015	5728
513.086	5995
513.158	6664
513.230	6631
513.301	10671
513.373	14153
513.444	7926
513.516	6013
513.588	6400
513.659	6376
513.731	9141
513.802	7605
513.874	13757
513.945	30151
514.016	12030
514.088	6331
514.159	6928
514.231	9055
514.302	13275
514.374	10042
514.445	7372
514.516	13109
514.588	11808
514.659	7742
514.730	12385
514.802	11352
514.873	8946
514.944	10400
515.016	7923
515.087	8969
515.158	10203
515.229	13791
515.301	9952
515.372	12988
515.443	10503
515.514	7347
515.585	5815
515.656	5381
515.728	5719
515.799	4268
515.870	6190
515.941	6569
516.012	6385
516.083	8621
516.154	10044
516.225	13179
516.296	11800
516.367	9645
516.438	10052
516.509	13244
516.580	17913
516.651	38564
516.722	159287
516.793	109211
516.864	18693
516.935	17018
517.006	17904
517.077	22386
517.148	49395
517.219	137183
517.289	312022
517.360	91142
517.431	34865
517.502	9427
517.573	8637
517.643	8568
517.714	9807
517.785	10137
517.856	9263
517.926	11926
517.997	12121
518.068	15861
518.138	21864
518.209	30863
518.280	87783
518.350	410261
518.421	233963
518.492	24450
518.562	11473
518.633	10770
518.703	7983
518.774	10606
518.845	16962
518.915	20674
518.986	11434
519.056	11820
519.127	20771
519.197	31946
519.268	60446
519.338	51299
519.408	11147
519.479	13710
519.549	11804
519.620	8481
519.690	5770
519.760	5315
519.831	5774
519.901	6426
519.971	5086
520.042	5562
520.112	6212
520.182	7048
520.253	9461
520.323	6262
520.393	6672
520.463	12798
520.534	7452
520.604	16717
520.674	9353
520.744	6747
520.814	16378
520.885	19865
520.955	15497
521.025	63541
521.095	39393
521.165	6821
521.235	5362
521.305	4744
521.375	3989
521.445	5047
521.515	7463
521.585	8453
521.655	9672
521.725	7127
521.795	7217
521.865	3809
521.935	6836
522.005	6096
522.075	4224
522.145	4204
522.215	5135
522.285	7292
522.355	9375
522.424	16677
522.494	17524
522.564	10398
522.634	16782
522.704	60301
522.774	32103
522.843	5580
522.913	5122
522.983	7602
523.053	6249
523.122	5315
523.192	7433
523.262	27613
523.331	39810
523.401	6786
523.471	3331
523.540	3996
523.610	2581
523.680	3835
523.749	3855
523.819	3995
523.888	5253
523.958	3087
524.027	3408
524.097	3458
524.166	3103
524.236	3726
524.305	4823
524.375	3993
524.444	2765
524.514	3836
524.583	3087
524.653	4214
524.722	5939
524.791	3705
524.861	2729
524.930	3196
524.999	2824
525.069	5135
525.138	4575
525.207	4439
525.277	4085
525.346	3435
525.415	3190
525.484	2887
525.554	3865
525.623	4586
525.692	3568
525.761	2929
525.830	3409
525.900	3375
525.969	5355
526.038	6966
526.107	8116
526.176	26728
526.245	30349
526.314	14493
526.383	16901
526.452	24048
526.522	30399
526.591	53735
526.660	33163
526.729	17024
526.797	15122
526.867	27253
526.935	134361
527.004	166393
527.073	92436
527.142	10455
527.211	5525
527.280	4345
527.349	6935
527.418	2582
527.487	3474
527.555	2460
527.624	2099
527.693	1648
527.762	3183
527.831	1880
527.899	2049
527.968	2882
528.037	2302
528.106	3853
528.174	8067
528.243	8104
528.312	7225
528.380	15549
528.449	4235
528.518	3242
528.586	1803
528.655	2815
528.723	2272
528.792	470
528.861	2602
528.929	1756
528.998	2523
529.066	830
529.135	1377
529.203	1695
529.272	915
529.340	2428
529.409	3015
529.477	2406
529.545	2290
529.614	4315
529.682	3075
529.751	4545
529.819	4264
529.887	3467
529.956	1585
530.024	1956
530.092	1156
530.161	4093
530.229	6042
530.297	3986
530.365	2473
530.434	1243
530.502	1427
530.570	2607
530.638	481
530.707	2557
530.775	4119
530.843	1098
530.911	2290
530.979	1946
531.047	1674
531.115	2169
531.183	1573
531.252	1740
531.320	1373
531.388	2295
531.456	2802
531.524	407
531.592	1787
531.660	2561
531.728	1654
531.796	2333
531.864	1580
531.932	1678
532.000	1873
532.067	2563
532.135	2930
532.203	4455
532.271	4028
532.339	7198
532.407	25095
532.475	20354
532.542	7278
532.610	7686
532.678	9705
532.746	30209
532.814	121918
532.881	40933
532.949	5806
533.017	4297
533.084	2524
533.152	2630
533.220	2531
533.287	2975
533.355	2119
533.423	1957
533.490	1456
533.558	1124
533.625	2986
533.693	3291
533.761	2811
533.828	3493
533.896	3332
533.963	8523
534.031	13334
534.098	14778
534.166	8427
534.233	3508
534.300	3622
534.368	4147
534.435	2877
534.503	3380
534.570	3361
534.637	2479
534.705	2286
534.772	2876
534.840	2971
534.907	10499
534.974	21789
535.041	5930
535.109	4359
535.176	1766
535.243	2099
535.310	2468
535.378	3323
535.445	1711
535.512	2051
535.579	2423
535.646	2490
535.714	3341
535.781	3644
535.848	3783
535.915	4561
535.982	5327
536.049	5082
536.116	4821
536.183	3748
536.250	3850
536.317	3466
536.384	3792
536.451	7487
536.518	8894
536.585	4750
536.652	6768
536.719	10323
536.786	9430
536.853	5357
536.920	7873
536.987	15435
537.053	15017
537.120	44333
537.187	63569
537.254	6631
537.321	3192
537.388	4564
537.454	2378
537.521	951
537.588	1847
537.654	3551
537.721	3959
537.788	5071
537.855	2985
537.921	2643
537.988	3275
538.055	3572
538.121	3372
538.188	4571
538.254	5983
538.321	15745
538.388	12385
538.454	4255
538.521	2619
538.587	2506
538.654	2645
538.720	2964
538.787	3348
538.853	2671
538.920	4426
538.986	4043
539.053	3122
539.119	3493
539.185	3407
539.252	4180
539.318	8667
539.385	6484
539.451	5117
539.517	5947
539.583	5978
539.650	10190
539.716	40338
539.782	17459
539.849	4447
539.915	4140
539.981	4391
540.047	5347
540.114	5047
540.180	4967
540.246	4309
540.312	6640
540.378	13699
540.444	19025
540.510	12324
540.576	45049
540.643	22527
540.709	4522
540.775	3935
540.841	3647
540.907	5380
540.973	8184
541.039	8075
541.105	10219
541.171	5928
541.237	4065
541.303	4202
541.369	6264
541.435	6805
541.500	13164
541.566	10446
541.632	4034
541.698	2853
541.764	3793
541.830	2539
541.896	2906
541.961	2965
542.027	3760
542.093	4143
542.159	4290
542.224	4061
542.290	8766
542.356	12515
542.421	18103
542.487	8165
542.553	4521
542.618	4787
542.684	4120
542.750	4306
542.815	5880
542.881	9219
542.947	31772
543.012	39515
543.078	4977
543.143	2732
543.209	4683
543.274	4160
543.340	5737
543.405	10117
543.471	26065
543.536	7018
543.602	3919
543.667	3232
543.732	3475
543.798	2406
543.863	3138
543.928	2078
543.994	2778
544.059	3101
544.124	3217
544.190	2620
544.255	3737
544.320	4546
544.386	4344
544.451	6374
544.516	7772
544.581	8097
544.646	18048
544.712	44294
544.777	11171
544.842	4453
544.907	3967
544.972	4512
545.037	4130
545.102	4628
545.168	4549
545.233	5134
545.298	6186
545.363	5800
545.428	7496
545.493	11418
545.558	31029
545.623	18425
545.688	4706
545.753	4718
545.818	4390
545.883	4428
545.947	4234
546.012	4430
546.077	4974
546.142	5779
546.207	4432
546.272	7258
546.337	7561
546.401	5784
546.466	4933
546.531	4228
546.596	5151
546.661	4917
546.725	4644
546.790	4084
546.855	3912
546.919	3629
546.984	3989
547.049	4500
547.113	5700
547.178	3890
547.243	5625
547.307	6017
547.372	7122
547.436	7799
547.501	5362
547.565	6090
547.630	7646
547.695	8083
547.759	6476
547.823	6581
547.888	6469
547.952	5678
548.017	5217
548.081	6199
548.146	8866
548.210	7966
548.274	6163
548.339	6006
548.403	5085
548.468	5105
548.532	4731
548.596	5166
548.660	5493
548.725	6206
548.789	6850
548.853	7921
548.917	7045
548.982	7093
549.046	9277
549.110	5320
549.174	5044
549.238	5602
549.303	4466
549.367	5217
549.431	6058
549.495	5249
549.559	5192
549.623	5786
549.687	6550
549.751	10275
549.815	7821
549.879	7791
549.943	5751
550.007	7564
550.071	7650
550.135	9430
550.199	6534
550.263	6321
550.327	7321
550.391	8578
550.455	7786
550.519	7044
550.582	7533
550.646	9660
550.710	12138
550.774	7334
550.838	6928
550.901	7194
550.965	8893
551.029	8219
551.093	10105
551.156	10818
551.220	18099
551.284	24020
551.347	14816
551.411	18112
551.475	26821
551.538	10884
551.602	7916
551.666	7238
551.729	6073
551.793	7825
551.856	7629
551.920	7356
551.983	7667
552.047	7499
552.110	6666
552.174	6638
552.237	7474
552.301	6753
552.364	6705
552.428	5730
552.491	5863
552.554	6768
552.618	6690
552.681	8238
552.745	6610
552.808	10712
552.871	15889
552.934	10667
552.998	7974
553.061	7832
553.124	8069
553.187	7412
553.251	8989
553.314	11552
553.377	12054
553.440	17465
553.503	42860
553.567	115434
553.630	32445
553.693	8178
553.756	7581
553.819	7109
553.882	6030
553.945	6876
554.008	6820
554.071	6200
554.134	6400
554.197	5703
554.260	5775
554.323	7186
554.386	6910
554.449	6306
554.512	7378
554.575	5885
554.638	6505
554.701	6094
554.764	6030
554.827	6079
554.889	5814
554.952	5605
555.015	4728
555.078	4731
555.141	6127
555.203	5715
555.266	5464
555.329	5364
555.391	5249
555.454	5655
555.517	6222
555.580	5578
555.642	5343
555.705	4667
555.768	5279
555.830	5546
555.893	4644
555.955	5030
556.018	5477
556.080	4935
556.143	4325
556.206	5045
556.268	5606
556.330	5736
556.393	5491
556.455	4964
556.518	6334
556.580	8428
556.643	5537
556.705	4296
556.767	4142
556.830	5920
556.892	4832
556.955	8798
557.017	8682
557.079	5472
557.142	5285
557.204	6002
557.266	12479
557.328	14110
557.391	5373
557.453	4160
557.515	4351
557.577	4713
557.639	6835
557.701	4844
557.764	3974
557.826	3683
557.888	4452
557.950	4896
558.012	4963
558.074	5099
558.136	8530
558.198	20730
558.260	15210
558.322	5367
558.384	6432
558.446	7551
558.508	7933
558.570	10017
558.632	15627
558.694	28792
558.756	21603
558.818	33516
558.880	122051
558.942	68887
559.003	24153
559.065	19468
559.127	7605
559.189	7043
559.251	8016
559.312	10267
559.374	18246
559.436	60068
559.498	59828
559.559	9746
559.621	7885
559.683	8126
559.744	10942
559.806	24848
559.868	57874
559.929	20804
559.991	8634
560.052	9222
560.114	19312
560.176	21330
560.237	11821
560.299	24751
560.360	12477
560.422	4920
560.483	4454
560.545	3903
560.606	4204
560.667	3757
560.729	3981
560.790	3647
560.852	3949
560.913	4695
560.974	4611
561.036	3171
561.097	4914
561.158	4816
561.220	4884
561.281	4567
561.342	5926
561.403	7489
561.465	7206
561.526	15785
561.587	31737
561.648	10100
561.709	5123
561.771	3792
561.832	5235
561.893	4155
561.954	4552
562.015	4794
562.076	5328
562.137	3900
562.198	4072
562.259	5265
562.320	4746
562.381	4625
562.442	7029
562.503	7076
562.564	5317
562.625	4774
562.686	5250
562.747	4456
562.808	5503
562.869	3740
562.930	5704
562.991	5187
563.051	4998
563.112	4964
563.173	4961
563.234	4943
563.294	4812
563.355	4620
563.416	5535
563.477	4873
563.537	4412
563.598	4980
563.659	5294
563.720	5222
563.780	5210
563.841	4869
563.901	4890
563.962	5060
564.023	5160
564.083	5640
564.144	5985
564.204	5163
564.265	5138
564.325	5227
564.386	8970
564.446	11805
564.507	5348
564.567	4142
564.628	5332
564.688	5408
564.749	6272
564.809	6546
564.869	7134
564.930	5392
564.990	5571
565.050	5239
565.111	6160
565.171	5000
565.231	4546
565.292	5981
565.352	4517
565.412	5335
565.472	5803
565.532	6228
565.593	5888
565.653	6113
565.713	5931
565.773	6558
565.833	6805
565.893	9907
565.953	7497
566.013	7297
566.074	6206
566.134	7869
566.194	10042
566.254	12887
566.314	10013
566.374	7810
566.434	8422
566.494	7934
566.554	8243
566.614	8454
566.673	8389
566.733	9046
566.793	9506
566.853	10110
566.913	10647
566.973	10867
567.033	11451
567.092	10839
567.152	10446
567.212	10905
567.272	10909
567.331	11969
567.391	11689
567.451	12813
567.511	14165
567.570	14638
567.630	11366
567.690	11461
567.749	11863
567.809	12190
567.868	13813
567.928	15651
567.988	19065
568.047	20758
568.107	26682
568.166	32748
568.226	45465
568.285	66712
568.345	68229
568.404	58587
568.464	49653
568.523	45601
568.582	46436
568.642	51092
568.701	57140
568.761	75139
568.820	108596
568.879	125280
568.939	105999
568.998	80933
569.057	64335
569.116	50403
569.176	40036
569.235	34081
569.294	29631
569.353	25024
569.413	22717
569.472	20502
569.531	17205
569.590	15555
569.649	14659
569.708	13787
569.767	13161
569.827	12687
569.886	12485
569.945	10722
570.004	9925
570.063	9706
570.122	10046
570.181	10585
570.240	9578
570.299	9912
570.358	11087
570.417	8549
570.475	8671
570.534	8779
570.593	9514
570.652	8343
570.711	8880
570.770	8144
570.829	8477
570.887	8589
570.946	8987
571.005	7305
571.064	6914
571.122	7289
571.181	7966
571.240	7478
571.299	7126
571.357	7244
571.416	7510
571.475	7811
571.533	8684
571.592	6283
571.650	6856
571.709	6350
571.768	6413
571.826	5637
571.885	5603
571.943	5819
572.002	6411
572.060	6341
572.119	5740
572.177	5234
572.236	5669
572.294	6287
572.352	6043
572.411	5561
572.469	5613
572.528	5899
572.586	5577
572.644	5995
572.703	8478
572.761	6372
572.819	6512
572.877	5096
572.936	6029
572.994	5243
573.052	5352
573.110	5006
573.169	6125
573.227	4983
573.285	6298
573.343	5779
573.401	5095
573.459	6078
573.517	4324
573.576	5608
573.634	6207
573.692	6335
573.750	5168
573.808	4943
573.866	6058
573.924	6215
573.982	6857
574.040	6306
574.098	6525
574.155	5835
574.213	5455
574.271	5516
574.329	5514
574.387	5504
574.445	5334
574.503	5424
574.560	4940
574.618	4749
574.676	5070
574.734	4597
574.792	5355
574.849	5484
574.907	5729
574.965	4712
575.022	4558
575.080	4793
575.138	5365
575.195	6172
575.253	5148
575.311	5885
575.368	6256
575.426	4365
575.483	5091
575.541	5022
575.598	5191
575.656	5316
575.713	5680
575.771	4779
575.828	5428
575.886	4832
575.943	5686
576.001	5802
576.058	5532
576.115	5929
576.173	5796
576.230	6906
576.287	7784
576.345	7327
576.402	6671
576.459	5901
576.517	5727
576.574	6639
576.631	7256
576.688	6934
576.746	6244
576.803	5617
576.860	6462
576.917	4954
576.974	5634
577.031	6531
577.089	6024
577.146	6579
577.203	6537
577.260	6873
577.317	6558
577.374	6994
577.431	6502
577.488	7075
577.545	6697
577.602	7092
577.659	7173
577.716	7680
577.773	8072
577.830	8203
577.886	7191
577.943	6448
578.000	7173
578.057	8068
578.114	8670
578.171	9671
578.227	12001
578.284	12616
578.341	12176
578.398	9664
578.454	9194
578.511	8730
578.568	8781
578.625	7858
578.681	7821
578.738	7258
578.794	7201
578.851	6915
578.908	6798
578.964	7644
579.021	7186
579.077	6435
579.134	6947
579.190	6989
579.247	6862
579.303	6616
579.360	7262
579.416	6555
579.473	6527
579.529	6511
579.586	7285
579.642	7262
579.698	7682
579.755	7727
579.811	8131
579.867	9573
579.924	8931
579.980	8560
580.036	10647
580.093	12315
580.149	15920
580.205	21214
580.261	17827
580.317	14042
580.374	12509
580.430	12254
580.486	10555
580.542	9974
580.598	9677
580.619	9591
580.654	9432
580.692	8198
580.710	7568
580.765	9209
580.767	9249
580.823	8058
580.838	8248
580.879	8701
580.911	8700
580.935	8676
580.984	9471
580.991	9569
581.047	8302
581.057	8606
581.103	9884
581.130	10412
581.159	10965
581.203	11589
581.215	11704
581.270	11845
581.276	11808
581.326	11275
581.349	10900
581.382	10327
581.422	10592
581.438	10665
581.494	10057
581.494	10082
581.550	11250
581.567	11010
581.606	10369
581.640	10606
581.661	10824
581.713	11039
581.717	11031
581.773	10722
581.786	10686
581.829	10499
581.859	11144
581.885	11692
581.932	11273
581.940	11168
581.996	12043
582.004	12054
582.052	11989
582.077	11907
582.107	11867
582.150	11719
582.163	11618
582.219	12016
582.223	12049
582.274	12379
582.296	12902
582.330	13623
582.368	13684
582.386	13746
582.441	13097
582.441	13084
582.497	13680
582.514	14015
582.552	14787
582.587	15191
582.608	15378
582.659	17017
582.663	17120
582.719	15715
582.732	15483
582.774	14853
582.805	15316
582.830	15612
582.877	16055
582.885	16205
582.941	16967
582.950	17119
582.996	17533
583.023	17960
583.052	18684
583.095	20206
583.107	20738
583.162	23993
583.168	24323
583.218	27068
583.240	27317
583.273	26608
583.313	24966
583.328	24289
583.384	23035
583.385	22984
583.439	21957
583.458	21744
583.494	21422
583.531	21731
583.549	22026
583.603	22241
583.605	22250
583.660	22526
583.676	22534
583.715	22512
583.748	22610
583.770	22906
583.820	23691
583.825	23769
583.881	24284
583.893	24205
583.936	23762
583.965	24035
583.991	24351
584.038	24626
584.046	24774
584.101	26074
584.110	26250
584.156	26723
584.183	26395
584.211	26281
584.255	27251
584.266	27452
584.321	27340
584.328	27335
584.376	28205
584.400	29043
584.431	29939
584.472	29882
584.486	30090
584.541	31812
584.545	31825
584.596	31675
584.617	31788
584.651	32641
584.689	33427
584.706	33802
584.761	34802
584.762	34768
584.816	36430
584.834	36448
584.871	36601
584.906	37148
584.926	37678
584.978	38763
584.980	38859
585.035	39959
585.051	40177
585.090	41314
585.123	42361
585.145	42966
585.195	43857
585.200	44072
585.254	45722
585.267	46336
585.309	49320
585.340	51574
585.364	52982
585.412	52472
585.419	52410
585.473	52194
585.484	52201
585.528	54172
585.556	56101
585.583	58672
585.628	61921
585.637	63693
585.692	77831
585.700	80767
585.747	101612
585.772	106061
585.801	96836
585.845	77207
585.856	73841
585.910	65805
585.917	64781
585.965	65008
585.989	65293
586.019	66680
586.061	67675
586.074	68136
586.128	70528
586.133	70521
586.183	72274
586.205	72626
586.237	73844
586.277	75413
586.292	76340
586.346	78071
586.349	78041
586.401	81835
586.421	82793
586.455	84749
586.493	86499
586.509	88093
586.564	93499
586.565	93408
586.618	102522
586.637	105008
586.672	107314
586.709	105768
586.727	104949
586.781	104832
586.781	105144
586.835	110138
586.853	111306
586.889	113889
586.925	115347
586.944	117051
586.996	121824
586.998	122368
587.052	129047
587.068	130481
587.106	134937
587.140	138450
587.161	141134
587.212	146700
587.215	147592
587.269	155819
587.284	158054
587.323	164895
587.356	169214
587.377	173535
587.427	182198
587.431	183473
587.485	193797
587.499	196034
587.539	205769
587.571	211946
587.593	217949
587.643	230002
587.648	232198
587.702	248694
587.715	251938
587.755	267127
587.786	277698
587.810	288207
587.858	307517
587.864	311216
587.917	338669
587.930	343908
587.971	369464
588.001	386038
588.025	403266
588.073	435960
588.079	442477
588.133	487935
588.145	496788
588.187	541315
588.217	569780
588.241	602942
588.288	664051
588.295	676167
588.348	761875
588.360	777945
588.402	865515
588.431	922841
588.456	987322
588.503	1103971
588.510	1128632
588.564	1301956
588.575	1334428
588.617	1516511
588.646	1634774
588.671	1752953
588.718	1966030
588.725	1999254
588.778	2208614
588.789	2244342
588.832	2255278
588.861	2243080
588.886	2076330
588.932	1714215
588.939	1668496
588.993	1237294
589.004	1164699
589.047	1551027
589.075	1811720
589.100	2049989
589.147	2433152
589.154	2443718
589.207	2455031
589.218	2450488
589.261	2364876
589.290	2298027
589.314	2293242
589.361	2270295
589.368	2287784
589.421	2376583
589.433	2387922
589.475	2338239
589.504	2285741
589.528	2077896
589.576	1608425
589.582	1620089
589.635	1717714
589.647	1737612
589.689	2152738
589.718	2412978
589.742	2362846
589.790	2232499
589.795	2207150
589.849	1891679
589.861	1812482
589.902	1611049
589.932	1451718
589.955	1367113
590.004	1173194
590.009	1164290
590.062	1018737
590.075	979392
590.115	901102
590.146	833492
590.168	801973
590.218	722415
590.222	720606
590.275	658477
590.289	639687
590.328	602507
590.360	567934
590.381	553713
590.431	512382
590.435	512322
590.488	475080
590.503	462592
590.541	445600
590.574	427652
590.594	419705
590.645	393027
590.647	393902
590.700	372480
590.716	364514
590.753	352908
590.787	339017
590.806	334848
590.859	318165
590.859	319320
590.912	305000
590.930	299024
590.965	292905
591.001	284209
591.018	281907
591.071	271473
591.072	270171
591.124	263432
591.143	259438
591.177	255425
591.214	248786
591.230	247775
591.283	240755
591.285	239398
591.336	234979
591.356	231767
591.389	227778
591.427	220709
591.442	219824
591.495	212744
591.498	211285
591.547	207857
591.569	204864
591.600	202310
591.640	196760
591.653	196792
591.706	193178
591.711	191918
591.759	189053
591.782	186281
591.811	186045
591.853	183584
591.864	183747
591.917	180302
591.924	178980
591.969	176933
591.995	174442
592.022	173602
592.066	170134
592.075	170381
592.127	167065
592.137	165680
592.180	166272
592.208	165394
592.233	164513
592.279	160580
592.285	160882
592.338	157171
592.350	155601
592.390	152956
592.421	149716
592.443	150420
592.491	149723
592.495	150261
592.548	148050
592.562	146744
592.600	146007
592.633	144104
592.653	144328
592.704	142332
592.705	143071
592.775	138453
592.846	136557
592.916	136078
592.987	133643
593.058	130872
593.128	126653
593.199	125047
593.270	122227
593.341	120194
593.411	117848
593.482	117363
593.553	115151
593.623	111895
593.694	113059
593.764	110741
593.835	109700
593.906	108137
593.976	106288
594.047	104571
594.117	106681
594.188	106004
594.258	102676
594.329	99689
594.399	99159
594.470	99177
594.540	97359
594.611	96794
594.681	95904
594.751	92847
594.822	93496
594.892	94128
594.963	93786
595.033	92887
595.103	92100
595.174	92214
595.244	94817
595.314	102629
595.384	93622
595.455	88075
595.525	88060
595.595	89368
595.665	89535
595.736	87771
595.806	88246
595.876	86365
595.946	86410
596.016	84580
596.087	87079
596.157	85362
596.227	85986
596.297	85843
596.367	86839
596.437	87647
596.507	89612
596.577	94620
596.647	90423
596.717	86449
596.787	87311
596.857	85042
596.927	85567
596.997	84249
597.067	85516
597.137	89815
597.207	91565
597.277	87386
597.347	85313
597.417	84663
597.487	86448
597.557	86957
597.626	85909
597.696	84753
597.766	86391
597.836	91015
597.906	87178
597.975	80658
598.045	79972
598.115	81194
598.185	83101
598.254	82680
598.324	86876
598.394	85640
598.464	86195
598.533	84187
598.603	84011
598.672	82563
598.742	81947
598.812	81001
598.881	81415
598.951	81939
599.020	81763
599.090	81623
599.159	83771
599.229	83032
599.299	79491
599.368	81035
599.437	84492
599.507	79500
599.576	79802
599.646	82365
599.715	86182
599.785	79393
599.854	78007
599.924	79790
599.993	80958
600.062	80026
600.132	80856
600.201	79821
600.270	84525
600.340	87243
600.409	85649
600.478	86907
600.547	85151
600.617	86619
600.686	84027
600.755	81082
600.824	79399
600.894	79071
600.963	80027
601.032	78962
601.101	79372
601.170	79852
601.239	80095
601.308	78702
601.378	82083
601.447	80787
601.516	82340
601.585	83940
601.654	84953
601.723	85902
601.792	85026
601.861	87994
601.930	95069
601.999	96293
602.068	92051
602.137	90989
602.206	93201
602.275	91156
602.343	92935
602.412	94197
602.481	92674
602.550	90518
602.619	91846
602.688	92322
602.756	92848
602.825	92739
602.894	94254
602.963	94459
603.032	91881
603.100	94120
603.169	91387
603.238	95201
603.307	94005
603.375	90924
603.444	95370
603.513	92862
603.581	89050
603.650	96007
603.719	90033
603.787	82204
603.856	83379
603.924	83449
603.993	87185
604.061	86216
604.130	87864
604.198	90397
604.267	90981
604.335	89720
604.404	91431
604.472	92766
604.541	92225
604.609	93361
604.678	97731
604.746	95555
604.815	100368
604.883	101640
604.951	96564
605.020	97076
605.088	97189
605.156	89930
605.225	90016
605.293	90487
605.361	89915
605.429	90379
605.498	90578
605.566	92072
605.634	91470
605.702	93819
605.771	93406
605.839	95381
605.907	91523
605.975	90480
606.043	94010
606.111	86555
606.180	93748
606.248	97615
606.316	98600
606.384	94404
606.452	90190
606.520	78541
606.588	77924
606.656	71239
606.724	72633
606.792	68861
606.860	65092
606.928	62150
606.996	60412
607.064	59974
607.132	60152
607.200	61652
607.267	63737
607.335	63266
607.403	64669
607.471	64705
607.539	62356
607.607	62605
607.674	60439
607.742	58764
607.810	58400
607.878	59503
607.946	58270
608.013	59692
608.081	61101
608.149	61200
608.216	61641
608.284	63552
608.352	61324
608.419	62566
608.487	63880
608.555	63945
608.622	61131
608.690	61327
608.757	63978
608.825	66211
608.893	66996
608.960	67409
609.028	69157
609.095	67057
609.163	65963
609.230	62375
609.298	58830
609.365	56451
609.432	60839
609.500	65295
609.567	69371
609.635	74971
609.702	78292
609.769	78490
609.837	73533
609.904	65108
609.971	64403
610.039	69970
610.106	81288
610.173	115214
610.241	213852
610.308	335487
610.375	278356
610.442	123348
610.509	75825
610.577	67978
610.644	64081
610.711	64559
610.778	65656
610.845	65145
610.912	67559
610.980	70942
611.047	83401
611.114	83657
611.181	68224
611.248	63518
611.315	65173
611.382	66705
611.449	67202
611.516	67294
611.583	68531
611.650	67800
611.717	67963
611.784	68128
611.851	70707
611.918	72577
611.984	79999
612.051	89627
612.118	129226
612.185	258525
612.252	355875
612.319	125573
612.386	84673
612.452	77399
612.519	74787
612.586	76077
612.653	77177
612.719	74288
612.786	73811
612.853	69980
612.919	67687
612.986	70086
613.053	66601
613.120	64125
613.186	62482
613.253	62726
613.319	61780
613.386	62657
613.453	63410
613.519	66795
613.586	67926
613.652	75993
613.719	74487
613.785	71952
613.852	66709
613.918	65183
613.985	65679
614.051	71843
614.118	91759
614.184	118854
614.250	74887
614.317	66418
614.383	64188
614.449	63936
614.516	64660
614.582	64471
614.648	63821
614.715	62928
614.781	63482
614.847	62766
614.914	64543
614.980	66094
615.046	64340
615.112	64446
615.179	67869
615.245	72869
615.311	83565
615.377	115083
615.443	166992
615.509	132533
615.575	92093
615.642	78018
615.708	76347
615.774	77346
615.840	84205
615.906	95060
615.972	125811
616.038	209614
616.104	350506
616.170	427213
616.236	572554
616.302	212276
616.368	108142
616.434	88871
616.500	81013
616.565	78122
616.631	81912
616.697	80550
616.763	77950
616.829	82437
616.895	106976
616.961	127455
617.026	100197
617.092	73975
617.158	69329
617.224	67274
617.289	66080
617.355	64104
617.421	64794
617.487	64430
617.552	63675
617.618	61373
617.684	61651
617.749	61835
617.815	59528
617.880	59744
617.946	59370
618.012	61563
618.077	63694
618.143	61426
618.208	60861
618.274	63218
618.339	65865
618.405	62198
618.470	58781
618.536	59626
618.601	61599
618.667	61040
618.732	58570
618.798	57626
618.863	57913
618.928	56627
618.994	57480
619.059	58520
619.124	64792
619.190	64503
619.255	57192
619.320	56166
619.386	56222
619.451	55696
619.516	55699
619.581	55797
619.647	57795
619.712	56377
619.777	56912
619.842	56034
619.907	58372
619.972	56308
620.038	59076
620.103	55950
620.168	55151
620.233	57000
620.298	55668
620.363	55692
620.428	56365
620.493	56856
620.558	57632
620.623	57358
620.688	58687
620.753	57847
620.818	56496
620.883	57281
620.948	58190
621.013	57268
621.078	58214
621.143	59151
621.207	59652
621.272	58550
621.337	60130
621.402	59437
621.467	63013
621.532	67407
621.596	65090
621.661	62705
621.726	60215
621.791	60406
621.855	62342
621.920	63379
621.985	63529
622.049	63768
622.114	62964
622.179	62958
622.243	65415
622.308	65295
622.373	66506
622.437	67865
622.502	64548
622.566	63000
622.631	64959
622.695	65021
622.760	65350
622.824	65604
622.889	65276
622.953	66642
623.018	72942
623.082	82033
623.147	68911
623.211	67103
623.276	66616
623.340	65339
623.404	63076
623.469	63359
623.533	63856
623.597	62056
623.662	62494
623.726	61336
623.790	59625
623.854	59655
623.919	60494
623.983	59981
624.047	60001
624.111	59714
624.176	61005
624.240	61180
624.304	65578
624.368	61823
624.432	59763
624.496	60346
624.560	62050
624.625	63874
624.689	61046
624.753	60683
624.817	59732
624.881	58174
624.945	58470
625.009	56351
625.073	56950
625.137	57937
625.201	62428
625.265	65818
625.329	60045
625.393	58977
625.456	59349
625.520	56523
625.584	58789
625.648	61884
625.712	65811
625.776	84517
625.839	107970
625.903	83403
625.967	55858
626.031	59160
626.095	75749
626.158	65990
626.222	52353
626.286	49427
626.349	47170
626.413	48140
626.477	48073
626.540	47376
626.604	45484
626.668	45193
626.731	45399
626.795	46352
626.858	47352
626.922	46575
626.986	44895
627.049	43470
627.113	45515
627.176	44121
627.240	44769
627.303	43721
627.366	42324
627.430	44303
627.493	43285
627.557	44427
627.620	44230
627.684	43023
627.747	43409
627.810	41968
627.874	41769
627.937	40195
628.000	40693
628.064	41959
628.127	39596
628.190	38499
628.253	38588
628.317	37591
628.380	37110
628.443	36893
628.506	38425
628.569	36819
628.632	35688
628.696	35745
628.759	35310
628.822	34561
628.885	35437
628.948	33984
629.011	36000
629.074	34439
629.137	33895
629.200	33735
629.263	36943
629.326	34083
629.389	33074
629.452	34375
629.515	35166
629.578	34717
629.641	34048
629.704	33766
629.767	35966
629.830	35694
629.892	34255
629.955	33744
630.018	33456
630.081	33497
630.144	35940
630.207	34826
630.269	34051
630.332	32481
630.395	33614
630.458	31357
630.520	31814
630.583	31410
630.646	31223
630.708	29549
630.771	31082
630.834	30583
630.896	30518
630.959	29880
631.021	29456
631.084	30555
631.146	30416
631.209	32189
631.272	31880
631.334	29569
631.397	30207
631.459	28415
631.522	29397
631.584	30045
631.646	29817
631.709	29588
631.771	31315
631.834	33033
631.896	30432
631.958	28033
632.021	29137
632.083	28510
632.145	29269
632.208	29461
632.270	29628
632.332	28251
632.395	27982
632.457	28594
632.519	28427
632.581	28464
632.643	28066
632.706	28052
632.768	26969
632.830	27692
632.892	28331
632.954	28091
633.016	28285
633.078	28000
633.141	27475
633.203	27091
633.265	28037
633.327	27061
633.389	26669
633.451	27449
633.513	29611
633.575	29659
633.637	28181
633.698	29219
633.760	28320
633.822	27203
633.884	27297
633.946	26651
634.008	27139
634.070	28290
634.132	30352
634.193	31497
634.255	28322
634.317	26685
634.379	26782
634.441	26406
634.502	26715
634.564	25779
634.626	26214
634.687	25313
634.749	26031
634.811	24933
634.873	24823
634.934	25221
634.996	24973
635.057	26111
635.119	24652
635.181	25505
635.242	25947
635.304	23910
635.365	25363
635.427	24042
635.488	25836
635.550	24663
635.611	23861
635.673	23578
635.734	26038
635.796	25767
635.857	26423
635.918	24566
635.980	25417
636.041	25065
636.102	25755
636.164	25086
636.225	24843
636.286	24123
636.348	24813
636.409	24081
636.470	23418
636.531	23647
636.593	23811
636.654	25511
636.715	23797
636.776	22850
636.838	22141
636.899	23075
636.960	23384
637.021	22437
637.082	23814
637.143	22791
637.204	23170
637.265	22097
637.326	22333
637.387	22275
637.448	22220
637.509	21914
637.570	21891
637.631	21957
637.692	21382
637.753	20641
637.814	22786
637.875	21397
637.936	22333
637.997	20282
638.058	20641
638.119	22162
638.179	21371
638.240	21233
638.301	22263
638.362	20375
638.423	20938
638.483	21394
638.544	20888
638.605	20478
638.666	20661
638.726	21082
638.787	20602
638.848	20026
638.908	20375
638.969	18806
639.030	20537
639.090	20619
639.151	19958
639.211	21056
639.272	21907
639.332	25529
639.393	27057
639.453	20540
639.514	20440
639.574	20439
639.635	20000
639.695	19265
639.756	19424
639.816	19378
639.877	19168
639.937	22611
639.997	27640
640.058	23747
640.118	20361
640.178	19024
640.239	17974
640.299	18319
640.359	18692
640.420	18149
640.480	19019
640.540	18804
640.600	19193
640.661	18840
640.721	17912
640.781	20802
640.841	21134
640.901	19379
640.961	18871
641.021	19010
641.082	18160
641.142	21065
641.202	22304
641.262	17172
641.322	18331
641.382	18120
641.442	17819
641.502	18679
641.562	18398
641.622	17353
641.682	18759
641.742	18398
641.802	18577
641.861	17601
641.921	18169
641.981	17816
642.041	18421
642.101	20036
642.161	19195
642.221	16154
642.280	16896
642.340	16425
642.400	17426
642.460	17557
642.519	17633
642.579	16663
642.639	17221
642.698	16231
642.758	18182
642.818	17539
642.877	18273
642.937	16191
642.997	18203
643.056	21771
643.116	20573
643.175	17759
643.235	17980
643.294	17980
643.354	17601
643.414	17048
643.473	18956
643.532	19282
643.592	19859
643.651	23319
643.711	31297
643.770	47580
643.830	85253
643.889	227802
643.948	174269
644.008	30057
644.067	20610
644.126	17483
644.186	18139
644.245	17120
644.304	16229
644.363	17441
644.423	15053
644.482	15529
644.541	15968
644.600	15880
644.659	17041
644.719	17209
644.778	19581
644.837	20950
644.896	29272
644.955	48330
645.014	50186
645.073	23700
645.132	19001
645.191	17572
645.250	16234
645.309	17201
645.368	16125
645.427	16665
645.486	16505
645.545	21705
645.604	19771
645.663	15163
645.722	15522
645.781	15795
645.840	16282
645.898	16746
645.957	18449
646.016	20036
646.075	27720
646.134	40596
646.192	76658
646.251	188428
646.310	91147
646.369	21565
646.427	17974
646.486	15831
646.545	15857
646.603	15603
646.662	15024
646.721	14588
646.779	14077
646.838	13213
646.896	15025
646.955	15231
647.014	16570
647.072	19929
647.131	30640
647.189	38221
647.248	16621
647.306	14139
647.365	15403
647.423	13442
647.481	14427
647.540	13059
647.598	14262
647.657	13062
647.715	14005
647.773	13535
647.832	13757
647.890	12666
647.948	13460
648.007	13412
648.065	13261
648.123	13532
648.181	14812
648.240	15975
648.298	17782
648.356	14173
648.414	13440
648.472	12916
648.531	13523
648.589	13912
648.647	13311
648.705	12220
648.763	12745
648.821	12043
648.879	13625
648.937	13024
648.995	13929
649.053	12910
649.111	14936
649.169	17316
649.227	23530
649.285	32440
649.343	69402
649.401	97601
649.459	32881
649.516	31093
649.574	19823
649.632	25176
649.690	41510
649.748	25893
649.806	22385
649.863	37255
649.921	34144
649.979	32516
650.037	16420
650.094	12751
650.152	12402
650.210	11996
650.268	12867
650.325	12854
650.383	12779
650.440	11344
650.498	11967
650.556	11299
650.613	11207
650.671	11622
650.728	11748
650.786	12088
650.843	12101
650.901	10728
650.958	11326
651.016	11091
651.073	10744
651.131	10394
651.188	9978
651.246	11056
651.303	11068
651.360	10972
651.418	11627
651.475	11303
651.532	9801
651.590	11335
651.647	10854
651.704	10606
651.762	10608
651.819	10741
651.876	11146
651.933	10046
651.990	10736
652.048	10056
652.105	10086
652.162	10335
652.219	10291
652.276	10915
652.333	10573
652.390	9673
652.448	10432
652.505	10629
652.562	11603
652.619	11699
652.676	15618
652.733	21782
652.790	13654
652.847	9113
652.904	10902
652.961	10170
653.017	10468
653.074	10310
653.131	10725
653.188	9887
653.245	10074
653.302	9903
653.359	10127
653.415	10008
653.472	10308
653.529	9654
653.586	9017
653.642	9495
653.699	10264
653.756	9599
653.813	10173
653.869	9356
653.926	9346
653.983	8796
654.039	9842
654.096	9978
654.152	10285
654.209	9587
654.266	10004
654.322	9403
654.379	9714
654.435	10614
654.492	10815
654.548	9697
654.605	13513
654.661	13971
654.717	10612
654.774	9966
654.830	10019
654.887	10118
654.943	10337
655.000	9129
655.056	10811
655.112	9891
655.168	8988
655.225	9014
655.281	9713
655.337	9793
655.394	12006
655.450	12282
655.506	11249
655.562	11117
655.618	13390
655.675	9513
655.731	10225
655.787	8882
655.843	9738
655.899	8709
655.955	9580
656.011	9650
656.067	8500
656.123	10595
656.179	9470
656.235	9646
656.291	9798
656.347	9789
656.403	8846
656.459	9352
656.515	9355
656.571	9708
656.627	10249
656.683	9444
656.739	9953
656.795	9780
656.850	10095
656.906	10073
656.962	10277
657.018	8823
657.074	9452
657.129	9517
657.185	10197
657.241	10485
657.297	11370
657.352	9448
657.408	8665
657.464	9563
657.519	9250
657.575	8498
657.630	9025
657.686	8845
657.742	9615
657.797	8671
657.853	8910
657.908	10114
657.964	8256
658.019	9020
658.075	8816
658.130	9681
658.186	8552
658.241	8555
658.297	9164
658.352	8429
658.407	10135
658.463	8454
658.518	8826
658.573	9086
658.629	8563
658.684	8644
658.739	9627
658.795	7660
658.850	8449
658.905	7480
658.960	9088
659.016	8553
659.071	8534
659.126	9030
659.181	9198
659.236	10701
659.291	13401
659.346	10738
659.401	11701
659.457	11320
659.512	14308
659.567	13508
659.622	10209
659.677	9051
659.732	8450
659.787	8346
659.842	9120
659.897	9377
659.952	9938
660.007	8808
660.061	8502
660.116	8328
660.171	8811
660.226	9003
660.281	9933
660.336	8603
660.391	9074
660.445	8328
660.500	8962
660.555	8581
660.610	8815
660.664	8674
660.719	8097
660.774	8868
660.828	8310
660.883	8914
660.938	9829
660.992	8040
661.047	9218
661.101	8362
661.156	7577
661.211	8413
661.265	8424
661.320	8253
661.374	8320
661.429	8072
661.483	8146
661.538	7943
661.592	8574
661.647	8802
661.701	9300
661.755	8780
661.810	9182
661.864	8713
661.919	8393
661.973	8692
662.027	8295
662.081	8206
662.136	8004
662.190	8965
662.244	9041
662.299	8238
662.353	8566
662.407	8572
662.461	9055
662.515	9231
662.569	8426
662.624	8785
662.678	8516
662.732	8632
662.786	8245
662.840	8651
662.894	8784
662.948	8249
663.002	7959
663.056	8388
663.110	8192
663.164	7753
663.218	8523
663.272	7482
663.326	8623
663.380	8295
663.434	8570
663.488	7639
663.542	8458
663.595	7934
663.649	7202
663.703	8700
663.757	8651
663.811	7407
663.864	8158
663.918	8779
663.972	7359
664.026	8074
664.079	7855
664.133	8183
664.187	8279
664.240	7309
664.294	8348
664.348	7267
664.401	8520
664.455	8079
664.508	8189
664.562	9023
664.615	7925
664.669	7011
664.722	8466
664.776	7543
664.829	8030
664.883	8103
664.936	7910
664.990	7502
665.043	9129
665.097	7557
665.150	8929
665.203	8683
665.257	8537
665.310	7923
665.363	8016
665.417	8649
665.470	8020
665.523	7947
665.576	8822
665.630	8032
665.683	8465
665.736	8552
665.789	8507
665.842	7983
665.895	7588
665.949	8591
666.002	8544
666.055	8856
666.108	8592
666.161	8499
666.214	8261
666.267	8422
666.320	9348
666.373	9065
666.426	7465
666.479	7977
666.532	8678
666.585	8503
666.638	8912
666.691	8068
666.744	8584
666.796	7331
666.849	9115
666.902	7875
666.955	7824
667.008	7781
667.060	7777
667.113	6543
667.166	7914
667.219	7049
667.271	7654
667.324	8022
667.377	8364
667.430	8085
667.482	8880
667.535	10805
667.587	9388
667.640	8280
667.693	8618
667.745	9265
667.798	12308
667.850	9069
667.903	8266
667.955	8314
668.008	7790
668.060	8352
668.113	8308
668.165	7859
668.218	8741
668.270	8754
668.322	8288
668.375	6547
668.427	8464
668.479	8613
668.532	8542
668.584	8312
668.636	8311
668.689	7696
668.741	8290
668.793	8195
668.845	8590
668.898	8862
668.950	8321
669.002	7632
669.054	8068
669.106	7591
669.158	9170
669.211	8777
669.263	9169
669.315	8978
669.367	11284
669.419	9907
669.471	9432
669.523	8687
669.575	10701
669.627	11176
669.679	9622
669.731	9479
669.783	9593
669.835	9617
669.886	9537
669.938	9459
669.990	9979
670.042	9323
670.094	10119
670.146	11423
670.197	12873
670.249	14283
670.301	16335
670.353	20920
670.404	26925
670.456	36541
670.508	54348
670.560	86413
670.611	143641
670.663	241982
670.715	450645
670.766	813543
670.818	688410
670.869	212445
670.921	77008
670.972	46200
671.024	32161
671.075	24497
671.127	19607
671.178	16161
671.230	14551
671.281	13897
671.333	12611
671.384	10885
671.436	12409
671.487	11674
671.538	10869
671.590	10659
671.641	12037
671.692	11887
671.744	16203
671.795	18865
671.846	13907
671.897	10157
671.949	9429
672.000	8783
672.051	8272
672.102	8713
672.153	8299
672.204	8478
672.256	8500
672.307	7931
672.358	8607
672.409	7709
672.460	8221
672.511	7647
672.562	7393
672.613	7348
672.664	7755
672.715	7461
672.766	7084
672.817	7221
672.868	7373
672.919	6819
672.970	6537
673.021	7065
673.071	6809
673.122	7393
673.173	6936
673.224	7383
673.275	6833
673.326	7365
673.376	7076
673.427	5805
673.478	7230
673.528	6838
673.579	6125
673.630	6443
673.680	7005
673.731	6884
673.782	6681
673.832	6359
673.883	6225
673.934	6541
673.984	6611
674.035	6580
674.085	6129
674.136	7135
674.186	6815
674.237	6543
674.287	7046
674.338	7731
674.388	6807
674.438	6454
674.489	6604
674.539	6045
674.589	6240
674.640	5859
674.690	6823
674.740	6442
674.791	6964
674.841	6398
674.891	6549
674.942	5955
674.992	5566
675.042	5547
675.092	5669
675.142	5404
675.193	5997
675.243	6143
675.293	6172
675.343	5625
675.393	6192
675.443	6599
675.493	5949
675.543	5599
675.593	6732
675.643	6437
675.693	5485
675.743	6024
675.793	6537
675.843	5565
675.893	6166
675.943	5752
675.993	7148
676.043	5772
676.093	6525
676.142	5531
676.192	6663
676.242	5643
676.292	5707
676.341	5013
676.391	5473
676.441	6041
676.491	5744
676.540	5728
676.590	6063
676.640	4776
676.689	5544
676.739	5601
676.789	5747
676.838	5371
676.888	5815
676.937	4779
676.987	5427
677.037	5072
677.086	4950
677.136	4901
677.185	5602
677.235	5346
677.284	5034
677.333	5361
677.383	5487
677.432	5181
677.482	5407
677.531	4479
677.580	4408
677.630	5512
677.679	5059
677.728	4885
677.778	4565
677.827	5233
677.876	5458
677.925	4508
677.975	4557
678.024	4845
678.073	5389
678.122	5380
678.171	5082
678.220	4935
678.269	6361
678.319	5769
678.368	5672
678.417	4814
678.466	5574
678.515	5162
678.564	4989
678.613	5275
678.662	4854
678.711	4958
678.760	5341
678.809	4790
678.857	5162
678.906	5227
678.955	5166
679.004	4928
679.053	6249
679.102	4732
679.151	4938
679.199	5016
679.248	5382
679.297	5275
679.346	5160
679.394	4862
679.443	5434
679.492	4494
679.540	4812
679.589	4317
679.638	5138
679.686	4776
679.735	4049
679.784	4726
679.832	4513
679.881	4753
679.929	4499
679.978	4111
680.026	5051
680.075	4585
680.123	4893
680.172	4137
680.220	4601
680.268	4650
680.317	4553
680.365	4352
680.414	4387
680.462	4939
680.510	4384
680.559	4337
680.607	3837
680.655	4126
680.703	4219
680.752	4367
680.800	4487
680.848	3339
680.896	4300
680.945	4009
680.993	3790
681.041	4457
681.089	4229
681.137	3781
681.185	4541
681.233	3569
681.258	4058
681.281	4468
681.329	3302
681.377	3991
681.380	4049
681.425	4109
681.473	4653
681.502	4853
681.521	4899
681.569	5291
681.617	4666
681.624	4804
681.665	5306
681.713	5428
681.745	5547
681.761	5524
681.809	4849
681.857	6037
681.867	5933
681.904	5397
681.952	6512
681.989	5845
682.000	5574
682.048	5431
682.096	6186
682.111	6109
682.143	5805
682.191	6143
682.233	6153
682.239	6095
682.286	6597
682.334	6588
682.354	6625
682.382	6566
682.430	6384
682.476	6726
682.477	6687
682.525	6526
682.572	6508
682.598	6919
682.620	7205
682.667	6549
682.715	7141
682.720	7239
682.763	7643
682.810	7014
682.841	7005
682.857	6944
682.905	6612
682.952	7335
682.963	7458
683.000	7719
683.047	7367
683.085	8107
683.095	8245
683.142	8241
683.190	8268
683.206	8201
683.237	7969
683.284	9000
683.328	8430
683.332	8345
683.379	8844
683.426	8944
683.449	9156
683.473	9262
683.521	8627
683.568	8184
683.571	8222
683.615	8237
683.662	9653
683.693	9468
683.709	9322
683.757	9242
683.804	10322
683.814	10191
683.851	9542
683.898	10361
683.936	10332
683.945	10265
683.992	10191
684.039	10518
684.057	10243
684.086	9848
684.133	10655
684.179	10416
684.180	10370
684.227	10898
684.274	10824
684.300	10949
684.321	11032
684.368	10740
684.415	10991
684.422	11097
684.462	11418
684.509	10443
684.543	10974
684.556	11137
684.603	11176
684.649	10780
684.665	10914
684.696	11160
684.743	11642
684.786	11959
684.790	11967
684.837	12565
684.883	12206
684.908	12472
684.930	12653
684.977	12729
685.023	12616
685.029	12636
685.070	12463
685.117	12265
685.150	12858
685.164	13095
685.210	13319
685.257	14006
685.272	13960
685.303	13747
685.350	13176
685.393	13586
685.396	13595
685.443	14117
685.490	14195
685.514	14286
685.536	14400
685.583	14902
685.629	14437
685.636	14428
685.675	14058
685.722	14298
685.757	14350
685.768	14371
685.815	14401
685.861	15003
685.878	14841
685.908	14612
685.954	14690
686.000	15121
686.000	15111
686.047	14806
686.093	15657
686.121	15597
686.139	15629
686.185	15827
686.232	16242
686.242	16271
686.278	16142
686.324	15490
686.363	15970
686.370	16031
686.416	15230
686.463	15911
686.484	15840
686.509	15967
686.555	15732
686.601	16457
686.606	16532
686.647	16772
686.693	16152
686.727	16703
686.739	16962
686.785	15967
686.831	16919
686.848	16865
686.877	16554
686.923	16638
686.969	15734
686.969	15728
687.015	16826
687.061	16270
687.090	16772
687.107	17034
687.153	16901
687.199	16814
687.211	16769
687.245	16573
687.291	16680
687.332	16700
687.336	16720
687.382	17678
687.428	17365
687.453	17535
687.474	17549
687.520	17321
687.565	17191
687.574	17196
687.611	17334
687.657	17448
687.695	17532
687.702	17581
687.748	17491
687.794	18271
687.816	18292
687.839	18284
687.885	18313
687.931	18510
687.937	18539
687.976	18610
688.022	19092
688.058	18642
688.067	18556
688.113	18812
688.158	18237
688.179	18612
688.204	19016
688.249	18576
688.295	19139
688.300	19074
688.340	19041
688.386	20151
688.421	20132
688.431	20090
688.477	19781
688.522	19824
688.542	19933
688.567	20014
688.613	20000
688.658	20394
688.663	20317
688.703	19662
688.749	19825
688.784	19117
688.794	19041
688.839	20273
688.884	20218
688.905	20329
688.930	20272
688.975	19842
689.020	20104
689.026	20052
689.065	20085
689.110	20267
689.146	20370
689.155	20431
689.201	20512
689.246	20334
689.267	20543
689.291	20724
689.336	20534
689.381	20712
689.388	20788
689.426	21414
689.471	21163
689.509	21478
689.516	21551
689.561	21667
689.606	21361
689.630	21546
689.651	21662
689.696	21155
689.741	21462
689.750	21487
689.785	21945
689.830	22051
689.871	22253
689.875	22282
689.920	22236
689.965	22466
689.992	22379
690.010	22428
690.054	22496
690.099	23322
690.112	23221
690.144	23089
690.189	23591
690.233	23482
690.233	23511
690.278	24154
690.323	24072
690.354	23973
690.367	24022
690.412	24439
690.457	25436
690.474	25500
690.501	25972
690.546	26755
690.590	27696
690.595	27715
690.635	28497
690.680	29945
690.716	31146
690.724	31728
690.769	34170
690.813	37213
690.836	38596
690.857	41910
690.902	49700
690.946	57500
690.957	59574
690.991	78795
691.035	104551
691.077	134624
691.080	137151
691.124	175263
691.168	204142
691.198	224969
691.213	211696
691.257	173787
691.301	135937
691.318	121512
691.346	107373
691.390	83730
691.434	60259
691.439	57597
691.478	51896
691.522	45406
691.559	39571
691.567	39203
691.611	36977
691.655	34454
691.680	32836
691.699	32384
691.743	31631
691.787	30870
691.800	30526
691.831	30121
691.875	29644
691.919	29028
691.921	28964
691.964	29007
692.008	29107
692.041	29098
692.052	29130
692.096	28927
692.139	28989
692.162	28824
692.183	28859
692.227	28863
692.271	28665
692.282	28694
692.315	28690
692.359	28350
692.402	28045
692.403	28096
692.447	27853
692.490	28217
692.523	28261
692.534	28313
692.578	28550
692.622	28398
692.643	28434
692.666	28644
692.709	28700
692.753	29029
692.763	28925
692.797	28819
692.840	29321
692.884	29273
692.884	29331
692.928	29833
692.971	30259
693.004	30641
693.015	30918
693.059	31583
693.102	32602
693.124	32796
693.146	32893
693.189	33245
693.233	33640
693.245	33655
693.276	34924
693.320	36713
693.363	38657
693.365	38645
693.407	41646
693.450	44692
693.485	47253
693.493	48746
693.537	55990
693.580	63286
693.605	67695
693.624	74805
693.667	91363
693.710	108772
693.725	114858
693.753	151019
693.797	208372
693.840	270466
693.845	277171
693.883	351200
693.926	424947
693.966	492720
693.970	485204
694.013	398840
694.056	313985
694.086	255205
694.099	239104
694.142	186407
694.185	133468
694.206	108166
694.229	100198
694.272	84768
694.315	69291
694.326	65188
694.358	61037
694.401	55122
694.444	49145
694.446	48749
694.487	46456
694.530	43744
694.566	41608
694.573	41462
694.616	39566
694.659	37970
694.686	36821
694.702	36513
694.745	35624
694.787	34400
694.806	33943
694.830	34004
694.873	33703
694.916	33452
694.926	33335
694.959	33366
695.002	33130
695.044	33018
695.046	32947
695.087	32702
695.130	32121
695.166	31572
695.172	31649
695.215	31644
695.258	31682
695.286	31714
695.301	31787
695.343	31885
695.386	31580
695.406	31514
695.428	31495
695.471	31214
695.514	30975
695.526	30807
695.556	30950
695.599	31208
695.641	31222
695.646	31171
695.684	31565
695.726	31913
695.766	32146
695.769	32189
695.811	31612
695.854	31286
695.886	30761
695.896	30812
695.938	30838
695.981	30906
696.005	30900
696.023	30917
696.065	30590
696.108	30538
696.125	30339
696.150	30626
696.192	31109
696.235	31385
696.245	31470
696.277	31854
696.319	32004
696.361	32237
696.365	32184
696.404	33161
696.446	34153
696.485	34844
696.488	34925
696.530	34974
696.572	34938
696.604	34943
696.614	34881
696.656	34042
696.698	33525
696.724	32994
696.740	32857
696.783	32238
696.825	31810
696.844	31483
696.867	31443
696.909	31090
696.951	31036
696.964	30873
696.992	30938
697.034	30948
697.076	30989
697.083	30921
697.118	31280
697.160	31624
697.202	31912
697.203	31843
697.244	31787
697.286	31611
697.323	31303
697.327	31365
697.369	31287
697.411	31153
697.442	31022
697.453	31116
697.494	31155
697.536	31157
697.562	31152
697.578	31262
697.620	31202
697.661	31149
697.682	31077
697.703	31345
697.744	31705
697.786	32183
697.801	32207
697.828	32505
697.869	32868
697.911	33329
697.921	33339
697.952	33060
697.994	32599
698.035	32148
698.040	32014
698.077	32029
698.118	31886
698.160	31804
698.160	31723
698.201	31455
698.243	31088
698.279	30734
698.284	30875
698.325	31409
698.367	31963
698.399	32317
698.408	32365
698.449	32178
698.491	32030
698.518	31816
698.532	31874
698.573	31832
698.614	31754
698.638	31649
698.656	31803
698.697	31959
698.738	32103
698.757	32092
698.779	32336
698.820	32637
698.862	32937
698.877	32962
698.903	33210
698.944	33473
698.985	33728
698.996	33714
699.026	33461
699.067	32985
699.116	32335
699.235	32446
699.354	32189
699.474	32151
699.593	31797
699.713	33706
699.832	31396
699.951	32494
700.070	32429
700.190	31122
700.309	33459
700.428	32403
700.547	31879
700.667	31438
700.786	30830
700.905	29854
701.024	31227
701.143	30796
701.262	30515
701.381	29733
701.500	30635
701.619	30568
701.738	31176
701.857	29384
701.976	28966
702.095	29206
702.214	30567
702.333	31081
702.452	29497
702.571	29249
702.690	29623
702.809	30306
702.928	29603
703.047	28750
703.165	28567
703.284	28663
703.403	28195
703.522	28359
703.640	29245
703.759	28830
703.878	31559
703.997	29834
704.115	29559
704.234	27763
704.353	28531
704.471	28441
704.590	27552
704.708	28630
704.827	27835
704.946	28309
705.064	27993
705.183	29216
705.301	27798
705.420	32733
705.538	37048
705.656	32269
705.775	32841
705.893	38530
706.012	67321
706.130	41606
706.249	32180
706.367	31243
706.485	32196
706.604	30931
706.722	31571
706.840	31922
706.958	33585
707.077	31992
707.195	31401
707.313	30701
707.431	28820
707.549	29639
707.668	29839
707.786	28353
707.904	29339
708.022	29042
708.140	29078
708.258	28455
708.376	29322
708.494	28532
708.612	29554
708.730	33007
708.848	36776
708.966	34318
709.084	32606
709.202	31519
709.320	30834
709.438	31390
709.556	31974
709.674	32511
709.791	31591
709.909	30852
710.027	30610
710.145	31022
710.263	30520
710.380	29511
710.498	30492
710.616	30323
710.733	30633
710.851	30248
710.969	30552
711.086	29542
711.204	29369
711.322	29791
711.439	30594
711.557	28608
711.674	28925
711.792	28597
711.909	29036
712.027	32828
712.144	30355
712.262	28307
712.379	29011
712.497	31482
712.614	37935
712.732	34913
712.849	32492
712.966	32139
713.084	32906
713.201	32871
713.318	33444
713.436	32854
713.553	32353
713.670	31607
713.787	32043
713.905	33647
714.022	31308
714.139	29757
714.256	30778
714.373	30531
714.490	31832
714.608	35837
714.725	53504
714.842	117587
714.959	49745
715.076	30407
715.193	30106
715.310	29446
715.427	29004
715.544	27850
715.661	28469
715.778	28791
715.895	29773
716.011	29286
716.128	29540
716.245	27319
716.362	28437
716.479	29532
716.596	28819
716.713	27320
716.829	28077
716.946	27953
717.063	27361
717.180	26537
717.296	27765
717.413	26487
717.530	26372
717.646	26977
717.763	25865
717.880	25847
717.996	26077
718.113	25630
718.229	24841
718.346	25379
718.462	25055
718.579	24883
718.695	27061
718.812	29188
718.928	26009
719.045	26206
719.161	25042
719.277	25017
719.394	25003
719.510	25276
719.626	25463
719.743	26096
719.859	26498
719.975	26142
720.092	30617
720.208	50128
720.324	42104
720.440	25523
720.557	24362
720.673	25997
720.789	29218
720.905	33494
721.021	37237
721.137	24976
721.253	24074
721.369	23627
721.486	24620
721.602	25321
721.718	25056
721.834	22398
721.950	23311
722.066	22870
722.181	22164
722.297	22661
722.413	23454
722.529	22129
722.645	22637
722.761	21018
722.877	22832
722.993	22050
723.108	22934
723.224	22815
723.340	22879
723.456	21790
723.571	21002
723.687	21486
723.803	21232
723.918	21282
724.034	21316
724.150	21671
724.265	21207
724.381	22922
724.497	28362
724.612	23184
724.728	20830
724.843	21078
724.959	20150
725.074	21567
725.190	27870
725.305	21452
725.421	20913
725.536	19989
725.651	20724
725.767	20077
725.882	20369
725.997	21088
726.113	20375
726.228	19163
726.343	19380
726.459	18750
726.574	20462
726.689	18663
726.804	19375
726.920	19674
727.035	19203
727.150	19071
727.265	19614
727.380	19874
727.495	20018
727.610	19193
727.725	19268
727.841	19600
727.956	24720
728.071	37935
728.186	22006
728.301	19296
728.416	18762
728.531	19316
728.645	17548
728.760	18250
728.875	19150
728.990	18259
729.105	18987
729.220	18459
729.335	17877
729.449	18404
729.564	17474
729.679	16948
729.794	17956
729.908	18167
730.023	18289
730.138	18047
730.253	18454
730.367	17364
730.482	17963
730.596	16887
730.711	18078
730.826	17942
730.940	17621
731.055	18032
731.169	17734
731.284	16374
731.398	17510
731.513	16783
731.627	18033
731.742	17487
731.856	18262
731.970	18047
732.085	17321
732.199	17505
732.313	17356
732.428	20001
732.542	24451
732.656	31605
732.771	20497
732.885	17589
732.999	17136
733.113	17563
733.227	17440
733.342	17343
733.456	17760
733.570	17090
733.684	16568
733.798	16265
733.912	16552
734.026	16475
734.140	16855
734.254	17051
734.368	18067
734.482	20338
734.596	17392
734.710	16455
734.824	16905
734.938	16520
735.052	16586
735.166	16671
735.280	16780
735.393	16324
735.507	16587
735.621	16378
735.735	18095
735.849	18341
735.962	17305
736.076	16680
736.190	15491
736.303	16305
736.417	18856
736.531	16921
736.644	15498
736.758	15755
736.872	15860
736.985	15395
737.099	15605
737.212	15274
737.326	15409
737.439	15440
737.553	16231
737.666	15360
737.780	15894
737.893	15890
738.007	15430
738.120	15250
738.233	14989
738.347	15178
738.460	14749
738.573	15859
738.687	15366
738.800	15332
738.913	16036
739.026	16098
739.140	16727
739.253	16375
739.366	16857
739.479	15353
739.592	15744
739.705	15446
739.818	15672
739.932	15505
740.045	15479
740.158	15211
740.271	15700
740.384	15949
740.497	15130
740.610	16374
740.723	14927
740.836	17300
740.949	16633
741.062	16214
741.174	16514
741.287	15513
741.400	14943
741.513	15482
741.626	14817
741.739	14987
741.851	15163
741.964	14910
742.077	15149
742.189	14757
742.302	15499
742.415	14727
742.527	14887
742.640	14263
742.753	15197
742.865	14932
742.978	15557
743.090	15088
743.203	14646
743.316	13998
743.428	15175
743.541	14743
743.653	14782
743.766	14446
743.878	15355
743.990	15128
744.103	17104
744.215	14408
744.327	16013
744.440	15647
744.552	16012
744.664	16872
744.777	15341
744.889	15224
745.001	14998
745.113	15648
745.226	15786
745.338	15599
745.450	14930
745.562	15027
745.674	15000
745.786	14739
745.898	14867
746.010	15849
746.122	14834
746.234	15361
746.347	15380
746.459	14882
746.570	15338
746.682	14775
746.794	15401
746.906	15159
747.018	14470
747.130	15697
747.242	14842
747.354	15098
747.466	14254
747.577	15663
747.689	15422
747.801	14539
747.913	14980
748.024	14819
748.136	15229
748.248	14353
748.359	14456
748.471	15321
748.583	15735
748.694	15356
748.806	16631
748.918	16212
749.029	15541
749.141	16495
749.252	16531
749.364	15823
749.475	17181
749.587	17120
749.698	15185
749.809	15432
749.921	15237
750.032	15209
750.144	15286
750.255	15235
750.366	15357
750.478	16089
750.589	15760
750.700	15909
750.811	16637
750.923	15798
751.034	16342
751.145	19840
751.256	16424
751.367	15455
751.479	16531
751.590	15742
751.701	15931
751.812	16666
751.923	16544
752.034	15843
752.145	15462
752.256	16331
752.367	15719
752.478	17320
752.589	16464
752.700	16198
752.811	15694
752.922	15853
753.032	16261
753.143	16856
753.254	16818
753.365	17044
753.476	16337
753.586	16105
753.697	16616
753.808	16269
753.919	16651
754.029	15574
754.140	18008
754.251	16625
754.361	17150
754.472	17234
754.582	17298
754.693	17191
754.804	17926
754.914	16694
755.025	18665
755.135	17075
755.246	18024
755.356	17617
755.466	18249
755.577	17836
755.687	18373
755.798	19009
755.908	18731
756.018	18117
756.129	18268
756.239	19180
756.349	19278
756.460	18760
756.570	19171
756.680	18660
756.790	19940
756.900	20148
757.011	19693
757.121	21007
757.231	20398
757.341	20470
757.451	20872
757.561	19931
757.671	20556
757.781	20944
757.891	21838
758.001	22334
758.111	22266
758.221	21870
758.331	23185
758.441	23364
758.551	23677
758.661	23875
758.771	23851
758.880	23578
758.990	24249
759.100	24122
759.210	24300
759.320	25823
759.429	26959
759.539	26095
759.649	27046
759.758	27211
759.868	27661
759.978	28057
760.087	28454
760.197	28854
760.307	29569
760.416	30230
760.526	29790
760.635	30420
760.745	32303
760.854	32856
760.964	33259
761.073	34280
761.182	35801
761.292	37029
761.401	37754
761.511	37687
761.620	39120
761.729	40712
761.839	40911
761.948	42667
762.057	44409
762.166	44184
762.276	45500
762.385	47329
762.494	48905
762.603	50237
762.712	51940
762.822	52956
762.931	56594
763.040	58275
763.149	61327
763.258	63606
763.367	66369
763.476	70765
763.585	72283
763.694	76910
763.803	80158
763.912	85196
764.021	90239
764.130	94852
764.238	103382
764.347	109167
764.456	117175
764.565	125971
764.674	137741
764.783	149654
764.891	163899
765.000	181363
765.109	202535
765.217	228435
765.326	259089
765.435	300599
765.543	349837
765.652	412796
765.761	495698
765.869	601844
765.978	739439
766.086	903391
766.195	1077107
766.303	1184005
766.412	1051875
766.520	718396
766.629	956210
766.737	1120370
766.846	1066463
766.954	914489
767.062	756340
767.171	614761
767.279	500690
767.387	410558
767.496	343883
767.604	296416
767.712	259866
767.820	229036
767.928	206492
768.037	190795
768.145	177661
768.253	168143
768.361	164065
768.469	161259
768.577	161817
768.685	167810
768.793	173136
768.901	188097
769.009	210351
769.117	241699
769.225	289421
769.333	363749
769.441	477556
769.549	646234
769.657	882157
769.765	1094644
769.873	947592
769.981	814594
770.088	1017518
770.196	912195
770.304	714892
770.412	548689
770.519	431045
770.627	347023
770.735	286680
770.842	242588
770.950	208628
771.058	181215
771.165	162311
771.273	143342
771.380	130117
771.488	117859
771.595	108142
771.703	98764
771.810	93933
771.918	86739
772.025	82650
772.133	75642
772.240	72258
772.348	67889
772.455	64916
772.562	61031
772.670	58994
772.777	55979
772.884	53928
772.991	51467
773.099	49061
773.206	47313
773.313	46153
773.420	44905
773.528	43821
773.635	41630
773.742	40122
773.849	39258
773.956	37756
774.063	36737
774.170	36218
774.277	35825
774.384	33720
774.491	32811
774.598	32345
774.705	32813
774.812	31138
774.919	30161
775.026	30151
775.133	28399
775.239	29531
775.346	28069
775.453	27874
775.560	26313
775.667	27564
775.773	27566
775.880	27576
775.987	25073
776.093	24375
776.200	24393
776.307	24312
776.413	23739
776.520	23036
776.627	22943
776.733	23187
776.840	21641
776.946	22546
777.053	20813
777.159	21139
777.266	20724
777.372	20668
777.478	19827
777.585	19528
777.691	19722
777.798	19191
777.904	19750
778.010	20849
778.117	20258
778.223	18113
778.329	19085
778.435	18641
778.542	17835
778.648	17541
778.754	16590
778.860	17203
778.966	16311
779.072	17618
779.178	17357
779.284	17355
779.391	18090
779.497	19252
779.603	24154
779.708	30167
779.815	49054
779.920	118398
780.026	369786
780.132	303988
780.238	62232
780.344	29449
780.450	22901
780.556	20353
780.661	17060
780.767	16245
780.873	15248
780.979	15738
781.085	15241
781.190	14378
781.296	13408
781.402	13344
781.507	12960
781.613	13012
781.719	12708
781.824	13033
781.930	13063
782.035	12899
782.141	12422
782.246	13042
782.352	12443
782.457	11510
782.563	12028
782.668	11653
782.773	11897
782.879	11081
782.984	11629
783.090	12130
783.195	11961
783.300	12420
783.405	11606
783.511	11944
783.616	11508
783.721	11865
783.826	11310
783.932	11222
784.037	11562
784.142	11897
784.247	10173
784.352	11471
784.457	10135
784.562	10605
784.667	11074
784.772	10448
784.877	9486
784.982	11172
785.087	9051
785.192	9859
785.297	10748
785.402	9727
785.507	10062
785.611	9767
785.716	9836
785.821	10603
785.926	9070
786.031	9809
786.135	9212
786.240	9758
786.345	9527
786.450	9629
786.554	9055
786.659	9461
786.763	8840
786.868	9684
786.973	9379
787.077	9115
787.182	7919
787.286	9756
787.391	9201
787.495	9337
787.600	8958
787.704	8412
787.809	8653
787.913	8979
788.017	8875
788.122	8813
788.226	8577
788.330	7921
788.435	8739
788.539	8524
788.643	8726
788.747	8967
788.852	8461
788.956	8206
789.060	7631
789.164	7921
789.268	7724
789.372	8515
789.476	8325
789.580	7923
789.684	7972
789.788	7720
789.892	7778
789.996	8621
790.100	7476
790.204	8431
790.308	8077
790.412	7550
790.516	7970
790.620	9036
790.724	7802
790.828	8161
790.931	8281
791.035	8266
791.139	8285
791.242	7006
791.346	7720
791.450	7422
791.554	8114
791.657	7590
791.761	8114
791.864	7379
791.968	7791
792.072	7585
792.175	6873
792.279	7325
792.382	7210
792.486	6723
792.589	7584
792.693	7034
792.796	7459
792.899	7795
793.003	7446
793.106	7677
793.209	7093
793.313	7970
793.416	7208
793.519	7821
793.623	7630
793.726	8173
793.829	8568
793.932	7654
794.035	7298
794.138	8637
794.242	9409
794.345	10487
794.448	15846
794.551	24638
794.654	65993
794.757	216346
794.860	202363
794.963	33024
795.066	14420
795.169	11923
795.272	8600
795.375	8914
795.477	8800
795.580	7764
795.683	6395
795.786	7834
795.889	6184
795.991	7259
796.094	6565
796.197	7174
796.300	6801
796.402	6837
796.505	5883
796.608	6865
796.710	6343
796.813	7415
796.915	6640
797.018	7614
797.120	5845
797.223	5783
797.326	7158
797.428	6154
797.530	6558
797.633	6196
797.735	7011
797.838	6322
797.940	7475
798.042	6280
798.145	5814
798.247	5926
798.349	5177
798.452	6284
798.554	6010
798.656	5096
798.758	5855
798.860	5400
798.962	6342
799.065	5740
799.167	5513
799.269	6949
799.371	5954
799.473	6135
799.575	5182
799.677	6209
799.779	6435
799.881	5024
799.983	6727
800.085	6332
800.187	5467
800.289	5737
800.390	6012
800.492	5639
800.594	5805
800.696	6300
800.798	6072
800.899	5725
801.001	5613
801.103	6246
801.205	4954
801.306	5755
801.408	5269
801.509	5331
801.611	5044
801.713	5278
801.814	4775
801.916	5739
802.017	4836
802.119	5692
802.220	4884
802.322	4963
802.423	6013
802.525	4614
802.626	5374
802.727	4598
802.829	4672
802.930	5044
803.031	5931
803.133	4740
803.234	4595
803.335	5088
803.436	5133
803.538	5288
803.639	4467
803.740	5033
803.841	4617
803.942	5035
804.043	4928
804.144	4725
804.245	4392
804.346	4385
804.447	4901
804.548	5231
804.649	5315
804.750	4910
804.851	4959
804.952	4935
805.053	4116
805.154	4682
805.255	4863
805.355	5206
805.456	4811
805.557	5345
805.658	4467
805.758	5181
805.859	4797
805.960	4734
806.061	4251
806.161	4782
806.262	5267
806.362	4512
806.463	3803
806.564	5189
806.664	4450
806.765	4287
806.865	4212
806.966	4889
807.066	4522
807.166	4946
807.267	5270
807.367	5105
807.468	4756
807.568	4784
807.668	4329
807.769	5072
807.869	4635
807.969	4648
808.069	4960
808.170	4953
808.270	3866
808.370	4723
808.470	4447
808.570	4027
808.670	4371
808.770	4920
808.870	3972
808.970	3710
809.070	3911
809.170	4901
809.271	3879
809.370	4452
809.470	4173
809.570	3979
809.670	4114
809.770	4588
809.870	4860
809.970	5252
810.070	4135
810.169	4587
810.269	3156
810.369	4328
810.469	4084
810.568	4337
810.668	4024
810.768	4311
810.867	3912
810.967	3891
811.066	3513
811.166	3959
811.265	4233
811.365	4183
811.464	3983
811.564	4379
811.663	5056
811.763	4704
811.862	4026
811.962	3935
812.061	3223
812.160	4686
812.260	4607
812.359	4601
812.458	5588
812.557	7639
812.657	14691
812.756	15229
812.855	5824
812.954	4835
813.053	4755
813.153	4707
813.252	4410
813.351	4535
813.450	4506
813.549	4270
813.648	4502
813.747	4440
813.846	4971
813.945	4405
814.044	4141
814.143	4547
814.242	4933
814.341	3838
814.439	5668
814.538	5192
814.637	5202
814.736	5262
814.835	5706
814.933	5257
815.032	4519
815.131	6038
815.229	4904
815.328	5591
815.427	5491
815.525	5650
815.624	5781
815.722	5078
815.821	5633
815.919	5444
816.018	6319
816.116	6381
816.215	5907
816.313	6778
816.412	6630
816.510	6979
816.609	7417
816.707	8029
816.805	7596
816.904	7104
817.002	10260
817.100	10095
817.198	11415
817.296	12094
817.395	13455
817.493	16040
817.591	16925
817.689	22162
817.787	28316
817.885	38461
817.983	56743
818.081	94629
818.179	177971
818.277	352240
818.375	531237
818.473	389813
818.571	197191
818.669	109548
818.767	77341
818.865	66265
818.963	68813
819.061	81001
819.158	111025
819.256	172861
819.354	297695
819.452	504146
819.549	576042
819.647	430865
819.745	255583
819.842	148217
819.940	93964
820.038	66896
820.135	50087
820.233	39767
820.330	32764
820.428	26783
820.525	22970
820.623	20106
820.720	18141
820.818	16105
820.915	13624
821.012	12714
821.110	12009
821.207	11858
821.304	10560
821.402	9156
821.499	9604
821.596	9173
821.693	8547
821.791	8324
821.888	7593
821.985	8985
822.082	8299
822.179	7759
822.276	6556
822.373	6693
822.470	6980
822.567	6288
822.664	5661
822.761	5564
822.858	4994
822.955	4883
823.052	5014
823.149	4613
823.246	5168
823.343	5190
823.440	5492
823.536	4553
823.633	4716
823.730	5317
823.827	4341
823.923	4310
824.020	5652
824.117	3940
824.213	4189
824.310	4932
824.407	3991
824.503	4494
824.600	4349
824.696	5146
824.793	4652
824.889	3440
824.986	4392
825.082	3730
825.179	3444
825.275	4237
825.371	3679
825.468	4154
825.564	2979
825.660	4475
825.757	3802
825.853	4327
825.949	3502
826.045	4030
826.142	3701
826.238	3237
826.334	3987
826.430	3404
826.526	4019
826.622	3693
826.718	3191
826.814	3759
826.910	4804
827.006	3863
827.102	3510
827.198	3778
827.294	3052
827.390	4273
827.486	3779
827.582	2210
827.678	2662
827.774	4464
827.869	2626
827.965	3628
828.061	3227
828.157	3626
828.252	3676
828.348	3013
828.444	3499
828.539	2849
828.635	2914
828.731	3894
828.826	2411
828.922	2818
829.017	2787
829.113	4290
829.208	3101
829.304	2922
829.399	3139
829.495	3269
829.590	3329
829.685	2714
829.781	3399
829.876	3241
829.971	3248
830.066	3144
830.162	2673
830.257	3214
830.352	3096
830.447	3350
830.543	2825
830.638	2995
830.733	3371
830.828	2733
830.923	3396
831.018	2676
831.113	3525
831.208	2671
831.303	2667
831.398	2835
831.493	2355
831.588	3444
831.683	1815
831.778	3655
831.873	2492
831.967	3668
832.062	2088
832.157	3121
832.252	3282
832.346	2578
832.441	3128
832.536	3241
832.631	4211
832.725	6569
832.820	3709
832.914	2342
833.009	2597
833.104	2781
833.198	3070
833.293	2921
833.387	2543
833.482	2902
833.576	3118
833.670	3143
833.765	2394
833.859	2546
833.954	2946
834.048	3255
834.142	2777
834.237	2541
834.331	3134
834.425	2650
834.519	2629
834.613	3057
834.708	2559
834.802	2611
834.896	2476
834.990	2901
835.084	2768
835.178	2688
835.272	2616
835.366	2472
835.460	2976
835.554	3100
835.648	2327
835.742	2516
835.836	2416
835.930	1552
836.024	3009
836.117	3389
836.211	2429
836.305	3283
836.399	3173
836.493	2933
836.586	2970
836.680	1613
836.774	2225
836.867	2102
836.961	2381
837.055	2546
837.148	2601
837.242	2696
837.335	2199
837.429	2462
837.522	1568
837.616	2554
837.709	3583
837.803	3612
837.896	2734
837.989	2565
838.083	2909
838.176	3125
838.269	2691
838.363	3324
838.456	2658
838.549	4112
838.642	3153
838.735	4894
838.829	5154
838.922	3278
839.015	2142
839.108	1553
839.201	2375
839.294	2617
839.387	2611
839.480	2403
839.573	2874
839.666	2839
839.759	2809
839.852	2314
839.945	2644
840.038	2476
840.131	3039
840.223	2587
840.316	2330
840.409	2497
840.502	1995
840.594	2735
840.687	1741
840.780	2844
840.873	2148
840.965	2637
841.058	3452
841.150	3461
841.243	2979
841.336	2769
841.428	2546
841.521	2464
841.613	2711
841.706	2492
841.798	1884
841.890	1856
841.983	2299
842.075	2705
842.167	2781
842.260	2247
842.352	2864
842.444	2934
842.537	3380
842.629	3723
842.721	3808
842.813	2845
842.905	2305
842.997	2738
843.090	2692
843.182	2901
843.274	2660
843.366	4775
843.458	6459
843.550	8733
843.642	5528
843.734	2570
843.826	2050
843.918	2699
844.009	2383
844.101	2833
844.193	2261
844.285	1756
844.377	2271
844.469	1895
844.560	1909
844.652	2241
844.744	2944
844.835	2865
844.927	3094
845.019	2386
845.110	2787
845.202	2892
845.293	2082
845.385	2125
845.476	2072
845.568	2959
845.659	1799
845.751	2165
845.842	2461
845.934	2019
846.025	2757
846.116	2565
846.208	1906
846.299	2423
846.390	2050
846.482	2508
846.573	2053
846.664	2528
846.755	1981
846.846	4228
846.937	2371
847.029	2482
847.120	2076
847.211	2258
847.302	3032
847.393	1972
847.484	2708
847.575	2059
847.666	2326
847.757	2425
847.847	1388
847.938	2982
848.029	2494
848.120	1954
848.211	2107
848.302	2648
848.392	2329
848.483	2138
848.574	1816
848.664	2608
848.755	2209
848.846	2851
848.936	2089
849.027	1971
849.118	2068
849.208	2469
849.299	2490
849.389	2236
849.480	2554
849.570	3281
849.661	2990
849.751	3505
849.841	3515
849.932	2114
850.022	2035
850.112	2236
850.203	1775
850.293	2260
850.383	2295
850.474	1939
850.564	1892
850.654	2701
850.744	2389
850.834	2505
850.924	2419
851.014	3260
851.104	2291
851.194	2762
851.284	2801
851.374	2658
851.464	2449
851.554	2691
851.644	1948
851.734	3087
851.824	4660
851.914	7116
852.004	10096
852.094	18313
852.183	12703
852.273	3897
852.363	2797
852.452	3058
852.542	3072
852.632	2162
852.721	2450
852.811	1663
852.901	2098
852.990	2465
853.080	2020
853.169	1511
853.259	2269
853.348	587
853.438	2137
853.527	2168
853.617	1298
853.706	2078
853.795	2733
853.885	3720
853.974	4945
854.063	7077
854.152	10507
854.242	11283
854.331	3994
854.420	2697
854.509	1801
854.598	1957
854.687	1948
854.777	2073
854.866	2206
854.955	2577
855.044	1423
855.133	1857
855.222	2840
855.311	1659
855.400	1824
855.488	1997
855.577	1983
855.666	2343
855.755	2487
855.844	2624
855.933	2495
856.021	3682
856.110	2975
856.199	2346
856.288	1839
856.376	1930
856.465	1716
856.554	2265
856.642	1697
856.731	2522
856.819	1629
856.908	1183
856.996	1616
857.085	2013
857.173	1429
857.262	1858
857.350	1945
857.438	1757
857.527	2108
857.615	1663
857.703	2208
857.792	2195
857.880	2276
857.968	1935
858.056	1703
858.145	1397
858.233	1397
858.321	1857
858.409	2596
858.497	1472
858.585	1461
858.673	2088
858.761	1660
858.849	856
858.937	766
859.025	2500
859.113	2410
859.201	1088
859.289	2054
859.377	1366
859.465	2000
859.552	1470
859.640	1601
859.728	1999
859.816	1257
859.903	2661
859.991	1080
860.079	2091
860.166	1396
860.254	1892
860.342	1299
860.429	1509
860.517	2140
860.604	2080
860.692	1398
860.779	1619
860.867	1036
860.954	1062
861.042	1570
861.129	2120
861.216	2100
861.304	1648
861.391	1934
861.478	1430
861.565	1913
861.653	2157
861.740	933
861.827	1586
861.914	1351
862.001	1316
862.089	1679
862.176	1336
862.263	1694
862.350	1409
862.437	988
862.524	1175
862.611	1363
862.698	1425
862.785	1400
862.871	752
862.958	903
863.045	2258
863.132	1124
863.219	1386
863.306	1100
863.392	1882
863.479	1253
863.566	1987
863.652	1883
863.739	1979
863.826	1578
863.912	1861
863.999	1209
864.086	1913
864.172	456
864.259	1434
864.345	1290
864.432	1221
864.518	1902
864.604	2351
864.691	1773
864.777	1893
864.863	1754
864.950	1664
865.036	1316
865.122	1713
865.209	1674
865.295	2296
865.381	1635
865.467	2295
865.553	1857
865.639	1398
865.726	2039
865.812	2424
865.898	3176
865.984	4581
866.070	4783
866.156	9217
866.242	5933
866.328	2455
866.414	1280
866.499	991
866.585	2218
866.671	1445
866.757	2085
866.843	1357
866.928	751
867.014	1735
867.100	1822
867.186	1096
867.271	1876
867.357	2053
867.442	1733
867.528	1741
867.614	1666
867.699	1987
867.785	1952
867.870	1312
867.956	1233
868.041	1689
868.127	1924
868.212	1990
868.297	1795
868.383	1710
868.468	1535
868.553	2501
868.639	2296
868.724	3489
868.809	4898
868.894	5138
868.979	1507
869.065	1509
869.150	1081
869.235	2441
869.320	1207
869.405	867
869.490	1269
869.575	1252
869.660	689
869.745	1288
869.830	772
869.915	1109
870.000	1376
870.085	1573
870.169	910
870.254	956
870.339	895
870.424	114
870.509	1018
870.593	1322
870.678	1565
870.763	1882
870.847	1146
870.932	1317
871.016	1429
871.101	1444
871.186	334
871.270	1076
871.355	1550
871.439	385
871.523	1026
871.608	1449
871.692	958
871.777	1428
871.861	802
871.945	1211
872.030	1005
872.114	1130
872.198	1140
872.282	546
872.367	16
872.451	765
872.535	1055
872.619	482
872.703	826
872.787	1292
872.871	1627
872.955	1234
873.039	857
873.123	1323
873.207	1630
873.291	939
873.375	864
873.459	1299
873.543	1349
873.627	1324
873.711	721
873.794	1791
873.878	1353
873.962	678
874.045	687
874.129	1245
874.137	1258
874.213	1389
874.245	1390
874.296	1397
874.352	1034
874.380	852
874.460	1616
874.464	1647
874.547	970
874.568	1278
874.631	2201
874.676	1435
874.714	798
874.784	845
874.798	851
874.881	1838
874.892	1763
874.965	1316
874.999	1287
875.048	1152
875.107	891
875.131	836
875.215	933
875.215	933
875.298	1185
875.323	1113
875.381	1073
875.430	1400
875.465	1586
875.538	1262
875.548	1222
875.631	793
875.646	798
875.714	739
875.753	1018
875.798	1367
875.861	1118
875.881	1055
875.964	1188
875.968	1193
876.047	1308
876.076	1385
876.130	1466
876.183	1117
876.213	933
876.291	1532
876.296	1568
876.379	769
876.398	714
876.462	643
876.506	748
876.545	800
876.613	1066
876.628	1118
876.711	856
876.721	868
876.794	1119
876.828	981
876.877	718
876.935	1079
876.960	1204
877.043	1166
877.043	1166
877.125	1368
877.150	1358
877.208	1028
877.258	900
877.291	972
877.365	1112
877.374	1107
877.456	1228
877.472	1242
877.539	1501
877.579	1222
877.622	772
877.687	804
877.704	842
877.787	1519
877.794	1491
877.869	1055
877.901	933
877.952	958
878.008	1228
878.034	1269
878.115	1077
878.117	1071
878.199	747
878.222	723
878.282	750
878.329	714
878.364	791
878.437	918
878.447	871
878.529	413
878.544	377
878.611	658
878.651	769
878.694	788
878.758	679
878.776	657
878.858	757
878.865	816
878.941	1412
878.972	1090
879.023	627
879.078	780
879.105	759
879.185	525
879.187	526
879.269	520
879.292	511
879.351	491
879.399	459
879.433	406
879.506	584
879.516	598
879.598	675
879.613	650
879.680	745
879.720	778
879.762	672
879.827	268
879.844	239
879.926	835
879.933	863
880.007	483
880.040	246
880.089	401
880.147	744
880.171	686
880.253	1183
880.254	1180
880.335	802
880.360	1058
880.417	1476
880.467	1451
880.499	1651
880.574	3515
880.580	3609
880.662	2187
880.680	2063
880.744	1538
880.787	1043
880.825	676
880.893	873
880.907	937
880.989	644
881.000	647
881.070	519
881.106	313
881.152	253
881.213	500
881.233	510
881.315	370
881.319	368
881.396	754
881.426	735
881.478	363
881.532	472
881.559	643
881.639	698
881.641	694
881.722	610
881.745	581
881.803	760
881.852	1059
881.885	983
881.958	367
881.966	340
882.047	703
882.064	736
882.129	816
882.171	573
882.210	460
882.277	1015
882.291	1082
882.372	1232
882.383	1174
882.454	1077
882.489	1152
882.535	830
882.596	470
882.616	517
882.697	708
882.702	711
882.778	725
882.808	674
882.859	404
882.914	538
882.940	531
883.020	312
883.021	314
883.102	520
883.127	573
883.183	220
883.233	90
883.264	270
883.339	607
883.345	576
883.426	108
883.445	34
883.507	349
883.551	492
883.587	445
883.657	709
883.668	782
883.749	625
883.763	651
883.830	508
883.869	410
883.910	424
883.975	741
883.991	770
884.072	507
884.081	504
884.152	882
884.187	813
884.233	292
884.292	131
884.314	278
884.394	488
884.398	512
884.475	487
884.504	439
884.555	556
884.610	656
884.636	507
884.716	47
884.716	45
884.797	24
884.821	86
884.877	303
884.927	353
884.958	295
885.033	312
885.038	301
885.118	-55
885.139	-111
885.199	8
885.244	218
885.279	346
885.350	346
885.359	383
885.439	890
885.456	987
885.520	419
885.561	-12
885.600	43
885.667	175
885.680	156
885.760	206
885.773	162
885.840	302
885.878	368
885.920	118
885.984	209
886.000	293
886.080	261
886.089	275
886.160	468
886.195	492
886.240	383
886.300	278
886.320	177
886.400	-43
886.406	-66
886.480	392
886.511	610
886.560	506
886.616	285
886.640	350
886.720	649
886.722	659
886.800	478
886.827	360
886.879	558
886.932	667
886.959	597
887.038	573
887.039	575
887.119	572
887.143	668
887.198	536
887.248	223
887.278	299
887.354	529
887.358	503
887.437	41
887.459	-92
887.517	294
887.564	571
887.596	339
887.669	-94
887.676	-78
887.755	156
887.774	195
887.835	178
887.880	245
887.914	308
887.985	304
887.994	216
888.073	-397
888.090	-558
888.153	170
888.195	732
888.232	590
888.300	303
888.311	315
888.391	410
888.405	441
888.470	391
888.510	343
888.549	402
888.615	508
888.628	445
888.708	63
888.720	18
888.787	443
888.825	642
888.866	197
888.930	-434
888.945	-305
889.024	378
889.035	475
889.103	-129
889.140	-441
889.182	-155
889.245	259
889.261	292
889.340	480
889.349	508
889.419	679
889.454	759
889.498	220
889.559	-508
889.577	-359
889.656	345
889.664	422
889.735	154
889.768	35
889.814	-92
889.873	-250
889.978	-243
890.083	1181
890.187	-620
890.292	171
890.397	747
890.501	356
890.606	-658
890.710	1130
890.815	771
890.919	390
891.024	-330
891.128	246
891.233	-184
891.337	207
891.442	-256
891.546	-368
891.650	-235
891.755	15
891.859	1570
891.963	-98
892.068	133
892.172	1126
892.276	386
892.380	612
892.484	-496
892.589	582
892.693	264
892.797	816
892.901	-175
893.005	1167
893.109	-885
893.213	848
893.317	-410
893.421	605
893.525	-418
893.629	377
893.733	82
893.837	190
893.941	-16
894.045	147
894.148	-344
894.252	347
894.356	614
894.460	40
894.564	252
894.667	241
894.771	-442
894.875	214
894.978	-786
895.082	-442
895.186	-179
895.289	77
895.393	-189
895.496	-307
895.600	-517
895.703	256
895.807	-154
895.910	-237
896.014	-71
896.117	836
896.221	-353
896.324	1061
896.427	-296
896.531	15
896.634	103
896.737	334
896.840	-317
896.944	219
897.047	286
897.150	914
897.253	-605
897.356	540
897.460	-177
897.563	-59
897.666	127
897.769	520
897.872	-222
897.975	177
898.078	-553
898.181	-164
898.284	-401
898.387	410
898.490	582
898.593	102
898.695	362
898.798	210
898.901	146
899.004	636
899.107	-646
899.209	366
899.312	-366
899.415	227
899.518	-224
899.620	606
899.723	-615
899.826	376
899.928	321
900.031	107
900.133	-321
900.236	382
900.338	-115
900.441	164
900.543	-1862
900.646	531
900.748	62
900.851	359
900.953	-648
901.055	480
901.158	-76
901.260	556
901.362	262
901.465	132
901.567	-422
901.669	549
901.771	-348
901.873	216
901.976	-306
902.078	-84
902.180	-637
902.282	116
902.384	-317
902.486	259
902.588	568
902.690	-1123
902.792	-364
902.894	-500
902.996	142
903.098	-25
903.200	-683
903.302	292
903.404	171
903.505	-10
903.607	-452
903.709	84
903.811	-128
903.913	-317
904.014	20
904.116	526
904.218	43
904.319	-322
904.421	-441
904.523	-194
904.624	-113
904.726	1114
904.827	-386
904.929	74
905.030	397
905.132	-318
905.233	-813
905.335	3
905.436	-291
905.537	-724
905.639	146
905.740	-259
905.841	-566
905.943	181
906.044	-196
906.145	347
906.247	-734
906.348	-128
906.449	-614
906.550	406
906.651	-131
906.752	-639
906.854	-245
906.955	613
907.056	-1024
907.157	39
907.258	-231
907.359	166
907.460	-1071
907.561	8
907.662	-745
907.762	375
907.863	-685
907.964	224
908.065	-240
908.166	85
908.267	-415
908.367	67
908.468	-499
908.569	534
908.670	-259
908.770	524
908.871	-823
908.971	271
909.072	843
909.173	162
909.273	-537
909.374	438
909.474	326
909.575	-496
909.675	-400
909.776	335
909.876	-545
909.977	606
910.077	141
910.177	-529
910.278	-403
910.378	640
910.478	-821
910.579	189
910.679	-508
910.779	-177
910.879	254
910.980	243
911.080	-585
911.180	210
911.280	-115
911.380	189
911.480	-1156
911.580	-75
911.680	-200
911.780	333
911.880	-180
911.980	-9
912.080	-859
912.180	390
912.280	-906
912.380	-116
912.480	-635
912.580	-531
912.679	30
912.779	-16
912.879	-884
912.979	-976
913.078	-203
913.178	125
913.278	-366
913.377	10
913.477	-166
913.577	132
913.676	180
913.776	-194
913.875	-303
913.975	517
914.074	-187
914.174	33
914.273	-1016
914.373	384
914.472	-1307
914.572	-529
914.671	-567
914.770	205
914.870	-532
914.969	-741
915.068	-395
915.167	-472
915.267	-867
915.366	-303
915.465	106
915.564	-639
915.663	-663
915.763	92
915.862	-852
915.961	-256
916.060	-473
916.159	379
916.258	-361
916.357	-224
916.456	111
916.555	631
916.654	-798
916.752	-243
916.851	-1027
916.950	50
917.049	-343
917.148	76
917.247	-536
917.345	-144
917.444	-670
917.543	-108
917.642	-302
917.740	318
917.839	432
917.937	602
918.036	241
918.135	-43
918.233	-279
918.332	-643
918.430	-143
918.529	-549
918.627	-762
918.726	-124
918.824	-622
918.923	-652
919.021	42
919.119	36
919.218	-888
919.316	-199
919.414	-942
919.512	433
919.611	-240
919.709	276
919.807	-792
919.905	-436
920.003	-850
920.102	-522
920.200	-1199
920.298	227
920.396	-765
920.494	-88
920.592	-1270
920.690	-306
920.788	-693
920.886	113
920.984	-745
921.082	-234
921.180	216
921.277	18
921.375	-280
921.473	-143
921.571	-96
921.669	-83
921.766	-805
921.864	242
921.962	-113
922.060	-512
922.157	-882
922.255	6
922.352	-677
922.450	183
922.548	-1119
922.645	-185
922.743	-675
922.840	-809
922.938	-295
923.035	259
923.133	71
923.230	-215
923.327	-411
923.425	103
923.522	32
923.619	55
923.717	-516
923.814	-137
923.911	-146
924.008	208
924.106	-670
924.203	-221
924.300	-372
924.397	287
924.494	-781
924.591	167
924.688	-407
924.786	56
924.883	-196
924.979	-60
925.077	-636
925.173	612
925.270	-792
925.367	292
925.464	-958
925.561	-272
925.658	-1027
925.755	-436
925.852	-265
925.948	-207
926.045	-403
926.142	-10
926.239	-651
926.335	-97
926.432	338
926.529	-521
926.625	-482
926.722	81
926.818	-808
926.915	-205
927.011	-301
927.108	439
927.204	-782
927.301	332
927.397	-1438
927.494	-300
927.590	-568
927.687	-676
927.783	-421
927.879	-732
927.976	-671
928.072	-358
928.168	-811
928.264	-299
928.361	-816
928.457	-34
928.553	-1214
928.649	-516
928.745	329
928.841	75
928.937	-313
929.033	253
929.129	-212
929.225	-117
929.321	-641
929.417	-991
929.513	-141
929.609	24
929.705	-598
929.801	-450
929.897	-541
929.993	-608
930.089	-699
930.184	-871
930.280	-735
930.376	492
930.471	-1258
930.567	-311
930.663	-895
930.758	128
930.854	-803
930.950	-867
931.045	61
931.141	-108
931.236	-695
931.332	374
931.427	-570
931.523	-391
931.618	-958
931.714	-391
931.809	-817
931.905	-405
932.000	-589
932.095	-630
932.191	-959
932.286	218
932.381	-1669
932.476	371
932.572	-887
932.667	-280
932.762	-1573
932.857	0
932.952	-158
933.047	-160
933.142	-1141
933.237	213
933.332	-228
933.427	399
933.522	186
933.617	-140
933.712	-642
933.807	-583
933.902	-862
933.997	-745
934.092	-724
934.187	-573
934.282	-414
934.376	-591
934.471	-645
934.566	-102
934.661	-173
934.755	-311
934.850	-218
934.945	-1107
935.039	-490
935.134	-135
935.228	-323
935.323	-599
935.417	-756
935.512	-522
935.606	-1311
935.701	-442
935.795	-929
935.890	605
935.984	-1030
936.079	143
936.173	-1021
936.267	-795
936.362	-863
936.456	-683
936.550	150
936.644	-62
936.738	-1190
936.833	-178
936.927	-430
937.021	-222
937.115	-541
937.209	-503
937.303	-264
937.397	-71
937.491	-267
937.585	-569
937.679	-874
937.773	-1058
937.867	-1443
937.961	-292
938.055	-1362
938.149	-264
938.243	-474
938.337	-175
938.430	-1014
938.524	66
938.618	-1401
938.712	-673
938.805	85
938.899	-114
938.993	-440
939.086	-570
939.180	-1239
939.274	-947
939.367	-748
939.461	-240
939.554	-818
939.648	271
939.741	-383
939.835	-801
939.928	-576
940.022	-108
940.115	-1082
940.208	-221
940.302	-1166
940.395	-379
940.488	-1164
940.582	416
940.675	-1206
940.768	-797
940.861	-1051
940.954	569
941.048	-1369
941.141	-1107
941.234	-1037
941.327	-541
941.420	-242
941.513	-167
941.606	-509
941.699	423
941.792	-921
941.885	21
941.978	-1047
942.071	-935
942.164	-1435
942.257	-291
942.349	-366
942.442	-355
942.535	-265
942.628	-240
942.721	-1451
942.813	-311
942.906	-1111
942.999	-807
943.091	-1094
943.184	-626
943.277	-44
943.369	-518
943.462	-321
943.554	-392
943.647	-1378
943.739	-295
943.832	-1390
943.924	-684
944.017	-1192
944.109	-826
944.201	-918
944.294	-578
944.386	-1447
944.478	-68
944.571	-1004
944.663	-318
944.755	-1034
944.847	-708
944.940	-1161
945.032	-922
945.124	-979
945.216	-431
945.308	-1841
945.400	148
945.492	-1009
945.584	-1258
945.676	-1340
945.768	-124
945.860	-1210
945.952	-1080
946.044	-1009
946.136	-732
946.228	-1052
946.320	-1584
946.412	-1211
946.503	-170
946.595	-332
946.687	-535
946.779	-1414
946.870	-918
946.962	-955
947.054	-76
947.145	-915
947.237	-562
947.329	-861
947.420	-843
947.512	-1470
947.603	-707
947.695	-1188
947.786	-83
947.878	-946
947.969	-804
948.061	-1027
948.152	-304
948.243	-458
948.335	-1209
948.426	-1999
948.517	-272
948.609	-910
948.700	-920
948.791	-522
948.882	-1432
948.973	-592
949.065	-920
949.156	-623
949.247	-1561
949.338	-1079
949.429	-1258
949.520	-1272
949.611	-550
949.702	-469
949.793	-789
949.884	-1019
949.975	-608
950.066	-516
950.157	-1282
950.247	-1462
950.338	-1104
950.429	-859
950.520	-938
950.611	-1555
950.701	-1013
950.792	-1580
950.883	-716
950.973	-1322
951.064	-462
951.155	-1171
951.245	-901
951.336	-977
951.427	-229
951.517	-1533
951.608	-41
951.698	-1203
951.788	-1173
951.879	-1123
951.969	-1037
952.060	-847
952.150	-475
952.240	-1248
952.331	-1526
952.421	-1239
952.511	-1474
952.602	-1487
952.692	-892
952.782	-1328
952.872	-919
952.962	-1075
953.052	-1642
953.143	-1113
953.233	-191
953.323	-1157
953.413	-744
953.503	-1656
953.593	-1042
953.683	-1174
953.773	-512
953.863	-1004
953.953	-1112
954.042	-1436
954.132	-602
954.222	-1253
954.312	-823
954.402	-1794
954.492	-862
954.581	-1385
954.671	-725
954.761	-958
954.850	-896
954.940	-1425
955.030	-1156
955.119	-2076
955.209	-952
955.298	-1741
955.388	-651
955.477	-691
955.567	-559
955.656	-1046
955.746	-706
955.835	-362
955.925	-1068
956.014	-996
956.103	-1244
956.193	-1075
956.282	-845
956.371	-1048
956.461	-643
956.550	-1820
956.639	-815
956.728	-1226
956.817	-565
956.906	-1560
956.995	-502
957.085	-1166
957.174	-979
957.263	-1887
957.352	-203
957.441	-1341
957.530	-782
957.619	-2321
957.708	-337
957.796	-1469
957.885	-544
957.974	-1334
958.063	-338
958.152	-1541
958.241	-473
958.329	-2086
958.418	-1090
958.507	-1145
958.596	31
958.684	-539
958.773	-681
958.861	-1017
958.950	-546
959.039	-1389
959.127	-359
959.216	-1589
959.304	-1013
959.393	-1630
959.481	-595
959.570	-1020
959.658	-464
959.746	-1471
959.835	-159
959.923	-1359
960.011	-29
960.100	-745
960.188	-449
960.276	-716
960.365	-191
960.453	-712
960.541	-495
960.629	-673
960.717	-1166
960.805	-1188
960.893	-883
960.981	-1596
961.069	-280
961.158	-1107
961.245	-390
961.333	-1125
961.421	-1144
961.509	-907
961.597	-854
961.685	-1254
961.773	-875
961.861	-1709
961.949	-924
962.036	-1420
962.124	-560
962.212	-1521
962.299	-232
962.387	-743
962.475	-1037
962.562	-1180
962.650	-762
962.738	-1341
962.825	-734
962.913	-710
963.000	-1426
963.088	-1206
963.175	-728
963.263	-1229
963.350	-1095
963.438	-975
963.525	-1533
963.612	-716
963.700	-492
963.787	315
963.874	1308
963.962	323
964.049	-883
964.136	-1507
964.223	-1434
964.310	-1797
964.398	-920
964.485	-1988
964.572	-787
964.659	-1474
964.746	-58
964.833	-1552
964.920	-471
965.007	-1830
965.094	-1450
965.181	-1473
965.268	-435
965.355	-1645
965.441	-1374
965.528	-1415
965.615	505
965.702	-1400
965.789	-1344
965.875	-1087
965.962	-578
966.049	-1115
966.136	-479
966.222	-1464
966.309	-1293
966.395	-1622
966.482	-1122
966.569	-1406
966.655	-354
966.742	-1161
966.828	-589
966.915	-1186
967.001	-826
967.087	-640
967.174	-697
967.260	-2187
967.347	-599
967.433	-770
967.519	462
967.605	582
967.692	-169
967.778	-1252
967.864	-1322
967.950	-977
968.036	-1540
968.123	-1264
968.209	-806
968.295	-909
968.381	100
968.467	-1201
968.553	-738
968.639	-823
968.725	-1247
968.811	-1106
968.897	565
968.983	-1311
969.069	-1003
969.154	-743
969.240	-1035
969.326	-1873
969.412	-821
969.497	-959
969.583	-647
969.669	-1122
969.755	-524
969.840	-754
969.926	-630
970.012	-1200
970.097	-795
970.183	-1153
970.268	-148
970.354	-1297
970.439	-505
970.525	-553
970.610	-648
970.696	-690
970.781	-742
970.866	-968
970.952	-65
971.037	-1400
971.122	-544
971.208	-456
971.293	-906
971.378	-1056
971.463	-662
971.549	-1085
971.634	-677
971.719	-1077
971.804	46
971.889	-476
971.974	-751
972.059	-1333
972.144	-490
972.229	-1776
972.314	-1078
972.399	-1531
972.484	-543
972.569	-675
972.654	-1331
972.739	-282
972.824	-643
972.908	-560
972.993	-134
973.078	-305
973.163	-918
973.247	-850
973.332	-1838
973.417	-327
973.501	-1215
973.586	-823
973.671	-1089
973.755	-1175
973.840	528
973.924	-789
974.009	-54
974.093	-1811
974.178	-595
974.262	-933
974.346	-413
974.431	-825
974.515	-506
974.600	-399
974.684	-532
974.768	-1169
974.852	110
974.937	-1360
975.021	-870
975.105	-1326
975.189	-859
975.273	-673
975.358	-269
975.442	-1227
975.526	-910
975.610	-1802
975.694	-549
975.778	-596
975.862	-615
975.946	-1961
976.030	-162
976.114	-1367
976.198	-586
976.281	-680
976.365	-113
976.449	-1590
976.533	-305
976.617	-1219
976.700	-605
976.784	-1050
976.868	-869
976.951	-1480
977.035	-27
977.119	-1117
977.202	-1549
977.286	-1814
977.369	-541
977.453	-1129
977.536	-418
977.620	-1226
977.703	-525
977.787	-1404
977.870	-94
977.953	-710
978.037	-1481
978.120	-962
978.203	-744
978.287	-902
978.370	-659
978.453	-1130
978.536	-545
978.620	-907
978.703	-440
978.786	355
978.869	-665
978.952	-1802
979.035	-309
979.118	-799
979.201	-308
979.284	-1150
979.367	-264
979.450	-1113
979.533	-1204
979.616	-1692
979.699	-1068
979.782	-903
979.865	-131
979.948	-1700
980.030	-732
980.113	-1287
980.196	-1311
980.279	-980
980.361	-803
980.444	-1610
980.526	-998
980.609	-1190
980.692	-116
980.774	-1308
980.857	-1496
980.939	-892
981.022	-716
981.104	-1057
981.187	-943
981.269	-1469
981.352	-852
981.434	-1530
981.516	-681
981.599	-1253
981.681	-483
981.763	-1796
981.846	-757
981.928	-1450
982.010	-1137
982.092	-1436
982.174	-280
982.256	-1567
982.339	-808
982.421	-1529
982.503	-1446
982.585	-1380
982.667	-556
982.749	-644
982.831	-1090
982.913	-2645
982.995	-783
983.077	-1467
983.158	-755
983.240	-1157
983.322	-446
983.404	-821
983.486	-1703
983.568	-941
983.649	-712
983.731	-985
983.813	-477
983.894	-1703
983.976	-904
984.058	-1066
984.139	-1270
984.221	-2203
984.302	137
984.384	-1718
984.465	-843
984.547	-1066
984.628	-556
984.710	-973
984.791	-891
984.872	-1989
984.954	-336
985.035	-840
985.116	-1251
985.198	-1702
985.279	-552
985.360	-1113
985.441	-357
985.522	-1192
985.604	-370
985.685	-2087
985.766	83
985.847	-745
985.928	-633
986.009	-1481
986.090	-885
986.171	-1288
986.252	-508
986.333	-2111
986.414	-1590
986.495	-1706
986.576	-439
986.656	-1213
986.737	-1627
986.818	-1961
986.899	-612
986.980	-1530
987.060	-892
987.141	-1934
987.222	-1367
987.302	-1286
987.383	-835
987.464	-1650
987.544	-923
987.625	-1435
987.705	-500
987.786	-1384
987.866	-1626
987.947	-1483
988.027	-1163
988.108	-1006
988.188	-936
988.268	-1850
988.349	-700
988.429	-1629
988.509	-69
988.589	-1648
988.670	-887
988.750	-513
988.830	-783
988.910	-1132
988.990	-1039
989.070	-1428
989.151	-897
989.231	-1459
989.311	-1195
989.391	-1332
989.471	-1360
989.551	-1263
989.631	-1287
989.711	-1509
989.791	-1671
989.870	-1456
989.950	-561
990.030	-1365
990.110	-1426
990.190	-2329
990.269	-905
990.349	-1380
990.429	-1260
990.509	-1408
990.588	-1371
990.668	-1663
990.747	-580
990.827	-1771
990.907	-831
990.986	-1026
991.066	-323
991.145	-1341
991.225	-821
991.304	-2008
991.383	-535
991.463	-1463
991.542	-14
991.622	-2015
991.701	-1418
991.780	-1730
991.859	-1286
991.939	-1644
992.018	-818
992.097	-1244
992.176	-877
992.256	-1775
992.335	-1035
992.414	-1469
992.493	-1530
992.572	-1576
992.651	-590
992.730	-2088
992.809	-1072
992.888	-2306
992.967	-831
993.046	-1595
993.125	-2022
993.203	-1218
993.282	-678
993.361	-1714
993.440	-1283
993.519	-2636
993.597	-1513
993.676	-2108
993.755	-1070
993.834	-1424
993.912	-1759
993.991	-839
994.069	-1557
994.148	-1966
994.226	-1693
994.305	-1579
994.384	-1057
994.462	-1874
994.540	-974
994.619	-2500
994.697	-921
994.776	-1695
994.854	-564
994.932	-1507
995.011	-759
995.089	-2120
995.167	-467
995.245	-1730
995.324	-1325
995.402	-1705
995.480	-1358
995.558	-1483
995.636	-1705
995.714	-1563
995.792	-1291
995.870	-1637
995.948	-1228
996.026	-1948
996.104	-1943
996.182	-871
996.260	-1283
996.338	-1495
996.416	-1241
996.494	-2019
996.572	-800
996.649	-2274
996.727	-1748
996.805	-1958
996.883	-596
996.960	-2263
997.038	-1053
997.116	-792
997.193	-1412
997.271	-1746
997.348	-1118
997.426	-1981
997.504	-1272
997.581	-1134
997.658	-1377
997.736	-2105
997.813	-1566
997.891	-2099
997.968	-1367
998.046	-1452
998.123	-766
998.200	-1206
998.277	-1607
998.355	-1499
998.432	-1815
998.509	-1622
998.586	-1008
998.663	-1283
998.741	-849
998.818	-1480
998.895	-927
998.972	-2149
999.049	-912
999.126	-1643
999.203	-1080
999.280	-2056
999.357	-1530
999.434	-1389
999.511	-1000
999.587	-1376
999.664	-854
999.741	-1856
999.818	-833
999.895	-2347
999.971	-1629
1000.048	-1797
1000.125	-983
1000.202	-2275
1000.278	-1131
1000.355	-1158
1000.431	-815
1000.508	-2034
1000.584	-1082
1000.661	-1136
1000.738	-1632
1000.814	-1506
1000.890	-869
1000.967	-2208
1001.043	-1093
1001.120	-1865
1001.196	-994
1001.272	-1378
1001.349	-1059
1001.425	-1344
1001.501	-971
1001.577	-2267
1001.654	-1229
1001.730	-1566
1001.806	-1226
1001.882	-1504
1001.958	-838
1002.034	-457
1002.110	-1270
1002.186	-1591
1002.262	-768
1002.338	-1775
1002.414	-1092
1002.490	-1696
1002.566	-1203
1002.642	-1958
1002.718	-999
1002.794	-2024
1002.870	-1474
1002.945	-2013
1003.021	-818
1003.097	-1160
1003.173	-1327
1003.248	-1998
1003.324	-707
1003.400	-1827
1003.475	-1721
1003.551	-1191
1003.626	-1566
1003.702	-1383
1003.777	-1062
1003.853	-1629
1003.928	-983
1004.004	-1431
1004.079	-1397
1004.155	-1248
1004.230	-2172
1004.305	-1396
1004.381	-1591
1004.456	-1427
1004.531	-1098
1004.607	-1848
1004.682	-1540
1004.757	-1984
1004.832	-1654
1004.907	-1674
1004.982	-1005
1005.057	-1440
1005.133	-1957
1005.208	-1448
1005.283	-1743
1005.358	-1150
1005.433	-1331
1005.508	-1575
1005.583	-572
1005.657	-2009
1005.732	-1426
1005.807	-1471
1005.882	-1475
1005.957	-1339
1006.032	-1215
1006.106	-2037
1006.181	-1070
1006.256	-2035
1006.331	-1307
1006.405	-1680
1006.480	-1252
1006.554	-1352
1006.629	-1409
1006.704	-1162
1006.778	-1427
1006.853	-1277
1006.927	-1625
1007.002	-1357
1007.076	-741
1007.150	-924
1007.225	-1754
1007.299	-1576
1007.373	-1939
1007.448	-2207
1007.522	-1320
1007.596	-1703
1007.671	-1240
1007.745	-758
1007.819	-1939
1007.893	-1990
1007.967	-1744
1008.041	-1778
1008.115	-515
1008.190	-1599
1008.264	-867
1008.338	-1696
1008.412	-1567
1008.486	-1738
1008.560	-1087
1008.633	-1336
1008.707	-1304
1008.781	-1505
1008.855	-1465
1008.929	-1873
1009.003	-1291
1009.076	-2345
1009.150	-1688
1009.224	-1750
1009.298	-231
1009.371	-2064
1009.445	-686
1009.519	-1488
1009.592	-1144
1009.666	-1223
1009.739	-1093
1009.813	-2473
1009.886	-1051
1009.960	-2747
1010.033	-980
1010.107	-1673
1010.180	-1765
1010.253	-1937
1010.327	-1194
1010.400	-1290
1010.473	-1469
1010.547	-511
1010.620	-934
1010.693	-1146
1010.766	-1493
1010.840	-1885
1010.913	-1426
1010.986	-2120
1011.059	-1978
1011.132	-1879
1011.205	-1410
1011.278	-2383
1011.351	-1269
1011.424	-1415
1011.497	-1114
1011.570	-1502
1011.643	-1059
1011.716	-2322
1011.789	-1106
1011.862	-1239
1011.934	-1617
1012.007	-1527
1012.080	-712
1012.153	-2017
1012.225	-658
1012.298	-1285
1012.371	-918
1012.443	-1703
1012.516	-1252
1012.588	-1283
1012.661	-1231
1012.733	-1753
1012.806	-1662
1012.879	-1769
1012.951	-782
1013.023	-1683
1013.096	-1211
1013.168	-1509
1013.241	-964
1013.313	-1990
1013.385	-1176
1013.458	-1858
1013.530	-777
1013.602	-2281
1013.674	-1215
1013.746	-2562
1013.819	-1229
1013.891	-975
1013.963	-1125
1014.035	-2705
1014.107	-1017
1014.179	-1609
1014.251	-910
1014.323	-1901
1014.395	-1929
1014.467	-1530
1014.539	-1661
1014.611	-1813
1014.683	-956
1014.754	-1499
1014.826	-1813
1014.898	-1735
1014.970	-1065
1015.042	-1526
1015.113	-1219
1015.185	-2045
1015.257	-943
1015.328	-2223
1015.400	-1640
1015.471	-2208
1015.543	-2259
1015.615	-1170
1015.686	-1386
1015.757	-1852
1015.829	-1457
1015.901	-2108
1015.972	-1252
1016.043	-1884
1016.115	-1178
1016.186	-1960
1016.257	-1930
1016.328	-1638
1016.400	-1874
1016.471	-1773
1016.542	-896
1016.613	-1833
1016.685	-984
1016.756	-2646
1016.827	-1713
1016.898	-2452
1016.969	-1235
1017.040	-1529
1017.111	-1976
1017.182	-998
1017.253	-610
1017.324	-1591
1017.395	-1983
1017.466	-1886
1017.537	-2100
1017.608	-2309
1017.678	-1778
1017.749	-1824
1017.820	-1952
1017.891	-2772
1017.961	-1046
1018.032	-1515
1018.103	-1208
1018.173	-1965
1018.244	-2065
1018.315	-2556
1018.385	-594
1018.456	-1806
1018.526	-1963
1018.597	-1764
1018.667	-1578
1018.738	-2283
1018.808	-1603
1018.878	-2301
1018.949	-1677
1019.019	-1610
1019.089	-1387
1019.160	-2578
1019.230	-1498
1019.300	-780
1019.371	-2289
1019.441	-2158
1019.511	-1268
1019.581	-1705
1019.651	-1206
1019.721	-2195
1019.791	-1470
1019.861	-1140
1019.931	-1901
1020.001	-2495
1020.071	-1473
1020.141	-2258
1020.211	-1340
1020.281	-2212
1020.351	-2233
1020.421	-1393
1020.491	-1474
1020.560	-1761
1020.630	-2098
1020.700	-2015
1020.770	-1864
1020.839	-1651
1020.909	-2007
1020.979	-2002
1021.048	-1138
1021.118	-1978
1021.187	-1228
1021.257	-2267
1021.326	-1409
1021.396	-2144
1021.465	-1742
1021.535	-2395
1021.604	-2057
1021.674	-2127
1021.743	-1603
1021.812	-2085
1021.882	-1397
1021.951	-2337
1022.020	-1656
1022.089	-2418
1022.159	-1829
1022.228	-1963
1022.297	-1569
1022.366	-2389
1022.435	-1294
1022.504	-2230
1022.573	-1619
1022.642	-1523
1022.711	-1396
1022.781	-2221
1022.849	-661
1022.918	-2750
1022.987	-1987
1023.056	-2630
1023.125	-1745
1023.194	-1271
1023.263	-1606
1023.331	-1662
1023.400	-1158
1023.469	-2190
1023.538	-1541
1023.606	-2011
1023.675	-2122
1023.744	-2041
1023.812	-1803
1023.881	-2374
1023.949	-1635
1024.018	-2047
1024.086	-2006
1024.155	-2557
1024.223	-1954
1024.292	-1854
1024.360	-1778
1024.429	-2120
1024.497	-1842
1024.565	-2037
1024.634	-2025
1024.702	-1880
1024.770	-1286
1024.838	-2201
1024.907	-1359
1024.975	-2436
1025.043	-1295
1025.111	-2187
1025.179	-772
1025.247	-2760
1025.315	-2490
1025.383	-2436
1025.451	-2352
1025.519	-2108
1025.587	-1444
1025.655	-1678
1025.723	-1365
1025.791	-2212
1025.859	-1583
1025.927	-1846
1025.995	-1608
1026.062	-2159
1026.130	-2093
1026.198	-2844
1026.266	-1593
1026.333	-2040
1026.401	-1581
1026.469	-2662
1026.536	-1488
1026.604	-1688
1026.671	-1216
1026.739	-2137
1026.806	-1443
1026.874	-2060
1026.941	-1600
1027.009	-1608
1027.076	-1640
1027.144	-1720
1027.211	-2667
1027.278	-2042
1027.345	-1947
1027.413	-1645
1027.480	-1718
1027.547	-2346
1027.614	-2107
1027.682	-2068
1027.749	-1956
1027.816	-2423
1027.883	-1927
1027.950	-2031
1028.017	-1360
1028.084	-1189
1028.151	-2052
1028.218	-1293
1028.285	-2117
1028.352	-1764
1028.419	-1879
1028.486	-2077
1028.553	-1862
1028.619	-2376
1028.686	-1789
1028.753	-1174
1028.820	-1941
1028.886	-2536
1028.953	-1652
1029.020	-2125
1029.086	-1526
1029.153	-2252
1029.220	-1698
1029.286	-1884
1029.353	-1537
1029.419	-2893
1029.486	-2143
1029.552	-1698
1029.619	-1477
1029.685	-2711
1029.751	-2000
1029.818	-1892
1029.884	-2550
1029.951	-1380
1030.017	-1186
1030.083	-2081
1030.149	-1428
1030.216	-2414
1030.282	-1923
1030.348	-2851
1030.414	-2216
1030.480	-2534
1030.546	-1544
1030.612	-1808
1030.678	-1589
1030.744	-2360
1030.810	-2177
1030.876	-2337
1030.942	-1303
1031.008	-1383
1031.074	-1826
1031.140	-2360
1031.206	-1802
1031.272	-2249
1031.337	-1017
1031.403	-1822
1031.469	-2148
1031.534	-2461
1031.600	-1970
1031.666	-1840
1031.731	-2240
1031.797	-1871
1031.863	-1842
1031.928	-2069
1031.994	-1621
1032.059	-1854
1032.125	-1647
1032.190	-2096
1032.256	-1479
1032.321	-1794
1032.386	-1193
1032.452	-1678
1032.517	-1811
1032.582	-2613
1032.647	-1915
1032.713	-2327
1032.778	-1153
1032.843	-1804
1032.908	-1101
1032.974	-2574
1033.039	-1988
1033.104	-2364
1033.169	-1665
1033.234	-2301
1033.299	-1280
1033.364	-2101
1033.429	-1722
1033.494	-1746
1033.559	-1314
1033.624	-1793
1033.688	-1333
1033.753	-2109
1033.818	-1119
1033.883	-2059
1033.948	-1629
1034.013	-1870
1034.077	-729
1034.142	-2484
1034.207	-1752
1034.271	-2063
1034.336	-1554
1034.400	-1279
1034.465	-2532
1034.530	-2131
1034.594	-1663
1034.658	-1291
1034.723	-1486
1034.787	-1740
1034.852	-1719
1034.916	-2066
1034.981	-2101
1035.045	-1261
1035.109	-2159
1035.173	-1897
1035.238	-1466
1035.302	-1474
1035.366	-1296
1035.430	-1929
1035.495	-1036
1035.559	-2133
1035.623	-1842
1035.687	-2100
1035.751	-1576
1035.815	-2121
1035.879	-1319
1035.943	-1199
1036.007	-2108
1036.071	-2139
1036.135	-1201
1036.198	-1915
1036.262	-1492
1036.326	-2178
1036.390	-1223
1036.454	-1860
1036.517	-551
1036.581	-2584
1036.645	-1693
1036.709	-1393
1036.772	-1585
1036.836	-2111
1036.900	-1178
1036.963	-2033
1037.026	-2253
1037.090	-3066
1037.154	-1387
1037.217	-1601
1037.280	-2069
1037.344	-2705
1037.407	-1951
1037.471	-2102
1037.534	-664
1037.597	-2013
1037.661	-1503
1037.724	-1623
1037.787	-1356
1037.850	-1828
1037.913	-1749
1037.977	-1685
1038.040	-1297
1038.103	-2294
1038.166	-1127
1038.229	-1682
1038.292	-2307
1038.355	-2256
1038.418	-1710
1038.481	-1928
1038.544	-1872
1038.607	-1698
1038.670	-2077
1038.732	-2698
1038.795	-858
1038.858	-2229
1038.921	-1523
1038.984	-1924
1039.046	-1637
1039.109	-1983
1039.172	-917
1039.234	-2591
1039.297	-1462
1039.360	-1737
1039.422	-1483
1039.485	-2255
1039.547	-1870
1039.610	-2269
1039.672	-1495
1039.734	-2211
1039.797	-1670
1039.859	-1821
1039.922	-1368
1039.984	-3230
1040.046	-1603
1040.109	-1954
1040.171	-1730
1040.233	-1264
1040.295	-2529
1040.358	-2354
1040.420	-1750
1040.482	-2516
1040.544	-2321
1040.606	-2602
1040.668	-1475
1040.730	-2248
1040.792	-2592
1040.854	-2203
1040.916	-1717
1040.978	-2066
1041.040	-1388
1041.102	-1965
1041.164	-1625
1041.225	-2580
1041.287	-1897
1041.349	-1834
1041.411	-1238
1041.472	-1988
1041.534	-1298
1041.596	-2147
1041.657	-1689
1041.719	-2044
1041.781	-1816
1041.842	-2263
1041.904	-1701
1041.965	-2888
1042.027	-1589
1042.088	-1605
1042.150	-1536
1042.211	-2414
1042.272	-1057
1042.334	-1906
1042.395	-2379
1042.456	-1920
1042.518	-1793
1042.579	-2354
1042.640	-2158
1042.701	-3035
1042.763	-1562
1042.824	-2481
1042.885	-2024
1042.946	-2227
1043.007	-2207
1043.068	-2554
1043.129	-1829
1043.190	-2038
1043.251	-1431
1043.312	-2686
1043.373	-1980
1043.434	-2554
1043.495	-1666
1043.556	-2455
1043.616	-1284
1043.677	-1436
1043.738	-951
1043.799	-1661
1043.859	-1719
1043.920	-2139
1043.981	-1720
1044.041	-2362
1044.102	-2032
1044.162	-1899
1044.223	-2807
1044.284	-2609
1044.344	-1834
1044.405	-1694
1044.465	-1510
1044.525	-1907
1044.586	-1545
1044.646	-2691
1044.707	-1256
1044.767	-2279
1044.827	-1304
1044.887	-2149
1044.948	-1614
1045.008	-1650
1045.068	-1816
1045.128	-1725
1045.188	-1405
1045.249	-2404
1045.309	-1581
1045.369	-2021
1045.429	-1297
1045.489	-2491
1045.549	-1579
1045.609	-2023
1045.669	-2025
1045.729	-2027
1045.789	-1655
1045.848	-2195
1045.908	-747
1045.968	-2401
1046.028	-1387
1046.088	-1610
1046.147	-717
1046.207	-1727
1046.267	-1895
1046.326	-2030
1046.386	-1531
1046.446	-2345
1046.505	-1173
1046.565	-2066
1046.624	-930
1046.684	-1160
1046.743	-131
1046.803	-982
1046.862	-446
1046.922	0
