'Start Wavelength	183.907
'End Wavelength	1046.922
'Gate Delay	5.000
'Gate Width (ms)	1.050
'Laser Output Level	0.000
'X Position	0.000
'Y Position	0.000
'Z Position	0.000
'Grid Point Number	1.000
'Shot Number	100.000
183.907	160.000
183.977	-57.000
184.047	188
184.116	435
184.186	153
184.256	-731
184.325	-532
184.395	-299
184.465	509
184.534	4
184.604	90
184.674	-242
184.743	345
184.813	-13
184.883	-121
184.952	479
185.022	784
185.092	253
185.161	355
185.231	610
185.301	837
185.370	-10
185.440	272
185.509	-430
185.579	-140
185.649	25
185.718	-202
185.788	-25
185.857	-31
185.927	-686
185.996	512
186.066	-136
186.136	-585
186.205	39
186.275	115
186.344	-397
186.414	-89
186.483	374
186.553	929
186.622	1146
186.692	392
186.761	322
186.831	388
186.900	183
186.970	178
187.039	367
187.109	954
187.178	547
187.248	-16
187.317	-79
187.387	526
187.456	516
187.526	805
187.595	677
187.664	373
187.734	13
187.803	589
187.873	402
187.942	492
188.012	371
188.081	134
188.150	129
188.220	726
188.289	-309
188.358	388
188.428	-553
188.497	-230
188.567	301
188.636	445
188.705	-99
188.775	395
188.844	425
188.913	1007
188.983	178
189.052	134
189.121	593
189.191	413
189.260	1018
189.329	1360
189.399	-509
189.468	229
189.537	578
189.606	-112
189.676	79
189.745	851
189.814	479
189.883	209
189.953	1447
190.022	1065
190.091	2367
190.161	2928
190.230	443
190.299	958
190.368	-106
190.437	846
190.507	425
190.576	135
190.645	-70
190.714	659
190.783	310
190.853	965
190.922	540
190.991	387
191.060	516
191.129	433
191.198	374
191.268	793
191.337	87
191.406	908
191.475	370
191.544	-112
191.613	380
191.682	389
191.752	104
191.821	359
191.890	-410
191.959	127
192.028	-205
192.097	429
192.166	98
192.235	538
192.304	467
192.373	-229
192.442	243
192.511	515
192.580	-141
192.650	437
192.719	373
192.788	589
192.857	374
192.926	-18
192.995	1009
193.064	1641
193.133	1170
193.202	1527
193.271	996
193.340	1143
193.409	1475
193.478	2095
193.547	1680
193.615	2421
193.684	2401
193.753	1585
193.822	826
193.891	715
193.960	965
194.029	798
194.098	692
194.167	524
194.236	488
194.305	366
194.374	69
194.443	87
194.512	1116
194.580	1159
194.649	490
194.718	870
194.787	-183
194.856	221
194.925	820
194.994	1077
195.062	413
195.131	714
195.200	864
195.269	643
195.338	301
195.407	814
195.475	416
195.544	1546
195.613	577
195.682	983
195.751	1062
195.819	1150
195.888	437
195.957	1409
196.026	-294
196.094	374
196.163	337
196.232	910
196.301	824
196.369	1483
196.438	986
196.507	780
196.576	854
196.644	456
196.713	219
196.782	426
196.850	757
196.919	886
196.988	521
197.056	879
197.125	215
197.194	763
197.262	746
197.331	55
197.400	556
197.468	217
197.537	548
197.606	1547
197.674	1400
197.743	2616
197.812	1468
197.880	3210
197.949	1438
198.017	2948
198.086	1819
198.155	1696
198.223	1097
198.292	3732
198.360	1021
198.429	1011
198.497	381
198.566	2716
198.635	2479
198.703	1736
198.772	1181
198.840	4792
198.909	2849
198.977	1357
199.046	821
199.114	609
199.183	1453
199.251	62
199.320	655
199.388	1162
199.457	6
199.525	1564
199.594	839
199.662	840
199.731	731
199.799	875
199.867	581
199.936	1832
200.004	689
200.073	809
200.141	678
200.210	1545
200.278	1015
200.346	1007
200.415	1417
200.483	2044
200.552	701
200.620	1266
200.688	698
200.757	1263
200.825	238
200.893	1037
200.962	28
201.030	1091
201.098	-233
201.167	466
201.235	1141
201.303	498
201.372	1347
201.440	1173
201.508	696
201.577	880
201.645	1106
201.713	1088
201.781	874
201.850	1339
201.918	442
201.986	495
202.055	236
202.123	1807
202.191	1016
202.259	1080
202.327	310
202.396	853
202.464	841
202.532	829
202.600	4270
202.669	1770
202.737	304
202.805	771
202.873	953
202.941	1112
203.009	284
203.078	977
203.146	1373
203.214	510
203.282	338
203.350	805
203.418	158
203.487	1575
203.555	977
203.623	547
203.691	729
203.759	544
203.827	-59
203.895	1259
203.963	545
204.031	1101
204.099	761
204.168	1659
204.236	617
204.304	895
204.372	227
204.440	872
204.508	649
204.576	922
204.644	1393
204.712	936
204.780	753
204.848	1180
204.916	950
204.984	517
205.052	946
205.120	1379
205.188	478
205.256	581
205.324	890
205.392	1414
205.460	1183
205.528	1506
205.596	1244
205.664	1396
205.732	742
205.799	6518
205.867	5008
205.935	1015
206.003	1178
206.071	1439
206.139	933
206.207	767
206.275	1113
206.343	1201
206.411	1310
206.478	990
206.546	1010
206.614	1775
206.682	635
206.750	1443
206.818	2197
206.885	1732
206.953	896
207.021	1882
207.089	548
207.157	1083
207.225	1048
207.292	1538
207.360	1172
207.428	1171
207.496	346
207.563	1119
207.631	1138
207.699	1227
207.767	654
207.834	710
207.902	1751
207.970	1015
208.038	1087
208.105	749
208.173	1633
208.241	2013
208.309	1090
208.376	2031
208.444	2431
208.512	1085
208.579	868
208.647	2697
208.715	1744
208.782	1480
208.850	1041
208.918	1625
208.985	882
209.053	575
209.120	1009
209.188	1827
209.256	1727
209.323	2012
209.391	1894
209.459	2131
209.526	1469
209.594	1428
209.661	1158
209.729	1894
209.796	1403
209.864	2210
209.932	1116
209.999	1637
210.067	1413
210.134	1832
210.202	2055
210.269	3016
210.337	2022
210.404	979
210.472	788
210.539	2216
210.607	1610
210.674	2435
210.742	1194
210.809	2183
210.877	1359
210.944	2714
211.012	1113
211.079	2198
211.146	1091
211.214	1301
211.281	2009
211.349	1570
211.416	1716
211.484	2142
211.551	1655
211.618	1260
211.686	1414
211.753	1987
211.821	2180
211.888	1444
211.955	1868
212.023	1292
212.090	1383
212.157	2155
212.225	1900
212.292	5035
212.359	8924
212.427	17830
212.494	5926
212.561	3207
212.629	1501
212.696	3084
212.763	2333
212.831	1789
212.898	1989
212.965	1317
213.032	1705
213.100	2294
213.167	2324
213.234	1948
213.301	1938
213.369	2582
213.436	853
213.503	1432
213.570	2297
213.638	2465
213.705	304
213.772	2102
213.839	1947
213.906	2622
213.973	1747
214.041	1639
214.108	1333
214.175	1988
214.242	1856
214.309	1908
214.376	1971
214.444	2148
214.511	2368
214.578	1755
214.645	2299
214.712	2313
214.779	2534
214.846	2222
214.913	2149
214.980	3066
215.048	2891
215.115	2352
215.182	1870
215.249	2641
215.316	2110
215.383	2004
215.450	1953
215.517	1912
215.584	1623
215.651	2587
215.718	1705
215.785	3205
215.852	1781
215.919	2104
215.986	1454
216.053	1544
216.120	1313
216.187	2163
216.254	1237
216.321	1707
216.388	1522
216.455	2184
216.522	1939
216.589	2059
216.656	4144
216.722	4096
216.789	3204
216.856	3402
216.923	2824
216.990	3228
217.057	2979
217.124	2802
217.191	3465
217.258	4544
217.324	4606
217.391	4273
217.458	2645
217.525	3217
217.592	2639
217.659	2319
217.725	2701
217.792	4088
217.859	2203
217.926	2371
217.993	1328
218.059	1371
218.126	1288
218.193	1505
218.260	1103
218.327	1760
218.393	714
218.460	1878
218.527	1077
218.594	2944
218.660	3239
218.727	3731
218.794	1002
218.860	1404
218.927	1455
218.994	1235
219.061	1110
219.127	2076
219.194	3590
219.261	1505
219.327	804
219.394	1220
219.461	852
219.527	1698
219.594	2615
219.661	1023
219.727	796
219.794	2136
219.860	1303
219.927	2375
219.994	3305
220.060	5796
220.127	3455
220.193	2896
220.260	2392
220.326	5151
220.393	6624
220.460	7367
220.526	4792
220.593	4085
220.659	3809
220.726	4705
220.792	10308
220.859	7666
220.925	10799
220.992	13220
221.058	12909
221.125	11321
221.191	7982
221.258	4523
221.324	3224
221.391	2891
221.457	2113
221.524	2507
221.590	3528
221.657	12713
221.723	6446
221.789	8092
221.856	5562
221.922	3383
221.989	1665
222.055	2131
222.121	1908
222.188	3501
222.254	2327
222.321	2113
222.387	1366
222.453	1202
222.520	1227
222.586	1562
222.652	1780
222.719	1474
222.785	1149
222.851	1267
222.918	1258
222.984	1581
223.050	1383
223.116	1222
223.183	647
223.249	752
223.315	859
223.382	1455
223.448	1029
223.514	875
223.580	641
223.647	994
223.713	850
223.779	1789
223.845	1085
223.911	1447
223.978	34
224.044	1500
224.110	1270
224.176	645
224.242	863
224.309	1561
224.375	822
224.441	1472
224.507	694
224.573	682
224.639	1292
224.705	943
224.772	511
224.838	1106
224.904	1025
224.970	680
225.036	518
225.102	1299
225.168	751
225.234	2360
225.300	1621
225.366	757
225.432	1185
225.499	1621
225.565	1825
225.631	1577
225.697	1127
225.763	2189
225.829	2465
225.895	2593
225.961	4197
226.027	3102
226.093	2780
226.159	4595
226.225	6951
226.291	16224
226.357	19518
226.423	8317
226.489	5480
226.554	3826
226.620	3581
226.686	5132
226.752	6962
226.818	14386
226.884	30165
226.950	19716
227.016	6782
227.082	5260
227.148	3852
227.214	3312
227.279	2408
227.345	3078
227.411	3156
227.477	4719
227.543	9311
227.609	8344
227.674	3305
227.740	2164
227.806	2239
227.872	1662
227.938	2112
228.003	3086
228.069	1772
228.135	1336
228.201	1640
228.267	1941
228.332	2213
228.398	2510
228.464	1336
228.530	733
228.595	1248
228.661	1740
228.727	2284
228.792	2190
228.858	940
228.924	1761
228.990	2187
229.055	1392
229.121	2454
229.187	1673
229.252	1487
229.318	867
229.384	1172
229.449	1775
229.515	1124
229.581	-208
229.646	2572
229.712	1823
229.777	5165
229.843	3990
229.909	2823
229.974	3138
230.040	1770
230.105	2652
230.171	2061
230.236	3882
230.302	6040
230.368	3685
230.433	1743
230.499	2418
230.564	3221
230.630	2160
230.695	1519
230.761	1779
230.826	657
230.892	3306
230.957	1165
231.023	1816
231.088	1053
231.154	2449
231.219	1483
231.284	3138
231.350	2482
231.415	2237
231.481	1660
231.546	1683
231.612	1459
231.677	1068
231.742	1388
231.808	2110
231.873	1347
231.939	442
232.004	2772
232.069	2447
232.135	1903
232.200	742
232.265	1389
232.331	723
232.396	1342
232.461	1131
232.527	289
232.592	1268
232.657	1679
232.723	2763
232.788	1443
232.853	1182
232.918	986
232.984	1243
233.049	478
233.114	2654
233.179	1553
233.245	3979
233.310	2593
233.375	1676
233.440	1424
233.506	1254
233.571	1105
233.636	1052
233.701	414
233.766	3484
233.832	2436
233.897	1990
233.962	1542
234.027	1820
234.092	1172
234.157	1884
234.222	1211
234.288	4217
234.353	7983
234.418	6486
234.483	3928
234.548	3470
234.613	2182
234.678	1669
234.743	3843
234.808	8401
234.873	3843
234.938	2253
235.004	1825
235.069	2522
235.134	1074
235.199	1737
235.264	2024
235.329	2038
235.394	2224
235.459	2586
235.524	1864
235.589	2658
235.654	1967
235.719	1237
235.784	1845
235.849	2719
235.913	4077
235.978	4663
236.043	3582
236.108	2579
236.173	2103
236.238	3143
236.303	2318
236.368	2346
236.433	4344
236.498	5765
236.563	4351
236.627	12482
236.692	38004
236.757	21800
236.822	8905
236.887	6544
236.952	5692
237.017	4902
237.081	5359
237.146	8189
237.211	16305
237.276	42382
237.341	50760
237.405	18902
237.470	8337
237.535	6230
237.600	4318
237.664	3239
237.729	3011
237.794	5287
237.859	8277
237.923	5419
237.988	3439
238.053	4546
238.118	4283
238.182	15073
238.247	8429
238.312	4318
238.376	3236
238.441	2017
238.506	2021
238.570	1657
238.635	1527
238.700	2239
238.764	1995
238.829	6421
238.893	3895
238.958	3128
239.023	3154
239.087	2194
239.152	2327
239.216	1773
239.281	2108
239.346	1658
239.410	2256
239.475	2871
239.539	13514
239.604	6574
239.668	2989
239.733	3107
239.797	6433
239.862	15178
239.926	10819
239.991	2963
240.055	2310
240.120	2580
240.184	2086
240.249	1722
240.313	1256
240.378	2147
240.442	7901
240.507	9507
240.571	1973
240.635	6259
240.700	3954
240.764	2271
240.829	1803
240.893	963
240.957	1326
241.022	7164
241.086	9710
241.151	3015
241.215	925
241.279	3745
241.344	3914
241.408	2340
241.472	1274
241.537	2407
241.601	2255
241.665	1816
241.730	1844
241.794	2743
241.858	1993
241.922	2397
241.987	2046
242.051	2296
242.115	1969
242.179	2002
242.244	822
242.308	2539
242.372	2675
242.436	2983
242.501	1507
242.565	1535
242.629	1359
242.693	2089
242.757	977
242.822	1869
242.886	2057
242.950	2349
243.014	2629
243.078	2414
243.142	2399
243.206	2102
243.271	2601
243.335	3359
243.399	5819
243.463	32879
243.527	49862
243.591	12588
243.655	5564
243.719	4116
243.783	4755
243.847	8391
243.911	8398
243.975	7878
244.040	4112
244.104	3612
244.168	2478
244.232	4028
244.296	6918
244.360	7338
244.424	2204
244.488	2541
244.552	2586
244.615	1843
244.679	2027
244.743	3284
244.807	1557
244.871	1886
244.935	1219
244.999	357
245.063	1569
245.127	3208
245.191	7041
245.255	4407
245.319	3578
245.383	2053
245.446	2419
245.510	1960
245.574	1820
245.638	2558
245.702	2950
245.766	5828
245.829	3156
245.893	2879
245.957	1954
246.021	2315
246.085	2534
246.149	4108
246.212	9540
246.276	11519
246.340	3987
246.404	2652
246.467	4861
246.531	5417
246.595	3806
246.659	3138
246.722	2534
246.786	3534
246.850	5058
246.913	4752
246.977	2083
247.041	2553
247.104	2490
247.168	2710
247.232	10198
247.295	17875
247.359	6334
247.423	4569
247.486	6019
247.550	3458
247.614	3577
247.677	4123
247.741	2029
247.804	2932
247.868	4126
247.932	9882
247.995	13710
248.059	3897
248.122	2399
248.186	4954
248.249	8574
248.313	32532
248.376	23285
248.440	14773
248.503	5238
248.567	5523
248.630	7351
248.694	8765
248.757	15168
248.821	27721
248.884	12114
248.948	17872
249.011	22910
249.075	36414
249.138	23169
249.202	8771
249.265	6483
249.328	7671
249.392	5882
249.455	5113
249.519	3731
249.582	6268
249.645	9693
249.709	6849
249.772	5723
249.835	4951
249.899	5066
249.962	4800
250.025	4280
250.089	13931
250.152	12389
250.215	6258
250.279	5107
250.342	6194
250.405	5665
250.468	5330
250.532	6933
250.595	15915
250.658	68331
250.721	67492
250.785	20493
250.848	13118
250.911	8624
250.974	7832
251.038	12662
251.101	17898
251.164	9259
251.227	9380
251.290	10153
251.354	22839
251.417	83643
251.480	55589
251.543	60295
251.606	135788
251.669	73380
251.732	30941
251.795	31601
251.859	39999
251.922	81329
251.985	34156
252.048	14901
252.111	11201
252.174	10126
252.237	20335
252.300	36154
252.363	58339
252.426	92180
252.489	30700
252.552	15925
252.615	12108
252.678	14075
252.741	32294
252.804	58611
252.867	97324
252.930	44094
252.993	22525
253.056	14143
253.119	11446
253.182	10057
253.245	18961
253.308	9608
253.371	7693
253.434	7570
253.497	8786
253.559	16650
253.622	9586
253.685	11673
253.748	8791
253.811	5481
253.874	7750
253.937	5192
254.000	6064
254.062	13163
254.125	15245
254.188	15443
254.251	9443
254.314	5830
254.376	11090
254.439	9095
254.502	8066
254.565	13116
254.628	16640
254.690	7212
254.753	4470
254.816	4645
254.878	5000
254.941	14009
255.004	10106
255.067	3979
255.129	3441
255.192	2379
255.255	2743
255.317	3565
255.380	2015
255.443	2301
255.505	1623
255.568	1927
255.631	2496
255.693	2649
255.756	1427
255.819	3002
255.881	2058
255.944	1738
256.006	2551
256.069	1768
256.132	2774
256.194	4071
256.257	7756
256.319	5357
256.382	5189
256.444	3205
256.507	2558
256.569	2577
256.632	3312
256.694	5668
256.757	26796
256.819	50396
256.882	15348
256.944	6374
257.007	5979
257.069	4242
257.132	4668
257.194	3558
257.257	3719
257.319	3983
257.381	4109
257.444	18178
257.506	74760
257.569	55856
257.631	31184
257.693	13591
257.756	7146
257.818	5943
257.880	3705
257.943	4144
258.005	3507
258.067	2884
258.130	2603
258.192	3668
258.254	6772
258.317	3288
258.379	4113
258.441	12118
258.503	8902
258.566	15059
258.628	11127
258.690	3257
258.753	4921
258.815	5721
258.877	3249
258.939	3165
259.001	3344
259.064	2823
259.126	3910
259.188	3861
259.250	3710
259.312	7944
259.375	21578
259.437	7453
259.499	3737
259.561	3685
259.623	3572
259.685	2747
259.747	3003
259.809	15008
259.872	18590
259.934	37258
259.996	20295
260.058	6037
260.120	3554
260.182	2528
260.244	2710
260.306	2318
260.368	2055
260.430	2876
260.492	8393
260.554	17935
260.616	10465
260.678	19760
260.740	15621
260.802	3453
260.864	4203
260.926	2893
260.988	3463
261.050	3722
261.112	11470
261.174	25430
261.236	11581
261.298	4215
261.359	10877
261.421	9371
261.483	3148
261.545	3587
261.607	1593
261.669	2994
261.731	6529
261.793	10864
261.854	4129
261.916	3878
261.978	4249
262.040	3861
262.102	2740
262.164	4576
262.225	2967
262.287	2826
262.349	7276
262.411	4119
262.472	2591
262.534	6875
262.596	9013
262.658	2907
262.719	1995
262.781	4078
262.843	9825
262.904	3500
262.966	3544
263.028	6374
263.090	47698
263.151	69963
263.213	18451
263.275	9275
263.336	4855
263.398	3802
263.459	2564
263.521	3127
263.583	7244
263.644	3130
263.706	1658
263.767	1204
263.829	2411
263.891	745
263.952	1106
264.014	938
264.075	6134
264.137	8463
264.198	3878
264.260	941
264.321	2350
264.383	8169
264.444	14126
264.506	3361
264.567	2375
264.629	9155
264.690	11374
264.752	3509
264.813	2341
264.875	2178
264.936	2562
264.998	1968
265.059	2117
265.120	2072
265.182	6393
265.243	33011
265.305	17774
265.366	4059
265.427	3257
265.489	2769
265.550	2080
265.611	2101
265.673	2055
265.734	1807
265.795	1517
265.857	1161
265.918	2596
265.979	10535
266.040	54605
266.102	24284
266.163	7926
266.224	5224
266.286	3923
266.347	2005
266.408	2791
266.469	1394
266.530	2079
266.592	1202
266.653	4674
266.714	4720
266.775	1902
266.836	1313
266.898	1915
266.959	3484
267.020	1628
267.081	1899
267.142	1698
267.203	1380
267.264	1481
267.326	2244
267.387	2260
267.448	1244
267.509	1679
267.570	1553
267.631	1171
267.692	841
267.753	2061
267.814	789
267.875	6148
267.936	7741
267.997	5384
268.058	3553
268.119	2112
268.180	2183
268.241	809
268.302	1190
268.363	1695
268.424	1216
268.485	2354
268.546	1358
268.607	1294
268.668	432
268.729	1020
268.790	129
268.851	2285
268.912	5839
268.972	5117
269.033	1432
269.094	580
269.155	1218
269.216	1069
269.277	1120
269.338	1627
269.398	2023
269.459	1277
269.520	2563
269.581	3088
269.642	2988
269.702	1824
269.763	1593
269.824	1900
269.885	2983
269.945	2666
270.006	1832
270.067	1730
270.128	1439
270.188	1547
270.249	1403
270.310	6
270.370	1437
270.431	843
270.492	479
270.553	1435
270.613	4458
270.674	8073
270.734	2466
270.795	1755
270.856	3366
270.916	1441
270.977	1673
271.038	2187
271.098	983
271.159	4176
271.219	2469
271.280	1531
271.340	836
271.401	2589
271.462	4943
271.522	2417
271.583	1943
271.643	2491
271.704	1320
271.764	2248
271.825	7717
271.885	30414
271.946	24565
272.006	7866
272.066	19487
272.127	22489
272.187	6827
272.248	4305
272.308	5954
272.369	22703
272.429	6940
272.489	6645
272.550	5046
272.610	5888
272.671	2598
272.731	5684
272.791	5982
272.852	3059
272.912	3114
272.972	2714
273.033	1929
273.093	3309
273.153	3586
273.214	2928
273.274	3835
273.334	20249
273.394	22299
273.455	6566
273.515	11749
273.575	20248
273.635	6823
273.696	15450
273.756	23725
273.816	7295
273.876	4917
273.936	15798
273.997	16261
274.057	3324
274.117	4188
274.177	8513
274.237	36150
274.297	20456
274.358	14284
274.418	22613
274.478	11164
274.538	3603
274.598	4910
274.658	17303
274.718	15563
274.778	5975
274.838	4254
274.898	13073
274.958	26157
275.018	27427
275.078	11189
275.138	4876
275.198	3265
275.258	2493
275.318	2972
275.378	5477
275.438	5280
275.498	4520
275.558	17692
275.618	26448
275.678	12449
275.738	9575
275.798	6700
275.858	3933
275.918	1671
275.978	3141
276.038	2432
276.098	2065
276.157	5931
276.217	12390
276.277	4212
276.337	3131
276.397	2296
276.457	3885
276.517	2006
276.576	2200
276.636	1060
276.696	3528
276.756	8459
276.815	4206
276.875	2697
276.935	2868
276.995	1879
277.055	1883
277.114	2526
277.174	5048
277.234	10966
277.293	3141
277.353	1803
277.413	2438
277.472	2392
277.532	2348
277.592	3569
277.651	19034
277.711	18932
277.771	8313
277.830	31425
277.890	15094
277.950	26029
278.009	52006
278.069	13157
278.128	21418
278.188	19465
278.248	11227
278.307	29741
278.367	11174
278.426	3804
278.486	2839
278.545	3347
278.605	3185
278.664	2499
278.724	3894
278.783	16201
278.843	25737
278.902	5865
278.962	5256
279.021	4218
279.081	6228
279.140	5293
279.199	4776
279.259	4962
279.318	4805
279.378	8249
279.437	21077
279.496	75565
279.556	173654
279.615	80797
279.675	22663
279.734	15825
279.793	33146
279.853	45679
279.912	14161
279.971	9334
280.031	8695
280.090	28036
280.149	32274
280.208	27669
280.268	130161
280.327	73647
280.386	18523
280.445	15511
280.505	11036
280.564	7558
280.623	6696
280.682	10245
280.742	9753
280.801	3558
280.860	3289
280.919	3460
280.978	2644
281.037	1933
281.097	2343
281.156	3022
281.215	3100
281.274	4912
281.333	21972
281.392	9033
281.451	2772
281.510	2144
281.569	2453
281.628	1751
281.688	2494
281.747	3306
281.806	3015
281.865	1633
281.924	1867
281.983	1973
282.042	1435
282.101	1310
282.160	2128
282.219	1805
282.278	2974
282.337	8920
282.396	3817
282.454	3098
282.513	4453
282.572	12153
282.631	5128
282.690	2609
282.749	1850
282.808	2652
282.867	2640
282.926	2417
282.985	1694
283.043	1503
283.102	2210
283.161	2685
283.220	10463
283.279	13698
283.338	3864
283.396	1899
283.455	2875
283.514	2884
283.573	4066
283.631	2418
283.690	2132
283.749	1682
283.808	5963
283.866	4634
283.925	2536
283.984	2762
284.043	2893
284.101	3406
284.160	3213
284.219	4361
284.277	3254
284.336	6719
284.395	19997
284.453	10403
284.512	4932
284.570	6632
284.629	5015
284.688	4916
284.746	5317
284.805	5866
284.863	8467
284.922	9785
284.981	12050
285.039	17482
285.098	38257
285.156	109600
285.215	227606
285.273	178369
285.332	78545
285.390	40030
285.449	25659
285.507	18012
285.566	14148
285.624	9684
285.683	8088
285.741	5967
285.799	5071
285.858	4987
285.916	4488
285.975	2532
286.033	3081
286.091	2577
286.150	2853
286.208	3292
286.267	3896
286.325	2773
286.383	4814
286.442	3224
286.500	2972
286.558	1460
286.616	1759
286.675	3608
286.733	3134
286.791	1993
286.850	3516
286.908	4763
286.966	6656
287.024	2351
287.083	2367
287.141	1991
287.199	2443
287.257	3009
287.315	2770
287.374	3603
287.432	7345
287.490	3969
287.548	3939
287.606	2112
287.664	3616
287.723	5280
287.781	5607
287.839	3448
287.897	5097
287.955	7156
288.013	13030
288.071	34264
288.129	151490
288.187	261783
288.245	92977
288.303	33699
288.361	20698
288.419	16135
288.477	11818
288.535	7572
288.593	6709
288.651	5006
288.709	3054
288.767	2943
288.825	3000
288.883	2181
288.941	2923
288.999	1291
289.057	2525
289.115	3160
289.173	1803
289.231	2593
289.289	1608
289.346	1687
289.404	3000
289.462	3681
289.520	3785
289.578	1745
289.636	1849
289.694	1454
289.751	1839
289.809	2452
289.867	2608
289.925	2508
289.983	2668
290.040	2070
290.098	1892
290.156	2083
290.214	2802
290.271	1333
290.329	1856
290.387	1109
290.444	1710
290.502	98
290.560	1376
290.617	1288
290.675	1433
290.733	1577
290.790	1958
290.848	403
290.906	1172
290.963	1637
291.021	1140
291.078	2267
291.136	2894
291.194	12399
291.251	17476
291.309	4124
291.366	2266
291.424	1989
291.481	2328
291.539	1917
291.596	1931
291.654	961
291.711	943
291.769	1288
291.826	4401
291.884	1788
291.941	1403
291.999	1025
292.056	2140
292.114	1292
292.171	1677
292.228	2553
292.286	2877
292.343	3811
292.401	4017
292.458	2059
292.515	1857
292.573	3456
292.630	3131
292.687	2589
292.745	3074
292.802	4739
292.859	14714
292.917	17413
292.974	7126
293.031	2971
293.089	2804
293.146	1917
293.203	1683
293.260	2956
293.318	5426
293.375	5979
293.432	3618
293.489	1873
293.546	2179
293.604	4544
293.661	18150
293.718	31882
293.775	13702
293.832	5985
293.889	6266
293.947	8352
294.004	4952
294.061	5292
294.118	10703
294.175	21885
294.232	26869
294.289	9689
294.346	5719
294.403	3791
294.460	3578
294.517	3228
294.574	2899
294.631	2198
294.688	4836
294.745	14435
294.802	46266
294.859	39616
294.916	18407
294.973	9667
295.030	6088
295.087	4733
295.144	3796
295.201	4136
295.258	3183
295.315	5196
295.372	19553
295.429	23789
295.486	9601
295.542	8296
295.599	26606
295.656	32766
295.713	24829
295.770	22485
295.827	8562
295.883	5734
295.940	5438
295.997	7518
296.054	5838
296.111	3298
296.167	3242
296.224	2629
296.281	2422
296.338	2204
296.394	2519
296.451	4366
296.508	14914
296.564	19012
296.621	15755
296.678	36692
296.734	36483
296.791	13427
296.848	7655
296.904	9193
296.961	16683
297.018	30391
297.074	18440
297.131	8833
297.187	5717
297.244	10628
297.301	41820
297.357	48302
297.414	15152
297.470	7507
297.527	5462
297.583	4450
297.640	5292
297.696	3022
297.753	2376
297.809	3269
297.866	2315
297.922	2250
297.979	2227
298.035	3650
298.092	6047
298.148	17592
298.204	12848
298.261	7570
298.317	19551
298.374	38730
298.430	17390
298.486	8392
298.543	6055
298.599	6041
298.656	7414
298.712	15315
298.768	37880
298.824	20706
298.881	7759
298.937	4626
298.993	4552
299.050	4689
299.106	4721
299.162	3470
299.218	3722
299.275	3315
299.331	5319
299.387	11625
299.443	38578
299.500	33127
299.556	14679
299.612	6636
299.668	7582
299.724	14155
299.780	13103
299.837	7441
299.893	10528
299.949	31638
300.005	30123
300.061	35334
300.117	50392
300.173	19916
300.229	8980
300.285	9442
300.341	9871
300.397	5632
300.453	4925
300.510	4376
300.566	4697
300.622	9137
300.678	32219
300.734	36148
300.790	30806
300.845	32246
300.901	24641
300.957	30804
301.013	17501
301.069	8707
301.125	7331
301.181	5921
301.237	4254
301.293	3624
301.349	3666
301.405	3541
301.461	4098
301.516	3798
301.572	4355
301.628	6146
301.684	6365
301.740	12225
301.796	14183
301.851	10302
301.907	16153
301.963	18703
302.019	43201
302.074	96315
302.130	74809
302.186	29674
302.242	13371
302.297	9470
302.353	10549
302.409	17420
302.464	14395
302.520	14429
302.576	34055
302.631	31385
302.687	15558
302.743	6980
302.798	5524
302.854	3660
302.910	4763
302.965	6702
303.021	9387
303.076	7911
303.132	10672
303.187	10742
303.243	6391
303.299	3328
303.354	2980
303.410	3771
303.465	3942
303.521	3015
303.576	4017
303.632	5025
303.687	13491
303.743	31838
303.798	20399
303.853	9254
303.909	5025
303.964	4363
304.020	7273
304.075	8944
304.130	9395
304.186	13420
304.241	13539
304.297	10944
304.352	6442
304.358	6302
304.407	5166
304.449	5329
304.463	5384
304.518	4656
304.539	4869
304.573	5217
304.629	5831
304.630	5927
304.684	10431
304.720	21917
304.739	27847
304.794	32066
304.811	27048
304.850	14537
304.902	7675
304.905	7261
304.960	5693
304.992	6019
305.015	6266
305.071	4584
305.083	4464
305.126	4025
305.173	3253
305.181	3127
305.236	2892
305.264	3129
305.292	3429
305.347	3628
305.354	3661
305.402	3830
305.445	5145
305.457	5542
305.512	6062
305.535	6133
305.567	6048
305.622	6530
305.626	6832
305.678	13413
305.716	27932
305.733	33726
305.788	31970
305.807	29389
305.843	23928
305.897	33003
305.898	33129
305.953	28196
305.988	20077
306.008	15009
306.063	7915
306.078	7075
306.118	5943
306.168	4165
306.173	4024
306.228	4359
306.259	4232
306.283	4091
306.338	3824
306.349	3868
306.393	4271
306.440	5431
306.448	5589
306.503	5468
306.530	6424
306.558	8331
306.613	18332
306.620	19309
306.668	25528
306.711	29849
306.723	30219
306.778	21139
306.801	16898
306.833	11146
306.888	5970
306.892	5763
306.943	4915
306.982	4687
306.997	4652
307.052	5298
307.072	5344
307.107	5681
307.162	7813
307.163	7863
307.217	12972
307.253	15759
307.272	16559
307.327	17315
307.343	15818
307.381	11914
307.434	10376
307.436	10523
307.491	19311
307.524	27055
307.546	30481
307.600	27443
307.614	25101
307.655	15116
307.704	9028
307.710	8842
307.765	10121
307.795	12944
307.819	16796
307.874	28924
307.885	28772
307.929	21988
307.975	16281
307.984	16118
308.038	19326
308.065	24441
308.093	38258
308.148	82348
308.156	93202
308.202	173225
308.246	208774
308.257	199433
308.312	107195
308.336	73953
308.366	54767
308.421	31755
308.426	29927
308.475	20146
308.517	14298
308.530	13355
308.585	11056
308.607	10868
308.639	11272
308.694	11408
308.697	11673
308.748	21150
308.787	31544
308.803	33224
308.857	27041
308.877	24118
308.912	18964
308.967	15768
308.967	15746
309.021	19485
309.058	24069
309.076	29422
309.130	50600
309.148	60938
309.185	112016
309.238	207372
309.239	208815
309.293	261756
309.328	259130
309.348	219445
309.402	106524
309.418	78383
309.457	53663
309.508	30198
309.511	29620
309.566	24477
309.598	22603
309.620	24540
309.674	31017
309.688	32737
309.729	33113
309.778	30167
309.783	29443
309.837	21376
309.868	17481
309.892	17900
309.946	21455
309.959	22866
310.001	32631
310.049	41172
310.055	39949
310.109	25383
310.139	17310
310.163	13687
310.218	7727
310.229	6721
310.272	5839
310.319	5178
310.326	5167
310.381	5617
310.409	5714
310.435	5372
310.489	4758
310.499	4675
310.543	5133
310.589	5682
310.598	5702
310.652	5886
310.679	5856
310.706	5243
310.760	3978
310.769	3800
310.814	3588
310.859	3311
310.868	3218
310.923	3132
310.948	3016
310.977	3193
311.031	3740
311.038	3795
311.085	4030
311.128	4323
311.139	4293
311.193	4091
311.218	4086
311.247	3993
311.301	3446
311.308	3419
311.356	3531
311.398	3651
311.410	3639
311.464	3475
311.488	3438
311.518	3330
311.572	3104
311.578	3096
311.626	3541
311.668	3917
311.680	4097
311.734	4998
311.758	5402
311.788	5415
311.842	5373
311.847	5384
311.896	6078
311.937	6802
311.950	6952
312.004	7637
312.027	7908
312.058	6396
312.112	3792
312.117	3549
312.165	3496
312.207	3490
312.297	5301
312.386	5249
312.476	3122
312.566	7010
312.656	3959
312.745	2705
312.835	3806
312.925	4291
313.015	3966
313.104	4959
313.194	3938
313.284	2945
313.374	3545
313.463	4084
313.553	3712
313.643	3693
313.732	3373
313.822	3656
313.912	3976
314.001	4284
314.091	4389
314.180	7291
314.270	5500
314.360	5644
314.449	5189
314.539	3583
314.628	2727
314.718	4789
314.808	6287
314.897	4550
314.987	4838
315.076	4357
315.166	5892
315.255	6425
315.345	5861
315.434	6214
315.524	4648
315.613	6758
315.703	8308
315.792	16750
315.881	66956
315.971	38661
316.060	11698
316.150	15369
316.239	17231
316.328	8361
316.418	4199
316.507	4377
316.597	5258
316.686	5666
316.775	6263
316.865	18209
316.954	6424
317.043	3724
317.133	3067
317.222	3535
317.311	3837
317.400	3156
317.490	5972
317.579	6983
317.668	5513
317.757	10152
317.847	26457
317.936	118371
318.025	57977
318.114	23845
318.203	15789
318.293	7151
318.382	8459
318.471	10030
318.560	13092
318.649	37621
318.738	13927
318.828	5313
318.917	5713
319.006	7287
319.095	18175
319.184	42625
319.273	30876
319.362	12909
319.451	5324
319.540	4554
319.629	6822
319.718	15374
319.807	7477
319.896	13504
319.985	53582
320.074	29936
320.163	6379
320.252	10642
320.341	8301
320.430	7991
320.519	6446
320.608	6342
320.697	4582
320.786	4763
320.875	5751
320.964	7540
321.053	10465
321.142	13638
321.230	17704
321.319	13924
321.408	25434
321.497	16024
321.586	12202
321.675	15314
321.764	16810
321.852	10872
321.941	13405
322.030	12651
322.119	11570
322.207	25860
322.296	27560
322.385	15232
322.474	14455
322.562	29371
322.651	24402
322.740	13659
322.829	23766
322.917	22458
323.006	14801
323.095	11143
323.183	8825
323.272	11051
323.361	19077
323.449	64332
323.538	31897
323.626	39972
323.715	41343
323.804	11262
323.892	35624
323.981	28807
324.069	8901
324.158	18447
324.246	28190
324.335	7130
324.424	10290
324.512	5045
324.601	4735
324.689	5834
324.778	8196
324.866	17434
324.954	6703
325.043	3797
325.131	8704
325.220	17122
325.308	22317
325.397	13909
325.485	11905
325.574	4173
325.662	4436
325.750	3633
325.839	3465
325.927	2902
326.015	4482
326.104	5629
326.192	12658
326.280	3029
326.369	2706
326.457	4367
326.545	7362
326.634	4470
326.722	1956
326.810	2761
326.898	2936
326.987	2817
327.075	6579
327.163	9095
327.251	5959
327.340	4533
327.428	4418
327.516	3626
327.604	2982
327.692	3180
327.781	4127
327.869	7550
327.957	5134
328.045	4636
328.133	2929
328.221	3795
328.309	3480
328.397	3475
328.485	3962
328.574	4632
328.662	14628
328.750	12849
328.838	5235
328.926	3501
329.014	2875
329.102	4773
329.190	9849
329.278	8548
329.366	2494
329.454	2325
329.542	2336
329.630	2144
329.718	3020
329.806	3240
329.893	4235
329.981	5847
330.069	8726
330.157	29571
330.245	105969
330.333	74146
330.421	12626
330.509	6702
330.597	16538
330.684	16697
330.772	5882
330.860	8133
330.948	10721
331.036	6604
331.123	2293
331.211	2421
331.299	4524
331.387	7406
331.475	16691
331.562	6666
331.650	3224
331.738	3268
331.825	5164
331.913	3151
332.001	2985
332.089	3942
332.176	8769
332.264	18088
332.352	20366
332.439	6393
332.527	3237
332.614	3321
332.702	5089
332.790	3145
332.877	6847
332.965	20918
333.052	7613
333.140	4872
333.228	13337
333.315	5497
333.403	4035
333.490	10838
333.578	12765
333.665	12951
333.753	9515
333.840	4365
333.928	4284
334.015	12112
334.103	19429
334.190	62405
334.278	26695
334.365	9326
334.452	9368
334.540	6681
334.627	7083
334.715	10118
334.802	15915
334.889	69355
334.977	108375
335.064	20499
335.151	7986
335.239	6994
335.326	7722
335.413	24259
335.501	50341
335.588	9320
335.675	6280
335.762	7470
335.850	12352
335.937	12319
336.024	22735
336.111	84417
336.199	58200
336.286	14683
336.373	7530
336.460	4626
336.547	3554
336.635	5132
336.722	5185
336.809	3994
336.896	5090
336.983	13714
337.070	39242
337.157	66697
337.245	50036
337.332	48529
337.419	6650
337.506	4794
337.593	4542
337.680	10415
337.767	40857
337.854	15203
337.941	13204
338.028	16855
338.115	8390
338.202	6356
338.289	11968
338.376	48052
338.463	21748
338.550	19154
338.637	30864
338.724	9140
338.811	17535
338.898	4669
338.984	2897
339.071	3427
339.158	4189
339.245	9565
339.332	7860
339.419	7928
339.506	12456
339.593	2607
339.679	2324
339.766	1911
339.853	2700
339.940	6400
340.027	3564
340.113	2194
340.200	3546
340.287	3064
340.374	3215
340.460	5844
340.547	2645
340.634	3786
340.720	14012
340.807	14493
340.894	2066
340.980	2934
341.067	2265
341.154	2814
341.240	2534
341.327	7857
341.414	2310
341.500	1801
341.587	1869
341.674	2009
341.760	4890
341.847	7048
341.933	3154
342.020	1848
342.106	2005
342.193	2318
342.279	4908
342.366	3040
342.452	5390
342.539	3323
342.625	5309
342.712	17496
342.798	9355
342.885	3966
342.971	1711
343.058	1026
343.144	1725
343.230	1676
343.317	1733
343.403	1971
343.490	1413
343.576	1253
343.662	1890
343.749	2649
343.835	4306
343.921	6542
344.008	31714
344.094	119296
344.180	35939
344.267	7491
344.353	18621
344.439	33471
344.525	10824
344.612	4662
344.698	2813
344.784	3483
344.870	1692
344.957	1715
345.043	2898
345.129	2665
345.215	4732
345.301	2922
345.387	974
345.474	1074
345.560	1568
345.646	2672
345.732	2236
345.818	1550
345.904	2042
345.990	3242
346.076	3586
346.162	6237
346.249	2788
346.335	2040
346.421	2510
346.507	8149
346.593	37553
346.679	14655
346.765	2987
346.851	2960
346.937	2888
347.023	2651
347.108	3006
347.194	2728
347.280	1932
347.366	2930
347.452	8873
347.538	46178
347.624	35771
347.710	29554
347.796	6227
347.882	2480
347.967	2579
348.053	3743
348.139	3681
348.225	2094
348.311	2622
348.397	1805
348.482	2578
348.568	3441
348.654	2143
348.740	5033
348.825	7234
348.911	5816
348.997	15429
349.083	51184
349.168	11152
349.254	2682
349.340	3048
349.425	1728
349.511	2030
349.597	3889
349.682	5084
349.768	20035
349.854	14068
349.939	2772
350.025	1990
350.110	1675
350.196	1476
350.282	1152
350.367	1183
350.453	3895
350.538	5149
350.624	2313
350.709	2744
350.795	1589
350.880	2217
350.966	2178
351.051	3329
351.137	4115
351.222	2491
351.308	4496
351.393	17003
351.479	6177
351.564	1053
351.649	1451
351.735	1320
351.820	1074
351.906	1814
351.991	3341
352.076	8127
352.162	19264
352.247	4497
352.332	2701
352.418	2932
352.503	4612
352.588	18516
352.673	24374
352.759	5197
352.844	2948
352.929	1819
353.014	3916
353.100	3308
353.185	9309
353.270	10739
353.355	7590
353.441	2722
353.526	2766
353.611	5018
353.696	7673
353.781	4154
353.866	2093
353.952	2154
354.037	4300
354.122	11657
354.207	12304
354.292	6011
354.377	2149
354.462	1836
354.547	2668
354.632	3398
354.717	6788
354.802	14858
354.887	6955
354.972	2427
355.057	1388
355.142	1508
355.227	1340
355.312	3766
355.397	8119
355.482	18131
355.567	13373
355.652	7317
355.737	7973
355.822	20292
355.907	28734
355.991	3867
356.076	2286
356.161	2300
356.246	1742
356.331	2825
356.416	5149
356.501	38328
356.585	70492
356.670	10639
356.755	4921
356.840	6290
356.924	27724
357.009	128244
357.094	69687
357.179	9059
357.263	7649
357.348	5148
357.433	6019
357.517	4633
357.602	5000
357.687	4348
357.771	6159
357.856	11925
357.941	9430
358.025	16781
358.110	112849
358.195	83410
358.279	9489
358.364	5311
358.448	12495
358.533	42077
358.617	37773
358.702	34533
358.787	16587
358.871	5542
358.956	5841
359.040	2508
359.125	1999
359.209	1328
359.294	3542
359.378	9139
359.462	6868
359.547	3996
359.631	3508
359.716	1762
359.800	1950
359.885	4701
359.969	2834
360.053	2463
360.138	3220
360.222	3511
360.306	6735
360.391	6341
360.475	5920
360.559	16247
360.644	16012
360.728	17388
360.812	18404
360.896	82362
360.981	38463
361.065	17914
361.149	3800
361.233	3687
361.318	4552
361.402	4429
361.486	4063
361.570	1759
361.654	3962
361.739	7254
361.823	34508
361.907	95118
361.991	21591
362.075	6876
362.159	14274
362.243	14098
362.327	16983
362.411	26367
362.495	14571
362.580	6673
362.664	4811
362.748	5847
362.832	7957
362.916	13803
363.000	37256
363.084	86929
363.168	123520
363.252	37430
363.336	10356
363.420	10132
363.503	31057
363.587	58880
363.671	12329
363.755	6163
363.839	8177
363.923	5735
364.007	8358
364.091	13624
364.175	16243
364.258	69760
364.342	78513
364.426	98261
364.510	67360
364.594	22411
364.677	15364
364.761	58585
364.845	67989
364.929	13949
365.013	10979
365.096	7997
365.180	11485
365.264	11929
365.347	63709
365.431	40479
365.515	8335
365.598	3209
365.682	3595
365.766	4927
365.849	8947
365.933	3578
366.017	5716
366.100	4923
366.184	2437
366.267	3231
366.351	1724
366.435	2251
366.518	2205
366.602	1186
366.685	2224
366.769	2322
366.852	4638
366.936	9333
367.019	5834
367.103	4007
367.186	8962
367.270	4673
367.353	462
367.436	2503
367.520	2042
367.603	2213
367.687	4274
367.770	7608
367.853	5851
367.937	10443
368.020	31797
368.104	8994
368.187	4221
368.270	7251
368.353	6376
368.437	9097
368.520	31577
368.603	21990
368.687	13438
368.770	38512
368.853	12498
368.936	7460
369.020	9509
369.103	4190
369.186	1403
369.269	1714
369.352	4603
369.436	7768
369.519	5171
369.602	2293
369.685	2586
369.768	3174
369.851	3447
369.934	1316
370.018	2424
370.101	5697
370.184	6244
370.267	3673
370.350	4506
370.433	8151
370.516	24851
370.599	63638
370.682	27192
370.765	15953
370.848	18807
370.931	45185
371.014	26631
371.097	4582
371.180	3001
371.263	1680
371.346	1187
371.429	2201
371.511	2508
371.594	3628
371.677	6820
371.760	9471
371.843	6190
371.926	26685
372.009	105444
372.091	42274
372.174	13777
372.257	46586
372.340	26662
372.423	10201
372.505	16725
372.588	7281
372.671	8537
372.754	39626
372.836	31286
372.919	13590
373.002	39318
373.085	14514
373.167	6741
373.250	13577
373.332	41294
373.415	49712
373.498	143497
373.580	69030
373.663	65726
373.746	139904
373.828	33093
373.911	9817
373.993	8140
374.076	28345
374.159	41492
374.241	13203
374.324	30915
374.406	30712
374.489	24264
374.571	109312
374.654	62803
374.736	16098
374.819	59074
374.901	88651
374.983	126767
375.066	28318
375.148	7514
375.231	20650
375.313	60902
375.395	25791
375.478	6540
375.560	4162
375.643	4689
375.725	12302
375.807	75694
375.890	88649
375.972	37401
376.054	14376
376.136	27808
376.219	15153
376.301	13493
376.383	70406
376.465	39629
376.548	13103
376.630	14670
376.712	50697
376.794	38891
376.877	4439
376.959	1935
377.041	2790
377.123	5466
377.205	9910
377.287	4108
377.369	2009
377.452	3442
377.534	1927
377.616	1604
377.698	1541
377.780	2317
377.862	2301
377.944	2525
378.026	1335
378.108	1579
378.190	2091
378.272	2214
378.354	799
378.436	784
378.518	3169
378.600	12762
378.682	12078
378.764	18894
378.846	23766
378.928	6203
379.010	6396
379.091	5088
379.173	2688
379.255	1766
379.337	2796
379.419	6991
379.501	32154
379.583	20904
379.664	3736
379.746	6996
379.828	18629
379.910	29252
379.991	33149
380.073	7213
380.155	3955
380.237	3387
380.318	2638
380.400	2317
380.482	4191
380.564	9267
380.645	11353
380.727	12943
380.809	5277
380.890	3106
380.972	3620
381.053	3784
381.135	2939
381.217	5371
381.298	22109
381.380	16264
381.461	8806
381.543	40688
381.624	86752
381.706	20306
381.787	6828
381.869	7266
381.951	14708
382.032	95290
382.113	89498
382.195	16458
382.276	9621
382.358	16323
382.439	48789
382.521	54220
382.602	105025
382.684	53579
382.765	59906
382.846	79095
382.928	99618
383.009	75013
383.090	36690
383.172	116269
383.253	258796
383.334	104117
383.416	85955
383.497	63784
383.578	21975
383.659	32286
383.741	98161
383.822	342914
383.903	248293
383.984	61790
384.066	87998
384.147	72867
384.228	18494
384.309	10521
384.390	10395
384.471	7584
384.553	6441
384.634	8662
384.715	9036
384.796	6455
384.877	6272
384.958	16995
385.039	30614
385.120	13737
385.201	6259
385.282	7802
385.363	8467
385.444	7807
385.525	8654
385.606	31207
385.687	45398
385.768	11609
385.849	9761
385.930	30212
386.011	92613
386.092	36327
386.173	8211
386.254	5554
386.335	5351
386.416	5625
386.496	10395
386.577	25586
386.658	13443
386.739	7467
386.820	8012
386.901	7801
386.981	7331
387.062	6158
387.143	6773
387.224	20332
387.304	27131
387.385	10940
387.466	7848
387.547	9337
387.627	6415
387.708	9262
387.789	32501
387.869	62514
387.950	25134
388.031	5871
388.111	4463
388.192	10802
388.273	18324
388.353	13835
388.434	6167
388.514	7038
388.595	36219
388.676	69266
388.756	29731
388.837	19730
388.917	17813
388.998	5411
389.078	3564
389.159	4127
389.239	3101
389.320	4114
389.400	4302
389.480	7450
389.561	23265
389.641	19305
389.722	4759
389.802	6734
389.883	8566
389.963	27876
390.043	27708
390.124	10136
390.204	5938
390.284	23066
390.365	21543
390.445	21669
390.525	83052
390.605	109671
390.686	28014
390.766	9112
390.846	5815
390.927	3024
391.007	3267
391.087	4758
391.167	5244
391.247	5425
391.328	6768
391.408	10729
391.488	9282
391.568	4633
391.648	5174
391.728	7007
391.808	6939
391.888	7102
391.969	10727
392.049	25340
392.129	16824
392.209	12141
392.289	29977
392.369	25302
392.449	19416
392.529	16890
392.609	13481
392.689	15156
392.769	32532
392.849	42837
392.929	29157
393.009	57072
393.089	68767
393.169	77903
393.248	184218
393.328	611251
393.408	878412
393.488	379521
393.568	114505
393.648	52862
393.728	32761
393.807	22537
393.887	18517
393.967	15652
394.047	14486
394.127	14988
394.206	18568
394.286	40461
394.366	206662
394.446	360850
394.525	108517
394.605	24678
394.685	15194
394.764	21322
394.844	38399
394.924	39540
395.003	14719
395.083	9460
395.163	8956
395.242	6911
395.322	8381
395.402	6798
395.481	8861
395.561	13514
395.640	42944
395.720	48011
395.799	51308
395.879	52213
395.958	25833
396.038	56793
396.117	274689
396.197	471294
396.276	168533
396.356	48590
396.435	33115
396.515	28977
396.594	32434
396.673	56918
396.753	164888
396.832	589009
396.912	619511
396.991	186354
397.070	52766
397.150	27120
397.229	18709
397.308	18753
397.388	36913
397.467	27470
397.546	10241
397.625	6855
397.705	9009
397.784	7485
397.863	6085
397.942	5187
398.022	5213
398.101	9249
398.180	38014
398.259	29372
398.338	8575
398.417	4759
398.497	4088
398.576	4459
398.655	2982
398.734	3596
398.813	3218
398.892	7493
398.971	38592
399.050	30995
399.129	4560
399.208	2433
399.287	2399
399.366	1606
399.445	2862
399.524	1818
399.603	1949
399.682	2948
399.761	7659
399.840	36622
399.919	47332
399.998	8371
400.077	1793
400.156	1767
400.235	3843
400.313	2578
400.392	2350
400.471	8006
400.550	19588
400.629	8331
400.708	3027
400.786	2441
400.865	7240
400.944	10463
401.023	5781
401.102	1372
401.180	992
401.259	1971
401.338	2140
401.416	3102
401.495	2972
401.574	2875
401.652	1805
401.731	3198
401.810	4374
401.888	2441
401.967	1413
402.046	2265
402.124	2516
402.203	3989
402.281	2807
402.360	2971
402.438	9350
402.517	9903
402.596	3696
402.674	3446
402.753	2037
402.831	1916
402.910	2728
402.988	8500
403.066	55087
403.145	53420
403.223	13966
403.302	45703
403.380	44098
403.459	40080
403.537	21110
403.615	7020
403.694	1732
403.772	1571
403.850	744
403.929	1172
404.007	1039
404.085	5861
404.164	11306
404.242	3906
404.320	3216
404.398	9158
404.477	14381
404.555	53242
404.633	84277
404.711	18749
404.789	6456
404.868	3818
404.946	2549
405.024	1180
405.102	827
405.180	562
405.258	1008
405.336	1034
405.415	1181
405.493	3545
405.571	6945
405.649	2246
405.727	883
405.805	3185
405.883	3763
405.961	3717
406.039	3608
406.117	1550
406.195	2288
406.273	7142
406.351	47656
406.429	48488
406.507	8791
406.585	2549
406.663	1997
406.740	2476
406.818	2484
406.896	1537
406.974	1553
407.052	2195
407.130	18748
407.208	51687
407.285	15334
407.363	1893
407.441	1645
407.519	1218
407.596	2206
407.674	6928
407.752	44112
407.830	62879
407.907	16802
407.985	6088
408.063	2245
408.141	1094
408.218	2934
408.296	5633
408.373	4250
408.451	2749
408.529	1588
408.606	644
408.684	768
408.762	735
408.839	806
408.917	798
408.994	1222
409.072	157
409.149	517
409.227	2204
409.304	3608
409.382	5793
409.459	4855
409.537	7257
409.614	7337
409.692	5680
409.769	4349
409.846	6348
409.924	9567
410.001	7566
410.079	4415
410.156	4517
410.233	3942
410.311	3324
410.388	1438
410.465	1963
410.543	1301
410.620	1348
410.697	1810
410.775	2067
410.852	1272
410.929	1600
411.006	2272
411.083	1112
411.161	1884
411.238	2229
411.315	2359
411.392	1003
411.469	983
411.547	805
411.624	96
411.701	497
411.778	254
411.855	2984
411.932	2411
412.009	1873
412.086	1214
412.163	1591
412.240	1462
412.317	1480
412.394	1600
412.471	548
412.548	-11
412.625	1142
412.702	642
412.779	3014
412.856	2157
412.933	531
413.010	402
413.087	665
413.164	5077
413.241	15246
413.318	4560
413.395	2516
413.471	1632
413.548	1460
413.625	721
413.702	679
413.779	1543
413.855	450
413.932	-514
414.009	54
414.086	110
414.162	184
414.239	666
414.316	5192
414.393	20705
414.469	13145
414.546	1012
414.623	729
414.699	-401
414.776	568
414.853	-491
414.929	1508
415.006	792
415.082	67
415.159	1681
415.236	-10
415.312	1010
415.389	1181
415.465	1976
415.542	1297
415.618	68
415.695	2169
415.771	1393
415.848	320
415.924	1119
416.000	1186
416.077	68
416.153	-669
416.230	-971
416.306	-276
416.383	-547
416.459	626
416.535	275
416.612	121
416.688	163
416.764	38
416.841	-94
416.917	354
416.993	398
417.069	894
417.146	713
417.222	1443
417.298	1364
417.374	67
417.451	949
417.527	-196
417.603	877
417.679	1079
417.755	1173
417.831	-86
417.908	110
417.984	-312
418.060	19
418.136	1547
418.212	2964
418.288	1666
418.364	288
418.440	-333
418.516	1310
418.592	2961
418.668	4719
418.744	5088
418.820	5198
418.896	1457
418.972	-297
419.048	210
419.124	2405
419.200	1512
419.276	513
419.352	-738
419.428	68
419.504	39
419.579	1196
419.655	1177
419.731	4
419.807	1823
419.883	6685
419.959	7673
420.034	2104
420.110	1657
420.186	9503
420.262	14991
420.337	2887
420.413	1448
420.489	1048
420.565	1236
420.640	422
420.716	896
420.792	551
420.867	1567
420.943	546
421.019	1947
421.094	2585
421.170	1814
421.245	1263
421.321	1555
421.397	2232
421.472	5713
421.548	27509
421.623	29203
421.699	6650
421.774	4570
421.850	3167
421.925	5389
422.001	5967
422.076	6163
422.152	6708
422.227	10915
422.302	15277
422.378	20944
422.453	35028
422.529	76533
422.604	205829
422.679	390368
422.755	342527
422.830	162808
422.905	63107
422.981	32874
423.056	20951
423.131	14188
423.207	10209
423.282	8615
423.357	9608
423.432	8275
423.508	6337
423.583	9853
423.658	9292
423.733	4536
423.808	4712
423.883	4690
423.959	3967
424.034	4080
424.109	4840
424.184	3098
424.259	2496
424.334	1646
424.409	1161
424.484	873
424.559	1190
424.634	1499
424.709	1796
424.784	2489
424.859	1162
424.934	1468
425.009	6043
425.084	14874
425.159	9951
425.234	2437
425.309	720
425.384	1163
425.459	2812
425.534	1900
425.609	1098
425.683	834
425.758	351
425.833	953
425.908	1589
425.983	2194
426.058	13858
426.132	11893
426.207	1681
426.282	3484
426.357	4236
426.431	1301
426.506	548
426.581	916
426.655	1129
426.730	842
426.805	-380
426.879	1140
426.954	463
427.029	1662
427.103	9242
427.178	39860
427.253	34128
427.327	4246
427.402	1360
427.476	6049
427.551	5186
427.625	1835
427.700	1618
427.774	798
427.849	1074
427.923	438
427.998	1246
428.072	1362
428.147	4873
428.221	13702
428.296	79387
428.370	86648
428.444	12965
428.519	5327
428.593	9214
428.667	11408
428.742	10155
428.816	11763
428.890	33661
428.965	105944
429.039	48953
429.113	15337
429.188	8507
429.262	3055
429.336	1342
429.410	6594
429.485	6930
429.559	7254
429.633	10139
429.707	4348
429.781	5656
429.855	35620
429.930	103888
430.004	53561
430.078	44426
430.152	54956
430.226	93211
430.300	172119
430.374	49101
430.448	9027
430.522	9814
430.596	39465
430.670	41735
430.744	54592
430.818	139626
430.892	49742
430.966	6320
431.040	2649
431.114	1786
431.188	1542
431.262	412
431.336	814
431.410	3215
431.484	10421
431.557	13201
431.631	2243
431.705	2303
431.779	8402
431.853	65307
431.927	97553
432.000	19232
432.074	3010
432.148	2418
432.222	2684
432.295	663
432.369	614
432.443	572
432.516	8531
432.590	44767
432.664	35833
432.737	3569
432.811	466
432.885	424
432.958	336
433.032	-330
433.106	-945
433.179	16
433.253	268
433.326	-535
433.400	87
433.473	-263
433.547	-358
433.620	-55
433.694	9
433.767	1854
433.841	766
433.914	-84
433.988	-616
434.061	-617
434.134	-636
434.208	-240
434.281	-25
434.355	-905
434.428	677
434.501	-114
434.575	-719
434.648	883
434.721	-159
434.795	-287
434.868	-16
434.941	-765
435.014	-537
435.088	-294
435.161	249
435.234	717
435.307	2366
435.381	1651
435.454	1471
435.527	2008
435.600	4670
435.673	4064
435.746	2960
435.819	2273
435.892	1476
435.966	838
436.039	219
436.112	1536
436.185	442
436.258	-3
436.331	-493
436.404	51
436.477	-257
436.550	-89
436.623	472
436.696	-599
436.769	260
436.842	-309
436.915	308
436.987	879
437.060	900
437.133	349
437.206	-189
437.279	474
437.352	-120
437.425	-812
437.498	302
437.570	1185
437.643	1296
437.716	-429
437.789	-274
437.861	-289
437.934	1569
438.007	1330
438.080	220
438.152	-305
438.225	1373
438.298	10405
438.370	66755
438.443	57762
438.516	7475
438.588	1238
438.661	-305
438.734	80
438.806	-140
438.879	1179
438.951	511
439.024	172
439.096	334
439.169	-58
439.241	-104
439.314	-146
439.386	783
439.459	2754
439.531	3792
439.604	1533
439.676	717
439.749	173
439.821	-467
439.893	542
439.966	520
440.038	-134
440.110	600
440.183	-290
440.255	309
440.327	868
440.400	4542
440.472	29929
440.544	46871
440.617	10321
440.689	1849
440.761	1428
440.833	2218
440.905	1067
440.978	709
441.050	-171
441.122	1438
441.194	191
441.266	-37
441.338	80
441.411	982
441.483	5098
441.555	19153
441.627	8906
441.699	2748
441.771	3835
441.843	2865
441.915	1261
441.987	956
442.059	377
442.131	1497
442.203	3060
442.275	4700
442.347	5948
442.419	7079
442.491	24999
442.563	114899
442.635	107814
442.706	31605
442.778	21907
442.850	8110
442.922	2703
442.994	3555
443.066	4134
443.137	5333
443.209	5145
443.281	6270
443.353	12587
443.425	37217
443.496	164772
443.568	279787
443.640	165417
443.711	45984
443.783	12337
443.855	6917
443.926	3566
443.998	2753
444.070	3986
444.141	3287
444.213	2940
444.285	3554
444.356	3093
444.428	4962
444.499	2599
444.571	1718
444.642	1851
444.714	1282
444.785	2807
444.857	4002
444.928	10539
445.000	16154
445.071	9963
445.143	15936
445.214	14373
445.285	13384
445.357	33857
445.428	96538
445.500	302505
445.571	309966
445.642	188704
445.714	83219
445.785	40604
445.856	24158
445.928	9395
445.999	4898
446.070	3432
446.141	2883
446.213	5022
446.284	4631
446.355	4288
446.426	3559
446.497	2462
446.569	3775
446.640	5948
446.711	5635
446.782	2008
446.853	2605
446.924	3188
446.995	1531
447.066	1276
447.138	4183
447.209	6017
447.280	1298
447.351	463
447.422	216
447.493	761
447.564	1880
447.635	1853
447.706	1984
447.777	1143
447.847	1059
447.918	-92
447.989	767
448.060	3138
448.131	6131
448.202	10956
448.273	6703
448.344	3062
448.414	1653
448.485	814
448.556	455
448.627	612
448.698	795
448.768	-195
448.839	680
448.910	2439
448.981	6061
449.051	3172
449.122	1091
449.193	142
449.263	613
449.334	232
449.405	918
449.475	2585
449.546	4022
449.616	4224
449.687	8681
449.758	3812
449.828	2043
449.899	1410
449.969	863
450.040	760
450.110	1549
450.181	2554
450.251	1899
450.322	531
450.392	196
450.463	1335
450.533	1502
450.604	759
450.674	652
450.744	2342
450.815	1225
450.885	1240
450.955	1800
451.026	849
451.096	680
451.166	1985
451.237	3204
451.307	13631
451.377	18165
451.447	4626
451.518	1531
451.588	1554
451.658	1227
451.728	2100
451.799	9353
451.869	26113
451.939	17504
452.009	3087
452.079	987
452.149	1530
452.219	2425
452.289	12381
452.360	27486
452.430	11921
452.500	2902
452.570	2657
452.640	4956
452.710	11636
452.780	30173
452.850	28758
452.920	14790
452.990	8281
453.060	3584
453.129	3134
453.199	4973
453.269	10166
453.339	58561
453.409	107005
453.479	74516
453.549	101729
453.619	133822
453.688	111095
453.758	29924
453.828	5893
453.898	3050
453.968	1621
454.037	2297
454.087	1739
454.107	1494
454.168	1494
454.177	1469
454.247	1298
454.249	1297
454.316	814
454.330	1066
454.386	2030
454.411	3744
454.456	5663
454.492	12293
454.525	18002
454.574	16919
454.595	16651
454.655	5379
454.665	3592
454.734	3014
454.736	3139
454.804	5772
454.817	7906
454.873	14071
454.898	19855
454.943	29042
454.979	24864
455.013	21710
455.060	10964
455.082	6735
455.141	6249
455.152	6079
455.221	11936
455.222	12373
455.291	26576
455.303	27273
455.360	31263
455.384	30249
455.430	27849
455.465	28896
455.499	29606
455.546	24272
455.569	20338
455.627	21938
455.638	22660
455.707	9543
455.708	9514
455.777	2340
455.789	2398
455.846	2433
455.869	2511
455.916	2704
455.950	2479
455.985	2064
456.031	2605
456.054	2855
456.112	2195
456.124	2123
456.193	1707
456.193	1681
456.262	2865
456.274	3219
456.332	4706
456.355	5009
456.401	4369
456.436	4053
456.470	3804
456.516	2765
456.540	2443
456.597	1399
456.609	1216
456.678	1852
456.678	1840
456.747	2058
456.759	1957
456.817	1179
456.840	1313
456.886	1654
456.920	1877
456.955	2192
457.001	2359
457.024	2708
457.082	4082
457.093	4404
457.162	6182
457.163	6237
457.232	7467
457.243	7265
457.301	4787
457.324	3548
457.370	2637
457.405	2642
457.439	2663
457.485	3013
457.508	3229
457.566	3386
457.577	3401
457.646	4037
457.647	4061
457.715	6874
457.727	7555
457.784	13104
457.808	16445
457.853	20618
457.889	27887
457.922	29680
457.969	25689
457.991	27909
458.050	26054
458.060	26335
458.129	37205
458.130	37798
458.198	43250
458.211	42588
458.267	37586
458.292	28622
458.336	19652
458.372	15127
458.405	13701
458.453	16601
458.474	21011
458.533	36713
458.543	38184
458.611	61641
458.614	62793
458.680	57281
458.694	50350
458.749	37894
458.775	27824
458.818	14818
458.855	11111
458.887	8429
458.936	6413
458.955	5740
459.016	5670
459.024	5562
459.093	4876
459.097	4846
459.162	4637
459.177	4616
459.230	4581
459.257	4812
459.299	5042
459.338	5041
459.368	5172
459.418	5442
459.437	5276
459.499	4727
459.505	4676
459.574	4229
459.579	4184
459.643	3940
459.659	3950
459.711	3992
459.740	4005
459.780	4401
459.820	5317
459.849	5832
459.900	6078
459.917	5871
459.981	5867
459.986	5822
460.054	4222
460.061	4088
460.123	4373
460.141	4535
460.191	4749
460.222	4998
460.260	5341
460.302	5613
460.328	5402
460.382	5260
460.397	5407
460.462	5213
460.465	5310
460.534	8747
460.543	9156
460.602	26175
460.623	32442
460.671	56716
460.703	77480
460.739	72039
460.783	74172
460.808	69799
460.864	30466
460.876	28134
460.944	8197
460.945	7962
461.013	5561
461.024	5411
461.081	5209
461.104	5278
461.150	5021
461.184	4804
461.218	4978
461.264	5065
461.286	5098
461.345	5166
461.355	5129
461.423	5297
461.425	5298
461.491	6493
461.505	6753
461.559	12516
461.585	15295
461.628	29226
461.665	41764
461.696	48087
461.745	61741
461.764	52041
461.825	20350
461.832	20617
461.901	10149
461.905	9751
461.969	6559
461.985	6633
462.037	6783
462.065	6569
462.105	7389
462.145	8624
462.173	13428
462.225	22173
462.241	25652
462.305	40696
462.310	39405
462.378	21412
462.385	18969
462.446	12389
462.465	9263
462.514	6748
462.545	6787
462.582	6662
462.625	6607
462.650	6490
462.705	6420
462.718	6634
462.785	7928
462.786	8031
462.854	13924
462.865	14892
462.922	19314
462.945	21346
462.990	14856
463.025	9553
463.058	9258
463.104	7194
463.126	6355
463.184	5423
463.194	5426
463.262	5595
463.264	5610
463.330	7297
463.344	7587
463.398	7973
463.424	8114
463.466	9112
463.504	10181
463.533	9628
463.583	8681
463.601	9101
463.663	10388
463.669	10744
463.737	14589
463.743	14971
463.805	22661
463.823	24944
463.873	43942
463.903	55442
463.940	61124
463.982	69194
464.008	54888
464.062	23715
464.076	22544
464.142	10324
464.144	10193
464.211	7659
464.221	7590
464.279	8112
464.301	8368
464.347	8521
464.381	8567
464.414	10694
464.461	13719
464.482	14605
464.540	17205
464.550	16264
464.617	9542
464.620	9270
464.685	9048
464.699	9039
464.753	9833
464.779	10326
464.820	11147
464.859	12006
464.888	13113
464.938	14845
464.956	15213
465.018	16513
465.023	16113
465.091	10763
465.098	10173
465.158	9799
465.177	9573
465.226	10123
465.257	10710
465.293	11008
465.336	11211
465.361	12081
465.416	14089
465.428	15421
465.495	22529
465.496	22728
465.563	48657
465.575	53124
465.631	70218
465.654	77879
465.698	47327
465.734	21560
465.765	18306
465.813	11206
465.833	10626
465.893	10259
465.900	10226
465.968	10482
465.972	10488
466.035	10266
466.052	10179
466.102	11059
466.131	11498
466.170	11415
466.210	11389
466.237	11702
466.290	12217
466.304	12401
466.369	13079
466.372	13149
466.439	14669
466.449	14866
466.506	16517
466.528	17092
466.573	23927
466.607	29040
466.641	46684
466.687	71119
466.708	81842
466.766	111298
466.775	102364
466.842	34160
466.845	30865
466.909	20940
466.925	18450
466.977	17480
467.004	17263
467.044	17194
467.083	17088
467.111	17730
467.163	18885
467.178	18989
467.242	19253
467.245	19244
467.312	18426
467.321	18287
467.379	18385
467.400	18373
467.446	20975
467.480	22794
467.559	20073
467.638	15484
467.717	16553
467.796	16304
467.875	17717
467.955	19316
468.034	28911
468.113	80777
468.192	138628
468.271	34897
468.350	17873
468.429	20619
468.508	21610
468.588	17939
468.667	16064
468.746	16697
468.825	16048
468.904	13197
468.983	16276
469.062	32388
469.141	42958
469.220	14887
469.299	14195
469.378	14741
469.456	13600
469.535	12859
469.614	14942
469.693	16023
469.772	21486
469.851	37680
469.930	23731
470.009	12548
470.088	11335
470.166	12647
470.245	14490
470.324	16176
470.403	13422
470.482	11615
470.560	10696
470.639	11271
470.718	12358
470.797	12568
470.875	15490
470.954	26341
471.033	31568
471.111	11713
471.190	9874
471.269	10100
471.347	9836
471.426	11097
471.505	14076
471.583	12848
471.662	11607
471.740	10854
471.819	10536
471.898	10278
471.976	10671
472.055	10329
472.133	13232
472.212	22557
472.290	25349
472.369	13561
472.447	10606
472.526	9594
472.604	10228
472.683	11357
472.761	11567
472.839	9769
472.918	9862
472.996	11042
473.075	15000
473.153	15945
473.231	10505
473.310	13830
473.388	14529
473.466	11660
473.545	11151
473.623	12963
473.701	12782
473.780	10743
473.858	11193
473.936	12152
474.014	11703
474.093	14167
474.171	23126
474.249	41611
474.327	25372
474.405	10331
474.484	10172
474.562	9741
474.640	10298
474.718	12439
474.796	13324
474.874	10411
474.952	9130
475.030	10112
475.108	10865
475.187	13641
475.265	14082
475.343	18376
475.421	24461
475.499	12760
475.577	12029
475.655	18016
475.733	42805
475.811	86810
475.889	81763
475.966	55474
476.044	12774
476.122	15827
476.200	21722
476.278	18209
476.356	12212
476.434	14123
476.512	15564
476.590	20759
476.667	19550
476.745	11022
476.823	12123
476.901	12819
476.979	14211
477.056	12399
477.134	12031
477.212	11714
477.290	11212
477.367	10997
477.445	11208
477.523	10837
477.601	10928
477.678	11657
477.756	16487
477.834	19884
477.911	11651
477.989	11667
478.066	11638
478.144	14851
478.222	15142
478.299	23565
478.377	25716
478.454	11606
478.532	10431
478.609	10323
478.687	10034
478.764	10020
478.842	10231
478.919	10995
478.997	11420
479.074	10410
479.152	14107
479.229	21943
479.307	14410
479.384	9299
479.461	8663
479.539	10836
479.616	15275
479.694	11998
479.771	14533
479.848	14800
479.926	22566
480.003	25617
480.080	10968
480.157	10114
480.235	10787
480.312	9875
480.389	13127
480.467	25187
480.544	37877
480.621	16543
480.698	13321
480.775	15531
480.853	17489
480.930	12995
481.007	13393
481.084	17048
481.161	20345
481.238	19104
481.315	11333
481.392	10459
481.470	11646
481.547	12831
481.624	11973
481.701	12124
481.778	12625
481.855	15640
481.932	23509
482.009	47495
482.086	35418
482.163	14724
482.240	17285
482.317	32010
482.393	28459
482.470	13546
482.547	14653
482.624	12434
482.701	11357
482.778	12305
482.855	9965
482.932	11005
483.009	10890
483.085	10932
483.162	15231
483.239	14246
483.316	12641
483.393	10896
483.469	12041
483.546	14343
483.623	17138
483.699	12304
483.776	12817
483.853	14467
483.930	21375
484.006	58100
484.083	128360
484.160	41801
484.236	35978
484.313	30107
484.389	24916
484.466	20874
484.543	20956
484.619	22524
484.696	24388
484.772	28003
484.849	31275
484.925	20250
485.002	19688
485.078	20029
485.155	20168
485.231	20406
485.308	18789
485.384	20651
485.461	27863
485.537	57745
485.614	84202
485.690	25291
485.766	18832
485.843	18440
485.919	21529
485.995	23321
486.072	16716
486.148	16468
486.224	15926
486.301	18420
486.377	22869
486.453	21741
486.530	18336
486.606	23006
486.682	28676
486.758	44346
486.835	65215
486.911	38770
486.987	76735
487.063	54731
487.139	41304
487.215	34700
487.292	23000
487.368	19492
487.444	23176
487.520	27070
487.596	30885
487.672	45429
487.748	118433
487.824	219051
487.900	90112
487.976	32112
488.052	25852
488.128	25231
488.204	22929
488.280	21335
488.356	25590
488.432	65452
488.508	132090
488.584	35986
488.660	16590
488.736	16368
488.812	15643
488.888	18229
488.964	21516
489.039	32696
489.115	53235
489.191	40700
489.267	19692
489.343	19477
489.418	14980
489.494	14000
489.570	13712
489.646	15191
489.722	15624
489.797	17675
489.873	29892
489.949	87285
490.024	82662
490.100	17797
490.176	14684
490.251	16468
490.327	19133
490.403	14206
490.478	13246
490.554	11399
490.629	11765
490.705	11991
490.781	13185
490.856	14672
490.932	15635
491.007	14062
491.083	14917
491.158	16016
491.234	22774
491.309	63755
491.385	77569
491.460	17843
491.536	18010
491.611	13715
491.686	12900
491.762	15721
491.837	23684
491.913	44468
491.988	62919
492.063	70594
492.139	43753
492.214	30698
492.289	11952
492.365	9379
492.440	14603
492.515	15801
492.590	17355
492.666	12717
492.741	17674
492.816	38801
492.891	19387
492.967	10780
493.042	9986
493.117	11035
493.192	11090
493.267	15518
493.342	42682
493.418	75787
493.493	18818
493.568	9818
493.643	9837
493.718	14996
493.793	25832
493.868	22917
493.943	10721
494.018	10290
494.093	11956
494.168	11705
494.243	8415
494.318	9216
494.393	8054
494.468	7896
494.543	7533
494.618	9488
494.693	9844
494.768	10640
494.842	11063
494.917	7774
494.992	8218
495.067	8099
495.142	7197
495.217	8348
495.292	8095
495.366	10568
495.441	14397
495.516	17862
495.591	19372
495.665	40478
495.740	104098
495.815	57630
495.890	18762
495.964	15842
496.039	15882
496.114	16045
496.188	18520
496.263	18142
496.338	15835
496.412	19407
496.487	22494
496.561	18836
496.636	19603
496.710	17890
496.785	19988
496.860	26436
496.934	17725
497.009	16359
497.083	17818
497.158	16867
497.232	22085
497.307	30017
497.381	23627
497.455	29132
497.530	45679
497.604	28910
497.679	29823
497.753	47307
497.827	68205
497.902	57938
497.976	64643
498.050	115897
498.125	457663
498.199	589441
498.273	88101
498.348	57230
498.422	47341
498.496	41321
498.570	37520
498.645	32711
498.719	32493
498.793	38204
498.867	60395
498.941	81797
499.016	163417
499.090	576923
499.164	237695
499.238	27845
499.312	21162
499.386	21584
499.460	23192
499.534	23041
499.609	27229
499.683	48336
499.757	47992
499.831	75728
499.905	343023
499.979	412399
500.053	65639
500.127	55026
500.201	25907
500.275	20942
500.349	20781
500.422	24194
500.496	30675
500.570	52120
500.644	153262
500.718	431972
500.792	102745
500.866	23608
500.940	32650
501.013	26911
501.087	22724
501.161	32369
501.235	50636
501.309	119262
501.382	348476
501.456	361915
501.530	65022
501.603	136619
501.677	55206
501.751	20883
501.825	24037
501.898	41069
501.972	151556
502.046	114829
502.119	26014
502.193	51203
502.266	171439
502.340	92497
502.413	61956
502.487	159172
502.561	97649
502.634	26560
502.708	15523
502.781	13301
502.855	11706
502.928	11504
503.002	11834
503.075	12035
503.149	13901
503.222	13715
503.295	17734
503.369	22767
503.442	31623
503.516	91093
503.589	302708
503.662	219880
503.736	55342
503.809	131331
503.882	118305
503.956	143347
504.029	159786
504.102	74913
504.175	114445
504.249	53340
504.322	29490
504.395	24708
504.468	15345
504.542	16559
504.615	11624
504.688	9031
504.761	9960
504.834	12625
504.907	10702
504.980	15878
505.053	12449
505.127	11297
505.200	16070
505.273	25007
505.346	14670
505.419	11005
505.492	9718
505.565	8585
505.638	7662
505.711	9074
505.784	8749
505.857	8076
505.930	9810
506.003	9197
506.076	11230
506.149	16347
506.221	25259
506.294	18734
506.367	44676
506.440	189373
506.513	117658
506.586	24452
506.659	14189
506.731	9365
506.804	10619
506.877	14466
506.950	14110
507.022	9241
507.095	14046
507.168	20081
507.241	9156
507.313	6878
507.386	7051
507.459	9312
507.531	7073
507.604	6422
507.677	7471
507.749	5667
507.822	7707
507.894	10918
507.967	15802
508.040	10724
508.112	9327
508.185	9872
508.257	8573
508.330	10851
508.402	10032
508.475	10215
508.547	12142
508.620	10960
508.692	24089
508.765	13913
508.837	7896
508.909	7856
508.982	7691
509.054	7854
509.127	6922
509.199	7061
509.271	7976
509.344	6390
509.416	6168
509.488	7831
509.560	7996
509.633	7475
509.705	8316
509.777	8460
509.849	10242
509.922	8006
509.994	7141
510.066	7528
510.138	7774
510.210	12370
510.283	12565
510.355	11483
510.427	8611
510.499	8597
510.571	8711
510.643	8136
510.715	10609
510.787	10568
510.859	9391
510.931	12114
511.003	11486
511.076	11059
511.148	10057
511.219	9217
511.291	18814
511.363	30568
511.435	9726
511.507	7488
511.579	7346
511.651	7500
511.723	7349
511.795	7967
511.867	9084
511.939	11003
512.010	33124
512.082	30920
512.154	9829
512.226	9377
512.298	9395
512.369	15201
512.441	11466
512.513	11889
512.585	9773
512.656	9380
512.728	11746
512.800	9253
512.871	8004
512.943	9335
513.015	8432
513.086	7732
513.158	7975
513.230	8808
513.301	12384
513.373	13455
513.444	9013
513.516	7652
513.588	6180
513.659	7350
513.731	8787
513.802	8649
513.874	11242
513.945	22034
514.016	11962
514.088	7878
514.159	7947
514.231	9480
514.302	13178
514.374	11614
514.445	13621
514.516	35131
514.588	31336
514.659	14072
514.730	34199
514.802	23228
514.873	13613
514.944	16356
515.016	12594
515.087	13102
515.158	18596
515.229	38357
515.301	17842
515.372	24137
515.443	16991
515.514	11343
515.585	8386
515.656	8428
515.728	7850
515.799	7282
515.870	8343
515.941	8251
516.012	8242
516.083	9357
516.154	10955
516.225	12051
516.296	11607
516.367	11230
516.438	12272
516.509	13409
516.580	18155
516.651	40333
516.722	157485
516.793	106967
516.864	23835
516.935	25249
517.006	26437
517.077	33687
517.148	57686
517.219	159867
517.289	383510
517.360	226326
517.431	92470
517.502	18757
517.573	16023
517.643	14838
517.714	15437
517.785	16133
517.856	15953
517.926	18679
517.997	21010
518.068	24298
518.138	30522
518.209	41115
518.280	105701
518.350	472104
518.421	285541
518.492	37162
518.562	25175
518.633	29264
518.703	30326
518.774	47614
518.845	115534
518.915	144728
518.986	53062
519.056	30915
519.127	34304
519.197	51812
519.268	168761
519.338	154042
519.408	28994
519.479	19030
519.549	16222
519.620	13355
519.690	12008
519.760	11369
519.831	9836
519.901	12570
519.971	10427
520.042	12475
520.112	17076
520.182	13411
520.253	13371
520.323	11809
520.393	12285
520.463	15912
520.534	12749
520.604	26067
520.674	17501
520.744	18060
520.814	27543
520.885	31146
520.955	49615
521.025	228175
521.095	115917
521.165	16407
521.235	14661
521.305	11985
521.375	9534
521.445	9666
521.515	10927
521.585	10933
521.655	11769
521.725	11072
521.795	12807
521.865	10287
521.935	18365
522.005	20747
522.075	10273
522.145	10968
522.215	14170
522.285	24105
522.355	29247
522.424	65021
522.494	62144
522.564	19168
522.634	19010
522.704	44422
522.774	25535
522.843	11186
522.913	9966
522.983	10139
523.053	9147
523.122	9129
523.192	10276
523.262	21829
523.331	30289
523.401	10634
523.471	6820
523.540	8622
523.610	7059
523.680	7717
523.749	9338
523.819	13056
523.888	16188
523.958	8487
524.027	9332
524.097	10759
524.166	9726
524.236	8470
524.305	9872
524.375	8886
524.444	7825
524.514	10440
524.583	10106
524.653	15239
524.722	16402
524.791	9586
524.861	8979
524.930	8800
524.999	8742
525.069	11427
525.138	12582
525.207	18259
525.277	11755
525.346	10303
525.415	9422
525.484	9885
525.554	14465
525.623	14893
525.692	12814
525.761	14942
525.830	14462
525.900	17686
525.969	27938
526.038	45698
526.107	71667
526.176	233020
526.245	253951
526.314	76882
526.383	111833
526.452	197878
526.522	240963
526.591	367074
526.660	76467
526.729	38291
526.797	40439
526.867	59201
526.935	178834
527.004	514412
527.073	473225
527.142	51847
527.211	19960
527.280	13967
527.349	13618
527.418	9442
527.487	9421
527.555	8262
527.624	7878
527.693	7858
527.762	8512
527.831	7545
527.899	8014
527.968	8101
528.037	7010
528.106	8587
528.174	12344
528.243	16100
528.312	18276
528.380	26404
528.449	10186
528.518	7089
528.586	6163
528.655	6989
528.723	6477
528.792	5520
528.861	8032
528.929	7544
528.998	6061
529.066	5666
529.135	5515
529.203	4923
529.272	5251
529.340	6299
529.409	6533
529.477	6593
529.545	10392
529.614	13277
529.682	11544
529.751	17792
529.819	13846
529.887	11464
529.956	6785
530.024	8035
530.092	5930
530.161	6993
530.229	7519
530.297	6977
530.365	6202
530.434	5793
530.502	5642
530.570	5350
530.638	4260
530.707	5490
530.775	7628
530.843	6350
530.911	7117
530.979	5594
531.047	5782
531.115	6492
531.183	5880
531.252	6784
531.320	6808
531.388	5854
531.456	6266
531.524	5171
531.592	6437
531.660	7428
531.728	6667
531.796	6129
531.864	5884
531.932	6346
532.000	5606
532.067	6464
532.135	6694
532.203	8102
532.271	7851
532.339	10080
532.407	19296
532.475	15872
532.542	9017
532.610	9111
532.678	10253
532.746	25508
532.814	85609
532.881	30936
532.949	9037
533.017	7631
533.084	6610
533.152	6852
533.220	6905
533.287	6476
533.355	6619
533.423	6545
533.490	5520
533.558	6638
533.625	6355
533.693	7528
533.761	8116
533.828	8224
533.896	6481
533.963	10215
534.031	12698
534.098	16169
534.166	11972
534.233	7867
534.300	8055
534.368	8829
534.435	8970
534.503	8390
534.570	9275
534.637	9423
534.705	11399
534.772	14554
534.840	22490
534.907	85514
534.974	179439
535.041	30917
535.109	15973
535.176	9750
535.243	7515
535.310	7715
535.378	6772
535.445	6721
535.512	7219
535.579	7380
535.646	6510
535.714	7863
535.781	8655
535.848	8897
535.915	9204
535.982	8465
536.049	7843
536.116	8975
536.183	7394
536.250	7847
536.317	8804
536.384	8543
536.451	9864
536.518	10787
536.585	8748
536.652	10973
536.719	12895
536.786	11806
536.853	9459
536.920	12360
536.987	20449
537.053	15278
537.120	34882
537.187	45118
537.254	10570
537.321	8097
537.388	8890
537.454	7762
537.521	7707
537.588	7281
537.654	8952
537.721	8798
537.788	9494
537.855	8123
537.921	8066
537.988	6935
538.055	7848
538.121	7971
538.188	6825
538.254	9376
538.321	16029
538.388	13215
538.454	8518
538.521	7691
538.587	7511
538.654	8123
538.720	7391
538.787	7235
538.853	8011
538.920	11624
538.986	12347
539.053	10475
539.119	9777
539.185	8991
539.252	8944
539.318	11155
539.385	11209
539.451	9583
539.517	10092
539.583	10265
539.650	15205
539.716	36276
539.782	17769
539.849	8618
539.915	8411
539.981	8200
540.047	9131
540.114	8817
540.180	9205
540.246	8278
540.312	9775
540.378	15379
540.444	19011
540.510	14292
540.576	34478
540.643	19856
540.709	8856
540.775	8968
540.841	8417
540.907	11715
540.973	18632
541.039	12474
541.105	12015
541.171	8922
541.237	8747
541.303	9947
541.369	10548
541.435	10367
541.500	13238
541.566	11250
541.632	7854
541.698	7157
541.764	7967
541.830	8214
541.896	7848
541.961	7981
542.027	8828
542.093	9081
542.159	8247
542.224	9188
542.290	11110
542.356	13133
542.421	17087
542.487	11241
542.553	8727
542.618	11342
542.684	10024
542.750	8290
542.815	10251
542.881	14536
542.947	29828
543.012	30640
543.078	9364
543.143	8415
543.209	9420
543.274	9100
543.340	9446
543.405	12806
543.471	21169
543.536	10267
543.602	8509
543.667	8050
543.732	8724
543.798	7738
543.863	8852
543.928	8321
543.994	7799
544.059	7685
544.124	7298
544.190	7511
544.255	7740
544.320	8772
544.386	7859
544.451	10913
544.516	11279
544.581	10777
544.646	18295
544.712	36594
544.777	13672
544.842	12618
544.907	15166
544.972	11555
545.037	10904
545.102	13431
545.168	12638
545.233	12983
545.298	12651
545.363	15469
545.428	15590
545.493	17183
545.558	27776
545.623	20376
545.688	13222
545.753	11936
545.818	12685
545.883	13201
545.947	13254
546.012	14714
546.077	16631
546.142	14135
546.207	12944
546.272	15373
546.337	16181
546.401	15315
546.466	14989
546.531	13739
546.596	16512
546.661	15669
546.725	16177
546.790	15503
546.855	16568
546.919	16250
546.984	18576
547.049	20664
547.113	25092
547.178	24304
547.243	25146
547.307	28981
547.372	32443
547.436	37615
547.501	30883
547.565	32863
547.630	31833
547.695	31002
547.759	36959
547.823	35907
547.888	29785
547.952	30756
548.017	32316
548.081	35580
548.146	44143
548.210	41395
548.274	34602
548.339	33031
548.403	30834
548.468	29670
548.532	28719
548.596	30334
548.660	30043
548.725	31779
548.789	37166
548.853	39453
548.917	34165
548.982	38692
549.046	43157
549.110	27849
549.174	27225
549.238	29278
549.303	31558
549.367	33763
549.431	31836
549.495	29937
549.559	30436
549.623	33545
549.687	38123
549.751	39362
549.815	42362
549.879	45248
549.943	41729
550.007	44436
550.071	42422
550.135	42538
550.199	38713
550.263	39128
550.327	38607
550.391	46782
550.455	43783
550.519	40980
550.582	43608
550.646	48541
550.710	52568
550.774	49880
550.838	50385
550.901	51039
550.965	56242
551.029	58811
551.093	65573
551.156	76298
551.220	109308
551.284	141961
551.347	89046
551.411	99292
551.475	124857
551.538	60375
551.602	51468
551.666	46634
551.729	44110
551.793	42553
551.856	41692
551.920	41403
551.983	42127
552.047	41566
552.110	40483
552.174	41250
552.237	41551
552.301	39291
552.364	37977
552.428	37336
552.491	37003
552.554	39426
552.618	38714
552.681	39638
552.745	38367
552.808	41888
552.871	48359
552.934	45033
552.998	39833
553.061	39823
553.124	39454
553.187	36325
553.251	37809
553.314	40529
553.377	40055
553.440	42758
553.503	55489
553.567	86141
553.630	49950
553.693	39058
553.756	41010
553.819	38425
553.882	36867
553.945	36213
554.008	36577
554.071	35435
554.134	36940
554.197	34930
554.260	32510
554.323	35532
554.386	35324
554.449	36826
554.512	36956
554.575	35290
554.638	35851
554.701	34303
554.764	34845
554.827	35215
554.889	31763
554.952	29756
555.015	29883
555.078	30483
555.141	31362
555.203	30501
555.266	29862
555.329	31167
555.391	28645
555.454	28610
555.517	28914
555.580	28121
555.642	26320
555.705	25744
555.768	25793
555.830	26186
555.893	23819
555.955	24442
556.018	24182
556.080	23949
556.143	24668
556.206	24392
556.268	25275
556.330	24779
556.393	24745
556.455	23832
556.518	30199
556.580	34236
556.643	22294
556.705	21377
556.767	19457
556.830	22136
556.892	21198
556.955	22230
557.017	21899
557.079	21246
557.142	19971
557.204	20030
557.266	24038
557.328	25087
557.391	19023
557.453	17586
557.515	18625
557.577	19218
557.639	20961
557.701	19475
557.764	18392
557.826	19643
557.888	23637
557.950	23725
558.012	25677
558.074	33614
558.136	56876
558.198	171380
558.260	101216
558.322	28879
558.384	27240
558.446	30006
558.508	35136
558.570	45145
558.632	56829
558.694	79966
558.756	108782
558.818	235648
558.880	776529
558.942	407289
559.003	183794
559.065	139314
559.127	45431
559.189	42138
559.251	49555
559.312	67783
559.374	123689
559.436	447075
559.498	389896
559.559	61879
559.621	45493
559.683	50775
559.744	73503
559.806	185392
559.868	419868
559.929	128989
559.991	47634
560.052	60010
560.114	155032
560.176	156363
560.237	80106
560.299	177489
560.360	65787
560.422	19919
560.483	18399
560.545	17666
560.606	14792
560.667	16536
560.729	15102
560.790	14898
560.852	13848
560.913	14344
560.974	14919
561.036	13535
561.097	14539
561.158	13901
561.220	14086
561.281	13604
561.342	13563
561.403	14924
561.465	15100
561.526	21143
561.587	30559
561.648	16745
561.709	13725
561.771	13525
561.832	13085
561.893	12949
561.954	12778
562.015	11809
562.076	13035
562.137	12620
562.198	11901
562.259	12676
562.320	11976
562.381	13199
562.442	14658
562.503	13836
562.564	12562
562.625	12551
562.686	11495
562.747	12560
562.808	12707
562.869	12786
562.930	16482
562.991	16685
563.051	15009
563.112	13684
563.173	13131
563.234	12972
563.294	13078
563.355	12246
563.416	13437
563.477	12456
563.537	12709
563.598	14571
563.659	13615
563.720	13018
563.780	13739
563.841	13222
563.901	13992
563.962	13885
564.023	13274
564.083	13590
564.144	13959
564.204	15259
564.265	15375
564.325	19454
564.386	31004
564.446	37618
564.507	13953
564.567	13887
564.628	13209
564.688	13273
564.749	13740
564.809	15616
564.869	19976
564.930	14978
564.990	12562
565.050	12231
565.111	12205
565.171	11935
565.231	11335
565.292	12458
565.352	11709
565.412	12894
565.472	12719
565.532	12537
565.593	12106
565.653	13085
565.713	13082
565.773	13601
565.833	14390
565.893	16815
565.953	14080
566.013	14492
566.074	15986
566.134	20199
566.194	30702
566.254	35328
566.314	23687
566.374	16909
566.434	15950
566.494	16665
566.554	15549
566.614	15693
566.673	16725
566.733	18001
566.793	18558
566.853	19588
566.913	19863
566.973	21044
567.033	20704
567.092	19837
567.152	20706
567.212	21827
567.272	21852
567.331	23698
567.391	23552
567.451	25477
567.511	31575
567.570	36132
567.630	23745
567.690	21137
567.749	21683
567.809	22712
567.868	24683
567.928	28545
567.988	33155
568.047	37758
568.107	44368
568.166	57041
568.226	81493
568.285	121240
568.345	118839
568.404	94328
568.464	79851
568.523	73719
568.582	73470
568.642	80506
568.701	96978
568.761	128637
568.820	197564
568.879	228306
568.939	180071
568.998	131394
569.057	96888
569.116	77221
569.176	61859
569.235	52266
569.294	44502
569.353	38249
569.413	34948
569.472	32598
569.531	27900
569.590	26148
569.649	24105
569.708	22629
569.767	21526
569.827	20974
569.886	20379
569.945	18259
570.004	18778
570.063	18061
570.122	17659
570.181	18856
570.240	20111
570.299	20724
570.358	17253
570.417	15576
570.475	14806
570.534	14236
570.593	14612
570.652	14508
570.711	15553
570.770	15928
570.829	17544
570.887	14656
570.946	15080
571.005	14483
571.064	14339
571.122	15573
571.181	18043
571.240	15817
571.299	14705
571.357	16210
571.416	16779
571.475	17608
571.533	20195
571.592	15443
571.650	17412
571.709	14399
571.768	13971
571.826	13505
571.885	13265
571.943	13426
572.002	12606
572.060	14710
572.119	12563
572.177	11821
572.236	11699
572.294	11919
572.352	11308
572.411	11677
572.469	11065
572.528	10472
572.586	11163
572.644	11219
572.703	12873
572.761	11969
572.819	11444
572.877	11712
572.936	12035
572.994	11318
573.052	10919
573.110	11791
573.169	11275
573.227	10251
573.285	11422
573.343	11093
573.401	11096
573.459	11501
573.517	11572
573.576	11224
573.634	11022
573.692	11254
573.750	11935
573.808	11854
573.866	13513
573.924	16458
573.982	17548
574.040	13176
574.098	11838
574.155	11399
574.213	9643
574.271	10862
574.329	11010
574.387	10796
574.445	10412
574.503	10108
574.560	10642
574.618	9990
574.676	9596
574.734	10239
574.792	9912
574.849	9832
574.907	8990
574.965	9210
575.022	8914
575.080	9214
575.138	9154
575.195	10393
575.253	9791
575.311	10193
575.368	10373
575.426	9931
575.483	9932
575.541	10280
575.598	10172
575.656	11165
575.713	11349
575.771	10052
575.828	10805
575.886	10966
575.943	11271
576.001	10917
576.058	11933
576.115	11722
576.173	14078
576.230	16486
576.287	15759
576.345	14100
576.402	12425
576.459	12997
576.517	13550
576.574	13723
576.631	15685
576.688	14866
576.746	12106
576.803	12267
576.860	11218
576.917	11741
576.974	11038
577.031	11728
577.089	11929
577.146	12151
577.203	12200
577.260	13008
577.317	13234
577.374	16109
577.431	15886
577.488	13321
577.545	11448
577.602	11758
577.659	11636
577.716	11062
577.773	11747
577.830	10914
577.886	11439
577.943	11130
578.000	11592
578.057	12530
578.114	11635
578.171	11657
578.227	12398
578.284	12140
578.341	12879
578.398	12759
578.454	13101
578.511	14865
578.568	17410
578.625	16355
578.681	12503
578.738	11169
578.794	11210
578.851	11136
578.908	10584
578.964	11388
579.021	11962
579.077	10432
579.134	11002
579.190	11701
579.247	10247
579.303	10549
579.360	10508
579.416	10771
579.473	10507
579.529	10275
579.586	11259
579.642	11255
579.698	12034
579.755	12130
579.811	11282
579.867	12180
579.924	11603
579.980	11339
580.036	12458
580.093	13223
580.149	13648
580.205	15490
580.261	14745
580.317	14484
580.374	14729
580.430	16703
580.486	17622
580.542	14341
580.598	14448
580.619	13957
580.654	13118
580.692	12427
580.710	12098
580.765	12716
580.767	12750
580.823	13103
580.838	12997
580.879	12751
580.911	12198
580.935	11818
580.984	12907
580.991	13069
581.047	12459
581.057	12477
581.103	12631
581.130	12995
581.159	13387
581.203	13811
581.215	13936
581.270	13875
581.276	13922
581.326	14473
581.349	13942
581.382	13151
581.422	12887
581.438	12807
581.494	13514
581.494	13504
581.550	13300
581.567	13287
581.606	13266
581.640	13245
581.661	13250
581.713	13885
581.717	13939
581.773	13324
581.786	13194
581.829	12875
581.859	13296
581.885	13636
581.932	13219
581.940	13159
581.996	13731
582.004	13743
582.052	13806
582.077	13384
582.107	12870
582.150	13338
582.163	13508
582.219	13426
582.223	13456
582.274	13881
582.296	14114
582.330	14482
582.368	15582
582.386	16039
582.441	13895
582.441	13896
582.497	13600
582.514	13716
582.552	13923
582.587	14137
582.608	14246
582.659	13890
582.663	13859
582.719	13741
582.732	13649
582.774	13616
582.805	14152
582.830	14543
582.877	14100
582.885	14008
582.941	14783
582.950	14769
582.996	14770
583.023	14462
583.052	14133
583.095	14566
583.107	14720
583.162	16194
583.168	16228
583.218	16413
583.240	16304
583.273	16089
583.313	15643
583.328	15499
583.384	15342
583.385	15344
583.439	15252
583.458	15171
583.494	15160
583.531	14977
583.549	14835
583.603	15011
583.605	15018
583.660	15164
583.676	15107
583.715	14944
583.748	15163
583.770	15333
583.820	16222
583.825	16320
583.881	16855
583.893	16756
583.936	16182
583.965	16032
583.991	15888
584.038	15395
584.046	15308
584.101	15639
584.110	15713
584.156	16391
584.183	16257
584.211	15877
584.255	16329
584.266	16501
584.321	15955
584.328	15971
584.376	16085
584.400	16410
584.431	16758
584.472	16974
584.486	17103
584.541	16957
584.545	16941
584.596	16494
584.617	16738
584.651	17334
584.689	17961
584.706	18170
584.761	18755
584.762	18757
584.816	18896
584.834	19007
584.871	19262
584.906	19615
584.926	19840
584.978	20268
584.980	20280
585.035	20646
585.051	21075
585.090	22474
585.123	23340
585.145	23865
585.195	25355
585.200	25567
585.254	28496
585.267	29323
585.309	32360
585.340	35375
585.364	37772
585.412	41876
585.419	42293
585.473	45778
585.484	46947
585.528	54044
585.556	60950
585.583	72894
585.628	100963
585.637	113521
585.692	215084
585.700	239454
585.747	398169
585.772	416201
585.801	335346
585.845	169885
585.856	137632
585.910	59506
585.917	52032
585.965	41724
585.989	37225
586.019	34574
586.061	32669
586.074	32458
586.128	31621
586.133	31598
586.183	31490
586.205	31619
586.237	32109
586.277	32855
586.292	33225
586.346	34726
586.349	34750
586.401	34271
586.421	34335
586.455	35205
586.493	37332
586.509	39027
586.564	45324
586.565	45621
586.618	64993
586.637	70565
586.672	72494
586.709	59069
586.727	51095
586.781	42698
586.781	42703
586.835	41176
586.853	40913
586.889	40107
586.925	39396
586.944	39626
586.996	41656
586.998	41714
587.052	41709
587.068	42220
587.106	43505
587.140	43964
587.161	44533
587.212	46709
587.215	46824
587.269	48498
587.284	49089
587.323	50858
587.356	51624
587.377	52269
587.427	54869
587.431	55071
587.485	57585
587.499	58107
587.539	60332
587.571	62728
587.593	64490
587.643	67972
587.648	68420
587.702	73428
587.715	74501
587.755	77648
587.786	80943
587.810	83898
587.858	88860
587.864	89576
587.917	98167
587.930	99955
587.971	107923
588.001	114522
588.025	120130
588.073	130798
588.079	132286
588.133	144554
588.145	148080
588.187	163372
588.217	173731
588.241	184473
588.288	207797
588.295	211570
588.348	244280
588.360	251530
588.402	283868
588.431	308244
588.456	331985
588.503	380880
588.510	390190
588.564	468904
588.575	486478
588.617	571606
588.646	633928
588.671	712581
588.718	873196
588.725	910223
588.778	1211456
588.789	1275420
588.832	1626333
588.861	1859957
588.886	1973776
588.932	2117720
588.939	2079411
588.993	1633738
589.004	1578017
589.047	1874810
589.075	2070656
589.100	2049000
589.147	1870829
589.154	1814662
589.207	1354783
589.218	1264823
589.261	1101072
589.290	1001050
589.314	994490
589.361	1001432
589.368	1024602
589.421	1233088
589.433	1280132
589.475	1592201
589.504	1808654
589.528	1873852
589.576	1902027
589.582	1894028
589.635	1832573
589.647	1818554
589.689	1715543
589.718	1582921
589.742	1343994
589.790	873909
589.795	846871
589.849	608469
589.861	555488
589.902	467388
589.932	405155
589.955	371424
590.004	299196
590.009	294645
590.062	247724
590.075	236409
590.115	212720
590.146	194441
590.168	185557
590.218	166516
590.222	165425
590.275	149945
590.289	145872
590.328	137486
590.360	130438
590.381	125763
590.431	114194
590.435	113828
590.488	106666
590.503	104642
590.541	100738
590.574	96969
590.594	94760
590.645	89032
590.647	88937
590.700	84173
590.716	82664
590.753	79804
590.787	77158
590.806	76043
590.859	72805
590.859	72825
590.912	69503
590.930	68415
590.965	66794
591.001	65145
591.018	64624
591.071	62665
591.072	62582
591.124	60727
591.143	59920
591.177	58566
591.214	56993
591.230	56945
591.283	56878
591.285	56809
591.336	56050
591.356	55730
591.389	54626
591.427	53057
591.442	52644
591.495	50909
591.498	50739
591.547	49391
591.569	48721
591.600	48183
591.640	47251
591.653	47183
591.706	46898
591.711	46826
591.759	47522
591.782	47842
591.811	49587
591.853	52182
591.864	51604
591.917	47785
591.924	47231
591.969	45624
591.995	44668
592.022	44470
592.066	44038
592.075	44311
592.127	45815
592.137	46070
592.180	50953
592.208	54079
592.233	51504
592.279	46082
592.285	45808
592.338	43329
592.350	42737
592.390	40821
592.421	39294
592.443	39674
592.491	40394
592.495	40367
592.548	39444
592.562	39150
592.600	39024
592.633	38849
592.653	38348
592.704	36756
592.705	37004
592.775	38969
592.846	38365
592.916	38476
592.987	39121
593.058	39045
593.128	37630
593.199	36365
593.270	36021
593.341	35824
593.411	35429
593.482	35964
593.553	37124
593.623	35752
593.694	36497
593.764	38609
593.835	37656
593.906	35959
593.976	36300
594.047	36184
594.117	40691
594.188	44848
594.258	38073
594.329	35565
594.399	35884
594.470	36050
594.540	35769
594.611	37580
594.681	37551
594.751	36342
594.822	39391
594.892	39798
594.963	41267
595.033	40971
595.103	41031
595.174	42333
595.244	50488
595.314	70895
595.384	52181
595.455	42990
595.525	42508
595.595	43752
595.665	44041
595.736	44184
595.806	43984
595.876	43448
595.946	43943
596.016	43885
596.087	45429
596.157	45380
596.227	44788
596.297	47137
596.367	48624
596.437	52641
596.507	59170
596.577	74340
596.647	60380
596.717	52042
596.787	53092
596.857	53484
596.927	53183
596.997	53000
597.067	53664
597.137	55907
597.207	56836
597.277	56258
597.347	55299
597.417	53405
597.487	51186
597.557	53563
597.626	54124
597.696	56083
597.766	60228
597.836	71688
597.906	63609
597.975	49507
598.045	49688
598.115	50606
598.185	51618
598.254	56444
598.324	62385
598.394	64072
598.464	63164
598.533	61996
598.603	57373
598.672	55808
598.742	57281
598.812	57304
598.881	57377
598.951	57381
599.020	57659
599.090	57732
599.159	61346
599.229	58933
599.299	56234
599.368	58084
599.437	58647
599.507	56395
599.576	53873
599.646	53937
599.715	53130
599.785	52350
599.854	52966
599.924	55274
599.993	54481
600.062	50915
600.132	50968
600.201	51324
600.270	57934
600.340	63893
600.409	62364
600.478	60692
600.547	61650
600.617	62201
600.686	51426
600.755	47034
600.824	44063
600.894	43894
600.963	42863
601.032	41705
601.101	40768
601.170	39862
601.239	39318
601.308	40773
601.378	43604
601.447	39644
601.516	39592
601.585	40123
601.654	44529
601.723	44913
601.792	41794
601.861	43209
601.930	44131
601.999	46220
602.068	43840
602.137	47483
602.206	51359
602.275	45826
602.343	45719
602.412	47532
602.481	45742
602.550	44642
602.619	45305
602.688	47021
602.756	45872
602.825	46671
602.894	46301
602.963	47882
603.032	48618
603.100	49553
603.169	48766
603.238	49135
603.307	49506
603.375	49284
603.444	48903
603.513	50450
603.581	50180
603.650	51942
603.719	51202
603.787	49790
603.856	52145
603.924	54079
603.993	54497
604.061	55961
604.130	58282
604.198	61827
604.267	60091
604.335	61148
604.404	61521
604.472	63130
604.541	64124
604.609	64712
604.678	63981
604.746	64537
604.815	66168
604.883	68506
604.951	67605
605.020	66684
605.088	69533
605.156	70871
605.225	71249
605.293	71428
605.361	71900
605.429	70881
605.498	72040
605.566	74998
605.634	77280
605.702	80158
605.771	82033
605.839	85040
605.907	82755
605.975	79305
606.043	78465
606.111	77541
606.180	77770
606.248	78113
606.316	78869
606.384	78835
606.452	79627
606.520	80478
606.588	82170
606.656	78534
606.724	79690
606.792	76269
606.860	69652
606.928	63180
606.996	60575
607.064	59084
607.132	59582
607.200	61736
607.267	64786
607.335	65126
607.403	66912
607.471	66656
607.539	63516
607.607	66056
607.674	59450
607.742	58448
607.810	58899
607.878	57231
607.946	57447
608.013	59349
608.081	62600
608.149	62213
608.216	62313
608.284	66119
608.352	65071
608.419	66816
608.487	71023
608.555	71490
608.622	65083
608.690	66825
608.757	71601
608.825	77572
608.893	74877
608.960	72858
609.028	71983
609.095	79720
609.163	75999
609.230	66634
609.298	59398
609.365	57517
609.432	60996
609.500	65558
609.567	72414
609.635	84368
609.702	93247
609.769	93547
609.837	84039
609.904	67903
609.971	66055
610.039	74189
610.106	97084
610.173	178582
610.241	457924
610.308	587761
610.375	149095
610.442	79945
610.509	67688
610.577	65107
610.644	64826
610.711	66501
610.778	66967
610.845	68830
610.912	72363
610.980	77482
611.047	81238
611.114	80384
611.181	73734
611.248	72457
611.315	74968
611.382	78224
611.449	79647
611.516	83008
611.583	81778
611.650	83779
611.717	85034
611.784	87659
611.851	90672
611.918	101401
611.984	121060
612.051	175580
612.118	347116
612.185	916019
612.252	1326459
612.319	330942
612.386	142607
612.452	116289
612.519	104761
612.586	105629
612.653	105215
612.719	97859
612.786	96315
612.853	88250
612.919	84021
612.986	85640
613.053	83293
613.120	78222
613.186	72821
613.253	75091
613.319	73498
613.386	75691
613.453	73396
613.519	75732
613.586	77508
613.652	82583
613.719	80244
613.785	80914
613.852	78643
613.918	76800
613.985	76310
614.051	83188
614.118	98737
614.184	120884
614.250	82977
614.317	79017
614.383	75767
614.449	77101
614.516	77200
614.582	78669
614.648	77050
614.715	74250
614.781	75413
614.847	74484
614.914	76560
614.980	75630
615.046	73916
615.112	74585
615.179	77899
615.245	79692
615.311	85821
615.377	105610
615.443	142069
615.509	113491
615.575	93764
615.642	87782
615.708	88376
615.774	95056
615.840	104328
615.906	122974
615.972	162666
616.038	278558
616.104	546884
616.170	1123286
616.236	1891395
616.302	609432
616.368	229155
616.434	167177
616.500	125201
616.565	123967
616.631	157746
616.697	161072
616.763	133495
616.829	174169
616.895	331160
616.961	477376
617.026	276629
617.092	124675
617.158	95236
617.224	87106
617.289	79987
617.355	74438
617.421	72777
617.487	73066
617.552	69001
617.618	65904
617.684	66754
617.749	67190
617.815	62690
617.880	63222
617.946	61570
618.012	61966
618.077	62700
618.143	61175
618.208	60415
618.274	63943
618.339	67449
618.405	59961
618.470	54881
618.536	57027
618.601	57059
618.667	55557
618.732	51331
618.798	49322
618.863	49532
618.928	48639
618.994	49476
619.059	51065
619.124	53359
619.190	53251
619.255	49595
619.320	49276
619.386	48925
619.451	48884
619.516	46923
619.581	47469
619.647	49088
619.712	49257
619.777	47519
619.842	46734
619.907	48699
619.972	47836
620.038	49343
620.103	47658
620.168	46941
620.233	47227
620.298	47520
620.363	48852
620.428	47923
620.493	49603
620.558	49975
620.623	50209
620.688	50915
620.753	48871
620.818	50955
620.883	52859
620.948	51354
621.013	51246
621.078	51011
621.143	50328
621.207	54339
621.272	52926
621.337	53557
621.402	52195
621.467	55604
621.532	63677
621.596	56566
621.661	51620
621.726	49435
621.791	49903
621.855	50791
621.920	51287
621.985	52732
622.049	58040
622.114	57275
622.179	55992
622.243	53355
622.308	55060
622.373	55618
622.437	57103
622.502	54115
622.566	52226
622.631	52254
622.695	53131
622.760	51342
622.824	51056
622.889	51933
622.953	52704
623.018	56684
623.082	64070
623.147	56243
623.211	54911
623.276	53432
623.340	53470
623.404	49802
623.469	50101
623.533	49663
623.597	50038
623.662	48936
623.726	48017
623.790	44013
623.854	43966
623.919	44400
623.983	44138
624.047	44680
624.111	44246
624.176	44319
624.240	46092
624.304	48135
624.368	46578
624.432	45995
624.496	46375
624.560	48664
624.625	51655
624.689	49559
624.753	49943
624.817	48940
624.881	47599
624.945	46222
625.009	42430
625.073	42028
625.137	43958
625.201	46566
625.265	50974
625.329	45054
625.393	45701
625.456	46455
625.520	47316
625.584	50032
625.648	54958
625.712	67306
625.776	111513
625.839	165236
625.903	114876
625.967	48947
626.031	53758
626.095	92633
626.158	74005
626.222	39608
626.286	34176
626.349	32072
626.413	31184
626.477	30164
626.540	31676
626.604	31781
626.668	30132
626.731	28911
626.795	30261
626.858	31400
626.922	30742
626.986	30266
627.049	28779
627.113	30291
627.176	29871
627.240	28767
627.303	29024
627.366	29421
627.430	28856
627.493	28148
627.557	30036
627.620	29487
627.684	29937
627.747	30114
627.810	29572
627.874	27607
627.937	25496
628.000	26150
628.064	26446
628.127	23892
628.190	23892
628.253	23651
628.317	22965
628.380	21592
628.443	22149
628.506	21034
628.569	21409
628.632	19559
628.696	20551
628.759	19853
628.822	18905
628.885	17795
628.948	18639
629.011	18792
629.074	18265
629.137	17883
629.200	17077
629.263	18533
629.326	18220
629.389	17901
629.452	17371
629.515	18055
629.578	18154
629.641	18008
629.704	18199
629.767	18451
629.830	17804
629.892	16120
629.955	16967
630.018	17563
630.081	17667
630.144	18863
630.207	17654
630.269	18603
630.332	18766
630.395	19866
630.458	16642
630.520	14987
630.583	16583
630.646	16137
630.708	15071
630.771	15973
630.834	16524
630.896	16652
630.959	15883
631.021	16170
631.084	16450
631.146	17594
631.209	20568
631.272	19370
631.334	16798
631.397	17062
631.459	16993
631.522	16909
631.584	18805
631.646	20191
631.709	21805
631.771	23293
631.834	24515
631.896	20270
631.958	18551
632.021	17906
632.083	16258
632.145	16025
632.208	16839
632.270	15048
632.332	16386
632.395	14243
632.457	15340
632.519	15696
632.581	15012
632.643	13323
632.706	14824
632.768	13857
632.830	14361
632.892	14014
632.954	15217
633.016	15683
633.078	14768
633.141	14429
633.203	14668
633.265	14596
633.327	14676
633.389	14506
633.451	15494
633.513	16851
633.575	17795
633.637	18099
633.698	17423
633.760	16705
633.822	16242
633.884	16481
633.946	17939
634.008	18424
634.070	19688
634.132	21272
634.193	24056
634.255	24485
634.317	25978
634.379	25457
634.441	23706
634.502	21247
634.564	19645
634.626	17607
634.687	16569
634.749	16251
634.811	16040
634.873	15014
634.934	14991
634.996	15070
635.057	15056
635.119	14729
635.181	16145
635.242	16543
635.304	14202
635.365	15933
635.427	15541
635.488	15876
635.550	15138
635.611	16166
635.673	14948
635.734	18266
635.796	18703
635.857	20942
635.918	21746
635.980	24376
636.041	26044
636.102	27699
636.164	29509
636.225	28236
636.286	26374
636.348	23953
636.409	19400
636.470	18117
636.531	16533
636.593	18028
636.654	18549
636.715	13991
636.776	13520
636.838	13965
636.899	13305
636.960	13442
637.021	12874
637.082	13173
637.143	12413
637.204	11469
637.265	11524
637.326	12086
637.387	11778
637.448	11754
637.509	12359
637.570	11901
637.631	12141
637.692	11835
637.753	11084
637.814	10756
637.875	11414
637.936	11621
637.997	11270
638.058	12647
638.119	11770
638.179	11479
638.240	11566
638.301	11673
638.362	11179
638.423	11329
638.483	10285
638.544	9386
638.605	10615
638.666	10540
638.726	11267
638.787	10413
638.848	10055
638.908	10440
638.969	9367
639.030	10001
639.090	9315
639.151	9674
639.211	10557
639.272	10814
639.332	13562
639.393	13846
639.453	11449
639.514	12716
639.574	11865
639.635	9342
639.695	9778
639.756	9596
639.816	10214
639.877	9494
639.937	12512
639.997	16144
640.058	12763
640.118	10435
640.178	9973
640.239	8586
640.299	10006
640.359	8849
640.420	9211
640.480	10940
640.540	13512
640.600	14558
640.661	13250
640.721	11968
640.781	14587
640.841	15515
640.901	12659
640.961	9912
641.021	10194
641.082	11618
641.142	12818
641.202	12509
641.262	8828
641.322	9057
641.382	8661
641.442	8626
641.502	9657
641.562	8848
641.622	8587
641.682	10027
641.742	11055
641.802	12143
641.861	10307
641.921	9640
641.981	9262
642.041	9365
642.101	9665
642.161	9932
642.221	8187
642.280	7996
642.340	8401
642.400	8936
642.460	8912
642.519	8338
642.579	9546
642.639	9492
642.698	7892
642.758	10011
642.818	9532
642.877	9054
642.937	9431
642.997	9207
643.056	10761
643.116	10047
643.175	10268
643.235	9628
643.294	10215
643.354	10387
643.414	11139
643.473	14219
643.532	17156
643.592	23792
643.651	37985
643.711	67102
643.770	128222
643.830	270558
643.889	804120
643.948	631659
644.008	78490
644.067	29712
644.126	21132
644.186	15709
644.245	14276
644.304	10926
644.363	11287
644.423	10335
644.482	10029
644.541	10866
644.600	10762
644.659	13286
644.719	16015
644.778	23207
644.837	40537
644.896	75658
644.955	193752
645.014	199717
645.073	31102
645.132	16078
645.191	12774
645.250	11612
645.309	11874
645.368	11471
645.427	14547
645.486	20324
645.545	46810
645.604	33815
645.663	11010
645.722	10702
645.781	11441
645.840	12296
645.898	15949
645.957	22170
646.016	33415
646.075	62742
646.134	121087
646.192	262072
646.251	726865
646.310	341465
646.369	45366
646.427	23211
646.486	18467
646.545	13587
646.603	11746
646.662	10320
646.721	9489
646.779	9025
646.838	8967
646.896	11453
646.955	16510
647.014	23741
647.072	42814
647.131	104391
647.189	158031
647.248	26332
647.306	11293
647.365	9004
647.423	6841
647.481	8112
647.540	5697
647.598	7101
647.657	6876
647.715	6729
647.773	6712
647.832	6458
647.890	6013
647.948	6522
648.007	6578
648.065	5924
648.123	5757
648.181	7125
648.240	5903
648.298	7007
648.356	6561
648.414	6646
648.472	7194
648.531	6425
648.589	6352
648.647	6108
648.705	5595
648.763	6038
648.821	6437
648.879	6859
648.937	7646
648.995	9017
649.053	11623
649.111	16905
649.169	28176
649.227	51701
649.285	99380
649.343	269984
649.401	413769
649.459	67322
649.516	25429
649.574	15283
649.632	18664
649.690	31490
649.748	22085
649.806	19793
649.863	35756
649.921	69855
649.979	128780
650.037	28215
650.094	8281
650.152	7137
650.210	6690
650.268	6403
650.325	7248
650.383	7408
650.440	6007
650.498	5047
650.556	5311
650.613	5045
650.671	5302
650.728	5203
650.786	6097
650.843	6247
650.901	6760
650.958	5048
651.016	5420
651.073	4110
651.131	4412
651.188	3891
651.246	5597
651.303	3758
651.360	4338
651.418	4088
651.475	5439
651.532	3367
651.590	4595
651.647	3155
651.704	4924
651.762	3960
651.819	4783
651.876	3763
651.933	3779
651.990	4625
652.048	3990
652.105	3572
652.162	4409
652.219	4242
652.276	3809
652.333	4007
652.390	3062
652.448	3748
652.505	4109
652.562	3899
652.619	3971
652.676	4702
652.733	7151
652.790	4066
652.847	3193
652.904	3105
652.961	3255
653.017	2982
653.074	3746
653.131	3262
653.188	3409
653.245	3047
653.302	3403
653.359	3322
653.415	3542
653.472	2927
653.529	3877
653.586	3319
653.642	3808
653.699	4124
653.756	3252
653.813	3314
653.869	3725
653.926	3286
653.983	3554
654.039	3168
654.096	3407
654.152	4159
654.209	2719
654.266	4302
654.322	3837
654.379	4404
654.435	3527
654.492	4702
654.548	5615
654.605	8778
654.661	9149
654.717	3901
654.774	4661
654.830	4773
654.887	4915
654.943	4056
655.000	4863
655.056	5279
655.112	4385
655.168	3819
655.225	3538
655.281	4670
655.337	5247
655.394	9402
655.450	10615
655.506	6912
655.562	8394
655.618	13506
655.675	4433
655.731	3736
655.787	3609
655.843	3438
655.899	3273
655.955	3665
656.011	3997
656.067	2310
656.123	4462
656.179	3736
656.235	4305
656.291	3309
656.347	4773
656.403	3829
656.459	4607
656.515	4118
656.571	5328
656.627	4497
656.683	3377
656.739	4056
656.795	3502
656.850	3442
656.906	3827
656.962	4309
657.018	3717
657.074	3938
657.129	4293
657.185	5595
657.241	9043
657.297	11786
657.352	4909
657.408	3192
657.464	4037
657.519	3762
657.575	2369
657.630	2473
657.686	3140
657.742	2408
657.797	2837
657.853	2513
657.908	4367
657.964	2415
658.019	2585
658.075	2762
658.130	3807
658.186	1960
658.241	3029
658.297	2964
658.352	2808
658.407	3179
658.463	2925
658.518	3656
658.573	3082
658.629	2806
658.684	2979
658.739	3010
658.795	1979
658.850	3247
658.905	2866
658.960	3484
659.016	2674
659.071	2426
659.126	3177
659.181	2833
659.236	5156
659.291	4396
659.346	3490
659.401	2964
659.457	3875
659.512	3636
659.567	4290
659.622	2233
659.677	3015
659.732	2155
659.787	2677
659.842	2246
659.897	4887
659.952	4869
660.007	3613
660.061	2301
660.116	2668
660.171	2622
660.226	3351
660.281	3401
660.336	2983
660.391	2768
660.445	2710
660.500	2984
660.555	2749
660.610	2209
660.664	3519
660.719	2573
660.774	2742
660.828	2615
660.883	3475
660.938	3142
660.992	2354
661.047	2584
661.101	2296
661.156	2339
661.211	1803
661.265	2013
661.320	3255
661.374	2960
661.429	2600
661.483	3076
661.538	2545
661.592	2816
661.647	3795
661.701	3496
661.755	4159
661.810	3334
661.864	2617
661.919	1689
661.973	2859
662.027	2553
662.081	2530
662.136	2725
662.190	3489
662.244	2900
662.299	2884
662.353	2832
662.407	2357
662.461	2578
662.515	3344
662.569	2678
662.624	3421
662.678	3082
662.732	2613
662.786	2393
662.840	3003
662.894	3196
662.948	2783
663.002	2140
663.056	2457
663.110	2105
663.164	2887
663.218	2471
663.272	2503
663.326	2459
663.380	2932
663.434	2837
663.488	2965
663.542	2930
663.595	3103
663.649	2787
663.703	3084
663.757	2134
663.811	2339
663.864	2139
663.918	3421
663.972	2003
664.026	3145
664.079	2442
664.133	3338
664.187	3082
664.240	3113
664.294	2459
664.348	2461
664.401	2937
664.455	3034
664.508	2363
664.562	3123
664.615	2241
664.669	1990
664.722	2739
664.776	2648
664.829	3051
664.883	3068
664.936	2480
664.990	2688
665.043	3246
665.097	2423
665.150	3967
665.203	3558
665.257	3152
665.310	3147
665.363	2832
665.417	3635
665.470	3142
665.523	3363
665.576	3599
665.630	3865
665.683	3687
665.736	3460
665.789	2784
665.842	2455
665.895	2863
665.949	2963
666.002	2720
666.055	3477
666.108	3561
666.161	3171
666.214	3173
666.267	3171
666.320	2760
666.373	4414
666.426	2664
666.479	2538
666.532	3661
666.585	4389
666.638	4746
666.691	4603
666.744	4663
666.796	4661
666.849	4905
666.902	5373
666.955	3312
667.008	3344
667.060	2940
667.113	2681
667.166	2110
667.219	3252
667.271	3367
667.324	3427
667.377	3009
667.430	3156
667.482	2708
667.535	3609
667.587	2616
667.640	3474
667.693	3366
667.745	4261
667.798	4839
667.850	4140
667.903	2641
667.955	2533
668.008	2793
668.060	4008
668.113	3114
668.165	3487
668.218	3350
668.270	3721
668.322	2931
668.375	3224
668.427	3589
668.479	3179
668.532	2976
668.584	2923
668.636	3412
668.689	3342
668.741	2761
668.793	3060
668.845	2406
668.898	3695
668.950	2544
669.002	3358
669.054	3265
669.106	2650
669.158	3196
669.211	3175
669.263	3146
669.315	3512
669.367	3809
669.419	2623
669.471	4509
669.523	4214
669.575	4461
669.627	5786
669.679	4269
669.731	3644
669.783	4126
669.835	4628
669.886	3893
669.938	3030
669.990	3595
670.042	3322
670.094	3305
670.146	2782
670.197	2747
670.249	3598
670.301	2435
670.353	4026
670.404	3505
670.456	4298
670.508	5121
670.560	7513
670.611	11138
670.663	19171
670.715	31775
670.766	83593
670.818	63464
670.869	10251
670.921	4739
670.972	3983
671.024	3550
671.075	3134
671.127	3594
671.178	3461
671.230	3556
671.281	3873
671.333	3800
671.384	4243
671.436	4802
671.487	6935
671.538	7752
671.590	11637
671.641	16924
671.692	25566
671.744	48439
671.795	68732
671.846	35073
671.897	15465
671.949	9670
672.000	7508
672.051	5087
672.102	4941
672.153	3588
672.204	4417
672.256	2736
672.307	3389
672.358	3673
672.409	3697
672.460	3728
672.511	3791
672.562	2396
672.613	3297
672.664	2422
672.715	3031
672.766	2738
672.817	3002
672.868	2661
672.919	3004
672.970	3028
673.021	3002
673.071	3035
673.122	3029
673.173	2903
673.224	2769
673.275	2333
673.326	3320
673.376	2582
673.427	2157
673.478	2135
673.528	2769
673.579	2656
673.630	2782
673.680	2758
673.731	2469
673.782	2690
673.832	3251
673.883	2208
673.934	2744
673.984	2991
674.035	2598
674.085	2181
674.136	3631
674.186	3006
674.237	4489
674.287	5964
674.338	7276
674.388	2887
674.438	3317
674.489	2892
674.539	3388
674.589	3104
674.640	3135
674.690	3814
674.740	2741
674.791	3868
674.841	3901
674.891	3397
674.942	2231
674.992	1906
675.042	2850
675.092	3005
675.142	3166
675.193	2260
675.243	2760
675.293	2029
675.343	2112
675.393	2922
675.443	3068
675.493	2585
675.543	1703
675.593	2169
675.643	3289
675.693	2568
675.743	2693
675.793	2421
675.843	2033
675.893	1716
675.943	2437
675.993	1843
676.043	2073
676.093	2454
676.142	2101
676.192	2365
676.242	2086
676.292	1827
676.341	2081
676.391	2218
676.441	1944
676.491	1575
676.540	2303
676.590	2022
676.640	1815
676.689	1358
676.739	2092
676.789	2058
676.838	1376
676.888	1679
676.937	2015
676.987	1660
677.037	1794
677.086	1381
677.136	1991
677.185	1664
677.235	1632
677.284	1601
677.333	1982
677.383	1617
677.432	1386
677.482	1797
677.531	2949
677.580	1917
677.630	2219
677.679	2647
677.728	2214
677.778	1112
677.827	2534
677.876	1756
677.925	1174
677.975	926
678.024	2303
678.073	1531
678.122	1673
678.171	2445
678.220	2673
678.269	2987
678.319	3407
678.368	2401
678.417	3036
678.466	2844
678.515	2087
678.564	2326
678.613	2332
678.662	1764
678.711	1382
678.760	1649
678.809	2517
678.857	2150
678.906	2177
678.955	2075
679.004	1608
679.053	1895
679.102	2159
679.151	2082
679.199	2073
679.248	2099
679.297	1482
679.346	1499
679.394	2626
679.443	2439
679.492	1417
679.540	1558
679.589	2276
679.638	1237
679.686	1900
679.735	1708
679.784	1634
679.832	1786
679.881	2453
679.929	1691
679.978	2070
680.026	1261
680.075	1980
680.123	1459
680.172	1628
680.220	1675
680.268	1364
680.317	1361
680.365	1440
680.414	1405
680.462	1587
680.510	1384
680.559	2380
680.607	1435
680.655	1639
680.703	1213
680.752	2074
680.800	785
680.848	963
680.896	997
680.945	1211
680.993	1354
681.041	2042
681.089	893
681.137	941
681.185	822
681.233	1271
681.258	1504
681.281	1666
681.329	2314
681.377	1733
681.380	1807
681.425	2039
681.473	2104
681.502	1736
681.521	1386
681.569	2418
681.617	2252
681.624	2383
681.665	2746
681.713	3039
681.745	2678
681.761	2408
681.809	2181
681.857	3204
681.867	3151
681.904	2751
681.952	3466
681.989	3040
682.000	2843
682.048	3118
682.096	3086
682.111	3239
682.143	3354
682.191	3473
682.233	4197
682.239	4241
682.286	4903
682.334	4236
682.354	4320
682.382	4339
682.430	4142
682.476	4540
682.477	4496
682.525	3872
682.572	4868
682.598	4628
682.620	4360
682.667	4667
682.715	5020
682.720	5043
682.763	4705
682.810	5427
682.841	5458
682.857	5413
682.905	5580
682.952	5906
682.963	5944
683.000	5833
683.047	5631
683.085	5819
683.095	5832
683.142	5852
683.190	5725
683.206	5982
683.237	6248
683.284	6322
683.328	6734
683.332	6732
683.379	6077
683.426	6362
683.449	6279
683.473	6103
683.521	6770
683.568	6829
683.571	6893
683.615	7160
683.662	7179
683.693	7338
683.709	7357
683.757	7054
683.804	8216
683.814	7953
683.851	6930
683.898	7764
683.936	7867
683.945	7823
683.992	9047
684.039	8252
684.057	8250
684.086	8241
684.133	8471
684.179	8750
684.180	8720
684.227	8438
684.274	9096
684.300	8925
684.321	8769
684.368	9133
684.415	8239
684.422	8409
684.462	9183
684.509	8633
684.543	9009
684.556	9111
684.603	9371
684.649	8577
684.665	8773
684.696	9117
684.743	9199
684.786	9734
684.790	9768
684.837	10223
684.883	11058
684.908	10996
684.930	11032
684.977	12119
685.023	12327
685.029	12424
685.070	11993
685.117	11673
685.150	11438
685.164	11451
685.210	11935
685.257	12239
685.272	12310
685.303	12443
685.350	12093
685.393	12459
685.396	12451
685.443	11870
685.490	12909
685.514	13011
685.536	13134
685.583	12741
685.629	12834
685.636	12795
685.675	12315
685.722	13150
685.757	13144
685.768	13126
685.815	13228
685.861	13665
685.878	13484
685.908	13329
685.954	13942
686.000	13874
686.000	13870
686.047	16138
686.093	17182
686.121	18246
686.139	18837
686.185	18701
686.232	19785
686.242	19950
686.278	18218
686.324	16771
686.363	14903
686.370	14815
686.416	14424
686.463	14256
686.484	14280
686.509	14502
686.555	13890
686.601	14420
686.606	14429
686.647	14312
686.693	14967
686.727	15026
686.739	15087
686.785	13976
686.831	14665
686.848	14838
686.877	15026
686.923	14558
686.969	14769
686.969	14767
687.015	14412
687.061	14927
687.090	14786
687.107	14844
687.153	15535
687.199	15776
687.211	15727
687.245	15366
687.291	15533
687.332	15854
687.336	15962
687.382	16667
687.428	17899
687.453	18116
687.474	17563
687.520	16785
687.565	16111
687.574	15941
687.611	15806
687.657	16192
687.695	15993
687.702	16142
687.748	17072
687.794	18826
687.816	19336
687.839	19650
687.885	19642
687.931	20351
687.937	20348
687.976	18489
688.022	17637
688.058	16406
688.067	16480
688.113	16479
688.158	16739
688.179	16936
688.204	16957
688.249	16748
688.295	16583
688.300	16471
688.340	16327
688.386	17730
688.421	18061
688.431	18024
688.477	17833
688.522	17475
688.542	17603
688.567	17870
688.613	17773
688.658	17447
688.663	17408
688.703	17176
688.749	17048
688.784	17388
688.794	17592
688.839	17649
688.884	17992
688.905	18126
688.930	18106
688.975	18091
689.020	17777
689.026	17801
689.065	18138
689.110	17994
689.146	17942
689.155	18007
689.201	18503
689.246	18437
689.267	18749
689.291	18916
689.336	18708
689.381	18293
689.388	18268
689.426	18394
689.471	18124
689.509	18616
689.516	18703
689.561	18042
689.606	18021
689.630	17942
689.651	18024
689.696	17966
689.741	18161
689.750	18182
689.785	18381
689.830	18179
689.871	18627
689.875	18653
689.920	18012
689.965	17769
689.992	17380
690.010	17422
690.054	17773
690.099	18005
690.112	18257
690.144	18912
690.189	18492
690.233	18776
690.233	18801
690.278	18619
690.323	18245
690.354	17889
690.367	17954
690.412	18543
690.457	18740
690.474	18819
690.501	18883
690.546	19078
690.590	19146
690.595	19117
690.635	19014
690.680	18971
690.716	18965
690.724	19082
690.769	19731
690.813	19989
690.836	20032
690.857	20387
690.902	21738
690.946	22838
690.957	22963
690.991	25052
691.035	28699
691.077	31511
691.080	31821
691.124	37042
691.168	41500
691.198	44783
691.213	43857
691.257	40591
691.301	37965
691.318	36513
691.346	34208
691.390	31167
691.434	27510
691.439	27128
691.478	25643
691.522	23612
691.559	21714
691.567	21748
691.611	22048
691.655	21947
691.680	22077
691.699	22119
691.743	22087
691.787	21898
691.800	21809
691.831	21965
691.875	22108
691.919	22561
691.921	22519
691.964	22820
692.008	23374
692.041	23572
692.052	23681
692.096	24294
692.139	24449
692.162	24773
692.183	24590
692.227	23885
692.271	23141
692.282	22864
692.315	22917
692.359	23395
692.402	23563
692.403	23607
692.447	23430
692.490	23209
692.523	23021
692.534	23158
692.578	23716
692.622	24120
692.643	24167
692.666	23959
692.709	24066
692.753	23600
692.763	23495
692.797	23393
692.840	22864
692.884	22888
692.884	22936
692.928	22697
692.971	22720
693.004	22713
693.015	22913
693.059	23435
693.102	23839
693.124	23976
693.146	23827
693.189	23397
693.233	22863
693.245	22810
693.276	23892
693.320	25140
693.363	26150
693.365	26140
693.407	26324
693.450	26323
693.485	26272
693.493	26609
693.537	27848
693.580	29537
693.605	30384
693.624	31173
693.667	32689
693.710	34337
693.725	34897
693.753	39119
693.797	45614
693.840	52108
693.845	52807
693.883	63125
693.926	74505
693.966	84334
693.970	83503
694.013	73620
694.056	63358
694.086	56176
694.099	54025
694.142	46905
694.185	39831
694.206	36375
694.229	35449
694.272	33512
694.315	31416
694.326	30877
694.358	30663
694.401	29937
694.444	29513
694.446	29425
694.487	28331
694.530	26616
694.566	25602
694.573	25629
694.616	25141
694.659	24851
694.686	24530
694.702	24293
694.745	23364
694.787	22488
694.806	22107
694.830	22255
694.873	22384
694.916	22441
694.926	22427
694.959	22659
695.002	22542
695.044	23018
695.046	22965
695.087	22992
695.130	23268
695.166	23301
695.172	23410
695.215	23734
695.258	23988
695.286	24233
695.301	24399
695.343	24575
695.386	24888
695.406	24918
695.428	24744
695.471	24393
695.514	24010
695.526	23806
695.556	23985
695.599	24317
695.641	24671
695.646	24623
695.684	24778
695.726	25102
695.766	25255
695.769	25278
695.811	24780
695.854	24208
695.886	23778
695.896	23855
695.938	23750
695.981	23720
696.005	23707
696.023	23654
696.065	23323
696.108	23044
696.125	22792
696.150	23422
696.192	24550
696.235	25677
696.245	25874
696.277	25716
696.319	25466
696.361	25171
696.365	25095
696.404	25238
696.446	25111
696.485	25022
696.488	25056
696.530	24619
696.572	24368
696.604	23911
696.614	24095
696.656	24813
696.698	25345
696.724	25707
696.740	25467
696.783	24592
696.825	23789
696.844	23297
696.867	23563
696.909	24108
696.951	24449
696.964	24553
696.992	24532
697.034	24218
697.076	24070
697.083	23961
697.118	24420
697.160	25015
697.202	25557
697.203	25505
697.244	25075
697.286	24568
697.323	23996
697.327	24085
697.369	24411
697.411	24687
697.442	24836
697.453	24883
697.494	24822
697.536	24677
697.562	24570
697.578	24616
697.620	24564
697.661	24503
697.682	24401
697.703	24509
697.744	24555
697.786	24639
697.801	24614
697.828	25190
697.869	25953
697.911	26797
697.921	26901
697.952	26476
697.994	25922
698.035	25343
698.040	25202
698.077	25264
698.118	25262
698.160	25280
698.160	25212
698.201	25115
698.243	24933
698.279	24710
698.284	24854
698.325	25560
698.367	26285
698.399	26756
698.408	26719
698.449	26238
698.491	25757
698.518	25355
698.532	25370
698.573	25207
698.614	25054
698.638	24897
698.656	25112
698.697	25431
698.738	25782
698.757	25867
698.779	26057
698.820	26293
698.862	26523
698.877	26540
698.903	27147
698.944	27988
698.985	28839
698.996	28997
699.026	29199
699.067	29368
699.116	29491
699.235	26604
699.354	26137
699.474	25488
699.593	28044
699.713	34380
699.832	25979
699.951	25868
700.070	25483
700.190	24910
700.309	24523
700.428	26958
700.547	30188
700.667	25544
700.786	26833
700.905	29941
701.024	24061
701.143	29269
701.262	22926
701.381	22356
701.500	23360
701.619	23910
701.738	21831
701.857	22838
701.976	21941
702.095	21273
702.214	22264
702.333	23259
702.452	22375
702.571	21212
702.690	21601
702.809	21923
702.928	21087
703.047	20623
703.165	20720
703.284	20897
703.403	21389
703.522	23091
703.640	27777
703.759	24190
703.878	38159
703.997	37161
704.115	21899
704.234	20550
704.353	21045
704.471	19478
704.590	19375
704.708	19972
704.827	19544
704.946	19822
705.064	22998
705.183	22606
705.301	20892
705.420	29070
705.538	35229
705.656	28218
705.775	25835
705.893	28704
706.012	44144
706.130	34183
706.249	28192
706.367	27335
706.485	30406
706.604	29846
706.722	29125
706.840	30943
706.958	41436
707.077	43203
707.195	27387
707.313	25003
707.431	24310
707.549	24539
707.668	25606
707.786	25366
707.904	24926
708.022	23842
708.140	23269
708.258	22700
708.376	23197
708.494	23941
708.612	23728
708.730	29972
708.848	40376
708.966	33495
709.084	31109
709.202	28352
709.320	30402
709.438	30273
709.556	31338
709.674	31274
709.791	30384
709.909	28261
710.027	28921
710.145	29006
710.263	29265
710.380	28462
710.498	29971
710.616	28054
710.733	28775
710.851	29348
710.969	31767
711.086	30200
711.204	29626
711.322	27809
711.439	30243
711.557	30629
711.674	29145
711.792	27962
711.909	28265
712.027	27670
712.144	27642
712.262	26568
712.379	28067
712.497	34831
712.614	46165
712.732	38574
712.849	33092
712.966	33355
713.084	39451
713.201	37735
713.318	34901
713.436	35015
713.553	34129
713.670	35077
713.787	37174
713.905	45110
714.022	37999
714.139	33115
714.256	37722
714.373	42557
714.490	60484
714.608	102435
714.725	325264
714.842	1119999
714.959	320047
715.076	55731
715.193	39167
715.310	35463
715.427	31833
715.544	29014
715.661	29011
715.778	29281
715.895	31936
716.011	32906
716.128	32986
716.245	28324
716.362	29125
716.479	29705
716.596	28844
716.713	27249
716.829	27608
716.946	27710
717.063	26175
717.180	25513
717.296	24707
717.413	24839
717.530	25146
717.646	24645
717.763	23968
717.880	23274
717.996	23166
718.113	23111
718.229	23192
718.346	23234
718.462	21784
718.579	23873
718.695	26381
718.812	31664
718.928	36869
719.045	41513
719.161	22842
719.277	21862
719.394	21813
719.510	21768
719.626	24090
719.743	27519
719.859	34149
719.975	44066
720.092	106075
720.208	423594
720.324	339757
720.440	40452
720.557	28895
720.673	30063
720.789	39384
720.905	87990
721.021	132963
721.137	27343
721.253	22641
721.369	23302
721.486	25138
721.602	37568
721.718	36030
721.834	19357
721.950	18814
722.066	19492
722.181	19188
722.297	18588
722.413	18937
722.529	17586
722.645	18806
722.761	17781
722.877	18661
722.993	17519
723.108	19747
723.224	21008
723.340	20134
723.456	18635
723.571	17402
723.687	18139
723.803	16583
723.918	16067
724.034	15785
724.150	17355
724.265	18458
724.381	28835
724.497	79190
724.612	39060
724.728	16549
724.843	16492
724.959	18785
725.074	28322
725.190	73820
725.305	33466
725.421	21247
725.536	15347
725.651	14804
725.767	14949
725.882	14015
725.997	14172
726.113	14962
726.228	14699
726.343	15330
726.459	12547
726.574	14942
726.689	15798
726.804	14163
726.920	15382
727.035	14327
727.150	15798
727.265	14630
727.380	15590
727.495	14755
727.610	12841
727.725	12234
727.841	13855
727.956	15297
728.071	22755
728.186	17554
728.301	13070
728.416	12002
728.531	12976
728.645	11757
728.760	11496
728.875	13334
728.990	11781
729.105	13099
729.220	12378
729.335	13396
729.449	11920
729.564	12493
729.679	11221
729.794	12198
729.908	12373
730.023	14217
730.138	12743
730.253	10808
730.367	11798
730.482	11288
730.596	11733
730.711	11563
730.826	12153
730.940	14793
731.055	13056
731.169	12417
731.284	10674
731.398	11576
731.513	13002
731.627	15903
731.742	15022
731.856	22025
731.970	17181
732.085	16611
732.199	21401
732.313	32340
732.428	64316
732.542	176386
732.656	317533
732.771	86837
732.885	28119
732.999	20573
733.113	18829
733.227	17011
733.342	14559
733.456	13240
733.570	13303
733.684	11612
733.798	13565
733.912	13038
734.026	10983
734.140	11067
734.254	12072
734.368	17573
734.482	42494
734.596	22405
734.710	10542
734.824	10141
734.938	10273
735.052	11117
735.166	10629
735.280	13927
735.393	10699
735.507	10908
735.621	12522
735.735	24440
735.849	34372
735.962	11615
736.076	10782
736.190	12447
736.303	12395
736.417	27429
736.531	17659
736.644	12118
736.758	10088
736.872	9948
736.985	8981
737.099	9635
737.212	8249
737.326	9385
737.439	9470
737.553	9177
737.666	8058
737.780	8730
737.893	7216
738.007	9037
738.120	7743
738.233	8329
738.347	7982
738.460	8523
738.573	7940
738.687	8905
738.800	8370
738.913	8729
739.026	9444
739.140	8469
739.253	8037
739.366	8241
739.479	7533
739.592	7967
739.705	8533
739.818	8282
739.932	8515
740.045	7596
740.158	8461
740.271	9010
740.384	8803
740.497	8287
740.610	8419
740.723	7885
740.836	7889
740.949	8104
741.062	8381
741.174	9803
741.287	8841
741.400	8489
741.513	7665
741.626	7671
741.739	8344
741.851	7803
741.964	6922
742.077	7380
742.189	7984
742.302	8211
742.415	8462
742.527	7745
742.640	7933
742.753	8337
742.865	6933
742.978	7538
743.090	6989
743.203	7372
743.316	7532
743.428	7085
743.541	6906
743.653	6558
743.766	6297
743.878	7426
743.990	8752
744.103	15122
744.215	7527
744.327	7108
744.440	6505
744.552	8118
744.664	7837
744.777	6597
744.889	7388
745.001	6583
745.113	6460
745.226	7265
745.338	6732
745.450	6113
745.562	6530
745.674	6535
745.786	5908
745.898	5846
746.010	6176
746.122	6710
746.234	5810
746.347	6518
746.459	5724
746.570	5995
746.682	5449
746.794	6864
746.906	5865
747.018	6595
747.130	5701
747.242	5954
747.354	5350
747.466	6276
747.577	6673
747.689	5573
747.801	5833
747.913	5417
748.024	4759
748.136	5669
748.248	5635
748.359	5576
748.471	5525
748.583	4770
748.694	5812
748.806	7606
748.918	8130
749.029	11811
749.141	5547
749.252	5892
749.364	5372
749.475	7576
749.587	9775
749.698	8719
749.809	6077
749.921	5045
750.032	4595
750.144	4981
750.255	4919
750.366	5572
750.478	4908
750.589	5496
750.700	5596
750.811	5579
750.923	6016
751.034	6177
751.145	10346
751.256	7269
751.367	4094
751.479	5777
751.590	4825
751.701	5654
751.812	5313
751.923	5867
752.034	4963
752.145	4985
752.256	5055
752.367	5204
752.478	4218
752.589	5286
752.700	4118
752.811	5109
752.922	4007
753.032	4797
753.143	5374
753.254	5487
753.365	4968
753.476	5473
753.586	4721
753.697	4821
753.808	4409
753.919	5081
754.029	4884
754.140	5220
754.251	4486
754.361	5318
754.472	5139
754.582	5090
754.693	5426
754.804	4881
754.914	4595
755.025	4141
755.135	4296
755.246	4989
755.356	4311
755.466	4671
755.577	4215
755.687	4782
755.798	4839
755.908	4809
756.018	3872
756.129	4565
756.239	4272
756.349	4616
756.460	4621
756.570	5423
756.680	4961
756.790	5028
756.900	5063
757.011	4570
757.121	4366
757.231	4508
757.341	4133
757.451	4015
757.561	3977
757.671	4218
757.781	3936
757.891	5461
758.001	4512
758.111	5045
758.221	4994
758.331	5140
758.441	4988
758.551	6022
758.661	7163
758.771	6216
758.880	5452
758.990	6287
759.100	5467
759.210	5529
759.320	5624
759.429	5793
759.539	6448
759.649	6681
759.758	6969
759.868	7519
759.978	7767
760.087	7657
760.197	7509
760.307	8026
760.416	7546
760.526	7205
760.635	6849
760.745	7580
760.854	7989
760.964	8960
761.073	9429
761.182	9770
761.292	8314
761.401	8308
761.511	9671
761.620	6997
761.729	7315
761.839	7486
761.948	7243
762.057	6965
762.166	7372
762.276	6841
762.385	6564
762.494	6676
762.603	7022
762.712	6949
762.822	6585
762.931	8010
763.040	6615
763.149	7794
763.258	6372
763.367	7721
763.476	7269
763.585	7673
763.694	8486
763.803	9033
763.912	8805
764.021	8935
764.130	8493
764.238	8923
764.347	9382
764.456	11392
764.565	11500
764.674	11910
764.783	11723
764.891	12980
765.000	13463
765.109	15231
765.217	15609
765.326	19124
765.435	23560
765.543	28027
765.652	31176
765.761	38064
765.869	51253
765.978	72659
766.086	112787
766.195	191452
766.303	371346
766.412	759857
766.520	905452
766.629	802344
766.737	390881
766.846	189809
766.954	112837
767.062	76752
767.171	56543
767.279	45062
767.387	34439
767.496	27260
767.604	23423
767.712	21127
767.820	18847
767.928	17932
768.037	16036
768.145	15092
768.253	14984
768.361	14677
768.469	14039
768.577	13799
768.685	13933
768.793	15704
768.901	16074
769.009	19082
769.117	19690
769.225	23753
769.333	31223
769.441	44997
769.549	74096
769.657	138497
769.765	313985
769.873	713297
769.981	731641
770.088	362568
770.196	135067
770.304	72057
770.412	47693
770.519	36439
770.627	28392
770.735	23219
770.842	18831
770.950	17345
771.058	15192
771.165	14095
771.273	13661
771.380	12135
771.488	11072
771.595	11357
771.703	10625
771.810	11011
771.918	9059
772.025	10602
772.133	10028
772.240	9371
772.348	9558
772.455	9303
772.562	8640
772.670	8516
772.777	8901
772.884	7924
772.991	7545
773.099	7390
773.206	7682
773.313	7017
773.420	8199
773.528	6584
773.635	6494
773.742	7719
773.849	6683
773.956	7522
774.063	6720
774.170	6767
774.277	6488
774.384	7581
774.491	6933
774.598	7632
774.705	7060
774.812	7281
774.919	7307
775.026	7622
775.133	7280
775.239	6910
775.346	6309
775.453	7169
775.560	6072
775.667	7012
775.773	6487
775.880	6556
775.987	6329
776.093	6766
776.200	5971
776.307	6626
776.413	6425
776.520	5804
776.627	6506
776.733	6155
776.840	5842
776.946	7196
777.053	5853
777.159	6764
777.266	6097
777.372	7200
777.478	6737
777.585	6659
777.691	5119
777.798	5919
777.904	6558
778.010	6179
778.117	7346
778.223	6096
778.329	5979
778.435	6143
778.542	5533
778.648	6113
778.754	5023
778.860	5471
778.966	5222
779.072	7182
779.178	5248
779.284	5986
779.391	4728
779.497	5576
779.603	6151
779.708	6011
779.815	7867
779.920	13256
780.026	44333
780.132	40874
780.238	6831
780.344	5164
780.450	5201
780.556	5312
780.661	3770
780.767	4327
780.873	5727
780.979	4528
781.085	5056
781.190	4884
781.296	4869
781.402	3647
781.507	4799
781.613	4022
781.719	3714
781.824	5254
781.930	5003
782.035	4625
782.141	3927
782.246	4603
782.352	4124
782.457	4523
782.563	3629
782.668	4757
782.773	4147
782.879	4877
782.984	4096
783.090	4770
783.195	5267
783.300	5740
783.405	4745
783.511	4165
783.616	4221
783.721	5491
783.826	4189
783.932	4219
784.037	4207
784.142	4591
784.247	4499
784.352	4667
784.457	4077
784.562	4178
784.667	3885
784.772	4296
784.877	3914
784.982	4889
785.087	4256
785.192	4444
785.297	4441
785.402	3959
785.507	4642
785.611	4000
785.716	3505
785.821	4698
785.926	3753
786.031	3702
786.135	2902
786.240	4348
786.345	2268
786.450	2896
786.554	3964
786.659	3918
786.763	3254
786.868	3825
786.973	3398
787.077	4441
787.182	2990
787.286	3390
787.391	3444
787.495	3858
787.600	3178
787.704	3529
787.809	2942
787.913	3165
788.017	3274
788.122	3756
788.226	3637
788.330	2889
788.435	3394
788.539	3861
788.643	3518
788.747	3300
788.852	2914
788.956	3376
789.060	3192
789.164	2155
789.268	2310
789.372	3449
789.476	3075
789.580	3632
789.684	2289
789.788	3206
789.892	2806
789.996	3651
790.100	2926
790.204	2657
790.308	2757
790.412	4006
790.516	3594
790.620	3593
790.724	4100
790.828	3306
790.931	2581
791.035	4154
791.139	2445
791.242	3310
791.346	2702
791.450	2683
791.554	2570
791.657	2593
791.761	2856
791.864	3126
791.968	2838
792.072	3267
792.175	2702
792.279	3698
792.382	3622
792.486	3087
792.589	3172
792.693	4718
792.796	3033
792.899	3172
793.003	2424
793.106	2968
793.209	2282
793.313	3470
793.416	1881
793.519	2777
793.623	2518
793.726	4198
793.829	4092
793.932	2053
794.035	2277
794.138	2910
794.242	4053
794.345	3937
794.448	5638
794.551	5446
794.654	8545
794.757	21267
794.860	21354
794.963	8038
795.066	3796
795.169	3226
795.272	2664
795.375	2861
795.477	2264
795.580	2476
795.683	1743
795.786	3275
795.889	2216
795.991	3613
796.094	3399
796.197	4733
796.300	3667
796.402	2762
796.505	1996
796.608	1926
796.710	2918
796.813	2437
796.915	2742
797.018	2575
797.120	1994
797.223	2497
797.326	3219
797.428	2532
797.530	2292
797.633	3325
797.735	3188
797.838	5340
797.940	11492
798.042	4915
798.145	2688
798.247	1700
798.349	1998
798.452	1463
798.554	2542
798.656	2259
798.758	2107
798.860	3399
798.962	2188
799.065	3113
799.167	1486
799.269	2961
799.371	3117
799.473	4245
799.575	4000
799.677	5940
799.779	5759
799.881	3332
799.983	3528
800.085	2644
800.187	2247
800.289	2317
800.390	2778
800.492	3164
800.594	2475
800.696	2115
800.798	2104
800.899	2089
801.001	2572
801.103	2343
801.205	2313
801.306	2092
801.408	1855
801.509	2955
801.611	1810
801.713	2469
801.814	1719
801.916	2327
802.017	1450
802.119	1586
802.220	1904
802.322	1323
802.423	3693
802.525	6855
802.626	3772
802.727	1415
802.829	2536
802.930	1523
803.031	2678
803.133	1732
803.234	861
803.335	1859
803.436	2254
803.538	2120
803.639	1590
803.740	2026
803.841	988
803.942	1888
804.043	2250
804.144	1645
804.245	1503
804.346	1633
804.447	1189
804.548	1951
804.649	2411
804.750	2123
804.851	1625
804.952	1972
805.053	1249
805.154	1467
805.255	1839
805.355	2720
805.456	1642
805.557	1427
805.658	1090
805.758	2107
805.859	1881
805.960	1826
806.061	1332
806.161	824
806.262	1580
806.362	1953
806.463	1887
806.564	1763
806.664	2826
806.765	2552
806.865	5016
806.966	3874
807.066	2764
807.166	2089
807.267	866
807.367	1170
807.468	1727
807.568	1731
807.668	2059
807.769	2414
807.869	1194
807.969	1877
808.069	1312
808.170	1678
808.270	1777
808.370	1867
808.470	1530
808.570	1743
808.670	1645
808.770	1913
808.870	1277
808.970	1235
809.070	1169
809.170	1336
809.271	2056
809.370	1693
809.470	1680
809.570	2230
809.670	1230
809.770	1717
809.870	1833
809.970	1487
810.070	831
810.169	2436
810.269	1326
810.369	2312
810.469	1802
810.568	1385
810.668	1122
810.768	1766
810.867	1018
810.967	1729
811.066	1272
811.166	1692
811.265	1340
811.365	1429
811.464	1801
811.564	1566
811.663	1544
811.763	1640
811.862	1843
811.962	1705
812.061	1987
812.160	1343
812.260	1476
812.359	2023
812.458	1131
812.557	2485
812.657	2046
812.756	2163
812.855	1842
812.954	2324
813.053	1601
813.153	2737
813.252	1568
813.351	2072
813.450	1283
813.549	1993
813.648	1657
813.747	1696
813.846	1745
813.945	1949
814.044	1917
814.143	2083
814.242	2343
814.341	2442
814.439	2019
814.538	2434
814.637	2194
814.736	2671
814.835	2783
814.933	2562
815.032	3173
815.131	3980
815.229	3778
815.328	4537
815.427	3612
815.525	4791
815.624	4126
815.722	3849
815.821	4541
815.919	5057
816.018	5028
816.116	6128
816.215	5017
816.313	5676
816.412	5918
816.510	6907
816.609	7094
816.707	9013
816.805	7856
816.904	8046
817.002	9393
817.100	11192
817.198	11670
817.296	12535
817.395	14094
817.493	16952
817.591	18252
817.689	24155
817.787	30953
817.885	43939
817.983	66836
818.081	113689
818.179	222389
818.277	458299
818.375	762788
818.473	575998
818.571	258900
818.669	133998
818.767	93662
818.865	79685
818.963	79879
819.061	96386
819.158	132920
819.256	212554
819.354	380094
819.452	699236
819.549	885732
819.647	651880
819.745	340749
819.842	184933
819.940	115605
820.038	79289
820.135	59767
820.233	45408
820.330	36416
820.428	29891
820.525	24815
820.623	22355
820.720	18007
820.818	16860
820.915	15396
821.012	13187
821.110	11527
821.207	10926
821.304	10215
821.402	9879
821.499	9280
821.596	8934
821.693	7918
821.791	7844
821.888	6963
821.985	7479
822.082	8383
822.179	7516
822.276	6716
822.373	6229
822.470	4811
822.567	5354
822.664	4429
822.761	4479
822.858	4280
822.955	4953
823.052	3837
823.149	3812
823.246	3171
823.343	3976
823.440	3650
823.536	2866
823.633	3500
823.730	3103
823.827	2539
823.923	3394
824.020	3737
824.117	3265
824.213	2941
824.310	4223
824.407	1941
824.503	2936
824.600	2481
824.696	2670
824.793	2608
824.889	2268
824.986	3042
825.082	2910
825.179	2228
825.275	2122
825.371	2218
825.468	3135
825.564	2260
825.660	3163
825.757	2544
825.853	2575
825.949	2019
826.045	2338
826.142	1310
826.238	2174
826.334	1869
826.430	1746
826.526	2194
826.622	2209
826.718	2034
826.814	2367
826.910	3030
827.006	2083
827.102	1814
827.198	2142
827.294	1698
827.390	2420
827.486	2168
827.582	1507
827.678	754
827.774	2291
827.869	1031
827.965	2167
828.061	1052
828.157	1916
828.252	1647
828.348	1409
828.444	1719
828.539	1602
828.635	1222
828.731	2200
828.826	1698
828.922	2393
829.017	2133
829.113	1857
829.208	1427
829.304	1894
829.399	2033
829.495	2302
829.590	1656
829.685	2315
829.781	1752
829.876	2127
829.971	1186
830.066	1605
830.162	783
830.257	1587
830.352	1716
830.447	1599
830.543	1899
830.638	2017
830.733	3143
830.828	1979
830.923	1668
831.018	2623
831.113	2151
831.208	2103
831.303	2162
831.398	1805
831.493	752
831.588	1467
831.683	1068
831.778	2344
831.873	618
831.967	1649
832.062	1523
832.157	937
832.252	1458
832.346	1299
832.441	1463
832.536	1884
832.631	2182
832.725	3837
832.820	2320
832.914	1104
833.009	129
833.104	442
833.198	1330
833.293	2009
833.387	1463
833.482	2006
833.576	1575
833.670	1451
833.765	787
833.859	2398
833.954	2109
834.048	2079
834.142	1465
834.237	1085
834.331	635
834.425	1526
834.519	868
834.613	1988
834.708	433
834.802	1148
834.896	720
834.990	1586
835.084	1010
835.178	684
835.272	1256
835.366	2216
835.460	1147
835.554	1510
835.648	820
835.742	824
835.836	1377
835.930	1087
836.024	728
836.117	1276
836.211	1761
836.305	2690
836.399	4504
836.493	5071
836.586	1543
836.680	839
836.774	643
836.867	1174
836.961	678
837.055	995
837.148	684
837.242	304
837.335	1258
837.429	1010
837.522	1691
837.616	2776
837.709	3720
837.803	8513
837.896	3673
837.989	2103
838.083	2658
838.176	4869
838.269	12084
838.363	7250
838.456	1478
838.549	1016
838.642	1417
838.735	2329
838.829	2714
838.922	1051
839.015	1179
839.108	1122
839.201	786
839.294	1608
839.387	1237
839.480	1070
839.573	2623
839.666	4184
839.759	4018
839.852	1640
839.945	959
840.038	795
840.131	621
840.223	752
840.316	429
840.409	1674
840.502	877
840.594	508
840.687	963
840.780	1295
840.873	16
840.965	620
841.058	2672
841.150	4348
841.243	9813
841.336	4789
841.428	949
841.521	692
841.613	1357
841.706	2681
841.798	1782
841.890	1091
841.983	291
842.075	955
842.167	429
842.260	935
842.352	1204
842.444	4369
842.537	6553
842.629	14311
842.721	12739
842.813	2428
842.905	826
842.997	1577
843.090	1969
843.182	3332
843.274	4999
843.366	13963
843.458	29075
843.550	49177
843.642	20170
843.734	3584
843.826	3052
843.918	3960
844.009	3070
844.101	815
844.193	346
844.285	608
844.377	1229
844.469	1360
844.560	346
844.652	1333
844.744	820
844.835	1367
844.927	1471
845.019	2000
845.110	3311
845.202	1236
845.293	542
845.385	172
845.476	643
845.568	992
845.659	741
845.751	913
845.842	633
845.934	686
846.025	122
846.116	1053
846.208	568
846.299	364
846.390	1188
846.482	1276
846.573	882
846.664	2890
846.755	3064
846.846	4395
846.937	1774
847.029	1544
847.120	280
847.211	781
847.302	1432
847.393	-347
847.484	517
847.575	718
847.666	429
847.757	528
847.847	171
847.938	1105
848.029	621
848.120	646
848.211	98
848.302	378
848.392	495
848.483	406
848.574	430
848.664	676
848.755	368
848.846	399
848.936	70
849.027	352
849.118	753
849.208	711
849.299	1648
849.389	2867
849.480	4460
849.570	9838
849.661	17690
849.751	34623
849.841	41741
849.932	10560
850.022	2277
850.112	1653
850.203	1641
850.293	857
850.383	535
850.474	308
850.564	1156
850.654	787
850.744	202
850.834	781
850.924	154
851.014	1320
851.104	896
851.194	925
851.284	910
851.374	1282
851.464	1131
851.554	1568
851.644	1893
851.734	2537
851.824	4351
851.914	1448
852.004	1478
852.094	540
852.183	31
852.273	336
852.363	374
852.452	1317
852.542	777
852.632	-16
852.721	580
852.811	1761
852.901	653
852.990	1088
853.080	1501
853.169	1441
853.259	1504
853.348	1862
853.438	1910
853.527	3324
853.617	3471
853.706	7988
853.795	12343
853.885	24685
853.974	55059
854.063	95513
854.152	181571
854.242	208104
854.331	62906
854.420	15190
854.509	6299
854.598	5358
854.687	4429
854.777	4572
854.866	3885
854.955	2326
855.044	830
855.133	894
855.222	728
855.311	1493
855.400	1257
855.488	598
855.577	177
855.666	1072
855.755	1037
855.844	1526
855.933	1241
856.021	2482
856.110	1372
856.199	941
856.288	405
856.376	183
856.465	541
856.554	792
856.642	203
856.731	193
856.819	235
856.908	793
856.996	730
857.085	153
857.173	60
857.262	499
857.350	329
857.438	-118
857.527	358
857.615	839
857.703	359
857.792	583
857.880	-131
857.968	641
858.056	-24
858.145	102
858.233	-13
858.321	359
858.409	1228
858.497	371
858.585	286
858.673	1350
858.761	289
858.849	212
858.937	-173
859.025	104
859.113	399
859.201	-59
859.289	424
859.377	510
859.465	103
859.552	664
859.640	205
859.728	807
859.816	420
859.903	374
859.991	-707
860.079	609
860.166	264
860.254	779
860.342	146
860.429	-396
860.517	-139
860.604	-76
860.692	560
860.779	152
860.867	-165
860.954	-71
861.042	-75
861.129	322
861.216	312
861.304	-249
861.391	1344
861.478	292
861.565	-393
861.653	306
861.740	-192
861.827	839
861.914	248
862.001	-443
862.089	-314
862.176	-42
862.263	727
862.350	-250
862.437	-436
862.524	20
862.611	356
862.698	449
862.785	615
862.871	427
862.958	-159
863.045	865
863.132	587
863.219	1010
863.306	-460
863.392	1242
863.479	54
863.566	876
863.652	528
863.739	764
863.826	238
863.912	355
863.999	-245
864.086	1342
864.172	192
864.259	276
864.345	126
864.432	781
864.518	492
864.604	969
864.691	817
864.777	591
864.863	1062
864.950	688
865.036	28
865.122	1461
865.209	2861
865.295	2211
865.381	2682
865.467	2600
865.553	3440
865.639	4422
865.726	7006
865.812	12823
865.898	26467
865.984	47896
866.070	70511
866.156	130357
866.242	102616
866.328	24615
866.414	7542
866.499	3891
866.585	3592
866.671	2565
866.757	2137
866.843	2367
866.928	2039
867.014	1375
867.100	1797
867.186	2209
867.271	2035
867.357	2383
867.442	3121
867.528	5406
867.614	2316
867.699	1155
867.785	1909
867.870	1176
867.956	1418
868.041	2376
868.127	1798
868.212	3080
868.297	2789
868.383	2123
868.468	1399
868.553	1947
868.639	2482
868.724	2877
868.809	5372
868.894	3172
868.979	1390
869.065	2006
869.150	1044
869.235	1692
869.320	768
869.405	1525
869.490	461
869.575	788
869.660	1021
869.745	1130
869.830	-213
869.915	1395
870.000	218
870.085	210
870.169	603
870.254	1403
870.339	85
870.424	454
870.509	357
870.593	936
870.678	779
870.763	544
870.847	377
870.932	652
871.016	1166
871.101	726
871.186	334
871.270	427
871.355	663
871.439	356
871.523	320
871.608	881
871.692	-285
871.777	1100
871.861	516
871.945	525
872.030	632
872.114	533
872.198	197
872.282	707
872.367	464
872.451	357
872.535	17
872.619	663
872.703	369
872.787	375
872.871	788
872.955	475
873.039	124
873.123	-37
873.207	671
873.291	472
873.375	259
873.459	1006
873.543	1231
873.627	336
873.711	403
873.794	430
873.878	258
873.962	73
874.045	130
874.129	595
874.137	648
874.213	1186
874.245	751
874.296	42
874.352	162
874.380	225
874.460	339
874.464	342
874.547	904
874.568	1002
874.631	1287
874.676	683
874.714	186
874.784	910
874.798	1052
874.881	1054
874.892	923
874.965	49
874.999	359
875.048	757
875.107	824
875.131	864
875.215	421
875.215	421
875.298	22
875.323	-96
875.381	-388
875.430	-55
875.465	200
875.538	448
875.548	476
875.631	589
875.646	539
875.714	285
875.753	287
875.798	292
875.861	-126
875.881	-245
875.964	650
875.968	623
876.047	113
876.076	258
876.130	552
876.183	446
876.213	378
876.291	1144
876.296	1195
876.379	322
876.398	338
876.462	382
876.506	431
876.545	486
876.613	542
876.628	547
876.711	299
876.721	312
876.794	502
876.828	442
876.877	239
876.935	177
876.960	243
877.043	338
877.043	341
877.125	782
877.150	685
877.208	634
877.258	771
877.291	777
877.365	-244
877.374	-361
877.456	715
877.472	715
877.539	877
877.579	982
877.622	959
877.687	703
877.704	629
877.787	965
877.794	900
877.869	572
877.901	887
877.952	1101
878.008	394
878.034	83
878.115	160
878.117	168
878.199	373
878.222	473
878.282	606
878.329	358
878.364	195
878.437	306
878.447	295
878.529	-162
878.544	-218
878.611	-249
878.651	-48
878.694	240
878.758	832
878.776	901
878.858	343
878.865	342
878.941	472
878.972	141
879.023	-284
879.078	284
879.105	461
879.185	15
879.187	12
879.269	196
879.292	160
879.351	-26
879.399	330
879.433	647
879.506	246
879.516	193
879.598	461
879.613	452
879.680	146
879.720	-67
879.762	-84
879.827	203
879.844	249
879.926	-68
879.933	-82
880.007	-138
880.040	217
880.089	677
880.147	550
880.171	544
880.253	976
880.254	979
880.335	1243
880.360	1356
880.417	2056
880.467	2461
880.499	2756
880.574	5612
880.580	5796
880.662	4334
880.680	3739
880.744	1472
880.787	485
880.825	-267
880.893	-338
880.907	-286
880.989	-118
881.000	-40
881.070	535
881.106	446
881.152	148
881.213	465
881.233	555
881.315	69
881.319	76
881.396	650
881.426	601
881.478	-33
881.532	112
881.559	618
881.639	443
881.641	419
881.722	422
881.745	392
881.803	502
881.852	421
881.885	218
881.958	-109
881.966	-115
882.047	65
882.064	-14
882.129	-33
882.171	442
882.210	659
882.277	310
882.291	287
882.372	808
882.383	748
882.454	292
882.489	439
882.535	497
882.596	-117
882.616	-209
882.697	-36
882.702	-11
882.778	184
882.808	196
882.859	-60
882.914	-328
882.940	-216
883.020	442
883.021	441
883.102	-429
883.127	-544
883.183	-253
883.233	171
883.264	266
883.339	12
883.345	38
883.426	332
883.445	439
883.507	115
883.551	-176
883.587	-132
883.657	567
883.668	603
883.749	-169
883.763	-173
883.830	-156
883.869	-322
883.910	-89
883.975	232
883.991	257
884.072	602
884.081	599
884.152	23
884.187	-44
884.233	106
884.292	35
884.314	15
884.394	-239
884.398	-241
884.475	-296
884.504	-305
884.555	80
884.610	413
884.636	332
884.716	186
884.716	188
884.797	233
884.821	217
884.877	494
884.927	653
884.958	443
885.033	18
885.038	15
885.118	-141
885.139	-171
885.199	-303
885.244	-325
885.279	-94
885.350	287
885.359	261
885.439	337
885.456	213
885.520	416
885.561	702
885.600	341
885.667	-278
885.680	-222
885.760	241
885.773	265
885.840	-13
885.878	-78
885.920	93
885.984	311
886.000	300
886.080	426
886.089	404
886.160	440
886.195	445
886.240	228
886.300	65
886.320	185
886.400	842
886.406	863
886.480	272
886.511	29
886.560	293
886.616	608
886.640	345
886.720	-445
886.722	-467
886.800	-123
886.827	26
886.879	301
886.932	486
886.959	422
887.038	480
887.039	482
887.119	355
887.143	345
887.198	475
887.248	411
887.278	327
887.354	434
887.358	446
887.437	499
887.459	492
887.517	460
887.564	485
887.596	577
887.669	789
887.676	787
887.755	628
887.774	608
887.835	178
887.880	-158
887.914	25
887.985	317
887.994	321
888.073	434
888.090	463
888.153	631
888.195	649
888.232	717
888.300	935
888.311	853
888.391	249
888.405	134
888.470	39
888.510	-62
888.549	278
888.615	962
888.628	930
888.708	649
888.720	603
888.787	352
888.825	175
888.866	201
888.930	334
888.945	347
889.024	323
889.035	331
889.103	395
889.140	382
889.182	475
889.245	660
889.261	586
889.340	202
889.349	159
889.419	-210
889.454	-390
889.498	-3
889.559	544
889.577	621
889.656	957
889.664	990
889.735	553
889.768	342
889.814	112
889.873	-189
889.978	139
890.083	-127
890.187	186
890.292	682
890.397	471
890.501	691
890.606	684
890.710	626
890.815	761
890.919	660
891.024	-99
891.128	851
891.233	341
891.337	59
891.442	225
891.546	-374
891.650	494
891.755	-128
891.859	983
891.963	919
892.068	943
892.172	691
892.276	199
892.380	-451
892.484	680
892.589	-393
892.693	63
892.797	-249
892.901	759
893.005	203
893.109	729
893.213	546
893.317	586
893.421	444
893.525	846
893.629	210
893.733	513
893.837	411
893.941	528
894.045	-191
894.148	354
894.252	39
894.356	518
894.460	802
894.564	951
894.667	234
894.771	678
894.875	-50
894.978	307
895.082	-505
895.186	975
895.289	978
895.393	-45
895.496	199
895.600	742
895.703	517
895.807	257
895.910	24
896.014	512
896.117	97
896.221	853
896.324	278
896.427	650
896.531	-35
896.634	-68
896.737	444
896.840	707
896.944	336
897.047	959
897.150	289
897.253	474
897.356	581
897.460	228
897.563	17
897.666	731
897.769	364
897.872	411
897.975	-234
898.078	213
898.181	-92
898.284	-144
898.387	524
898.490	218
898.593	556
898.695	568
898.798	-242
898.901	271
899.004	344
899.107	-69
899.209	540
899.312	988
899.415	34
899.518	523
899.620	796
899.723	138
899.826	229
899.928	409
900.031	64
900.133	489
900.236	51
900.338	176
900.441	311
900.543	295
900.646	407
900.748	-3
900.851	146
900.953	1017
901.055	182
901.158	-116
901.260	714
901.362	378
901.465	459
901.567	221
901.669	537
901.771	512
901.873	556
901.976	293
902.078	310
902.180	398
902.282	-780
902.384	-347
902.486	584
902.588	367
902.690	60
902.792	705
902.894	237
902.996	521
903.098	839
903.200	-127
903.302	-391
903.404	259
903.505	213
903.607	1089
903.709	287
903.811	650
903.913	711
904.014	-12
904.116	511
904.218	283
904.319	618
904.421	445
904.523	919
904.624	1384
904.726	252
904.827	944
904.929	221
905.030	-298
905.132	402
905.233	-430
905.335	-322
905.436	-229
905.537	-362
905.639	-319
905.740	-170
905.841	571
905.943	470
906.044	696
906.145	-92
906.247	-688
906.348	-103
906.449	1129
906.550	96
906.651	891
906.752	-214
906.854	1381
906.955	191
907.056	478
907.157	-377
907.258	499
907.359	222
907.460	160
907.561	-140
907.662	490
907.762	54
907.863	-390
907.964	-349
908.065	420
908.166	-109
908.267	-281
908.367	-433
908.468	85
908.569	-117
908.670	670
908.770	280
908.871	349
908.971	-17
909.072	816
909.173	-326
909.273	35
909.374	-450
909.474	473
909.575	-610
909.675	-56
909.776	69
909.876	-117
909.977	708
910.077	535
910.177	-329
910.278	-103
910.378	305
910.478	291
910.579	247
910.679	67
910.779	-388
910.879	690
910.980	-33
911.080	-827
911.180	-415
911.280	-19
911.380	83
911.480	823
911.580	-102
911.680	1016
911.780	-737
911.880	13
911.980	-794
912.080	-88
912.180	114
912.280	369
912.380	346
912.480	-26
912.580	476
912.679	93
912.779	-256
912.879	-335
912.979	143
913.078	142
913.178	-164
913.278	364
913.377	359
913.477	-333
913.577	292
913.676	683
913.776	-717
913.875	-106
913.975	-558
914.074	138
914.174	324
914.273	18
914.373	-147
914.472	84
914.572	-736
914.671	191
914.770	-801
914.870	-176
914.969	-178
915.068	102
915.167	-26
915.267	-417
915.366	19
915.465	442
915.564	11
915.663	794
915.763	-372
915.862	-149
915.961	-84
916.060	-301
916.159	-25
916.258	-20
916.357	-926
916.456	-147
916.555	-261
916.654	271
916.752	-84
916.851	525
916.950	-201
917.049	83
917.148	613
917.247	454
917.345	-778
917.444	-180
917.543	-553
917.642	-257
917.740	-350
917.839	842
917.937	-806
918.036	113
918.135	-208
918.233	-432
918.332	-12
918.430	-239
918.529	-115
918.627	-445
918.726	-205
918.824	-848
918.923	-805
919.021	-255
919.119	-1220
919.218	2
919.316	28
919.414	606
919.512	-23
919.611	82
919.709	-91
919.807	-534
919.905	890
920.003	504
920.102	-141
920.200	-202
920.298	-874
920.396	35
920.494	391
920.592	-1058
920.690	-229
920.788	-394
920.886	-156
920.984	230
921.082	394
921.180	-3
921.277	-406
921.375	330
921.473	-363
921.571	247
921.669	373
921.766	783
921.864	183
921.962	56
922.060	138
922.157	-136
922.255	537
922.352	-101
922.450	226
922.548	605
922.645	-607
922.743	79
922.840	834
922.938	714
923.035	1436
923.133	718
923.230	92
923.327	1582
923.425	1008
923.522	705
923.619	650
923.717	700
923.814	333
923.911	1435
924.008	1116
924.106	1388
924.203	679
924.300	400
924.397	489
924.494	876
924.591	610
924.688	323
924.786	1154
924.883	1298
924.979	845
925.077	598
925.173	773
925.270	835
925.367	-178
925.464	1125
925.561	832
925.658	1074
925.755	576
925.852	1645
925.948	760
926.045	1216
926.142	380
926.239	646
926.335	1054
926.432	647
926.529	-125
926.625	1482
926.722	784
926.818	1273
926.915	992
927.011	1577
927.108	576
927.204	163
927.301	-277
927.397	615
927.494	26
927.590	1049
927.687	-443
927.783	241
927.879	591
927.976	-52
928.072	556
928.168	965
928.264	887
928.361	413
928.457	590
928.553	-38
928.649	-141
928.745	625
928.841	377
928.937	843
929.033	106
929.129	654
929.225	-305
929.321	330
929.417	92
929.513	1066
929.609	467
929.705	187
929.801	630
929.897	132
929.993	-174
930.089	950
930.184	487
930.280	195
930.376	159
930.471	274
930.567	623
930.663	720
930.758	438
930.854	14
930.950	935
931.045	681
931.141	81
931.236	712
931.332	682
931.427	-443
931.523	904
931.618	-182
931.714	249
931.809	-242
931.905	-418
932.000	476
932.095	-155
932.191	-283
932.286	347
932.381	-172
932.476	-443
932.572	240
932.667	214
932.762	594
932.857	0
932.952	580
933.047	391
933.142	-280
933.237	637
933.332	512
933.427	523
933.522	-17
933.617	-86
933.712	223
933.807	-26
933.902	-49
933.997	448
934.092	18
934.187	-1007
934.282	422
934.376	-269
934.471	390
934.566	270
934.661	-150
934.755	-280
934.850	394
934.945	-112
935.039	-345
935.134	253
935.228	-393
935.323	719
935.417	720
935.512	-417
935.606	-771
935.701	-2
935.795	-147
935.890	365
935.984	-2
936.079	955
936.173	93
936.267	234
936.362	-85
936.456	191
936.550	206
936.644	262
936.738	290
936.833	142
936.927	-13
937.021	152
937.115	-48
937.209	-133
937.303	122
937.397	220
937.491	-268
937.585	-238
937.679	-369
937.773	-100
937.867	909
937.961	-420
938.055	571
938.149	534
938.243	-171
938.337	-754
938.430	281
938.524	-370
938.618	-251
938.712	-65
938.805	-816
938.899	388
938.993	512
939.086	-112
939.180	-7
939.274	330
939.367	555
939.461	258
939.554	558
939.648	-208
939.741	-120
939.835	68
939.928	-212
940.022	205
940.115	-20
940.208	405
940.302	114
940.395	317
940.488	-206
940.582	-531
940.675	90
940.768	46
940.861	-33
940.954	213
941.048	288
941.141	158
941.234	402
941.327	204
941.420	1242
941.513	675
941.606	-497
941.699	-255
941.792	147
941.885	310
941.978	315
942.071	107
942.164	567
942.257	-1115
942.349	-262
942.442	-737
942.535	270
942.628	-1047
942.721	258
942.813	-468
942.906	43
942.999	-409
943.091	-209
943.184	-871
943.277	-404
943.369	-426
943.462	-459
943.554	-247
943.647	128
943.739	-323
943.832	481
943.924	-475
944.017	-255
944.109	-864
944.201	120
944.294	-520
944.386	-416
944.478	-1162
944.571	-400
944.663	-49
944.755	90
944.847	186
944.940	183
945.032	9
945.124	-1146
945.216	-384
945.308	-634
945.400	-97
945.492	315
945.584	-117
945.676	761
945.768	-358
945.860	375
945.952	347
946.044	-81
946.136	-661
946.228	24
946.320	281
946.412	-1171
946.503	-312
946.595	-267
946.687	-737
946.779	-861
946.870	-308
946.962	-669
947.054	-1027
947.145	507
947.237	-323
947.329	138
947.420	401
947.512	114
947.603	-931
947.695	-451
947.786	-231
947.878	-143
947.969	-402
948.061	-692
948.152	298
948.243	132
948.335	350
948.426	-553
948.517	-414
948.609	19
948.700	22
948.791	348
948.882	31
948.973	-623
949.065	-196
949.156	-318
949.247	-900
949.338	226
949.429	-654
949.520	-286
949.611	-241
949.702	-73
949.793	-185
949.884	289
949.975	-775
950.066	-468
950.157	11
950.247	-481
950.338	-122
950.429	92
950.520	-288
950.611	-582
950.701	-109
950.792	-179
950.883	-106
950.973	-130
951.064	-496
951.155	634
951.245	389
951.336	-895
951.427	-402
951.517	177
951.608	-731
951.698	10
951.788	-785
951.879	-645
951.969	-278
952.060	-1216
952.150	-750
952.240	-77
952.331	-1516
952.421	174
952.511	-585
952.602	-537
952.692	-971
952.782	-394
952.872	-478
952.962	-1270
953.052	-301
953.143	-157
953.233	313
953.323	28
953.413	-866
953.503	-183
953.593	-258
953.683	79
953.773	-716
953.863	-481
953.953	-46
954.042	-510
954.132	-923
954.222	272
954.312	-598
954.402	17
954.492	-764
954.581	458
954.671	-635
954.761	-510
954.850	-429
954.940	-592
955.030	-529
955.119	-764
955.209	809
955.298	-600
955.388	-393
955.477	-931
955.567	-638
955.656	-818
955.746	-1131
955.835	-66
955.925	-563
956.014	-547
956.103	-606
956.193	647
956.282	-4
956.371	589
956.461	360
956.550	-517
956.639	-434
956.728	-15
956.817	-601
956.906	-388
956.995	773
957.085	-474
957.174	-477
957.263	-620
957.352	77
957.441	87
957.530	-1580
957.619	-384
957.708	-938
957.796	-445
957.885	-175
957.974	81
958.063	-1034
958.152	-137
958.241	-133
958.329	-550
958.418	-345
958.507	-784
958.596	19
958.684	-892
958.773	-322
958.861	-153
958.950	-366
959.039	-864
959.127	-239
959.216	-496
959.304	-31
959.393	173
959.481	-948
959.570	-402
959.658	-899
959.746	30
959.835	-163
959.923	882
960.011	225
960.100	153
960.188	-868
960.276	-473
960.365	-574
960.453	-874
960.541	-1387
960.629	-1094
960.717	-1622
960.805	-503
960.893	-796
960.981	-151
961.069	-304
961.158	-27
961.245	-37
961.333	-81
961.421	-622
961.509	-664
961.597	-786
961.685	-187
961.773	-881
961.861	46
961.949	-625
962.036	-935
962.124	-774
962.212	-289
962.299	-635
962.387	-521
962.475	-862
962.562	-651
962.650	-1014
962.738	-401
962.825	-1098
962.913	-764
963.000	-173
963.088	-1180
963.175	-612
963.263	-698
963.350	-941
963.438	-218
963.525	-173
963.612	198
963.700	569
963.787	3095
963.874	5196
963.962	1335
964.049	-926
964.136	-683
964.223	-730
964.310	-676
964.398	-933
964.485	-1101
964.572	-643
964.659	144
964.746	735
964.833	491
964.920	-1044
965.007	-377
965.094	-668
965.181	-286
965.268	-803
965.355	-1089
965.441	-941
965.528	-484
965.615	-553
965.702	-713
965.789	-746
965.875	19
965.962	-543
966.049	78
966.136	-649
966.222	-833
966.309	-534
966.395	-82
966.482	-607
966.569	-1098
966.655	-716
966.742	-67
966.828	-1110
966.915	-263
967.001	-641
967.087	-297
967.174	-798
967.260	-374
967.347	-505
967.433	680
967.519	1400
967.605	2457
967.692	96
967.778	-911
967.864	-1112
967.950	-1035
968.036	-140
968.123	-713
968.209	-700
968.295	-522
968.381	-304
968.467	479
968.553	-956
968.639	-849
968.725	-1836
968.811	-250
968.897	346
968.983	-300
969.069	-957
969.154	-174
969.240	-700
969.326	-827
969.412	-1840
969.497	-1077
969.583	-586
969.669	-344
969.755	-749
969.840	-948
969.926	-1307
970.012	-1082
970.097	-295
970.183	-107
970.268	-909
970.354	-312
970.439	-1264
970.525	1506
970.610	1071
970.696	237
970.781	-681
970.866	-677
970.952	-961
971.037	-593
971.122	-1294
971.208	-177
971.293	-288
971.378	-1154
971.463	-755
971.549	-353
971.634	-676
971.719	-429
971.804	-201
971.889	644
971.974	-779
972.059	-1161
972.144	-125
972.229	-650
972.314	-361
972.399	-490
972.484	-1197
972.569	-258
972.654	-995
972.739	43
972.824	764
972.908	1047
972.993	-1233
973.078	-619
973.163	-901
973.247	-117
973.332	-1182
973.417	-718
973.501	-234
973.586	-633
973.671	-1446
973.755	-233
973.840	-1012
973.924	-495
974.009	-523
974.093	-740
974.178	-262
974.262	102
974.346	221
974.431	-120
974.515	-1027
974.600	-701
974.684	-940
974.768	-591
974.852	-148
974.937	-386
975.021	-408
975.105	229
975.189	-811
975.273	-1170
975.358	-969
975.442	-1098
975.526	-496
975.610	-564
975.694	-1485
975.778	-520
975.862	-530
975.946	-1389
976.030	-749
976.114	-978
976.198	-1937
976.281	-807
976.365	-767
976.449	-627
976.533	-266
976.617	-1493
976.700	-803
976.784	-657
976.868	-717
976.951	-186
977.035	-727
977.119	-1029
977.202	-1284
977.286	-226
977.369	-890
977.453	344
977.536	-899
977.620	-495
977.703	-460
977.787	-979
977.870	-779
977.953	-615
978.037	-852
978.120	-363
978.203	-679
978.287	-41
978.370	-411
978.453	-753
978.536	-1374
978.620	-390
978.703	32
978.786	-178
978.869	-1354
978.952	-1273
979.035	-954
979.118	-380
979.201	-1053
979.284	-1059
979.367	-861
979.450	-48
979.533	-1214
979.616	-919
979.699	-564
979.782	-546
979.865	-1295
979.948	-363
980.030	-1064
980.113	-772
980.196	-882
980.279	-481
980.361	-691
980.444	-1188
980.526	-1355
980.609	-671
980.692	-792
980.774	278
980.857	-1084
980.939	-1267
981.022	-584
981.104	-1550
981.187	-1477
981.269	-1182
981.352	-927
981.434	-1137
981.516	-756
981.599	-9
981.681	-804
981.763	-456
981.846	-1332
981.928	-644
982.010	-1453
982.092	-1342
982.174	-363
982.256	-607
982.339	-534
982.421	-745
982.503	-884
982.585	-736
982.667	-1149
982.749	-920
982.831	-1148
982.913	-1649
982.995	-1134
983.077	-1113
983.158	-287
983.240	-1169
983.322	-608
983.404	-1287
983.486	-1077
983.568	-1035
983.649	-391
983.731	-347
983.813	-1491
983.894	-573
983.976	-1151
984.058	-889
984.139	-1246
984.221	-609
984.302	-943
984.384	-1011
984.465	-988
984.547	-325
984.628	-656
984.710	-459
984.791	-822
984.872	-1362
984.954	-816
985.035	-580
985.116	-379
985.198	-385
985.279	-796
985.360	-208
985.441	-736
985.522	-711
985.604	-1368
985.685	-1891
985.766	118
985.847	-325
985.928	-1381
986.009	-649
986.090	-1402
986.171	-474
986.252	-1599
986.333	-767
986.414	-551
986.495	-1160
986.576	-983
986.656	-935
986.737	-1357
986.818	-51
986.899	-1529
986.980	-1146
987.060	-232
987.141	-1024
987.222	-661
987.302	-862
987.383	-1296
987.464	-454
987.544	-509
987.625	-164
987.705	-936
987.786	-334
987.866	-917
987.947	-572
988.027	-1146
988.108	-1086
988.188	-727
988.268	-1076
988.349	-752
988.429	-1111
988.509	-547
988.589	-467
988.670	-1410
988.750	108
988.830	-1569
988.910	-1118
988.990	-989
989.070	-743
989.151	-828
989.231	-468
989.311	-261
989.391	-1161
989.471	-1254
989.551	-396
989.631	-651
989.711	-375
989.791	-1382
989.870	-728
989.950	-467
990.030	-295
990.110	-1496
990.190	-659
990.269	-945
990.349	-1026
990.429	-1361
990.509	-998
990.588	-1124
990.668	-1129
990.747	-901
990.827	-1269
990.907	-1458
990.986	-372
991.066	-1474
991.145	-852
991.225	-1010
991.304	-678
991.383	-960
991.463	-1300
991.542	-716
991.622	-814
991.701	-1378
991.780	-964
991.859	-1314
991.939	-901
992.018	-1748
992.097	-1177
992.176	-912
992.256	-1144
992.335	-1420
992.414	-931
992.493	-1417
992.572	-938
992.651	-979
992.730	-750
992.809	-683
992.888	-1737
992.967	-1244
993.046	-1041
993.125	-902
993.203	-1211
993.282	-558
993.361	-327
993.440	-1928
993.519	-867
993.597	-1010
993.676	-1422
993.755	-1044
993.834	-1328
993.912	-1233
993.991	-1353
994.069	-1097
994.148	-722
994.226	-1021
994.305	-823
994.384	-1922
994.462	-978
994.540	-1631
994.619	-909
994.697	-916
994.776	-1241
994.854	-989
994.932	-1698
995.011	-1491
995.089	-838
995.167	-1491
995.245	-1370
995.324	-2315
995.402	-603
995.480	-1683
995.558	-587
995.636	-2515
995.714	-1666
995.792	-641
995.870	-1042
995.948	-1802
996.026	-759
996.104	-2262
996.182	-388
996.260	-866
996.338	-972
996.416	-2378
996.494	-1791
996.572	-308
996.649	-1041
996.727	-2244
996.805	-2154
996.883	-1239
996.960	-1526
997.038	-1127
997.116	-993
997.193	-1339
997.271	-1109
997.348	-1784
997.426	-994
997.504	-1562
997.581	-1360
997.658	-1238
997.736	-1325
997.813	-1660
997.891	-1245
997.968	-1019
998.046	-1245
998.123	-1696
998.200	-898
998.277	-1748
998.355	-668
998.432	-2161
998.509	-483
998.586	-676
998.663	-931
998.741	-1133
998.818	-1173
998.895	-1901
998.972	-1299
999.049	-793
999.126	-1340
999.203	-1569
999.280	-507
999.357	-2858
999.434	-1604
999.511	-1406
999.587	-1126
999.664	-1558
999.741	-564
999.818	-1125
999.895	-1366
999.971	-1531
1000.048	-1039
1000.125	-767
1000.202	-1378
1000.278	-408
1000.355	-1529
1000.431	-1312
1000.508	-1070
1000.584	-1324
1000.661	-1627
1000.738	-1692
1000.814	-1370
1000.890	-1010
1000.967	-1761
1001.043	-628
1001.120	-1474
1001.196	-1855
1001.272	-1823
1001.349	-1136
1001.425	-1411
1001.501	-1009
1001.577	-1103
1001.654	-1157
1001.730	-1031
1001.806	-1185
1001.882	-1502
1001.958	-1741
1002.034	-819
1002.110	-1818
1002.186	-1395
1002.262	-1007
1002.338	-1298
1002.414	-1518
1002.490	-1351
1002.566	-1271
1002.642	-1192
1002.718	-1690
1002.794	-1721
1002.870	-984
1002.945	-1912
1003.021	-1446
1003.097	-1219
1003.173	-1560
1003.248	-382
1003.324	-1508
1003.400	-829
1003.475	-1004
1003.551	-886
1003.626	-1942
1003.702	-1239
1003.777	-2114
1003.853	-1591
1003.928	-1310
1004.004	-1975
1004.079	-837
1004.155	-729
1004.230	-1665
1004.305	-643
1004.381	-1549
1004.456	-1487
1004.531	-1468
1004.607	-653
1004.682	-1425
1004.757	-1482
1004.832	-1528
1004.907	-1405
1004.982	-1247
1005.057	-1332
1005.133	-1594
1005.208	-1031
1005.283	-1147
1005.358	-1004
1005.433	-1650
1005.508	-1270
1005.583	-1567
1005.657	-1672
1005.732	-1580
1005.807	-1520
1005.882	-1918
1005.957	-1455
1006.032	-1626
1006.106	-1123
1006.181	-1007
1006.256	-2175
1006.331	-1780
1006.405	-1821
1006.480	-1445
1006.554	-997
1006.629	-1915
1006.704	-1323
1006.778	-2059
1006.853	-895
1006.927	-2073
1007.002	-1499
1007.076	-1995
1007.150	-1458
1007.225	-1581
1007.299	-1307
1007.373	-2184
1007.448	-1358
1007.522	-1592
1007.596	-1506
1007.671	-1934
1007.745	-1840
1007.819	-1726
1007.893	-662
1007.967	-1575
1008.041	-2193
1008.115	-1392
1008.190	-1778
1008.264	-1868
1008.338	-1901
1008.412	-2290
1008.486	-1707
1008.560	-2144
1008.633	-1251
1008.707	-2022
1008.781	-1648
1008.855	-2068
1008.929	-1413
1009.003	-2108
1009.076	-1624
1009.150	-1911
1009.224	-2151
1009.298	-1412
1009.371	-1611
1009.445	-1570
1009.519	-1807
1009.592	-2379
1009.666	-1912
1009.739	-1886
1009.813	-1534
1009.886	-1263
1009.960	-2208
1010.033	-1760
1010.107	-928
1010.180	-1551
1010.253	-1206
1010.327	-1945
1010.400	-1305
1010.473	-2567
1010.547	-934
1010.620	-1996
1010.693	-1475
1010.766	-1882
1010.840	-1436
1010.913	-2218
1010.986	-1991
1011.059	-897
1011.132	-2386
1011.205	-1586
1011.278	-1061
1011.351	-1705
1011.424	-1780
1011.497	-2445
1011.570	-2295
1011.643	-1756
1011.716	-2154
1011.789	-2125
1011.862	-1125
1011.934	-1859
1012.007	-1077
1012.080	-1435
1012.153	-2220
1012.225	-1851
1012.298	-1713
1012.371	-2528
1012.443	-831
1012.516	-1065
1012.588	-1658
1012.661	-2551
1012.733	-1051
1012.806	-545
1012.879	-1243
1012.951	-1545
1013.023	-1693
1013.096	-1116
1013.168	-2379
1013.241	-1500
1013.313	-1884
1013.385	-1638
1013.458	-1662
1013.530	-1157
1013.602	-2541
1013.674	-964
1013.746	-1366
1013.819	-1646
1013.891	-783
1013.963	-2216
1014.035	-2545
1014.107	-1480
1014.179	-1827
1014.251	-1264
1014.323	-1945
1014.395	-1289
1014.467	-1403
1014.539	-1686
1014.611	-2059
1014.683	-1809
1014.754	-943
1014.826	-1833
1014.898	-1807
1014.970	-1471
1015.042	-1211
1015.113	-1559
1015.185	-1082
1015.257	-1770
1015.328	-1786
1015.400	-1803
1015.471	-814
1015.543	-2126
1015.615	-2238
1015.686	-2341
1015.757	-1838
1015.829	-1547
1015.901	-1816
1015.972	-1426
1016.043	-1066
1016.115	-1451
1016.186	-1169
1016.257	-1660
1016.328	-546
1016.400	-2268
1016.471	-1473
1016.542	-2582
1016.613	-983
1016.685	-2198
1016.756	-1340
1016.827	-1969
1016.898	-1912
1016.969	-1353
1017.040	-2171
1017.111	-2632
1017.182	-1646
1017.253	-2131
1017.324	-2125
1017.395	-2131
1017.466	-1616
1017.537	-1608
1017.608	-1944
1017.678	-2631
1017.749	-1212
1017.820	-1346
1017.891	-1630
1017.961	-2677
1018.032	-2192
1018.103	-912
1018.173	-1028
1018.244	-1337
1018.315	-1823
1018.385	-1840
1018.456	-1075
1018.526	-2013
1018.597	-1285
1018.667	-1530
1018.738	-2408
1018.808	-1546
1018.878	-2132
1018.949	-1977
1019.019	-1362
1019.089	-2251
1019.160	-1370
1019.230	-2307
1019.300	-1749
1019.371	-2038
1019.441	-930
1019.511	-1551
1019.581	-2065
1019.651	-1044
1019.721	-1930
1019.791	-1493
1019.861	-2056
1019.931	-1732
1020.001	-2751
1020.071	-1970
1020.141	-2004
1020.211	-1435
1020.281	-1862
1020.351	-1475
1020.421	-1153
1020.491	-1145
1020.560	-1951
1020.630	-2313
1020.700	-2184
1020.770	-1959
1020.839	-1981
1020.909	-1946
1020.979	-1706
1021.048	-1940
1021.118	-1328
1021.187	-1904
1021.257	-1830
1021.326	-1418
1021.396	-2339
1021.465	-924
1021.535	-1451
1021.604	-1994
1021.674	-1671
1021.743	-1780
1021.812	-1609
1021.882	-2025
1021.951	-1311
1022.020	-1419
1022.089	-1931
1022.159	-1904
1022.228	-976
1022.297	-2092
1022.366	-1645
1022.435	-2390
1022.504	-1988
1022.573	-2185
1022.642	-1521
1022.711	-2528
1022.781	-1311
1022.849	-1598
1022.918	-1894
1022.987	-1638
1023.056	-1848
1023.125	-1367
1023.194	-1150
1023.263	-1279
1023.331	-1654
1023.400	-2248
1023.469	-1164
1023.538	-1460
1023.606	-1799
1023.675	-1829
1023.744	-1390
1023.812	-2205
1023.881	-1546
1023.949	-1916
1024.018	-2299
1024.086	-1704
1024.155	-1904
1024.223	-1922
1024.292	-1123
1024.360	-1529
1024.429	-751
1024.497	-2213
1024.565	-2045
1024.634	-1293
1024.702	-1973
1024.770	-1633
1024.838	-1700
1024.907	-2382
1024.975	-1552
1025.043	-2522
1025.111	-1446
1025.179	-1849
1025.247	-1761
1025.315	-1974
1025.383	-1234
1025.451	-2050
1025.519	-1399
1025.587	-2152
1025.655	-2221
1025.723	-1937
1025.791	-1374
1025.859	-1959
1025.927	-1646
1025.995	-2072
1026.062	-1435
1026.130	-1820
1026.198	-2103
1026.266	-2178
1026.333	-1666
1026.401	-1593
1026.469	-1288
1026.536	-2138
1026.604	-1915
1026.671	-2079
1026.739	-2444
1026.806	-1940
1026.874	-1752
1026.941	-2155
1027.009	-1698
1027.076	-2026
1027.144	-1038
1027.211	-2022
1027.278	-1863
1027.345	-2020
1027.413	-1622
1027.480	-1986
1027.547	-1387
1027.614	-2276
1027.682	-1950
1027.749	-1617
1027.816	-2065
1027.883	-1880
1027.950	-1787
1028.017	-1818
1028.084	-1179
1028.151	-1755
1028.218	-1605
1028.285	-2485
1028.352	-1814
1028.419	-1915
1028.486	-2787
1028.553	-1772
1028.619	-1486
1028.686	-2196
1028.753	-1956
1028.820	-1774
1028.886	-1905
1028.953	-2843
1029.020	-1444
1029.086	-2210
1029.153	-1983
1029.220	-1538
1029.286	-1570
1029.353	-1552
1029.419	-2325
1029.486	-2373
1029.552	-2402
1029.619	-2106
1029.685	-2066
1029.751	-2574
1029.818	-792
1029.884	-2106
1029.951	-1581
1030.017	-2228
1030.083	-1416
1030.149	-2877
1030.216	-1643
1030.282	-1880
1030.348	-2202
1030.414	-2085
1030.480	-1233
1030.546	-2615
1030.612	-1825
1030.678	-2400
1030.744	-1965
1030.810	-2505
1030.876	-1370
1030.942	-2465
1031.008	-2379
1031.074	-2107
1031.140	-1856
1031.206	-1994
1031.272	-2779
1031.337	-2626
1031.403	-1762
1031.469	-2730
1031.534	-2213
1031.600	-2068
1031.666	-2208
1031.731	-2806
1031.797	-1272
1031.863	-1548
1031.928	-1864
1031.994	-2433
1032.059	-1363
1032.125	-1771
1032.190	-2189
1032.256	-2184
1032.321	-1943
1032.386	-2768
1032.452	-2281
1032.517	-2541
1032.582	-2628
1032.647	-2521
1032.713	-1341
1032.778	-2468
1032.843	-2655
1032.908	-1823
1032.974	-1568
1033.039	-2858
1033.104	-1329
1033.169	-2413
1033.234	-1749
1033.299	-1680
1033.364	-1743
1033.429	-2125
1033.494	-2594
1033.559	-2671
1033.624	-2345
1033.688	-1669
1033.753	-2531
1033.818	-2209
1033.883	-2160
1033.948	-2324
1034.013	-2083
1034.077	-1432
1034.142	-2227
1034.207	-1510
1034.271	-1777
1034.336	-430
1034.400	-1035
1034.465	-1463
1034.530	-2031
1034.594	-2661
1034.658	-2186
1034.723	-1783
1034.787	-2429
1034.852	-2580
1034.916	-2245
1034.981	-2404
1035.045	-2251
1035.109	-1965
1035.173	-1673
1035.238	-2662
1035.302	-1798
1035.366	-2605
1035.430	-2593
1035.495	-2920
1035.559	-2028
1035.623	-1847
1035.687	-2526
1035.751	-2249
1035.815	-1600
1035.879	-2526
1035.943	-2476
1036.007	-2528
1036.071	-1830
1036.135	-2474
1036.198	-2107
1036.262	-2322
1036.326	-2419
1036.390	-2549
1036.454	-2696
1036.517	-2658
1036.581	-2212
1036.645	-2179
1036.709	-2568
1036.772	-2628
1036.836	-1458
1036.900	-2110
1036.963	-2334
1037.026	-2318
1037.090	-2133
1037.154	-2373
1037.217	-2338
1037.280	-1972
1037.344	-2618
1037.407	-2550
1037.471	-2203
1037.534	-2042
1037.597	-2428
1037.661	-2734
1037.724	-1728
1037.787	-2440
1037.850	-2331
1037.913	-2523
1037.977	-1968
1038.040	-2501
1038.103	-2217
1038.166	-2422
1038.229	-1870
1038.292	-2684
1038.355	-2351
1038.418	-2466
1038.481	-2256
1038.544	-2861
1038.607	-2363
1038.670	-2579
1038.732	-1906
1038.795	-2864
1038.858	-2326
1038.921	-1882
1038.984	-1745
1039.046	-2583
1039.109	-2297
1039.172	-2166
1039.234	-2610
1039.297	-2055
1039.360	-2257
1039.422	-2338
1039.485	-2299
1039.547	-2196
1039.610	-1764
1039.672	-2809
1039.734	-2550
1039.797	-2470
1039.859	-2675
1039.922	-2904
1039.984	-2010
1040.046	-2995
1040.109	-2660
1040.171	-2589
1040.233	-2152
1040.295	-2686
1040.358	-2410
1040.420	-2255
1040.482	-1988
1040.544	-2097
1040.606	-2192
1040.668	-2930
1040.730	-2316
1040.792	-2102
1040.854	-2061
1040.916	-2653
1040.978	-2125
1041.040	-2524
1041.102	-1991
1041.164	-1614
1041.225	-2951
1041.287	-3108
1041.349	-2705
1041.411	-3176
1041.472	-2161
1041.534	-1917
1041.596	-2398
1041.657	-1872
1041.719	-2518
1041.781	-2527
1041.842	-2101
1041.904	-2355
1041.965	-2224
1042.027	-2348
1042.088	-2044
1042.150	-2260
1042.211	-1832
1042.272	-2567
1042.334	-1804
1042.395	-2939
1042.456	-2245
1042.518	-2295
1042.579	-2038
1042.640	-2659
1042.701	-2990
1042.763	-2727
1042.824	-2030
1042.885	-3106
1042.946	-2733
1043.007	-2469
1043.068	-2670
1043.129	-2847
1043.190	-1840
1043.251	-2707
1043.312	-2736
1043.373	-2389
1043.434	-1910
1043.495	-1884
1043.556	-2217
1043.616	-2645
1043.677	-2345
1043.738	-2169
1043.799	-2615
1043.859	-2525
1043.920	-2604
1043.981	-1744
1044.041	-1758
1044.102	-2559
1044.162	-2072
1044.223	-2602
1044.284	-1925
1044.344	-2343
1044.405	-2665
1044.465	-2698
1044.525	-2870
1044.586	-2313
1044.646	-2494
1044.707	-2453
1044.767	-2386
1044.827	-2520
1044.887	-2317
1044.948	-2475
1045.008	-1896
1045.068	-2362
1045.128	-2389
1045.188	-2252
1045.249	-1374
1045.309	-1945
1045.369	-1756
1045.429	-2231
1045.489	-2657
1045.549	-2392
1045.609	-2923
1045.669	-1637
1045.729	-2080
1045.789	-2053
1045.848	-1908
1045.908	-2190
1045.968	-1547
1046.028	-1709
1046.088	-1426
1046.147	-2298
1046.207	-1813
1046.267	-1919
1046.326	-1711
1046.386	-2569
1046.446	-1225
1046.505	-2310
1046.565	-1147
1046.624	-1684
1046.684	-1083
1046.743	-1811
1046.803	-937
1046.862	-822
1046.922	0
