'Start Wavelength	183.907
'End Wavelength	1046.922
'Gate Delay	5.000
'Gate Width (ms)	1.050
'Laser Output Level	0.000
'X Position	0.000
'Y Position	0.000
'Z Position	0.000
'Grid Point Number	1.000
'Shot Number	100.000
183.907	40.000
183.977	117.000
184.047	542
184.116	-138
184.186	432
184.256	159
184.325	206
184.395	-295
184.465	620
184.534	-50
184.604	31
184.674	128
184.743	-154
184.813	301
184.883	523
184.952	291
185.022	214
185.092	158
185.161	-379
185.231	-363
185.301	194
185.370	1557
185.440	229
185.509	231
185.579	-144
185.649	713
185.718	20
185.788	608
185.857	-95
185.927	2
185.996	-170
186.066	-309
186.136	-137
186.205	165
186.275	-77
186.344	-77
186.414	-438
186.483	156
186.553	610
186.622	536
186.692	507
186.761	-72
186.831	225
186.900	-215
186.970	-503
187.039	-68
187.109	160
187.178	653
187.248	98
187.317	403
187.387	-291
187.456	349
187.526	-19
187.595	103
187.664	-260
187.734	536
187.803	-51
187.873	591
187.942	446
188.012	496
188.081	226
188.150	937
188.220	254
188.289	735
188.358	-150
188.428	719
188.497	-288
188.567	674
188.636	-82
188.705	-57
188.775	-561
188.844	-342
188.913	-55
188.983	-18
189.052	399
189.121	45
189.191	598
189.260	880
189.329	675
189.399	284
189.468	329
189.537	190
189.606	-172
189.676	368
189.745	-31
189.814	1272
189.883	42
189.953	1038
190.022	1000
190.091	1003
190.161	1196
190.230	758
190.299	-106
190.368	407
190.437	-503
190.507	888
190.576	188
190.645	769
190.714	-585
190.783	706
190.853	309
190.922	975
190.991	452
191.060	650
191.129	147
191.198	-356
191.268	-602
191.337	907
191.406	907
191.475	712
191.544	391
191.613	606
191.682	247
191.752	837
191.821	1148
191.890	196
191.959	562
192.028	1131
192.097	-24
192.166	567
192.235	390
192.304	503
192.373	181
192.442	379
192.511	25
192.580	-310
192.650	337
192.719	579
192.788	325
192.857	57
192.926	-188
192.995	583
193.064	341
193.133	1468
193.202	1180
193.271	1089
193.340	363
193.409	822
193.478	638
193.547	1706
193.615	1855
193.684	1780
193.753	1122
193.822	1508
193.891	739
193.960	1138
194.029	205
194.098	-138
194.167	-7
194.236	1577
194.305	640
194.374	113
194.443	200
194.512	845
194.580	17
194.649	1619
194.718	598
194.787	823
194.856	144
194.925	783
194.994	402
195.062	1148
195.131	1040
195.200	899
195.269	1111
195.338	542
195.407	-50
195.475	365
195.544	1146
195.613	782
195.682	524
195.751	991
195.819	1017
195.888	735
195.957	1386
196.026	1218
196.094	881
196.163	722
196.232	598
196.301	711
196.369	416
196.438	954
196.507	272
196.576	1003
196.644	766
196.713	642
196.782	316
196.850	577
196.919	306
196.988	1111
197.056	189
197.125	-159
197.194	572
197.262	930
197.331	790
197.400	510
197.468	450
197.537	1342
197.606	535
197.674	1439
197.743	1469
197.812	1503
197.880	1907
197.949	1901
198.017	1604
198.086	1834
198.155	555
198.223	1595
198.292	1630
198.360	934
198.429	1051
198.497	714
198.566	1347
198.635	2466
198.703	660
198.772	1084
198.840	2776
198.909	2479
198.977	395
199.046	1379
199.114	962
199.183	1312
199.251	816
199.320	1047
199.388	843
199.457	731
199.525	534
199.594	858
199.662	685
199.731	1120
199.799	539
199.867	1188
199.936	125
200.004	1027
200.073	412
200.141	496
200.210	327
200.278	646
200.346	843
200.415	1166
200.483	1494
200.552	1176
200.620	372
200.688	1080
200.757	698
200.825	334
200.893	1222
200.962	412
201.030	-146
201.098	262
201.167	869
201.235	945
201.303	570
201.372	1238
201.440	1300
201.508	305
201.577	753
201.645	856
201.713	1037
201.781	623
201.850	632
201.918	992
201.986	861
202.055	1856
202.123	707
202.191	1729
202.259	461
202.327	1031
202.396	1167
202.464	1457
202.532	707
202.600	2705
202.669	1124
202.737	750
202.805	835
202.873	1820
202.941	452
203.009	572
203.078	166
203.146	1315
203.214	147
203.282	1021
203.350	273
203.418	1196
203.487	963
203.555	1453
203.623	624
203.691	623
203.759	488
203.827	1371
203.895	951
203.963	1197
204.031	833
204.099	731
204.168	630
204.236	1046
204.304	467
204.372	975
204.440	1097
204.508	942
204.576	951
204.644	1248
204.712	1464
204.780	1012
204.848	1075
204.916	24
204.984	961
205.052	1555
205.120	1707
205.188	1577
205.256	692
205.324	776
205.392	1391
205.460	1728
205.528	811
205.596	1641
205.664	650
205.732	1002
205.799	2679
205.867	3304
205.935	2016
206.003	1460
206.071	1289
206.139	1776
206.207	165
206.275	934
206.343	1552
206.411	1585
206.478	1344
206.546	1671
206.614	1340
206.682	1659
206.750	770
206.818	2052
206.885	1535
206.953	1179
207.021	888
207.089	1603
207.157	749
207.225	1318
207.292	1595
207.360	1237
207.428	1107
207.496	1488
207.563	848
207.631	2305
207.699	814
207.767	1210
207.834	645
207.902	1935
207.970	1757
208.038	1684
208.105	1220
208.173	1150
208.241	2398
208.309	2519
208.376	1901
208.444	2680
208.512	1469
208.579	1177
208.647	1809
208.715	1289
208.782	1531
208.850	1657
208.918	1234
208.985	1530
209.053	1472
209.120	1263
209.188	1247
209.256	1627
209.323	1183
209.391	1868
209.459	2098
209.526	1816
209.594	1276
209.661	2214
209.729	1869
209.796	2198
209.864	1582
209.932	865
209.999	2011
210.067	2485
210.134	1730
210.202	2177
210.269	1821
210.337	2265
210.404	1596
210.472	1960
210.539	1984
210.607	2146
210.674	1950
210.742	1370
210.809	1589
210.877	2464
210.944	2490
211.012	1794
211.079	2285
211.146	2327
211.214	1760
211.281	2265
211.349	2113
211.416	2539
211.484	2166
211.551	1940
211.618	2266
211.686	2307
211.753	2429
211.821	3064
211.888	902
211.955	1990
212.023	1018
212.090	2749
212.157	2123
212.225	1571
212.292	3770
212.359	6243
212.427	9043
212.494	4994
212.561	2360
212.629	2692
212.696	2291
212.763	2079
212.831	1915
212.898	2360
212.965	1784
213.032	1826
213.100	1558
213.167	2048
213.234	2462
213.301	2477
213.369	1928
213.436	2720
213.503	1117
213.570	2710
213.638	2120
213.705	2484
213.772	2128
213.839	2669
213.906	1719
213.973	2573
214.041	2438
214.108	2170
214.175	2438
214.242	2664
214.309	2268
214.376	2104
214.444	1876
214.511	3118
214.578	1699
214.645	3421
214.712	2247
214.779	2874
214.846	2403
214.913	2397
214.980	2127
215.048	3289
215.115	2913
215.182	2322
215.249	1785
215.316	2394
215.383	1766
215.450	2246
215.517	2000
215.584	2508
215.651	1934
215.718	2775
215.785	2005
215.852	1641
215.919	2043
215.986	2523
216.053	1778
216.120	2536
216.187	3088
216.254	2748
216.321	2289
216.388	2777
216.455	2988
216.522	3427
216.589	2543
216.656	4014
216.722	3351
216.789	3342
216.856	2819
216.923	3852
216.990	3921
217.057	3249
217.124	3371
217.191	3888
217.258	3766
217.324	4380
217.391	4799
217.458	4121
217.525	3462
217.592	3436
217.659	2450
217.725	3053
217.792	2502
217.859	3220
217.926	2521
217.993	2105
218.059	2249
218.126	2109
218.193	2153
218.260	2110
218.327	2046
218.393	2726
218.460	1746
218.527	785
218.594	1730
218.660	2994
218.727	2588
218.794	2376
218.860	2736
218.927	1900
218.994	1767
219.061	2944
219.127	1754
219.194	3194
219.261	2555
219.327	1643
219.394	1735
219.461	1892
219.527	1882
219.594	2493
219.661	1641
219.727	2620
219.794	2626
219.860	1756
219.927	1279
219.994	3546
220.060	3499
220.127	2973
220.193	3746
220.260	4031
220.326	5295
220.393	6951
220.460	7010
220.526	5161
220.593	3889
220.659	4862
220.726	5362
220.792	8572
220.859	7256
220.925	9916
220.992	9472
221.058	9869
221.125	9114
221.191	6865
221.258	3946
221.324	3800
221.391	3696
221.457	3461
221.524	3010
221.590	4261
221.657	8211
221.723	4939
221.789	5549
221.856	4616
221.922	3010
221.989	2645
222.055	1959
222.121	2179
222.188	2424
222.254	2920
222.321	2557
222.387	2289
222.453	2539
222.520	1710
222.586	2011
222.652	2108
222.719	1890
222.785	2281
222.851	1600
222.918	1504
222.984	2181
223.050	2480
223.116	2417
223.183	2430
223.249	1381
223.315	1436
223.382	2364
223.448	2279
223.514	680
223.580	1692
223.647	1578
223.713	2406
223.779	2107
223.845	2208
223.911	1546
223.978	2142
224.044	1687
224.110	1862
224.176	1655
224.242	2141
224.309	1301
224.375	1259
224.441	1683
224.507	2387
224.573	1720
224.639	2512
224.705	1644
224.772	2378
224.838	1483
224.904	2169
224.970	2049
225.036	2315
225.102	1338
225.168	2255
225.234	1616
225.300	1833
225.366	1489
225.432	1846
225.499	1910
225.565	2549
225.631	2624
225.697	2809
225.763	2826
225.829	4393
225.895	3191
225.961	4811
226.027	4236
226.093	3584
226.159	5098
226.225	8533
226.291	13372
226.357	15262
226.423	9880
226.489	6915
226.554	5770
226.620	6253
226.686	6544
226.752	9750
226.818	14585
226.884	19289
226.950	15754
227.016	9311
227.082	6545
227.148	4564
227.214	4664
227.279	3788
227.345	3463
227.411	3792
227.477	3720
227.543	4368
227.609	4290
227.674	3930
227.740	3143
227.806	2915
227.872	2910
227.938	2654
228.003	3291
228.069	2236
228.135	1748
228.201	2227
228.267	1975
228.332	3076
228.398	2661
228.464	2703
228.530	2099
228.595	1787
228.661	2016
228.727	2908
228.792	2390
228.858	1691
228.924	2387
228.990	2758
229.055	2033
229.121	2469
229.187	1826
229.252	2750
229.318	2343
229.384	2206
229.449	1703
229.515	1687
229.581	391
229.646	2543
229.712	1900
229.777	4655
229.843	2861
229.909	4281
229.974	4310
230.040	4293
230.105	2928
230.171	4056
230.236	4084
230.302	5134
230.368	3922
230.433	3289
230.499	3549
230.564	3837
230.630	2945
230.695	3074
230.761	2223
230.826	2747
230.892	3624
230.957	3313
231.023	1942
231.088	2203
231.154	2572
231.219	2245
231.284	3225
231.350	3598
231.415	2750
231.481	3197
231.546	2764
231.612	2151
231.677	2204
231.742	2115
231.808	1951
231.873	2502
231.939	910
232.004	4152
232.069	1681
232.135	2982
232.200	1795
232.265	2563
232.331	2007
232.396	1873
232.461	1944
232.527	2492
232.592	2336
232.657	1604
232.723	1799
232.788	1723
232.853	2920
232.918	2937
232.984	1651
233.049	1922
233.114	1950
233.179	2376
233.245	3017
233.310	2725
233.375	1378
233.440	2728
233.506	1974
233.571	2403
233.636	1662
233.701	2019
233.766	2096
233.832	2277
233.897	1248
233.962	1352
234.027	2432
234.092	2511
234.157	1996
234.222	2276
234.288	2839
234.353	5717
234.418	4345
234.483	4053
234.548	3938
234.613	3162
234.678	3764
234.743	4334
234.808	6165
234.873	4010
234.938	3744
235.004	3272
235.069	2867
235.134	2598
235.199	2520
235.264	3470
235.329	2532
235.394	3485
235.459	2866
235.524	3286
235.589	2813
235.654	3281
235.719	2337
235.784	2968
235.849	2752
235.913	3355
235.978	3766
236.043	3996
236.108	3658
236.173	3079
236.238	2844
236.303	2931
236.368	2647
236.433	3884
236.498	4854
236.563	6399
236.627	13637
236.692	27630
236.757	21163
236.822	11392
236.887	8191
236.952	6647
237.017	6073
237.081	6572
237.146	10076
237.211	18874
237.276	27474
237.341	32095
237.405	19745
237.470	10707
237.535	7476
237.600	5726
237.664	4685
237.729	4524
237.794	6721
237.859	10807
237.923	5266
237.988	3517
238.053	3824
238.118	4435
238.182	7203
238.247	5222
238.312	3756
238.376	4065
238.441	2872
238.506	3790
238.570	1442
238.635	3510
238.700	2537
238.764	2948
238.829	4204
238.893	4012
238.958	3024
239.023	3294
239.087	2629
239.152	2845
239.216	2368
239.281	3093
239.346	2745
239.410	3301
239.475	2570
239.539	7360
239.604	3215
239.668	2649
239.733	2656
239.797	2989
239.862	5155
239.926	5339
239.991	2338
240.055	2775
240.120	2816
240.184	2445
240.249	2089
240.313	1634
240.378	1707
240.442	4875
240.507	4108
240.571	3274
240.635	2521
240.700	3481
240.764	1523
240.829	2556
240.893	786
240.957	2144
241.022	3767
241.086	4616
241.151	2891
241.215	2189
241.279	2559
241.344	3216
241.408	4276
241.472	3759
241.537	4040
241.601	4036
241.665	3451
241.730	3407
241.794	4407
241.858	3753
241.922	4143
241.987	4044
242.051	3679
242.115	3286
242.179	3284
242.244	3734
242.308	3724
242.372	4644
242.436	3410
242.501	3367
242.565	3048
242.629	2721
242.693	3060
242.757	3298
242.822	3166
242.886	3541
242.950	3381
243.014	3207
243.078	3221
243.142	3654
243.206	2896
243.271	3145
243.335	4469
243.399	6724
243.463	20319
243.527	29660
243.591	9375
243.655	5772
243.719	3271
243.783	5503
243.847	6727
243.911	6998
243.975	6781
244.040	4082
244.104	4900
244.168	3219
244.232	3880
244.296	6098
244.360	6370
244.424	3272
244.488	2903
244.552	3048
244.615	1600
244.679	2843
244.743	3796
244.807	2853
244.871	2495
244.935	2690
244.999	1674
245.063	2354
245.127	3230
245.191	6071
245.255	4002
245.319	3656
245.383	1611
245.446	3570
245.510	1787
245.574	2577
245.638	2711
245.702	1967
245.766	5162
245.829	3381
245.893	2902
245.957	2685
246.021	3609
246.085	3191
246.149	3183
246.212	9470
246.276	10231
246.340	4803
246.404	2746
246.467	5368
246.531	4571
246.595	4184
246.659	3279
246.722	3809
246.786	4099
246.850	5083
246.913	4844
246.977	3427
247.041	3056
247.104	2859
247.168	4046
247.232	9465
247.295	13932
247.359	6224
247.423	4675
247.486	6536
247.550	3795
247.614	2990
247.677	4787
247.741	3719
247.804	3091
247.868	3898
247.932	8151
247.995	12161
248.059	4010
248.122	2713
248.186	5246
248.249	8753
248.313	24434
248.376	20529
248.440	11650
248.503	4998
248.567	5574
248.630	7924
248.694	9892
248.757	14347
248.821	22861
248.884	13825
248.948	14812
249.011	19668
249.075	27492
249.138	20151
249.202	9360
249.265	7374
249.328	7201
249.392	6583
249.455	6117
249.519	5187
249.582	5424
249.645	9454
249.709	5898
249.772	6140
249.835	5054
249.899	5159
249.962	5200
250.025	5163
250.089	11841
250.152	11392
250.215	6184
250.279	5766
250.342	5254
250.405	5614
250.468	5564
250.532	7924
250.595	13303
250.658	41327
250.721	44863
250.785	18456
250.848	11500
250.911	7517
250.974	7270
251.038	11124
251.101	14278
251.164	9049
251.227	9059
251.290	9968
251.354	17917
251.417	51612
251.480	40023
251.543	42733
251.606	75050
251.669	52270
251.732	26809
251.795	25697
251.859	29203
251.922	51821
251.985	25460
252.048	14570
252.111	9206
252.174	9242
252.237	17576
252.300	29203
252.363	39201
252.426	54773
252.489	22578
252.552	12776
252.615	10462
252.678	12385
252.741	24909
252.804	39390
252.867	59556
252.930	34263
252.993	18133
253.056	12730
253.119	9265
253.182	7620
253.245	12826
253.308	8357
253.371	6982
253.434	6466
253.497	7650
253.559	13491
253.622	7543
253.685	8542
253.748	7250
253.811	4336
253.874	5896
253.937	5004
254.000	4640
254.062	10618
254.125	12200
254.188	13843
254.251	8476
254.314	5025
254.376	8802
254.439	7289
254.502	6337
254.565	10430
254.628	13645
254.690	6749
254.753	3745
254.816	3949
254.878	4400
254.941	10012
255.004	6948
255.067	4059
255.129	2958
255.192	3228
255.255	1813
255.317	3059
255.380	1909
255.443	1795
255.505	2107
255.568	1404
255.631	1193
255.693	3394
255.756	1562
255.819	2938
255.881	1775
255.944	2079
256.006	2537
256.069	2717
256.132	1510
256.194	3297
256.257	4370
256.319	3044
256.382	3376
256.444	4662
256.507	3415
256.569	4155
256.632	4487
256.694	6552
256.757	25022
256.819	45663
256.882	19093
256.944	9356
257.007	7769
257.069	6150
257.132	4987
257.194	4814
257.257	4092
257.319	5298
257.381	6588
257.444	19047
257.506	56986
257.569	49139
257.631	21102
257.693	13149
257.756	6468
257.818	5841
257.880	4320
257.943	4274
258.005	3516
258.067	3908
258.130	3442
258.192	4519
258.254	5352
258.317	4257
258.379	4007
258.441	9314
258.503	6652
258.566	7074
258.628	5295
258.690	3410
258.753	4201
258.815	6556
258.877	3755
258.939	4426
259.001	3146
259.064	3830
259.126	4046
259.188	4600
259.250	3876
259.312	5279
259.375	7784
259.437	5017
259.499	3935
259.561	4026
259.623	3785
259.685	3884
259.747	3541
259.809	6371
259.872	7926
259.934	18096
259.996	16568
260.058	5995
260.120	3326
260.182	2996
260.244	2936
260.306	2434
260.368	3795
260.430	2806
260.492	8783
260.554	10619
260.616	5465
260.678	11560
260.740	7959
260.802	4306
260.864	3967
260.926	2779
260.988	3625
261.050	4512
261.112	13886
261.174	16317
261.236	6531
261.298	4424
261.359	4974
261.421	5918
261.483	2977
261.545	3759
261.607	1942
261.669	2999
261.731	3952
261.793	7843
261.854	3000
261.916	4135
261.978	4856
262.040	4280
262.102	3075
262.164	2678
262.225	2056
262.287	3327
262.349	6412
262.411	4036
262.472	2938
262.534	3911
262.596	4284
262.658	2995
262.719	1178
262.781	3602
262.843	3780
262.904	3560
262.966	3383
263.028	4801
263.090	23450
263.151	39018
263.213	13578
263.275	9168
263.336	3514
263.398	3563
263.459	1711
263.521	3017
263.583	6223
263.644	3807
263.706	2127
263.767	2115
263.829	1474
263.891	1688
263.952	1503
264.014	2356
264.075	8034
264.137	12153
264.198	3680
264.260	2691
264.321	2562
264.383	9586
264.444	18565
264.506	5026
264.567	4262
264.629	12033
264.690	15957
264.752	5318
264.813	2866
264.875	2348
264.936	2925
264.998	3065
265.059	2735
265.120	2293
265.182	7360
265.243	34584
265.305	23819
265.366	6667
265.427	4267
265.489	3771
265.550	1765
265.611	3004
265.673	2280
265.734	2935
265.795	1961
265.857	2411
265.918	3619
265.979	12071
266.040	48688
266.102	31353
266.163	10838
266.224	7684
266.286	3984
266.347	2328
266.408	3096
266.469	2713
266.530	3266
266.592	1622
266.653	4737
266.714	6312
266.775	1820
266.836	1711
266.898	1937
266.959	5388
267.020	2140
267.081	3329
267.142	2014
267.203	1960
267.264	953
267.326	2849
267.387	1938
267.448	1537
267.509	2704
267.570	2333
267.631	1706
267.692	1301
267.753	2305
267.814	1666
267.875	6391
267.936	9501
267.997	9321
268.058	6935
268.119	3255
268.180	2921
268.241	2224
268.302	2443
268.363	1258
268.424	2117
268.485	1767
268.546	1811
268.607	1115
268.668	1492
268.729	1403
268.790	1773
268.851	2552
268.912	6960
268.972	4800
269.033	2984
269.094	1399
269.155	2427
269.216	1489
269.277	2545
269.338	2070
269.398	2253
269.459	1345
269.520	3059
269.581	2874
269.642	4547
269.702	2870
269.763	2828
269.824	2073
269.885	3660
269.945	3921
270.006	2832
270.067	1157
270.128	1759
270.188	1607
270.249	2132
270.310	830
270.370	2639
270.431	1624
270.492	2222
270.553	2656
270.613	4719
270.674	7360
270.734	2853
270.795	1087
270.856	4418
270.916	1434
270.977	2463
271.038	2430
271.098	2459
271.159	4339
271.219	2837
271.280	1848
271.340	1786
271.401	1872
271.462	2587
271.522	2354
271.583	2416
271.643	2286
271.704	1491
271.764	2993
271.825	8055
271.885	24430
271.946	22502
272.006	7733
272.066	16116
272.127	18529
272.187	5889
272.248	3568
272.308	5743
272.369	14935
272.429	6340
272.489	6893
272.550	6018
272.610	6328
272.671	4178
272.731	3976
272.791	5110
272.852	2657
272.912	3461
272.972	2468
273.033	2224
273.093	2334
273.153	4092
273.214	2314
273.274	3568
273.334	16417
273.394	18047
273.455	5144
273.515	11299
273.575	16865
273.635	6287
273.696	9959
273.756	16301
273.816	5351
273.876	3590
273.936	5887
273.997	8800
274.057	3003
274.117	2771
274.177	7108
274.237	29542
274.297	14661
274.358	9754
274.418	15440
274.478	9733
274.538	3643
274.598	2553
274.658	7112
274.718	6904
274.778	3333
274.838	2923
274.898	5321
274.958	9484
275.018	18043
275.078	8271
275.138	3675
275.198	2106
275.258	1511
275.318	3062
275.378	4010
275.438	5001
275.498	3501
275.558	6920
275.618	15253
275.678	9761
275.738	8235
275.798	6861
275.858	3722
275.918	1458
275.978	3134
276.038	2528
276.098	2441
276.157	5990
276.217	12370
276.277	4294
276.337	3117
276.397	1405
276.457	2558
276.517	1668
276.576	1729
276.636	1650
276.696	3123
276.756	8607
276.815	3644
276.875	2163
276.935	2449
276.995	2205
277.055	2126
277.114	2157
277.174	4082
277.234	10630
277.293	3340
277.353	2719
277.413	1440
277.472	2133
277.532	2077
277.592	2604
277.651	9972
277.711	10080
277.771	5167
277.830	19494
277.890	10071
277.950	13165
278.009	25230
278.069	8083
278.128	11301
278.188	11149
278.248	5861
278.307	15508
278.367	6742
278.426	2865
278.486	1972
278.545	1819
278.605	1730
278.664	1842
278.724	2189
278.783	11510
278.843	17973
278.902	3835
278.962	2592
279.021	3986
279.081	3778
279.140	4061
279.199	4152
279.259	4015
279.318	2811
279.378	5559
279.437	11451
279.496	35554
279.556	65989
279.615	30788
279.675	10318
279.734	8395
279.793	16781
279.853	23768
279.912	8110
279.971	5087
280.031	4139
280.090	13993
280.149	16680
280.208	13123
280.268	51475
280.327	29224
280.386	8104
280.445	9998
280.505	6831
280.564	4322
280.623	3411
280.682	7952
280.742	7427
280.801	2354
280.860	2343
280.919	2620
280.978	2305
281.037	1795
281.097	1206
281.156	2191
281.215	2146
281.274	3967
281.333	15310
281.392	6058
281.451	2384
281.510	1943
281.569	2079
281.628	1831
281.688	1154
281.747	2336
281.806	1912
281.865	1825
281.924	596
281.983	1972
282.042	1550
282.101	1500
282.160	1140
282.219	1700
282.278	2710
282.337	8203
282.396	3633
282.454	2077
282.513	3612
282.572	11690
282.631	4100
282.690	2341
282.749	1512
282.808	2220
282.867	1548
282.926	1728
282.985	792
283.043	1288
283.102	1602
283.161	1742
283.220	7073
283.279	11365
283.338	2852
283.396	2001
283.455	2425
283.514	3155
283.573	3485
283.631	3082
283.690	1858
283.749	2432
283.808	4832
283.866	4564
283.925	1790
283.984	2148
284.043	2595
284.101	1765
284.160	1834
284.219	3463
284.277	3033
284.336	5917
284.395	15087
284.453	9111
284.512	3562
284.570	5852
284.629	4379
284.688	4193
284.746	4067
284.805	4548
284.863	5815
284.922	7712
284.981	9804
285.039	15710
285.098	30409
285.156	73375
285.215	119795
285.273	113915
285.332	62428
285.390	33532
285.449	19987
285.507	14393
285.566	10757
285.624	7896
285.683	6057
285.741	4945
285.799	4012
285.858	3768
285.916	3953
285.975	3080
286.033	1910
286.091	2802
286.150	2213
286.208	2820
286.267	2195
286.325	2920
286.383	3760
286.442	3358
286.500	2196
286.558	1339
286.616	1278
286.675	2844
286.733	2057
286.791	1706
286.850	2642
286.908	4290
286.966	5409
287.024	3047
287.083	1639
287.141	1884
287.199	1601
287.257	3373
287.315	2141
287.374	3066
287.432	8338
287.490	4243
287.548	2782
287.606	2574
287.664	3315
287.723	4010
287.781	4359
287.839	3054
287.897	4135
287.955	5343
288.013	10551
288.071	26485
288.129	94961
288.187	154756
288.245	69050
288.303	26362
288.361	15852
288.419	11784
288.477	8163
288.535	6397
288.593	4888
288.651	3982
288.709	2502
288.767	3575
288.825	1581
288.883	2601
288.941	2129
288.999	1791
289.057	1386
289.115	1322
289.173	766
289.231	2511
289.289	1128
289.346	2099
289.404	2021
289.462	2996
289.520	2844
289.578	1368
289.636	1497
289.694	1241
289.751	770
289.809	1444
289.867	1503
289.925	2090
289.983	2110
290.040	1724
290.098	1514
290.156	2268
290.214	2029
290.271	1635
290.329	1588
290.387	978
290.444	820
290.502	1408
290.560	1521
290.617	1500
290.675	1485
290.733	1241
290.790	1688
290.848	1496
290.906	1052
290.963	1608
291.021	1379
291.078	1614
291.136	2135
291.194	12595
291.251	14983
291.309	3384
291.366	1835
291.424	2323
291.481	1356
291.539	2150
291.596	1209
291.654	1060
291.711	876
291.769	2267
291.826	2818
291.884	1211
291.941	-326
291.999	1491
292.056	1227
292.114	1392
292.171	998
292.228	1197
292.286	1384
292.343	4069
292.401	3338
292.458	2175
292.515	2078
292.573	2256
292.630	1395
292.687	2421
292.745	1839
292.802	4160
292.859	12141
292.917	14681
292.974	5541
293.031	2915
293.089	2029
293.146	1874
293.203	1196
293.260	1208
293.318	2037
293.375	5429
293.432	2426
293.489	2347
293.546	2081
293.604	3566
293.661	12300
293.718	23956
293.775	10650
293.832	4871
293.889	2959
293.947	3426
294.004	1620
294.061	3410
294.118	8821
294.175	19925
294.232	22846
294.289	8001
294.346	5139
294.403	4094
294.460	1920
294.517	2574
294.574	1662
294.631	2486
294.688	3129
294.745	10341
294.802	35023
294.859	32453
294.916	10840
294.973	5392
295.030	4331
295.087	3550
295.144	2904
295.201	3301
295.258	1740
295.315	3634
295.372	12458
295.429	16966
295.486	7077
295.542	6983
295.599	24169
295.656	28315
295.713	20016
295.770	17594
295.827	6093
295.883	4027
295.940	3732
295.997	6906
296.054	3622
296.111	2621
296.167	2898
296.224	1874
296.281	1503
296.338	1769
296.394	1839
296.451	2601
296.508	11005
296.564	16527
296.621	11560
296.678	27483
296.734	28812
296.791	10694
296.848	5932
296.904	6895
296.961	14248
297.018	22384
297.074	13415
297.131	5966
297.187	4797
297.244	7902
297.301	26648
297.357	32066
297.414	10253
297.470	4959
297.527	3239
297.583	3750
297.640	3430
297.696	2565
297.753	2493
297.809	2067
297.866	1156
297.922	1603
297.979	1420
298.035	2571
298.092	4480
298.148	14052
298.204	8249
298.261	5749
298.317	14643
298.374	27243
298.430	11524
298.486	5904
298.543	3421
298.599	5006
298.656	6548
298.712	12260
298.768	26856
298.824	14826
298.881	5698
298.937	3841
298.993	3318
299.050	4494
299.106	3720
299.162	2663
299.218	3098
299.275	2348
299.331	3344
299.387	8659
299.443	25835
299.500	18820
299.556	7170
299.612	4507
299.668	4060
299.724	3988
299.780	3585
299.837	3303
299.893	6051
299.949	20054
300.005	17339
300.061	22153
300.117	29395
300.173	12172
300.229	6647
300.285	7555
300.341	6820
300.397	3786
300.453	2597
300.510	2687
300.566	2640
300.622	3458
300.678	8322
300.734	14787
300.790	17296
300.845	19049
300.901	11167
300.957	16881
301.013	10893
301.069	4156
301.125	2914
301.181	3750
301.237	3031
301.293	1881
301.349	1912
301.405	2898
301.461	2949
301.516	3699
301.572	3089
301.628	5400
301.684	4545
301.740	9530
301.796	12343
301.851	8442
301.907	14776
301.963	13586
302.019	30007
302.074	66896
302.130	53839
302.186	22484
302.242	9759
302.297	7108
302.353	7740
302.409	14306
302.464	10100
302.520	10082
302.576	23913
302.631	22466
302.687	11245
302.743	5492
302.798	3476
302.854	3296
302.910	3785
302.965	5430
303.021	7466
303.076	5836
303.132	7761
303.187	8452
303.243	4314
303.299	3551
303.354	2418
303.410	4082
303.465	2328
303.521	2164
303.576	3137
303.632	3712
303.687	8109
303.743	22475
303.798	15162
303.853	6179
303.909	3578
303.964	3436
304.020	5741
304.075	7224
304.130	7520
304.186	12715
304.241	10763
304.297	9156
304.352	4248
304.358	4172
304.407	3558
304.449	3727
304.463	3789
304.518	4491
304.539	3975
304.573	3150
304.629	3882
304.630	3936
304.684	6452
304.720	14033
304.739	17897
304.794	20850
304.811	17537
304.850	9607
304.902	4441
304.905	4111
304.960	4192
304.992	3887
305.015	3677
305.071	3820
305.083	3594
305.126	2745
305.173	2190
305.181	2102
305.236	1555
305.264	2126
305.292	2726
305.347	2983
305.354	3043
305.402	3420
305.445	3925
305.457	4058
305.512	4789
305.535	4612
305.567	4356
305.622	5434
305.626	5636
305.678	9529
305.716	19233
305.733	23098
305.788	19534
305.807	17403
305.843	13474
305.897	19366
305.898	19443
305.953	16921
305.988	11717
306.008	8671
306.063	6384
306.078	5625
306.118	3767
306.168	2718
306.173	2647
306.228	1866
306.259	2336
306.283	2678
306.338	1920
306.349	2118
306.393	2980
306.440	3387
306.448	3412
306.503	3092
306.530	3579
306.558	4630
306.613	9931
306.620	10470
306.668	13574
306.711	17328
306.723	18022
306.778	12657
306.801	9724
306.833	5971
306.888	3332
306.892	3273
306.943	2963
306.982	2820
306.997	2810
307.052	3112
307.072	3074
307.107	3198
307.162	3932
307.163	3951
307.217	5719
307.253	7027
307.272	7545
307.327	7355
307.343	7046
307.381	5925
307.434	5219
307.436	5288
307.491	10110
307.524	14228
307.546	15986
307.600	14473
307.614	13017
307.655	8036
307.704	5665
307.710	5551
307.765	5475
307.795	6978
307.819	9008
307.874	14398
307.885	14288
307.929	11026
307.975	10290
307.984	10654
308.038	15975
308.065	20811
308.093	30308
308.148	63517
308.156	70055
308.202	110311
308.246	126134
308.257	122297
308.312	72486
308.336	53722
308.366	40285
308.421	23324
308.426	22241
308.475	15281
308.517	11540
308.530	10778
308.585	9317
308.607	8812
308.639	8179
308.694	8073
308.697	8143
308.748	11474
308.787	15992
308.803	16636
308.857	13361
308.877	12465
308.912	11153
308.967	10318
308.967	10350
309.021	13419
309.058	16941
309.076	20568
309.130	37053
309.148	44733
309.185	73475
309.238	123058
309.239	123548
309.293	141255
309.328	138219
309.348	121236
309.402	63946
309.418	49886
309.457	34919
309.508	21242
309.511	20663
309.566	16467
309.598	14074
309.620	13327
309.674	13641
309.688	13727
309.729	12780
309.778	11096
309.783	10882
309.837	8664
309.868	8162
309.892	8909
309.946	11746
309.959	12984
310.001	17546
310.049	20159
310.055	19628
310.109	12798
310.139	9031
310.163	7008
310.218	4355
310.229	3931
310.272	3600
310.319	3460
310.326	3396
310.381	2887
310.409	2976
310.435	2904
310.489	2251
310.499	2204
310.543	2594
310.589	2888
310.598	2919
310.652	3428
310.679	3456
310.706	3049
310.760	2459
310.769	2341
310.814	1690
310.859	1352
310.868	1455
310.923	1792
310.948	2064
310.977	1975
311.031	1736
311.038	1708
311.085	2078
311.128	2446
311.139	2376
311.193	1995
311.218	1799
311.247	1910
311.301	2202
311.308	2233
311.356	1952
311.398	1759
311.410	1831
311.464	2100
311.488	2268
311.518	2112
311.572	1772
311.578	1748
311.626	2241
311.668	2660
311.680	2775
311.734	3263
311.758	3498
311.788	3171
311.842	2559
311.847	2502
311.896	3285
311.937	4074
311.950	4172
312.004	4551
312.027	4715
312.058	3679
312.112	1873
312.117	1703
312.165	1993
312.207	2262
312.297	2852
312.386	2961
312.476	1440
312.566	3311
312.656	1501
312.745	1472
312.835	2001
312.925	2667
313.015	1875
313.104	2499
313.194	2304
313.284	2133
313.374	1929
313.463	1515
313.553	1160
313.643	1655
313.732	1212
313.822	1472
313.912	1299
314.001	2041
314.091	2576
314.180	4103
314.270	2216
314.360	2994
314.449	2178
314.539	1982
314.628	1648
314.718	2583
314.808	2324
314.897	2039
314.987	1773
315.076	1855
315.166	2205
315.255	2967
315.345	1928
315.434	2556
315.524	1775
315.613	2327
315.703	2365
315.792	2921
315.881	2774
315.971	3008
316.060	3622
316.150	6631
316.239	6933
316.328	3861
316.418	1183
316.507	1907
316.597	2046
316.686	2156
316.775	2102
316.865	8116
316.954	2870
317.043	1392
317.133	1432
317.222	1271
317.311	1297
317.400	1086
317.490	1586
317.579	1920
317.668	1639
317.757	1733
317.847	2661
317.936	4564
318.025	3935
318.114	2514
318.203	1183
318.293	3530
318.382	6486
318.471	6413
318.560	8639
318.649	22940
318.738	5971
318.828	1565
318.917	2656
319.006	3505
319.095	9790
319.184	25924
319.273	16013
319.362	4707
319.451	1913
319.540	2236
319.629	2713
319.718	5768
319.807	4221
319.896	8422
319.985	30540
320.074	13886
320.163	2957
320.252	4444
320.341	4394
320.430	4217
320.519	3255
320.608	1801
320.697	1420
320.786	2271
320.875	1708
320.964	3161
321.053	3521
321.142	4395
321.230	5426
321.319	4646
321.408	11053
321.497	5818
321.586	4470
321.675	6736
321.764	7021
321.852	4360
321.941	5970
322.030	4276
322.119	4509
322.207	9773
322.296	11456
322.385	5475
322.474	4265
322.562	10010
322.651	8003
322.740	4677
322.829	6139
322.917	9412
323.006	5030
323.095	3858
323.183	3239
323.272	5142
323.361	7876
323.449	27835
323.538	13256
323.626	17724
323.715	16947
323.804	5531
323.892	16142
323.981	12422
324.069	4267
324.158	8914
324.246	11926
324.335	3515
324.424	3942
324.512	2585
324.601	1618
324.689	5129
324.778	8135
324.866	6924
324.954	2717
325.043	1928
325.131	3567
325.220	8145
325.308	8760
325.397	6497
325.485	4648
325.574	1495
325.662	1156
325.750	1694
325.839	1278
325.927	1056
326.015	1608
326.104	2829
326.192	5100
326.280	2207
326.369	1332
326.457	2502
326.545	2631
326.634	2158
326.722	532
326.810	1495
326.898	1136
326.987	944
327.075	2841
327.163	3837
327.251	2496
327.340	3799
327.428	4203
327.516	1572
327.604	1537
327.692	1779
327.781	909
327.869	3857
327.957	2698
328.045	1862
328.133	688
328.221	2344
328.309	1671
328.397	1317
328.485	1800
328.574	2663
328.662	4644
328.750	4889
328.838	2002
328.926	2217
329.014	896
329.102	2412
329.190	6666
329.278	4657
329.366	468
329.454	1247
329.542	1916
329.630	919
329.718	1477
329.806	1771
329.893	2903
329.981	5584
330.069	9923
330.157	37887
330.245	85143
330.333	50474
330.421	9582
330.509	4541
330.597	7807
330.684	6094
330.772	2601
330.860	4504
330.948	6071
331.036	3103
331.123	1783
331.211	2146
331.299	1546
331.387	4642
331.475	9879
331.562	3266
331.650	1500
331.738	1580
331.825	2066
331.913	700
332.001	1022
332.089	1461
332.176	4365
332.264	9146
332.352	8851
332.439	2065
332.527	1081
332.614	1571
332.702	2316
332.790	1570
332.877	3529
332.965	9361
333.052	2345
333.140	2336
333.228	3817
333.315	1978
333.403	1581
333.490	4951
333.578	4716
333.665	3984
333.753	2096
333.840	1423
333.928	2242
334.015	5874
334.103	11443
334.190	35201
334.278	12806
334.365	2753
334.452	2247
334.540	1199
334.627	1509
334.715	3514
334.802	4388
334.889	29272
334.977	41025
335.064	5402
335.151	1906
335.239	2520
335.326	3701
335.413	17085
335.501	27172
335.588	3122
335.675	1751
335.762	2842
335.850	5710
335.937	3063
336.024	8050
336.111	35684
336.199	19524
336.286	2823
336.373	1294
336.460	1456
336.547	1288
336.635	1860
336.722	1805
336.809	1662
336.896	2693
336.983	9139
337.070	26498
337.157	39066
337.245	24425
337.332	21598
337.419	3182
337.506	1924
337.593	1906
337.680	8095
337.767	28136
337.854	8863
337.941	8080
338.028	8507
338.115	3533
338.202	3322
338.289	4868
338.376	22981
338.463	9771
338.550	14345
338.637	18933
338.724	4621
338.811	8031
338.898	2069
338.984	1254
339.071	2450
339.158	1536
339.245	3843
339.332	3838
339.419	4064
339.506	4884
339.593	180
339.679	184
339.766	1196
339.853	559
339.940	2278
340.027	1198
340.113	1293
340.200	1101
340.287	727
340.374	953
340.460	1962
340.547	1468
340.634	1821
340.720	6158
340.807	4439
340.894	491
340.980	1256
341.067	711
341.154	1182
341.240	1358
341.327	3107
341.414	763
341.500	1265
341.587	310
341.674	797
341.760	1887
341.847	2641
341.933	410
342.020	-45
342.106	227
342.193	752
342.279	998
342.366	1396
342.452	2207
342.539	1037
342.625	2716
342.712	6990
342.798	2598
342.885	997
342.971	482
343.058	524
343.144	368
343.230	707
343.317	625
343.403	92
343.490	-5
343.576	1249
343.662	50
343.749	756
343.835	1403
343.921	3305
344.008	19620
344.094	51503
344.180	12477
344.267	3450
344.353	10735
344.439	13750
344.525	4778
344.612	5240
344.698	3861
344.784	1704
344.870	834
344.957	1015
345.043	1159
345.129	1382
345.215	1531
345.301	1083
345.387	1346
345.474	759
345.560	150
345.646	1214
345.732	-76
345.818	1684
345.904	630
345.990	719
346.076	1350
346.162	2779
346.249	1458
346.335	928
346.421	724
346.507	4642
346.593	17291
346.679	4903
346.765	1360
346.851	869
346.937	289
347.023	1737
347.108	206
347.194	991
347.280	1068
347.366	1015
347.452	3863
347.538	20537
347.624	16339
347.710	12573
347.796	2410
347.882	1358
347.967	754
348.053	2306
348.139	1295
348.225	225
348.311	167
348.397	491
348.482	927
348.568	320
348.654	272
348.740	637
348.825	406
348.911	2188
348.997	9483
349.083	20883
349.168	3443
349.254	1228
349.340	1322
349.425	732
349.511	46
349.597	1441
349.682	2337
349.768	10690
349.854	6335
349.939	1307
350.025	-9
350.110	1124
350.196	421
350.282	637
350.367	-236
350.453	1592
350.538	1435
350.624	815
350.709	1672
350.795	341
350.880	-84
350.966	570
351.051	1359
351.137	2396
351.222	889
351.308	3230
351.393	8054
351.479	2462
351.564	315
351.649	249
351.735	1010
351.820	53
351.906	769
351.991	1590
352.076	5024
352.162	8477
352.247	1252
352.332	126
352.418	1524
352.503	3084
352.588	11802
352.673	9783
352.759	1527
352.844	787
352.929	874
353.014	873
353.100	1111
353.185	1886
353.270	2562
353.355	1908
353.441	-73
353.526	1226
353.611	1616
353.696	2381
353.781	1494
353.866	557
353.952	485
354.037	1647
354.122	4630
354.207	4413
354.292	1553
354.377	693
354.462	590
354.547	792
354.632	993
354.717	2134
354.802	2881
354.887	1771
354.972	-44
355.057	615
355.142	63
355.227	992
355.312	1515
355.397	2533
355.482	6714
355.567	4355
355.652	2238
355.737	3102
355.822	10114
355.907	11084
355.991	1201
356.076	645
356.161	638
356.246	888
356.331	565
356.416	2520
356.501	20188
356.585	26775
356.670	2781
356.755	2153
356.840	2120
356.924	13135
357.009	51814
357.094	23907
357.179	3046
357.263	2591
357.348	1732
357.433	2661
357.517	1969
357.602	1357
357.687	1117
357.771	3033
357.856	10875
357.941	6476
358.025	11038
358.110	53622
358.195	30048
358.279	3571
358.364	1644
358.448	6681
358.533	20325
358.617	14724
358.702	14917
358.787	5673
358.871	2653
358.956	1556
359.040	-451
359.125	988
359.209	397
359.294	5120
359.378	8150
359.462	2416
359.547	594
359.631	437
359.716	220
359.800	562
359.885	2023
359.969	1020
360.053	602
360.138	510
360.222	1484
360.306	2188
360.391	1880
360.475	5511
360.559	9886
360.644	6389
360.728	4761
360.812	10948
360.896	34672
360.981	14748
361.065	7125
361.149	2472
361.233	1196
361.318	942
361.402	1054
361.486	1538
361.570	52
361.654	621
361.739	2894
361.823	18507
361.907	36366
361.991	7694
362.075	1610
362.159	4121
362.243	3792
362.327	1590
362.411	2742
362.495	1754
362.580	1170
362.664	439
362.748	-29
362.832	1022
362.916	1145
363.000	4613
363.084	18950
363.168	40642
363.252	10360
363.336	3485
363.420	3748
363.503	22722
363.587	34308
363.671	5412
363.755	1813
363.839	3039
363.923	1143
364.007	2876
364.091	2488
364.175	6885
364.258	39597
364.342	24025
364.426	8736
364.510	5282
364.594	4375
364.677	6249
364.761	27672
364.845	24935
364.929	5340
365.013	3590
365.096	3057
365.180	4102
365.264	7806
365.347	41359
365.431	22703
365.515	5267
365.598	725
365.682	1842
365.766	3225
365.849	5788
365.933	1273
366.017	2611
366.100	2897
366.184	374
366.267	777
366.351	114
366.435	188
366.518	524
366.602	234
366.685	107
366.769	347
366.852	2925
366.936	4792
367.019	1567
367.103	2268
367.186	6833
367.270	1743
367.353	158
367.436	842
367.520	438
367.603	512
367.687	1246
367.770	1265
367.853	2211
367.937	8049
368.020	14744
368.104	2808
368.187	2750
368.270	3466
368.353	2514
368.437	3402
368.520	14356
368.603	9561
368.687	8612
368.770	17447
368.853	4495
368.936	3407
369.020	5738
369.103	1166
369.186	499
369.269	109
369.352	2072
369.436	2738
369.519	1927
369.602	551
369.685	1640
369.768	481
369.851	922
369.934	401
370.018	798
370.101	1958
370.184	2589
370.267	2048
370.350	2645
370.433	5243
370.516	15537
370.599	19933
370.682	4253
370.765	7367
370.848	10764
370.931	21927
371.014	11057
371.097	1387
371.180	1635
371.263	575
371.346	-529
371.429	629
371.511	1001
371.594	1582
371.677	4392
371.760	6569
371.843	4584
371.926	18998
372.009	51879
372.091	17660
372.174	8030
372.257	25028
372.340	10686
372.423	6132
372.505	10251
372.588	4528
372.671	5796
372.754	20576
372.836	12453
372.919	10229
373.002	27211
373.085	7072
373.167	3957
373.250	8590
373.332	21641
373.415	27731
373.498	65850
373.580	25660
373.663	26715
373.746	43324
373.828	10017
373.911	3416
373.993	5003
374.076	21729
374.159	26029
374.241	7000
374.324	16274
374.406	12330
374.489	17823
374.571	55431
374.654	24628
374.736	9733
374.819	32314
374.901	44645
374.983	51243
375.066	9521
375.148	3396
375.231	16014
375.313	39915
375.395	14747
375.478	3243
375.560	1218
375.643	2436
375.725	8063
375.807	38214
375.890	34968
375.972	16116
376.054	5801
376.136	13090
376.219	6687
376.301	9236
376.383	33193
376.465	14199
376.548	5116
376.630	7998
376.712	26351
376.794	14491
376.877	1277
376.959	572
377.041	1411
377.123	4693
377.205	6819
377.287	1114
377.369	495
377.452	710
377.534	582
377.616	-53
377.698	896
377.780	644
377.862	21
377.944	357
378.026	115
378.108	510
378.190	783
378.272	1061
378.354	88
378.436	372
378.518	1048
378.600	8872
378.682	7229
378.764	10962
378.846	10144
378.928	3005
379.010	2685
379.091	2430
379.173	668
379.255	316
379.337	988
379.419	4511
379.501	18026
379.583	8067
379.664	1580
379.746	2742
379.828	10407
379.910	15758
379.991	14084
380.073	2779
380.155	746
380.237	850
380.318	721
380.400	1371
380.482	1671
380.564	3215
380.645	2788
380.727	3119
380.809	1651
380.890	1341
380.972	833
381.053	524
381.135	1438
381.217	3310
381.298	10774
381.380	6798
381.461	4073
381.543	22571
381.624	35322
381.706	6881
381.787	2838
381.869	3409
381.951	9678
382.032	47433
382.113	34240
382.195	5264
382.276	3985
382.358	8467
382.439	25705
382.521	28427
382.602	47454
382.684	20910
382.765	28342
382.846	28068
382.928	25241
383.009	16466
383.090	9792
383.172	33471
383.253	61263
383.334	28126
383.416	38032
383.497	21511
383.578	6403
383.659	10118
383.741	29555
383.822	89918
383.903	56551
383.984	21073
384.066	41302
384.147	26668
384.228	5629
384.309	3073
384.390	2181
384.471	1446
384.553	2375
384.634	3185
384.715	3313
384.796	1945
384.877	2520
384.958	9807
385.039	13015
385.120	3701
385.201	1693
385.282	2237
385.363	4023
385.444	2691
385.525	4862
385.606	20460
385.687	20537
385.768	5277
385.849	5610
385.930	21326
386.011	45222
386.092	13148
386.173	2835
386.254	1042
386.335	2292
386.416	1991
386.496	6351
386.577	11827
386.658	5851
386.739	2933
386.820	2310
386.901	2766
386.981	1888
387.062	1551
387.143	2444
387.224	10661
387.304	11747
387.385	4100
387.466	2642
387.547	4200
387.627	2588
387.708	4564
387.789	21553
387.869	31077
387.950	9459
388.031	2229
388.111	740
388.192	6185
388.273	10087
388.353	5160
388.434	1998
388.514	4503
388.595	23895
388.676	33146
388.756	13001
388.837	9686
388.917	6226
388.998	530
389.078	1420
389.159	1671
389.239	1061
389.320	1640
389.400	726
389.480	5477
389.561	15101
389.641	8580
389.722	1215
389.802	2819
389.883	6061
389.963	18467
390.043	12608
390.124	4389
390.204	4107
390.284	12379
390.365	8569
390.445	14159
390.525	37278
390.605	36156
390.686	9146
390.766	3380
390.846	1246
390.927	1112
391.007	943
391.087	1073
391.167	1817
391.247	973
391.328	3039
391.408	5399
391.488	4024
391.568	89
391.648	1335
391.728	2041
391.808	1487
391.888	2249
391.969	6572
392.049	12424
392.129	6976
392.209	6209
392.289	17855
392.369	10186
392.449	10083
392.529	6441
392.609	3074
392.689	4891
392.769	15191
392.849	14276
392.929	9915
393.009	25991
393.089	16740
393.169	6849
393.248	16865
393.328	97767
393.408	143984
393.488	32694
393.568	6866
393.648	3827
393.728	2259
393.807	2298
393.887	2321
393.967	2684
394.047	3563
394.127	4575
394.206	10184
394.286	35087
394.366	151148
394.446	199635
394.525	57210
394.605	13839
394.685	8154
394.764	15577
394.844	26916
394.924	21723
395.003	5122
395.083	3258
395.163	2831
395.242	2668
395.322	2525
395.402	2476
395.481	3753
395.561	9669
395.640	28766
395.720	20918
395.799	31253
395.879	32643
395.958	19412
396.038	54431
396.117	198901
396.197	263042
396.276	91823
396.356	27628
396.435	16871
396.515	9836
396.594	5993
396.673	7722
396.753	21527
396.832	100681
396.912	96280
396.991	21205
397.070	4587
397.150	2698
397.229	2059
397.308	2107
397.388	3576
397.467	2482
397.546	526
397.625	890
397.705	2654
397.784	1669
397.863	1054
397.942	877
398.022	1384
398.101	6986
398.180	29459
398.259	18536
398.338	3265
398.417	1630
398.497	859
398.576	1413
398.655	524
398.734	671
398.813	990
398.892	7465
398.971	29846
399.050	19885
399.129	1800
399.208	910
399.287	595
399.366	821
399.445	-42
399.524	388
399.603	-314
399.682	1586
399.761	5909
399.840	29743
399.919	29744
399.998	4041
400.077	11
400.156	-292
400.235	1923
400.313	1759
400.392	1606
400.471	5343
400.550	8835
400.629	2246
400.708	1279
400.786	2092
400.865	5675
400.944	7555
401.023	3456
401.102	138
401.180	400
401.259	428
401.338	987
401.416	1505
401.495	915
401.574	1768
401.652	534
401.731	1889
401.810	1028
401.888	819
401.967	488
402.046	1293
402.124	1626
402.203	1125
402.281	1142
402.360	1773
402.438	8620
402.517	6648
402.596	1747
402.674	2127
402.753	334
402.831	1436
402.910	691
402.988	5429
403.066	23373
403.145	14838
403.223	7211
403.302	18684
403.380	14367
403.459	14183
403.537	5234
403.615	1556
403.694	-437
403.772	1434
403.850	531
403.929	352
404.007	189
404.085	2946
404.164	2285
404.242	2499
404.320	11006
404.398	34968
404.477	26208
404.555	35488
404.633	40700
404.711	27702
404.789	12807
404.868	2314
404.946	1162
405.024	948
405.102	61
405.180	173
405.258	-596
405.336	1350
405.415	558
405.493	2277
405.571	1819
405.649	360
405.727	-807
405.805	1404
405.883	1425
405.961	1873
406.039	2536
406.117	580
406.195	1055
406.273	4809
406.351	26976
406.429	19923
406.507	4077
406.585	1301
406.663	704
406.740	1044
406.818	-413
406.896	158
406.974	800
407.052	1554
407.130	13803
407.208	23058
407.285	5535
407.363	547
407.441	-6
407.519	122
407.596	973
407.674	1877
407.752	5792
407.830	10006
407.907	4830
407.985	1104
408.063	626
408.141	1125
408.218	1990
408.296	1748
408.373	109
408.451	1386
408.529	444
408.606	-735
408.684	462
408.762	298
408.839	-261
408.917	-703
408.994	523
409.072	-441
409.149	-562
409.227	732
409.304	118
409.382	-192
409.459	54
409.537	1150
409.614	479
409.692	593
409.769	-484
409.846	204
409.924	938
410.001	1081
410.079	536
410.156	1651
410.233	686
410.311	1067
410.388	-140
410.465	63
410.543	178
410.620	904
410.697	-349
410.775	1111
410.852	-1053
410.929	1160
411.006	377
411.083	355
411.161	1654
411.238	1993
411.315	2015
411.392	390
411.469	1030
411.547	1224
411.624	-795
411.701	558
411.778	-270
411.855	1152
411.932	323
412.009	512
412.086	615
412.163	324
412.240	1141
412.317	977
412.394	1134
412.471	1356
412.548	-709
412.625	412
412.702	208
412.779	1575
412.856	1456
412.933	-55
413.010	282
413.087	1131
413.164	3857
413.241	8278
413.318	933
413.395	1899
413.471	836
413.548	874
413.625	831
413.702	513
413.779	1085
413.855	46
413.932	-657
414.009	-207
414.086	134
414.162	516
414.239	408
414.316	4369
414.393	11200
414.469	4255
414.546	380
414.623	234
414.699	-55
414.776	-120
414.853	246
414.929	639
415.006	636
415.082	879
415.159	672
415.236	782
415.312	440
415.389	826
415.465	603
415.542	632
415.618	86
415.695	1073
415.771	-2
415.848	970
415.924	633
416.000	786
416.077	338
416.153	-366
416.230	-711
416.306	797
416.383	-296
416.459	1173
416.535	-878
416.612	-485
416.688	-20
416.764	320
416.841	-943
416.917	249
416.993	499
417.069	9
417.146	1027
417.222	2445
417.298	926
417.374	999
417.451	346
417.527	457
417.603	-412
417.679	237
417.755	112
417.831	-948
417.908	185
417.984	-698
418.060	-294
418.136	965
418.212	81
418.288	1058
418.364	895
418.440	-345
418.516	456
418.592	1910
418.668	2469
418.744	2745
418.820	2274
418.896	727
418.972	-715
419.048	455
419.124	1033
419.200	-22
419.276	-565
419.352	-690
419.428	-461
419.504	149
419.579	-288
419.655	-311
419.731	350
419.807	1473
419.883	2337
419.959	2545
420.034	1224
420.110	2221
420.186	5678
420.262	7108
420.337	504
420.413	170
420.489	76
420.565	835
420.640	-38
420.716	884
420.792	-1478
420.867	774
420.943	-122
421.019	690
421.094	47
421.170	825
421.245	-652
421.321	681
421.397	547
421.472	1390
421.548	2526
421.623	3382
421.699	35
421.774	435
421.850	-99
421.925	1589
422.001	349
422.076	1023
422.152	496
422.227	1018
422.302	2700
422.378	2083
422.453	5405
422.529	15623
422.604	61434
422.679	146839
422.755	85927
422.830	19346
422.905	5674
422.981	2595
423.056	2288
423.131	2035
423.207	969
423.282	884
423.357	1969
423.432	804
423.508	1311
423.583	2661
423.658	1858
423.733	457
423.808	1065
423.883	1398
423.959	559
424.034	-350
424.109	-209
424.184	-14
424.259	-745
424.334	423
424.409	-122
424.484	423
424.559	-147
424.634	59
424.709	702
424.784	778
424.859	-734
424.934	453
425.009	3706
425.084	7738
425.159	2661
425.234	1025
425.309	-546
425.384	2565
425.459	5726
425.534	1749
425.609	212
425.683	284
425.758	-91
425.833	-24
425.908	931
425.983	1331
426.058	6852
426.132	4213
426.207	504
426.282	1896
426.357	2025
426.431	952
426.506	-369
426.581	354
426.655	-70
426.730	305
426.805	-862
426.879	418
426.954	228
427.029	1299
427.103	6481
427.178	22906
427.253	12455
427.327	1589
427.402	2120
427.476	8121
427.551	3513
427.625	331
427.700	618
427.774	-491
427.849	251
427.923	-217
427.998	402
428.072	-201
428.147	975
428.221	4486
428.296	13444
428.370	8685
428.444	968
428.519	1737
428.593	4615
428.667	5698
428.742	5607
428.816	5759
428.890	11178
428.965	19613
429.039	8634
429.113	7665
429.188	3446
429.262	452
429.336	809
429.410	3403
429.485	2704
429.559	5140
429.633	4987
429.707	593
429.781	1910
429.855	13121
429.930	21225
430.004	14229
430.078	28842
430.152	27268
430.226	22700
430.300	24799
430.374	5018
430.448	969
430.522	6436
430.596	28195
430.670	20043
430.744	17278
430.818	32119
430.892	8773
430.966	234
431.040	1134
431.114	-36
431.188	194
431.262	-316
431.336	-540
431.410	1584
431.484	6343
431.557	4880
431.631	632
431.705	-195
431.779	1280
431.853	10873
431.927	9116
432.000	928
432.074	498
432.148	-345
432.222	980
432.295	-340
432.369	-297
432.443	102
432.516	7691
432.590	25432
432.664	13318
432.737	839
432.811	-395
432.885	-642
432.958	73
433.032	-560
433.106	-424
433.179	-826
433.253	-409
433.326	-458
433.400	-371
433.473	-495
433.547	-100
433.620	-34
433.694	-114
433.767	769
433.841	155
433.914	-380
433.988	127
434.061	-374
434.134	-104
434.208	-719
434.281	-769
434.355	-722
434.428	90
434.501	-468
434.575	-455
434.648	-157
434.721	-239
434.795	-717
434.868	-558
434.941	-926
435.014	-764
435.088	-472
435.161	-489
435.234	-417
435.307	324
435.381	21
435.454	-374
435.527	-1118
435.600	-73
435.673	-105
435.746	-153
435.819	-888
435.892	-156
435.966	-1544
436.039	-224
436.112	-17
436.185	-560
436.258	335
436.331	-312
436.404	-488
436.477	-680
436.550	-641
436.623	284
436.696	-1668
436.769	414
436.842	-479
436.915	-425
436.987	-1006
437.060	48
437.133	-136
437.206	-415
437.279	291
437.352	352
437.425	-729
437.498	198
437.570	483
437.643	481
437.716	29
437.789	-489
437.861	-237
437.934	2308
438.007	958
438.080	-236
438.152	-639
438.225	979
438.298	8370
438.370	37556
438.443	21617
438.516	3504
438.588	-436
438.661	50
438.734	47
438.806	132
438.879	1
438.951	497
439.024	1650
439.096	112
439.169	-721
439.241	181
439.314	-521
439.386	517
439.459	914
439.531	856
439.604	333
439.676	-816
439.749	-397
439.821	-892
439.893	-506
439.966	-562
440.038	-192
440.110	91
440.183	-902
440.255	-764
440.327	-259
440.400	3403
440.472	19003
440.544	17169
440.617	2420
440.689	1144
440.761	472
440.833	2784
440.905	1081
440.978	405
441.050	-1081
441.122	-324
441.194	-708
441.266	-61
441.338	-287
441.411	-114
441.483	3506
441.555	8196
441.627	2444
441.699	368
441.771	464
441.843	-929
441.915	-1236
441.987	-668
442.059	-543
442.131	637
442.203	755
442.275	528
442.347	937
442.419	217
442.491	2173
442.563	8694
442.635	6409
442.706	6006
442.778	5795
442.850	695
442.922	-1091
442.994	-53
443.066	607
443.137	852
443.209	-964
443.281	-69
443.353	562
443.425	5294
443.496	16198
443.568	19447
443.640	7244
443.711	1602
443.783	-159
443.855	-140
443.926	-228
443.998	-475
444.070	91
444.141	92
444.213	-124
444.285	406
444.356	329
444.428	829
444.499	343
444.571	411
444.642	-592
444.714	-726
444.785	-849
444.857	1447
444.928	3308
445.000	3531
445.071	1821
445.143	4400
445.214	600
445.285	1761
445.357	7026
445.428	15317
445.500	34696
445.571	26395
445.642	11045
445.714	5107
445.785	9117
445.856	3358
445.928	619
445.999	46
446.070	587
446.141	419
446.213	605
446.284	66
446.355	594
446.426	402
446.497	-732
446.569	535
446.640	1414
446.711	727
446.782	-85
446.853	-241
446.924	-68
446.995	-8
447.066	-353
447.138	1342
447.209	366
447.280	-940
447.351	-1060
447.422	-908
447.493	86
447.564	54
447.635	-571
447.706	89
447.777	-1759
447.847	-324
447.918	-1537
447.989	78
448.060	728
448.131	2476
448.202	2418
448.273	966
448.344	-448
448.414	240
448.485	-947
448.556	-714
448.627	-1664
448.698	-397
448.768	-976
448.839	-18
448.910	40
448.981	1587
449.051	-602
449.122	-121
449.193	-383
449.263	-32
449.334	-379
449.405	452
449.475	1214
449.546	372
449.616	1300
449.687	1834
449.758	346
449.828	-241
449.899	-226
449.969	-645
450.040	-53
450.110	207
450.181	2
450.251	581
450.322	-538
450.392	291
450.463	-535
450.533	-316
450.604	-86
450.674	-368
450.744	224
450.815	-333
450.885	-206
450.955	-1080
451.026	-638
451.096	-698
451.166	-242
451.237	1017
451.307	5780
451.377	3320
451.447	198
451.518	-438
451.588	-560
451.658	-644
451.728	135
451.799	4715
451.869	8941
451.939	2826
452.009	-144
452.079	-445
452.149	-671
452.219	756
452.289	5638
452.360	7348
452.430	1792
452.500	-269
452.570	201
452.640	901
452.710	1842
452.780	7166
452.850	3248
452.920	1903
452.990	453
453.060	583
453.129	42
453.199	1253
453.269	4487
453.339	19617
453.409	34793
453.479	25870
453.549	39843
453.619	47569
453.688	26653
453.758	4787
453.828	1441
453.898	172
453.968	-128
454.037	-20
454.087	-443
454.107	-639
454.168	-13
454.177	50
454.247	-186
454.249	-161
454.316	-138
454.330	-149
454.386	-292
454.411	1007
454.456	2663
454.492	4225
454.525	5470
454.574	3795
454.595	3119
454.655	229
454.665	-232
454.734	747
454.736	826
454.804	2010
454.817	3043
454.873	5734
454.898	7505
454.943	9933
454.979	6340
455.013	3433
455.060	2254
455.082	2092
455.141	2563
455.152	2605
455.221	6323
455.222	6566
455.291	13102
455.303	13117
455.360	12680
455.384	15933
455.430	19319
455.465	17688
455.499	16173
455.546	11644
455.569	9036
455.627	5911
455.638	5523
455.707	1614
455.708	1629
455.777	282
455.789	322
455.846	243
455.869	142
455.916	-39
455.950	496
455.985	911
456.031	646
456.054	520
456.112	708
456.124	735
456.193	306
456.193	282
456.262	689
456.274	896
456.332	1627
456.355	1778
456.401	1715
456.436	1255
456.470	806
456.516	315
456.540	160
456.597	248
456.609	206
456.678	230
456.678	213
456.747	-189
456.759	-67
456.817	538
456.840	437
456.886	220
456.920	246
456.955	237
457.001	321
457.024	390
457.082	1098
457.093	1237
457.162	1681
457.163	1706
457.232	2391
457.243	2318
457.301	1510
457.324	1350
457.370	1256
457.405	1317
457.439	1480
457.485	1231
457.508	1061
457.566	844
457.577	810
457.646	2301
457.647	2316
457.715	1829
457.727	2014
457.784	2987
457.808	3010
457.853	3344
457.889	4287
457.922	4350
457.969	3605
457.991	3559
458.050	3679
458.060	3762
458.129	5023
458.130	5087
458.198	5261
458.211	4962
458.267	2822
458.292	2416
458.336	2722
458.372	2390
458.405	2286
458.453	2722
458.474	3349
458.533	5275
458.543	5540
458.611	8512
458.614	8636
458.680	5750
458.694	4967
458.749	3452
458.775	2740
458.818	2145
458.855	2109
458.887	2171
458.936	2015
458.955	2053
459.016	2180
459.024	2151
459.093	2608
459.097	2602
459.162	2182
459.177	2185
459.230	2446
459.257	2685
459.299	3115
459.338	3521
459.368	3682
459.418	3982
459.437	3766
459.499	3177
459.505	3199
459.574	2854
459.579	2858
459.643	2595
459.659	2562
459.711	2711
459.740	2641
459.780	2583
459.820	2999
459.849	3195
459.900	3299
459.917	3480
459.981	4466
459.986	4414
460.054	3575
460.061	3493
460.123	3752
460.141	3786
460.191	3801
460.222	4212
460.260	4940
460.302	5423
460.328	5072
460.382	4398
460.397	4458
460.462	4425
460.465	4454
460.534	6011
460.543	6149
460.602	15065
460.623	18449
460.671	31031
460.703	40902
460.739	37120
460.783	31800
460.808	25826
460.864	6503
460.876	5659
460.944	3882
460.945	3855
461.013	3731
461.024	3761
461.081	3939
461.104	3894
461.150	3540
461.184	3375
461.218	3626
461.264	3682
461.286	3599
461.345	3748
461.355	3868
461.423	4607
461.425	4630
461.491	4988
461.505	5047
461.559	8164
461.585	9582
461.628	17238
461.665	24175
461.696	27241
461.745	33522
461.764	28109
461.825	8560
461.832	8422
461.901	5772
461.905	5694
461.969	4801
461.985	4619
462.037	4753
462.065	4897
462.105	5554
462.145	6308
462.173	8989
462.225	13475
462.241	15138
462.305	22686
462.310	22059
462.378	12404
462.385	11161
462.446	6632
462.465	5258
462.514	5517
462.545	5894
462.582	5849
462.625	5607
462.650	5488
462.705	5451
462.718	5505
462.785	5941
462.786	5997
462.854	8946
462.865	9420
462.922	12218
462.945	13470
462.990	9992
463.025	6878
463.058	6155
463.104	5412
463.126	5444
463.184	5315
463.194	5343
463.262	5564
463.264	5573
463.330	6180
463.344	6360
463.398	7032
463.424	7147
463.466	6580
463.504	6423
463.533	6671
463.583	6563
463.601	6694
463.663	7486
463.669	7664
463.737	9402
463.743	9561
463.805	14594
463.823	16048
463.873	24700
463.903	30170
463.940	34113
463.982	38460
464.008	30401
464.062	13018
464.076	12178
464.142	6960
464.144	6932
464.211	6242
464.221	6169
464.279	6461
464.301	6642
464.347	7624
464.381	8187
464.414	9337
464.461	10998
464.482	11376
464.540	12358
464.550	11883
464.617	8389
464.620	8251
464.685	8650
464.699	8750
464.753	10760
464.779	11686
464.820	13259
464.859	14890
464.888	14900
464.938	14599
464.956	14791
465.018	15378
465.023	15211
465.091	12659
465.098	12393
465.158	11891
465.177	11665
465.226	12162
465.257	12514
465.293	12398
465.336	12112
465.361	13022
465.416	15138
465.428	15757
465.495	18878
465.496	19014
465.563	35244
465.575	38027
465.631	48873
465.654	53524
465.698	34831
465.734	18909
465.765	16646
465.813	12996
465.833	13191
465.893	14074
465.900	14059
465.968	13715
465.972	13666
466.035	14446
466.052	14635
466.102	14895
466.131	14925
466.170	15637
466.210	16399
466.237	16624
466.290	16941
466.304	17095
466.369	17683
466.372	17750
466.439	18617
466.449	18706
466.506	19652
466.528	19953
466.573	24449
466.607	27769
466.641	39087
466.687	54696
466.708	61170
466.766	78753
466.775	73579
466.842	33546
466.845	31575
466.909	24814
466.925	23126
466.977	22858
467.004	22721
467.044	22759
467.083	22701
467.111	24231
467.163	26958
467.178	27464
467.242	29287
467.245	29142
467.312	24852
467.321	24231
467.379	23716
467.400	23454
467.446	25940
467.480	27647
467.559	23924
467.638	21443
467.717	19565
467.796	20748
467.875	20550
467.955	21691
468.034	26497
468.113	58596
468.192	93876
468.271	31562
468.350	16748
468.429	17359
468.508	16779
468.588	15373
468.667	16441
468.746	19230
468.825	18004
468.904	14962
468.983	16297
469.062	23922
469.141	31713
469.220	16429
469.299	14536
469.378	15799
469.456	17566
469.535	17751
469.614	16025
469.693	17043
469.772	20045
469.851	27887
469.930	21211
470.009	14752
470.088	13338
470.166	14630
470.245	14495
470.324	16108
470.403	14682
470.482	13800
470.560	12629
470.639	13132
470.718	15079
470.797	13841
470.875	13947
470.954	21611
471.033	26250
471.111	13389
471.190	11937
471.269	11766
471.347	11500
471.426	11688
471.505	14322
471.583	15911
471.662	14520
471.740	12744
471.819	13327
471.898	12950
471.976	12315
472.055	12115
472.133	13776
472.212	17510
472.290	19589
472.369	14419
472.447	12013
472.526	11429
472.604	11579
472.683	12663
472.761	12827
472.839	11585
472.918	11936
472.996	11587
473.075	13703
473.153	14640
473.231	10524
473.310	12802
473.388	13574
473.466	11855
473.545	13192
473.623	14807
473.701	14749
473.780	11815
473.858	12020
473.936	14146
474.014	12146
474.093	12836
474.171	17519
474.249	27269
474.327	19748
474.405	10927
474.484	9366
474.562	11053
474.640	12161
474.718	13441
474.796	13736
474.874	13479
474.952	13367
475.030	14128
475.108	14158
475.187	18236
475.265	17914
475.343	19714
475.421	21206
475.499	14544
475.577	13745
475.655	15634
475.733	28011
475.811	53259
475.889	50169
475.966	37538
476.044	12288
476.122	12659
476.200	15135
476.278	14614
476.356	10632
476.434	11592
476.512	12745
476.590	15645
476.667	15346
476.745	10285
476.823	11433
476.901	11242
476.979	12706
477.056	11109
477.134	12534
477.212	12343
477.290	11223
477.367	10553
477.445	10277
477.523	10471
477.601	10659
477.678	10760
477.756	12727
477.834	15229
477.911	10477
477.989	10251
478.066	10127
478.144	12146
478.222	12651
478.299	17024
478.377	16654
478.454	10607
478.532	9686
478.609	9615
478.687	11049
478.764	8513
478.842	9126
478.919	10584
478.997	9360
479.074	8488
479.152	10884
479.229	15477
479.307	11192
479.384	8818
479.461	8868
479.539	9935
479.616	12275
479.694	10423
479.771	11108
479.848	12146
479.926	14826
480.003	17794
480.080	8352
480.157	8325
480.235	8226
480.312	8604
480.389	9940
480.467	16508
480.544	22571
480.621	13938
480.698	10743
480.775	12161
480.853	12436
480.930	11540
481.007	10394
481.084	12031
481.161	13709
481.238	12576
481.315	9565
481.392	9766
481.470	9847
481.547	10222
481.624	9923
481.701	10765
481.778	9402
481.855	11756
481.932	15756
482.009	29965
482.086	23869
482.163	9819
482.240	11587
482.317	18351
482.393	17613
482.470	9871
482.547	9384
482.624	10154
482.701	10259
482.778	9868
482.855	8469
482.932	8725
483.009	8394
483.085	9118
483.162	10669
483.239	11218
483.316	8305
483.393	8187
483.469	8904
483.546	9870
483.623	11703
483.699	9228
483.776	9803
483.853	11070
483.930	15690
484.006	39707
484.083	80870
484.160	40377
484.236	51365
484.313	40806
484.389	30730
484.466	26815
484.543	24983
484.619	25065
484.696	25516
484.772	27072
484.849	30864
484.925	25069
485.002	23689
485.078	25857
485.155	26554
485.231	23794
485.308	23266
485.384	23995
485.461	27103
485.537	44254
485.614	60072
485.690	25385
485.766	22018
485.843	21908
485.919	25314
485.995	26905
486.072	19961
486.148	20271
486.224	20061
486.301	21550
486.377	24239
486.453	24678
486.530	23165
486.606	30352
486.682	35211
486.758	39600
486.835	49917
486.911	35804
486.987	55295
487.063	48998
487.139	43503
487.215	36559
487.292	24731
487.368	23147
487.444	24230
487.520	27207
487.596	25553
487.672	25372
487.748	34081
487.824	47502
487.900	33500
487.976	23596
488.052	23496
488.128	28564
488.204	25421
488.280	22516
488.356	24791
488.432	47186
488.508	85901
488.584	32326
488.660	18811
488.736	19342
488.812	18557
488.888	22929
488.964	25191
489.039	36235
489.115	54257
489.191	41229
489.267	21936
489.343	21131
489.418	18472
489.494	17480
489.570	16534
489.646	18562
489.722	18636
489.797	19023
489.873	25691
489.949	59039
490.024	59837
490.100	18714
490.176	17263
490.251	18700
490.327	21339
490.403	17166
490.478	16123
490.554	14085
490.629	15051
490.705	14125
490.781	16210
490.856	16583
490.932	17987
491.007	15753
491.083	16853
491.158	16869
491.234	20931
491.309	45239
491.385	54526
491.460	20046
491.536	17475
491.611	15370
491.686	14782
491.762	18738
491.837	24226
491.913	42782
491.988	52729
492.063	67938
492.139	34429
492.214	25673
492.289	13299
492.365	12505
492.440	15457
492.515	15643
492.590	16020
492.666	12696
492.741	16500
492.816	28579
492.891	16976
492.967	13901
493.042	11649
493.117	14136
493.192	14850
493.267	22099
493.342	64076
493.418	112452
493.493	26786
493.568	12769
493.643	11911
493.718	14271
493.793	20211
493.868	20989
493.943	14107
494.018	12259
494.093	12058
494.168	12261
494.243	11053
494.318	10872
494.393	10741
494.468	10816
494.543	9522
494.618	12418
494.693	11128
494.768	11787
494.842	12997
494.917	10759
494.992	11054
495.067	11073
495.142	10981
495.217	12458
495.292	11289
495.366	13650
495.441	16094
495.516	19069
495.591	19918
495.665	39725
495.740	99001
495.815	60609
495.890	20742
495.964	16879
496.039	18268
496.114	18366
496.188	18878
496.263	19060
496.338	17772
496.412	20524
496.487	24637
496.561	21694
496.636	23747
496.710	22731
496.785	22554
496.860	28219
496.934	24530
497.009	23458
497.083	25028
497.158	27279
497.232	29280
497.307	36136
497.381	33804
497.455	37600
497.530	49413
497.604	43513
497.679	43681
497.753	57251
497.827	75867
497.902	75363
497.976	81602
498.050	115271
498.125	345525
498.199	459065
498.273	106419
498.348	81121
498.422	73790
498.496	70355
498.570	63993
498.645	56877
498.719	53799
498.793	54740
498.867	63362
498.941	77063
499.016	134105
499.090	419401
499.164	200965
499.238	37518
499.312	30735
499.386	30931
499.460	29390
499.534	26673
499.609	29539
499.683	42317
499.757	42420
499.831	61552
499.905	244000
499.979	308043
500.053	51297
500.127	42993
500.201	26472
500.275	21010
500.349	20684
500.422	21892
500.496	27513
500.570	43171
500.644	114299
500.718	305464
500.792	86344
500.866	21476
500.940	25432
501.013	23307
501.087	20064
501.161	27643
501.235	38620
501.309	77982
501.382	233997
501.456	268830
501.530	50373
501.603	91420
501.677	43821
501.751	16564
501.825	18655
501.898	30300
501.972	100179
502.046	83015
502.119	21351
502.193	36684
502.266	111577
502.340	67846
502.413	42585
502.487	102138
502.561	64264
502.634	22370
502.708	13286
502.781	12286
502.855	11181
502.928	10751
503.002	10096
503.075	10163
503.149	12215
503.222	11490
503.295	13491
503.369	17460
503.442	22795
503.516	58756
503.589	188935
503.662	150237
503.736	40011
503.809	82132
503.882	80974
503.956	94840
504.029	108347
504.102	29530
504.175	25846
504.249	15916
504.322	16122
504.395	16241
504.468	10923
504.542	12442
504.615	9912
504.688	9483
504.761	7732
504.834	10911
504.907	10778
504.980	15252
505.053	11117
505.127	11856
505.200	14981
505.273	17579
505.346	12013
505.419	9356
505.492	8729
505.565	8288
505.638	7335
505.711	8329
505.784	7646
505.857	7652
505.930	8692
506.003	8812
506.076	9649
506.149	12871
506.221	17461
506.294	15995
506.367	30922
506.440	131180
506.513	92129
506.586	18883
506.659	10796
506.731	8433
506.804	9189
506.877	11725
506.950	10855
507.022	8056
507.095	10524
507.168	15478
507.241	8739
507.313	6471
507.386	7356
507.459	9108
507.531	7489
507.604	7345
507.677	7273
507.749	6764
507.822	8831
507.894	15131
507.967	21883
508.040	14252
508.112	12528
508.185	12164
508.257	11246
508.330	12961
508.402	10996
508.475	11982
508.547	12736
508.620	12612
508.692	19007
508.765	13468
508.837	8857
508.909	9076
508.982	8866
509.054	9694
509.127	8698
509.199	9024
509.271	8505
509.344	8402
509.416	9146
509.488	9487
509.560	9227
509.633	9190
509.705	9469
509.777	11032
509.849	11704
509.922	11130
509.994	10726
510.066	11053
510.138	10965
510.210	19517
510.283	20099
510.355	16477
510.427	13791
510.499	13614
510.571	12820
510.643	12630
510.715	14548
510.787	14581
510.859	11795
510.931	14681
511.003	15176
511.076	15815
511.148	11795
511.219	12463
511.291	18322
511.363	26334
511.435	12860
511.507	11414
511.579	10806
511.651	11910
511.723	11027
511.795	10016
511.867	10904
511.939	12675
512.010	24644
512.082	23536
512.154	11415
512.226	11616
512.298	14742
512.369	21912
512.441	17593
512.513	15234
512.585	13321
512.656	12879
512.728	13990
512.800	12450
512.871	10905
512.943	11550
513.015	10747
513.086	11055
513.158	11370
513.230	12127
513.301	13787
513.373	14087
513.444	11168
513.516	10169
513.588	10190
513.659	10867
513.731	11020
513.802	10645
513.874	14680
513.945	24740
514.016	14551
514.088	10363
514.159	10995
514.231	13321
514.302	19266
514.374	16700
514.445	15958
514.516	29059
514.588	28537
514.659	16317
514.730	29810
514.802	25003
514.873	21938
514.944	27876
515.016	23063
515.087	21617
515.158	23703
515.229	37058
515.301	28339
515.372	41902
515.443	35743
515.514	25389
515.585	18226
515.656	15212
515.728	13247
515.799	12765
515.870	12303
515.941	11560
516.012	11855
516.083	14574
516.154	15425
516.225	14802
516.296	14381
516.367	13993
516.438	13945
516.509	16281
516.580	19876
516.651	36798
516.722	125493
516.793	91796
516.864	23846
516.935	23768
517.006	24311
517.077	29759
517.148	50214
517.219	115192
517.289	264940
517.360	162382
517.431	75689
517.502	18104
517.573	15300
517.643	15960
517.714	16855
517.785	17408
517.856	15291
517.926	18869
517.997	18407
518.068	21299
518.138	26083
518.209	34090
518.280	77514
518.350	320439
518.421	203072
518.492	31158
518.562	18749
518.633	19222
518.703	16110
518.774	19356
518.845	26173
518.915	30263
518.986	20201
519.056	20517
519.127	28204
519.197	42000
519.268	123443
519.338	121571
519.408	23883
519.479	19741
519.549	16095
519.620	13459
519.690	11296
519.760	11988
519.831	11665
519.901	11609
519.971	10192
520.042	12297
520.112	13970
520.182	13723
520.253	14646
520.323	12958
520.393	15793
520.463	27236
520.534	16317
520.604	37121
520.674	21837
520.744	17850
520.814	36036
520.885	39164
520.955	39599
521.025	161475
521.095	96862
521.165	16095
521.235	13503
521.305	11982
521.375	11060
521.445	11004
521.515	12028
521.585	12793
521.655	12091
521.725	11544
521.795	13075
521.865	10139
521.935	16366
522.005	17429
522.075	10303
522.145	10603
522.215	11835
522.285	17482
522.355	20355
522.424	39900
522.494	42633
522.564	19316
522.634	17560
522.704	47597
522.774	28504
522.843	10881
522.913	9845
522.983	11196
523.053	9184
523.122	9592
523.192	11169
523.262	21651
523.331	29534
523.401	11863
523.471	8128
523.540	9001
523.610	7432
523.680	9454
523.749	8580
523.819	10744
523.888	12816
523.958	7672
524.027	8555
524.097	10032
524.166	8304
524.236	8613
524.305	9222
524.375	8272
524.444	7014
524.514	9953
524.583	8763
524.653	12562
524.722	12779
524.791	9846
524.861	7992
524.930	7659
524.999	7831
525.069	9876
525.138	10091
525.207	13193
525.277	9995
525.346	9285
525.415	7918
525.484	8311
525.554	10361
525.623	9901
525.692	8136
525.761	9271
525.830	7880
525.900	8519
525.969	11783
526.038	14214
526.107	16201
526.176	38509
526.245	40926
526.314	20730
526.383	27366
526.452	36391
526.522	46449
526.591	71911
526.660	32702
526.729	19781
526.797	19921
526.867	31127
526.935	121867
527.004	166841
527.073	100310
527.142	17100
527.211	10425
527.280	8795
527.349	9349
527.418	7046
527.487	7144
527.555	6779
527.624	5932
527.693	7205
527.762	6872
527.831	6756
527.899	6067
527.968	7294
528.037	6275
528.106	8182
528.174	11307
528.243	12657
528.312	13166
528.380	19268
528.449	9570
528.518	7671
528.586	5597
528.655	6694
528.723	6830
528.792	5880
528.861	6365
528.929	6558
528.998	6683
529.066	6667
529.135	5318
529.203	5674
529.272	4345
529.340	6745
529.409	7000
529.477	6723
529.545	8417
529.614	12010
529.682	10591
529.751	13047
529.819	12018
529.887	10982
529.956	6207
530.024	6594
530.092	5215
530.161	6509
530.229	8353
530.297	6614
530.365	6183
530.434	5449
530.502	5231
530.570	5867
530.638	4406
530.707	6876
530.775	7734
530.843	5594
530.911	6370
530.979	6101
531.047	5952
531.115	7021
531.183	5476
531.252	6331
531.320	6498
531.388	6428
531.456	6028
531.524	5009
531.592	6303
531.660	6971
531.728	5953
531.796	6180
531.864	5310
531.932	7193
532.000	5189
532.067	7317
532.135	7441
532.203	7596
532.271	8249
532.339	10277
532.407	20556
532.475	18258
532.542	10298
532.610	10846
532.678	12031
532.746	29632
532.814	99247
532.881	35529
532.949	8767
533.017	7760
533.084	6941
533.152	6396
533.220	6996
533.287	7688
533.355	6279
533.423	7045
533.490	6085
533.558	7138
533.625	7156
533.693	7800
533.761	7792
533.828	8819
533.896	7356
533.963	11190
534.031	14783
534.098	17835
534.166	12569
534.233	8715
534.300	8473
534.368	9683
534.435	8399
534.503	8852
534.570	8772
534.637	8812
534.705	7564
534.772	8898
534.840	9373
534.907	19070
534.974	30277
535.041	11098
535.109	9903
535.176	7810
535.243	6296
535.310	6484
535.378	6172
535.445	7507
535.512	6288
535.579	7234
535.646	6545
535.714	6965
535.781	9538
535.848	9315
535.915	10040
535.982	11034
536.049	9045
536.116	9408
536.183	9664
536.250	8171
536.317	8273
536.384	9537
536.451	9699
536.518	10388
536.585	7389
536.652	10818
536.719	10252
536.786	9872
536.853	9270
536.920	11534
536.987	16088
537.053	14001
537.120	39198
537.187	51768
537.254	8942
537.321	6655
537.388	8069
537.454	6161
537.521	6542
537.588	6667
537.654	8100
537.721	9305
537.788	8221
537.855	7006
537.921	7048
537.988	7178
538.055	7614
538.121	6570
538.188	6720
538.254	9270
538.321	11998
538.388	11209
538.454	6884
538.521	7070
538.587	6980
538.654	6735
538.720	6289
538.787	6180
538.853	6409
538.920	9362
538.986	8499
539.053	8857
539.119	7775
539.185	7756
539.252	8568
539.318	9849
539.385	10011
539.451	9738
539.517	10104
539.583	10771
539.650	13842
539.716	39503
539.782	17234
539.849	7900
539.915	7666
539.981	7327
540.047	8061
540.114	8048
540.180	7917
540.246	7781
540.312	8264
540.378	12598
540.444	15387
540.510	14227
540.576	38485
540.643	20284
540.709	7333
540.775	7421
540.841	7677
540.907	10567
540.973	17215
541.039	12917
541.105	10484
541.171	8828
541.237	7581
541.303	8357
541.369	9089
541.435	9180
541.500	11425
541.566	8963
541.632	6810
541.698	6759
541.764	6762
541.830	7054
541.896	6762
541.961	6986
542.027	7323
542.093	7602
542.159	7350
542.224	8151
542.290	11143
542.356	12721
542.421	13464
542.487	10531
542.553	8593
542.618	9612
542.684	9648
542.750	8600
542.815	9487
542.881	12904
542.947	31196
543.012	34035
543.078	7870
543.143	6931
543.209	8179
543.274	7807
543.340	9113
543.405	13585
543.471	23551
543.536	10381
543.602	7676
543.667	7153
543.732	8051
543.798	7372
543.863	8719
543.928	6773
543.994	6800
544.059	7495
544.124	7355
544.190	6394
544.255	8187
544.320	7513
544.386	7348
544.451	8439
544.516	9736
544.581	10146
544.646	19096
544.712	38688
544.777	13610
544.842	10517
544.907	12166
544.972	9925
545.037	8829
545.102	10911
545.168	9716
545.233	10465
545.298	11542
545.363	12519
545.428	12226
545.493	14855
545.558	27692
545.623	19523
545.688	10434
545.753	9859
545.818	10518
545.883	9489
545.947	9971
546.012	10335
546.077	11999
546.142	10549
546.207	9192
546.272	10828
546.337	10886
546.401	10854
546.466	10590
546.531	9654
546.596	11715
546.661	10291
546.725	10523
546.790	9288
546.855	9881
546.919	9186
546.984	9793
547.049	9862
547.113	12121
547.178	10576
547.243	12039
547.307	12608
547.372	12550
547.436	15930
547.501	12496
547.565	11547
547.630	12049
547.695	13290
547.759	14229
547.823	14585
547.888	11244
547.952	10821
548.017	12667
548.081	13140
548.146	17187
548.210	17700
548.274	11278
548.339	10812
548.403	10667
548.468	10838
548.532	9539
548.596	10274
548.660	10901
548.725	12400
548.789	12736
548.853	16114
548.917	11924
548.982	15918
549.046	19627
549.110	11279
549.174	10564
549.238	10585
549.303	9246
549.367	11599
549.431	10142
549.495	10411
549.559	9870
549.623	11016
549.687	11742
549.751	15092
549.815	13159
549.879	13437
549.943	11541
550.007	12934
550.071	12221
550.135	14758
550.199	12822
550.263	12486
550.327	13742
550.391	18405
550.455	15219
550.519	12508
550.582	12874
550.646	14107
550.710	15733
550.774	14564
550.838	13057
550.901	13142
550.965	14017
551.029	15559
551.093	17225
551.156	20891
551.220	35827
551.284	48522
551.347	24497
551.411	39974
551.475	63012
551.538	20756
551.602	13834
551.666	13270
551.729	11540
551.793	12510
551.856	12655
551.920	12647
551.983	12667
552.047	11987
552.110	11693
552.174	11183
552.237	11636
552.301	11858
552.364	10659
552.428	11507
552.491	11311
552.554	11865
552.618	12210
552.681	13148
552.745	12064
552.808	15202
552.871	16474
552.934	15036
552.998	12888
553.061	13273
553.124	13388
553.187	13949
553.251	15305
553.314	17128
553.377	18359
553.440	25035
553.503	59464
553.567	147017
553.630	41509
553.693	14098
553.756	12548
553.819	11556
553.882	10973
553.945	11653
554.008	10367
554.071	10398
554.134	10071
554.197	11219
554.260	9518
554.323	11107
554.386	9990
554.449	10266
554.512	10966
554.575	9896
554.638	9814
554.701	10075
554.764	9542
554.827	10155
554.889	9578
554.952	9619
555.015	8742
555.078	9655
555.141	10995
555.203	9798
555.266	10047
555.329	9466
555.391	10387
555.454	9052
555.517	9986
555.580	9367
555.642	8382
555.705	9057
555.768	9569
555.830	9381
555.893	8937
555.955	9055
556.018	8864
556.080	9090
556.143	9066
556.206	8884
556.268	9487
556.330	9854
556.393	9297
556.455	10216
556.518	13124
556.580	15901
556.643	9364
556.705	8746
556.767	7911
556.830	9956
556.892	9074
556.955	9587
557.017	10062
557.079	8550
557.142	7782
557.204	7996
557.266	12444
557.328	13591
557.391	8389
557.453	7976
557.515	8515
557.577	8393
557.639	9149
557.701	8083
557.764	6677
557.826	8578
557.888	9334
557.950	8383
558.012	9120
558.074	9455
558.136	13352
558.198	28439
558.260	19514
558.322	9649
558.384	9492
558.446	11599
558.508	11187
558.570	14081
558.632	17206
558.694	25384
558.756	25217
558.818	46523
558.880	148740
558.942	77023
559.003	30533
559.065	24237
559.127	11078
559.189	11688
559.251	13149
559.312	14815
559.374	23884
559.436	76746
559.498	67157
559.559	14692
559.621	12501
559.683	13226
559.744	17079
559.806	37104
559.868	70626
559.929	26024
559.991	13959
560.052	14828
560.114	26264
560.176	27234
560.237	17090
560.299	29595
560.360	15222
560.422	10332
560.483	9743
560.545	9410
560.606	9266
560.667	8902
560.729	8614
560.790	9290
560.852	8666
560.913	9509
560.974	8963
561.036	8718
561.097	8641
561.158	9260
561.220	9608
561.281	8760
561.342	9193
561.403	10651
561.465	10234
561.526	14890
561.587	22130
561.648	12020
561.709	9296
561.771	9415
561.832	9158
561.893	8607
561.954	10068
562.015	8752
562.076	8978
562.137	8713
562.198	8746
562.259	8892
562.320	8755
562.381	9869
562.442	10860
562.503	11088
562.564	8502
562.625	8782
562.686	8715
562.747	9456
562.808	9776
562.869	9342
562.930	10985
562.991	11397
563.051	10962
563.112	10286
563.173	9290
563.234	9476
563.294	9475
563.355	9431
563.416	9645
563.477	9318
563.537	9112
563.598	11621
563.659	9476
563.720	9928
563.780	10500
563.841	9850
563.901	9693
563.962	10417
564.023	9425
564.083	10191
564.144	9456
564.204	10080
564.265	10501
564.325	11838
564.386	19114
564.446	22644
564.507	11179
564.567	10457
564.628	10155
564.688	10394
564.749	10295
564.809	11370
564.869	13349
564.930	12151
564.990	9806
565.050	10237
565.111	11729
565.171	10361
565.231	10859
565.292	11852
565.352	9955
565.412	11161
565.472	11113
565.532	11644
565.593	12186
565.653	10935
565.713	12774
565.773	12768
565.833	12445
565.893	15760
565.953	13189
566.013	13252
566.074	14992
566.134	17678
566.194	22493
566.254	26407
566.314	20668
566.374	18309
566.434	18080
566.494	18642
566.554	18902
566.614	20590
566.673	20550
566.733	23699
566.793	24481
566.853	26468
566.913	25805
566.973	27903
567.033	27572
567.092	27733
567.152	26662
567.212	27467
567.272	28103
567.331	30506
567.391	30368
567.451	31800
567.511	34945
567.570	37712
567.630	29928
567.690	27481
567.749	28885
567.809	31381
567.868	34197
567.928	39245
567.988	46794
568.047	56238
568.107	65903
568.166	86463
568.226	118684
568.285	167033
568.345	176512
568.404	154703
568.464	136655
568.523	129308
568.582	128010
568.642	136201
568.701	157861
568.761	198546
568.820	275677
568.879	317371
568.939	280300
568.998	228017
569.057	181869
569.116	149178
569.176	120930
569.235	101355
569.294	86249
569.353	74128
569.413	64470
569.472	56492
569.531	50442
569.590	45139
569.649	41619
569.708	36662
569.767	33974
569.827	31563
569.886	29133
569.945	26131
570.004	24889
570.063	23095
570.122	21598
570.181	21419
570.240	21114
570.299	21327
570.358	19990
570.417	17911
570.475	16331
570.534	16391
570.593	16067
570.652	15069
570.711	15389
570.770	14012
570.829	14786
570.887	13570
570.946	13789
571.005	12345
571.064	12581
571.122	12279
571.181	12725
571.240	13290
571.299	10984
571.357	11459
571.416	12227
571.475	12643
571.533	14303
571.592	11390
571.650	11529
571.709	10338
571.768	9872
571.826	10174
571.885	9474
571.943	10419
572.002	9222
572.060	10670
572.119	9325
572.177	9170
572.236	8987
572.294	8948
572.352	8451
572.411	8579
572.469	8284
572.528	8698
572.586	9401
572.644	8897
572.703	10495
572.761	10002
572.819	8616
572.877	8280
572.936	8420
572.994	8266
573.052	7712
573.110	8194
573.169	8598
573.227	7812
573.285	7466
573.343	7575
573.401	8420
573.459	8527
573.517	7167
573.576	8480
573.634	7743
573.692	8741
573.750	8280
573.808	7490
573.866	8856
573.924	9820
573.982	11011
574.040	8146
574.098	7659
574.155	7870
574.213	7612
574.271	7189
574.329	7132
574.387	7031
574.445	6806
574.503	6987
574.560	6476
574.618	6770
574.676	6174
574.734	6888
574.792	7470
574.849	6837
574.907	6524
574.965	7319
575.022	5884
575.080	6620
575.138	6919
575.195	7267
575.253	6825
575.311	7253
575.368	7053
575.426	7558
575.483	7110
575.541	6765
575.598	6420
575.656	7326
575.713	7193
575.771	7460
575.828	6681
575.886	6401
575.943	7213
576.001	7887
576.058	7856
576.115	8514
576.173	8210
576.230	9066
576.287	9197
576.345	8879
576.402	8770
576.459	7914
576.517	8081
576.574	9615
576.631	8568
576.688	8962
576.746	7593
576.803	8091
576.860	7114
576.917	7795
576.974	8202
577.031	7791
577.089	7103
577.146	7941
577.203	7735
577.260	9069
577.317	7919
577.374	8852
577.431	8669
577.488	8453
577.545	7297
577.602	8388
577.659	8492
577.716	8228
577.773	9170
577.830	9170
577.886	8710
577.943	8734
578.000	8618
578.057	9330
578.114	9060
578.171	9915
578.227	10965
578.284	12674
578.341	11364
578.398	10514
578.454	10190
578.511	10857
578.568	10850
578.625	9768
578.681	8654
578.738	7771
578.794	7779
578.851	7906
578.908	7799
578.964	8662
579.021	8736
579.077	7291
579.134	8340
579.190	9207
579.247	8300
579.303	8649
579.360	7762
579.416	8250
579.473	7997
579.529	7609
579.586	8507
579.642	8848
579.698	7104
579.755	10142
579.811	9598
579.867	9557
579.924	9175
579.980	8516
580.036	11403
580.093	11737
580.149	14082
580.205	17380
580.261	15238
580.317	13757
580.374	12570
580.430	12784
580.486	11595
580.542	10442
580.598	10265
580.619	10385
580.654	10608
580.692	10346
580.710	10243
580.765	9688
580.767	9685
580.823	9532
580.838	9724
580.879	10268
580.911	9891
580.935	9653
580.984	9819
580.991	9851
581.047	10697
581.057	10630
581.103	10436
581.130	10369
581.159	10325
581.203	11240
581.215	11503
581.270	11683
581.276	11667
581.326	11599
581.349	11234
581.382	10725
581.422	10396
581.438	10294
581.494	10201
581.494	10186
581.550	9560
581.567	9711
581.606	10078
581.640	10381
581.661	10622
581.713	10888
581.717	10914
581.773	9987
581.786	9935
581.829	9857
581.859	10184
581.885	10440
581.932	10557
581.940	10597
581.996	10600
582.004	10503
582.052	9954
582.077	10104
582.107	10263
582.150	10543
582.163	10687
582.219	10258
582.223	10253
582.274	10063
582.296	10221
582.330	10570
582.368	10568
582.386	10584
582.441	10788
582.441	10794
582.497	9796
582.514	10071
582.552	10710
582.587	11268
582.608	11583
582.659	11908
582.663	11940
582.719	11622
582.732	11406
582.774	10798
582.805	10767
582.830	10773
582.877	11666
582.885	11786
582.941	11522
582.950	11467
582.996	11352
583.023	11375
583.052	11441
583.095	12659
583.107	12964
583.162	13335
583.168	13486
583.218	14937
583.240	14375
583.273	13524
583.313	13373
583.328	13322
583.384	12781
583.385	12760
583.439	12125
583.458	12134
583.494	12196
583.531	12450
583.549	12591
583.603	12012
583.605	11988
583.660	12701
583.676	12523
583.715	12000
583.748	12409
583.770	12820
583.820	12549
583.825	12498
583.881	12726
583.893	12603
583.936	12258
583.965	12425
583.991	12493
584.038	12309
584.046	12292
584.101	12947
584.110	12887
584.156	12293
584.183	12599
584.211	13084
584.255	13080
584.266	13062
584.321	12557
584.328	12594
584.376	12794
584.400	13276
584.431	13930
584.472	13843
584.486	13736
584.541	13369
584.545	13383
584.596	13467
584.617	13406
584.651	13447
584.689	14214
584.706	14483
584.761	14648
584.762	14662
584.816	14779
584.834	14770
584.871	14476
584.906	14522
584.926	14626
584.978	15563
584.980	15575
585.035	15236
585.051	15404
585.090	15819
585.123	16025
585.145	16238
585.195	16349
585.200	16324
585.254	16645
585.267	16952
585.309	17739
585.340	18432
585.364	19097
585.412	19324
585.419	19277
585.473	18800
585.484	18973
585.528	19494
585.556	19875
585.583	20379
585.628	22212
585.637	22642
585.692	27045
585.700	28633
585.747	36967
585.772	35911
585.801	33313
585.845	25522
585.856	23698
585.910	21527
585.917	21443
585.965	20704
585.989	20502
586.019	20280
586.061	21055
586.074	21307
586.128	21920
586.133	22034
586.183	22272
586.205	22367
586.237	22706
586.277	23146
586.292	23263
586.346	24895
586.349	24980
586.401	25111
586.421	25433
586.455	26003
586.493	26938
586.509	27259
586.564	29531
586.565	29715
586.618	35118
586.637	35958
586.672	36591
586.709	33157
586.727	30993
586.781	29667
586.781	29584
586.835	30151
586.853	30291
586.889	30818
586.925	31764
586.944	32018
586.996	32935
586.998	32861
587.052	34690
587.068	35143
587.106	35940
587.140	36726
587.161	36911
587.212	38624
587.215	38579
587.269	40167
587.284	40638
587.323	41868
587.356	43312
587.377	43967
587.427	46837
587.431	46864
587.485	48855
587.499	49623
587.539	50992
587.571	52837
587.593	53928
587.643	57463
587.648	57575
587.702	60783
587.715	61980
587.755	64798
587.786	67943
587.810	69788
587.858	74693
587.864	74972
587.917	80826
587.930	82867
587.971	88220
588.001	93332
588.025	96795
588.073	104427
588.079	104892
588.133	115544
588.145	118696
588.187	127877
588.217	135636
588.241	141077
588.288	155588
588.295	156977
588.348	178659
588.360	184429
588.402	202068
588.431	217821
588.456	229724
588.503	258504
588.510	261402
588.564	300434
588.575	311073
588.617	347737
588.646	378497
588.671	403810
588.718	461010
588.725	469259
588.778	549612
588.789	566099
588.832	644027
588.861	682241
588.886	723546
588.932	765594
588.939	760301
588.993	720283
589.004	736145
589.047	746405
589.075	764512
589.100	740261
589.147	640852
589.154	629445
589.207	534679
589.218	517774
589.261	474248
589.290	455645
589.314	448296
589.361	455166
589.368	457083
589.421	508321
589.433	521683
589.475	600586
589.504	642579
589.528	679440
589.576	713344
589.582	700378
589.635	671789
589.647	672909
589.689	599675
589.718	515558
589.742	465621
589.790	356935
589.795	346435
589.849	274839
589.861	261895
589.902	224618
589.932	203119
589.955	185739
590.004	157091
590.009	153387
590.062	133122
590.075	129528
590.115	115326
590.146	107930
590.168	101704
590.218	91512
590.222	89850
590.275	80552
590.289	79198
590.328	72759
590.360	68600
590.381	65493
590.431	61190
590.435	60254
590.488	54920
590.503	53938
590.541	49865
590.574	47793
590.594	46290
590.645	43620
590.647	43025
590.700	39684
590.716	39038
590.753	36873
590.787	35783
590.806	34570
590.859	32681
590.859	32295
590.912	30004
590.930	29743
590.965	28636
591.001	28084
591.018	27134
591.071	25184
591.072	25456
591.124	23719
591.143	23609
591.177	22476
591.214	21847
591.230	21580
591.283	21631
591.285	21877
591.336	20179
591.356	19887
591.389	19299
591.427	19097
591.442	18738
591.495	18303
591.498	18485
591.547	16317
591.569	15774
591.600	15793
591.640	16165
591.653	15744
591.706	14897
591.711	15018
591.759	14330
591.782	14260
591.811	14060
591.853	14328
591.864	14059
591.917	13474
591.924	13587
591.969	12759
591.995	12571
592.022	11927
592.066	11338
592.075	11229
592.127	11623
592.137	11885
592.180	11870
592.208	12107
592.233	11342
592.279	10312
592.285	10149
592.338	10182
592.350	10362
592.390	9334
592.421	8809
592.443	8564
592.491	8536
592.495	8372
592.548	8199
592.562	8298
592.600	8303
592.633	8598
592.653	8287
592.704	7819
592.705	7859
592.775	7860
592.846	7913
592.916	7475
592.987	7661
593.058	7719
593.128	6573
593.199	7306
593.270	7096
593.341	7122
593.411	6674
593.482	6521
593.553	7332
593.623	5965
593.694	6515
593.764	5876
593.835	6193
593.906	5929
593.976	6115
594.047	5358
594.117	5203
594.188	6712
594.258	5946
594.329	5907
594.399	5016
594.470	5344
594.540	5044
594.611	5186
594.681	5041
594.751	5659
594.822	4684
594.892	5887
594.963	4663
595.033	5439
595.103	5249
595.174	5613
595.244	5807
595.314	8202
595.384	5887
595.455	4556
595.525	5220
595.595	4839
595.665	4915
595.736	4425
595.806	4697
595.876	4824
595.946	4793
596.016	4778
596.087	4710
596.157	4742
596.227	4316
596.297	4537
596.367	4861
596.437	5372
596.507	5829
596.577	6881
596.647	5313
596.717	4326
596.787	4083
596.857	3925
596.927	3503
596.997	4381
597.067	4147
597.137	4832
597.207	5276
597.277	4791
597.347	4481
597.417	4087
597.487	4493
597.557	4463
597.626	3775
597.696	4817
597.766	5223
597.836	6091
597.906	5246
597.975	4228
598.045	3765
598.115	3006
598.185	3884
598.254	4553
598.324	4537
598.394	4374
598.464	4166
598.533	3966
598.603	3315
598.672	3845
598.742	4112
598.812	3914
598.881	3648
598.951	4013
599.020	2865
599.090	3938
599.159	4405
599.229	4504
599.299	4305
599.368	3616
599.437	3694
599.507	4081
599.576	3509
599.646	3874
599.715	4405
599.785	3722
599.854	4350
599.924	4104
599.993	3498
600.062	3705
600.132	3020
600.201	3455
600.270	4387
600.340	4161
600.409	3602
600.478	4315
600.547	3992
600.617	3056
600.686	4031
600.755	3987
600.824	3210
600.894	3693
600.963	3431
601.032	3094
601.101	3138
601.170	3204
601.239	3267
601.308	3829
601.378	3247
601.447	3779
601.516	2909
601.585	3213
601.654	3699
601.723	3235
601.792	3997
601.861	2961
601.930	3404
601.999	3740
602.068	3636
602.137	3484
602.206	4075
602.275	3347
602.343	4293
602.412	3710
602.481	3035
602.550	2392
602.619	3300
602.688	3561
602.756	3310
602.825	3759
602.894	2862
602.963	2988
603.032	2623
603.100	2930
603.169	3505
603.238	2606
603.307	3959
603.375	3036
603.444	2874
603.513	3797
603.581	2420
603.650	3124
603.719	2782
603.787	2869
603.856	2792
603.924	2639
603.993	3101
604.061	3697
604.130	3721
604.198	2958
604.267	3915
604.335	3177
604.404	2308
604.472	2768
604.541	2051
604.609	3316
604.678	2326
604.746	2835
604.815	2748
604.883	3727
604.951	2875
605.020	3278
605.088	3089
605.156	2944
605.225	2642
605.293	3663
605.361	2939
605.429	3257
605.498	3315
605.566	2777
605.634	3395
605.702	3611
605.771	2729
605.839	3524
605.907	3741
605.975	3465
606.043	3585
606.111	3986
606.180	3489
606.248	2920
606.316	4409
606.384	3287
606.452	3747
606.520	3338
606.588	3185
606.656	3107
606.724	3037
606.792	3270
606.860	2794
606.928	2443
606.996	2523
607.064	2078
607.132	2237
607.200	2416
607.267	2615
607.335	2193
607.403	2701
607.471	2924
607.539	2284
607.607	3193
607.674	2233
607.742	2215
607.810	2940
607.878	2774
607.946	2900
608.013	2839
608.081	2513
608.149	2852
608.216	2808
608.284	3399
608.352	2412
608.419	2720
608.487	3604
608.555	4042
608.622	2219
608.690	2567
608.757	2826
608.825	3194
608.893	2452
608.960	2721
609.028	2798
609.095	3800
609.163	3298
609.230	3093
609.298	2128
609.365	2293
609.432	2190
609.500	2193
609.567	2294
609.635	2606
609.702	2528
609.769	3932
609.837	3393
609.904	2312
609.971	2352
610.039	3176
610.106	3462
610.173	5983
610.241	12301
610.308	16957
610.375	11350
610.442	4571
610.509	2299
610.577	3210
610.644	2172
610.711	2943
610.778	2825
610.845	2557
610.912	2588
610.980	3185
611.047	3746
611.114	3556
611.181	2582
611.248	2424
611.315	2528
611.382	3230
611.449	2549
611.516	2731
611.583	3011
611.650	2329
611.717	2776
611.784	3119
611.851	2630
611.918	3768
611.984	3491
612.051	4442
612.118	9364
612.185	22656
612.252	26538
612.319	6189
612.386	3946
612.452	3410
612.519	3504
612.586	3438
612.653	4326
612.719	3344
612.786	2261
612.853	2428
612.919	2806
612.986	3159
613.053	3480
613.120	1972
613.186	1574
613.253	3432
613.319	2242
613.386	3008
613.453	2527
613.519	2356
613.586	2745
613.652	3229
613.719	3103
613.785	2933
613.852	2761
613.918	2230
613.985	3364
614.051	3488
614.118	6755
614.184	11876
614.250	4054
614.317	2560
614.383	2635
614.449	2396
614.516	2675
614.582	2652
614.648	2548
614.715	2274
614.781	2041
614.847	2320
614.914	3002
614.980	2854
615.046	3324
615.112	2848
615.179	3292
615.245	3412
615.311	4883
615.377	9189
615.443	15052
615.509	8033
615.575	5020
615.642	3858
615.708	3959
615.774	4289
615.840	5400
615.906	6058
615.972	10126
616.038	20265
616.104	34875
616.170	39747
616.236	49496
616.302	14284
616.368	6649
616.434	5687
616.500	4575
616.565	4548
616.631	4339
616.697	4162
616.763	3324
616.829	4103
616.895	6991
616.961	8438
617.026	4538
617.092	3450
617.158	3123
617.224	2177
617.289	3165
617.355	2739
617.421	2392
617.487	3143
617.552	2400
617.618	2789
617.684	2176
617.749	3115
617.815	2083
617.880	1975
617.946	2672
618.012	2461
618.077	1945
618.143	2669
618.208	2603
618.274	1920
618.339	2746
618.405	2148
618.470	2532
618.536	2585
618.601	3186
618.667	2569
618.732	2650
618.798	2508
618.863	2198
618.928	2604
618.994	2540
619.059	2063
619.124	2882
619.190	3237
619.255	2511
619.320	2143
619.386	1884
619.451	1872
619.516	2529
619.581	1767
619.647	2521
619.712	2523
619.777	2532
619.842	2193
619.907	2229
619.972	1937
620.038	2525
620.103	2595
620.168	2136
620.233	2198
620.298	1926
620.363	2456
620.428	2163
620.493	2633
620.558	1781
620.623	2511
620.688	2169
620.753	2075
620.818	2244
620.883	2189
620.948	2777
621.013	3017
621.078	2864
621.143	1146
621.207	3780
621.272	2132
621.337	2907
621.402	2797
621.467	3339
621.532	4522
621.596	3156
621.661	3155
621.726	2344
621.791	2216
621.855	2096
621.920	2309
621.985	2978
622.049	3254
622.114	3639
622.179	2334
622.243	2628
622.308	3082
622.373	3237
622.437	3565
622.502	2876
622.566	2119
622.631	2440
622.695	3086
622.760	3148
622.824	2885
622.889	2846
622.953	3381
623.018	3844
623.082	4140
623.147	2149
623.211	2714
623.276	3600
623.340	2651
623.404	2473
623.469	1774
623.533	2491
623.597	3038
623.662	1813
623.726	2769
623.790	2040
623.854	2219
623.919	1937
623.983	2126
624.047	2100
624.111	2222
624.176	1730
624.240	1843
624.304	2085
624.368	2851
624.432	2528
624.496	2384
624.560	2227
624.625	2672
624.689	2079
624.753	1864
624.817	2542
624.881	1906
624.945	1853
625.009	2089
625.073	2024
625.137	2454
625.201	2529
625.265	2922
625.329	2303
625.393	2726
625.456	2054
625.520	2249
625.584	2467
625.648	2441
625.712	3498
625.776	9727
625.839	14996
625.903	9567
625.967	2881
626.031	4734
626.095	7308
626.158	5013
626.222	1497
626.286	1511
626.349	1360
626.413	1345
626.477	1487
626.540	1307
626.604	2165
626.668	1724
626.731	2644
626.795	1717
626.858	2325
626.922	2036
626.986	1058
627.049	959
627.113	1414
627.176	2684
627.240	2122
627.303	1387
627.366	1521
627.430	1496
627.493	1856
627.557	1248
627.620	2008
627.684	1353
627.747	1272
627.810	978
627.874	1403
627.937	1033
628.000	1775
628.064	1535
628.127	952
628.190	1032
628.253	1398
628.317	1236
628.380	1336
628.443	1224
628.506	1283
628.569	1898
628.632	1064
628.696	1197
628.759	1162
628.822	1684
628.885	898
628.948	853
629.011	1661
629.074	847
629.137	1807
629.200	504
629.263	1295
629.326	511
629.389	1272
629.452	1670
629.515	1426
629.578	723
629.641	1310
629.704	828
629.767	773
629.830	1020
629.892	900
629.955	958
630.018	1627
630.081	876
630.144	1745
630.207	630
630.269	1004
630.332	1541
630.395	1354
630.458	1189
630.520	685
630.583	717
630.646	69
630.708	1344
630.771	759
630.834	1179
630.896	568
630.959	977
631.021	1041
631.084	1132
631.146	775
631.209	1240
631.272	1361
631.334	1167
631.397	1816
631.459	620
631.522	1182
631.584	1627
631.646	1399
631.709	898
631.771	627
631.834	1617
631.896	1501
631.958	877
632.021	1079
632.083	531
632.145	907
632.208	848
632.270	951
632.332	764
632.395	259
632.457	1130
632.519	473
632.581	897
632.643	964
632.706	464
632.768	709
632.830	691
632.892	1380
632.954	821
633.016	1892
633.078	830
633.141	391
633.203	596
633.265	518
633.327	736
633.389	1349
633.451	878
633.513	655
633.575	1277
633.637	1105
633.698	551
633.760	1346
633.822	789
633.884	998
633.946	1074
634.008	695
634.070	1179
634.132	1111
634.193	737
634.255	65
634.317	808
634.379	1326
634.441	146
634.502	277
634.564	956
634.626	-239
634.687	843
634.749	1226
634.811	976
634.873	588
634.934	392
634.996	506
635.057	1100
635.119	594
635.181	888
635.242	904
635.304	256
635.365	1349
635.427	111
635.488	714
635.550	796
635.611	249
635.673	277
635.734	784
635.796	717
635.857	1216
635.918	1214
635.980	318
636.041	914
636.102	371
636.164	1111
636.225	276
636.286	932
636.348	677
636.409	748
636.470	107
636.531	634
636.593	303
636.654	1148
636.715	556
636.776	129
636.838	-47
636.899	1107
636.960	231
637.021	-7
637.082	397
637.143	712
637.204	494
637.265	-98
637.326	398
637.387	1276
637.448	880
637.509	773
637.570	389
637.631	817
637.692	265
637.753	434
637.814	538
637.875	251
637.936	708
637.997	581
638.058	403
638.119	1088
638.179	854
638.240	753
638.301	631
638.362	822
638.423	491
638.483	367
638.544	80
638.605	735
638.666	-713
638.726	450
638.787	651
638.848	1209
638.908	-608
638.969	927
639.030	-203
639.090	125
639.151	358
639.211	378
639.272	1103
639.332	407
639.393	767
639.453	286
639.514	924
639.574	320
639.635	80
639.695	426
639.756	45
639.816	394
639.877	-361
639.937	978
639.997	171
640.058	474
640.118	631
640.178	318
640.239	-71
640.299	548
640.359	71
640.420	-227
640.480	950
640.540	205
640.600	349
640.661	147
640.721	-1218
640.781	1219
640.841	-66
640.901	263
640.961	291
641.021	462
641.082	88
641.142	906
641.202	730
641.262	-205
641.322	86
641.382	87
641.442	582
641.502	-19
641.562	258
641.622	53
641.682	18
641.742	100
641.802	129
641.861	260
641.921	-293
641.981	843
642.041	156
642.101	362
642.161	248
642.221	-13
642.280	19
642.340	-536
642.400	-502
642.460	515
642.519	213
642.579	-605
642.639	721
642.698	-793
642.758	1092
642.818	305
642.877	-524
642.937	145
642.997	178
643.056	472
643.116	113
643.175	380
643.235	-178
643.294	302
643.354	23
643.414	-897
643.473	-176
643.532	-499
643.592	696
643.651	1126
643.711	1758
643.770	3442
643.830	6978
643.889	23001
643.948	15923
644.008	1332
644.067	446
644.126	-492
644.186	-326
644.245	179
644.304	-538
644.363	752
644.423	-623
644.482	320
644.541	-493
644.600	-873
644.659	-16
644.719	-641
644.778	541
644.837	-634
644.896	970
644.955	3324
645.014	2620
645.073	1318
645.132	25
645.191	155
645.250	-706
645.309	436
645.368	-356
645.427	165
645.486	-959
645.545	285
645.604	785
645.663	-206
645.722	-329
645.781	564
645.840	-208
645.898	-92
645.957	-29
646.016	714
646.075	1995
646.134	2894
646.192	5954
646.251	16913
646.310	6825
646.369	540
646.427	-200
646.486	-937
646.545	55
646.603	169
646.662	68
646.721	3
646.779	-104
646.838	-811
646.896	149
646.955	701
647.014	755
647.072	749
647.131	1235
647.189	1257
647.248	-898
647.306	1046
647.365	-208
647.423	-931
647.481	425
647.540	-814
647.598	-18
647.657	-704
647.715	-178
647.773	-696
647.832	-14
647.890	-1103
647.948	-524
648.007	738
648.065	-808
648.123	-557
648.181	843
648.240	81
648.298	-149
648.356	-478
648.414	531
648.472	96
648.531	932
648.589	375
648.647	-32
648.705	157
648.763	-558
648.821	-400
648.879	-446
648.937	-573
648.995	-159
649.053	-280
649.111	-359
649.169	1023
649.227	493
649.285	1620
649.343	6074
649.401	7497
649.459	1932
649.516	1313
649.574	-337
649.632	2397
649.690	4307
649.748	2265
649.806	-801
649.863	2046
649.921	1335
649.979	1147
650.037	614
650.094	-764
650.152	-228
650.210	-535
650.268	380
650.325	-268
650.383	-407
650.440	-992
650.498	444
650.556	-683
650.613	-266
650.671	-406
650.728	-1013
650.786	-665
650.843	-977
650.901	-1177
650.958	-171
651.016	202
651.073	-751
651.131	-259
651.188	-1345
651.246	-136
651.303	-163
651.360	279
651.418	-1032
651.475	-209
651.532	-553
651.590	528
651.647	-1041
651.704	-128
651.762	397
651.819	-766
651.876	-641
651.933	-92
651.990	-289
652.048	-485
652.105	-480
652.162	164
652.219	319
652.276	-535
652.333	287
652.390	-1414
652.448	-662
652.505	-105
652.562	57
652.619	-236
652.676	-43
652.733	912
652.790	491
652.847	-1390
652.904	101
652.961	-1285
653.017	-872
653.074	289
653.131	-630
653.188	-491
653.245	-506
653.302	-852
653.359	-861
653.415	147
653.472	-1191
653.529	371
653.586	-92
653.642	-823
653.699	-268
653.756	-1252
653.813	-666
653.869	110
653.926	-337
653.983	-863
654.039	-282
654.096	-433
654.152	-396
654.209	-1194
654.266	-109
654.322	-946
654.379	-180
654.435	-297
654.492	-200
654.548	-126
654.605	-707
654.661	141
654.717	-732
654.774	-156
654.830	-11
654.887	132
654.943	-770
655.000	112
655.056	-550
655.112	-852
655.168	-1364
655.225	-557
655.281	-685
655.337	-870
655.394	76
655.450	30
655.506	169
655.562	-368
655.618	1167
655.675	-522
655.731	87
655.787	-326
655.843	209
655.899	-389
655.955	557
656.011	-95
656.067	-308
656.123	770
656.179	363
656.235	970
656.291	365
656.347	1118
656.403	109
656.459	673
656.515	-62
656.571	24
656.627	102
656.683	-75
656.739	310
656.795	486
656.850	-116
656.906	-923
656.962	-274
657.018	-369
657.074	-1270
657.129	32
657.185	-808
657.241	-522
657.297	-288
657.352	-201
657.408	-977
657.464	246
657.519	-1056
657.575	-361
657.630	-282
657.686	-164
657.742	-955
657.797	-985
657.853	-928
657.908	-271
657.964	-1709
658.019	-762
658.075	-862
658.130	-267
658.186	-1257
658.241	-737
658.297	-854
658.352	-1270
658.407	176
658.463	-1480
658.518	-659
658.573	-595
658.629	-1014
658.684	-882
658.739	184
658.795	-1062
658.850	-773
658.905	-1182
658.960	-969
659.016	-717
659.071	-507
659.126	-664
659.181	-1115
659.236	-46
659.291	154
659.346	-740
659.401	-1218
659.457	-479
659.512	-320
659.567	909
659.622	-878
659.677	-438
659.732	-908
659.787	-763
659.842	-843
659.897	-409
659.952	-364
660.007	88
660.061	-356
660.116	-1046
660.171	-764
660.226	-1356
660.281	-258
660.336	-625
660.391	49
660.445	-851
660.500	-743
660.555	-155
660.610	-1655
660.664	-487
660.719	-1151
660.774	-159
660.828	-612
660.883	22
660.938	-840
660.992	-1197
661.047	-130
661.101	-133
661.156	-1384
661.211	-953
661.265	-1814
661.320	-1156
661.374	-657
661.429	-1596
661.483	-511
661.538	-705
661.592	-1194
661.647	-1013
661.701	-559
661.755	-258
661.810	-477
661.864	-1002
661.919	-615
661.973	-310
662.027	-462
662.081	-1501
662.136	-1046
662.190	-943
662.244	-527
662.299	-1117
662.353	-398
662.407	-441
662.461	-1126
662.515	-646
662.569	-469
662.624	228
662.678	-808
662.732	-1028
662.786	-1093
662.840	-294
662.894	-865
662.948	-1344
663.002	-831
663.056	-607
663.110	-1448
663.164	-1251
663.218	-415
663.272	-416
663.326	11
663.380	-1145
663.434	-579
663.488	-1861
663.542	-222
663.595	-1272
663.649	-878
663.703	-316
663.757	-475
663.811	-1016
663.864	-549
663.918	-299
663.972	-1298
664.026	-180
664.079	-1580
664.133	-669
664.187	-588
664.240	-1190
664.294	-421
664.348	-418
664.401	-747
664.455	-562
664.508	-1477
664.562	-274
664.615	-300
664.669	-922
664.722	-528
664.776	-819
664.829	-1404
664.883	-796
664.936	-1238
664.990	-460
665.043	-922
665.097	-1162
665.150	-713
665.203	-1019
665.257	-190
665.310	-419
665.363	-335
665.417	310
665.470	-131
665.523	-422
665.576	-500
665.630	-1043
665.683	-442
665.736	-403
665.789	129
665.842	-817
665.895	-157
665.949	-697
666.002	-1527
666.055	-896
666.108	-698
666.161	-476
666.214	-785
666.267	-708
666.320	-1302
666.373	345
666.426	-731
666.479	-772
666.532	-139
666.585	-1150
666.638	3
666.691	-705
666.744	-259
666.796	-604
666.849	-681
666.902	179
666.955	-661
667.008	-481
667.060	-903
667.113	-988
667.166	-635
667.219	-61
667.271	-654
667.324	-881
667.377	-1102
667.430	-632
667.482	-641
667.535	-42
667.587	362
667.640	-84
667.693	-1159
667.745	-393
667.798	-452
667.850	-102
667.903	-454
667.955	-947
668.008	-633
668.060	290
668.113	-102
668.165	338
668.218	-173
668.270	-1665
668.322	-441
668.375	-20
668.427	77
668.479	-970
668.532	274
668.584	-496
668.636	47
668.689	-332
668.741	-1249
668.793	-461
668.845	-1158
668.898	-439
668.950	-489
669.002	-483
669.054	-750
669.106	-929
669.158	-316
669.211	52
669.263	270
669.315	-185
669.367	-596
669.419	-323
669.471	404
669.523	-23
669.575	511
669.627	129
669.679	-87
669.731	105
669.783	-964
669.835	-194
669.886	-218
669.938	-646
669.990	-837
670.042	-948
670.094	143
670.146	-103
670.197	432
670.249	-508
670.301	688
670.353	238
670.404	986
670.456	1911
670.508	4385
670.560	7173
670.611	12326
670.663	22565
670.715	46715
670.766	126589
670.818	114667
670.869	22332
670.921	5260
670.972	3015
671.024	2000
671.075	1150
671.127	956
671.178	-304
671.230	-266
671.281	-90
671.333	-271
671.384	213
671.436	-118
671.487	506
671.538	683
671.590	-463
671.641	1048
671.692	295
671.744	672
671.795	1934
671.846	461
671.897	-49
671.949	31
672.000	-177
672.051	204
672.102	296
672.153	-699
672.204	94
672.256	-350
672.307	-760
672.358	829
672.409	-192
672.460	334
672.511	-869
672.562	-1099
672.613	-83
672.664	787
672.715	-97
672.766	-339
672.817	-378
672.868	-68
672.919	-224
672.970	-761
673.021	-283
673.071	-786
673.122	120
673.173	-4
673.224	-359
673.275	-611
673.326	-8
673.376	-401
673.427	-877
673.478	-562
673.528	-546
673.579	135
673.630	-290
673.680	198
673.731	-347
673.782	-343
673.832	-916
673.883	107
673.934	-1095
673.984	-138
674.035	-381
674.085	-366
674.136	223
674.186	-597
674.237	361
674.287	168
674.338	-19
674.388	-222
674.438	-902
674.489	-471
674.539	-490
674.589	-119
674.640	-435
674.690	-607
674.740	-1246
674.791	-693
674.841	-286
674.891	-440
674.942	198
674.992	-537
675.042	-540
675.092	-171
675.142	-1048
675.193	-324
675.243	-139
675.293	-677
675.343	-659
675.393	24
675.443	400
675.493	-92
675.543	-1212
675.593	-453
675.643	-712
675.693	-82
675.743	-332
675.793	-254
675.843	-957
675.893	-299
675.943	-673
675.993	-735
676.043	-411
676.093	460
676.142	-818
676.192	-358
676.242	-15
676.292	-303
676.341	-1296
676.391	-522
676.441	-439
676.491	-96
676.540	-227
676.590	-932
676.640	-196
676.689	-764
676.739	-288
676.789	-1277
676.838	-357
676.888	285
676.937	-1007
676.987	-840
677.037	-313
677.086	-495
677.136	-1522
677.185	-376
677.235	-361
677.284	-824
677.333	-165
677.383	-442
677.432	-896
677.482	-52
677.531	-156
677.580	-119
677.630	-857
677.679	-1314
677.728	-1188
677.778	-1262
677.827	-1138
677.876	-1506
677.925	-1055
677.975	-1136
678.024	-344
678.073	-564
678.122	-650
678.171	-1361
678.220	-906
678.269	-926
678.319	208
678.368	-391
678.417	-721
678.466	-34
678.515	-448
678.564	-778
678.613	-78
678.662	-694
678.711	81
678.760	-183
678.809	-585
678.857	-482
678.906	-188
678.955	-179
679.004	381
679.053	-293
679.102	-878
679.151	-48
679.199	-632
679.248	-702
679.297	-242
679.346	-1037
679.394	-975
679.443	-494
679.492	37
679.540	-695
679.589	-915
679.638	-830
679.686	-478
679.735	-413
679.784	-801
679.832	308
679.881	-891
679.929	-680
679.978	-665
680.026	-1099
680.075	-355
680.123	-898
680.172	-689
680.220	-500
680.268	-709
680.317	-523
680.365	-948
680.414	-1234
680.462	-319
680.510	-273
680.559	-808
680.607	201
680.655	-925
680.703	-1164
680.752	-847
680.800	-821
680.848	-921
680.896	-375
680.945	-790
680.993	-64
681.041	-621
681.089	-461
681.137	-463
681.185	-1044
681.233	-726
681.258	-728
681.281	-737
681.329	-120
681.377	-455
681.380	-464
681.425	-776
681.473	119
681.502	-432
681.521	-829
681.569	230
681.617	-363
681.624	-399
681.665	-690
681.713	-438
681.745	-713
681.761	-854
681.809	-96
681.857	-408
681.867	-396
681.904	-377
681.952	-210
681.989	-4
682.000	50
682.048	-283
682.096	-227
682.111	-302
682.143	-490
682.191	-174
682.233	602
682.239	717
682.286	-394
682.334	-654
682.354	-642
682.382	-670
682.430	-798
682.476	-357
682.477	-352
682.525	-357
682.572	-121
682.598	-157
682.620	-219
682.667	-367
682.715	-623
682.720	-537
682.763	245
682.810	448
682.841	-148
682.857	-473
682.905	-675
682.952	501
682.963	455
683.000	265
683.047	-401
683.085	-41
683.095	49
683.142	-106
683.190	-252
683.206	-74
683.237	259
683.284	267
683.328	-126
683.332	-167
683.379	-321
683.426	1
683.449	-125
683.473	-251
683.521	-555
683.568	70
683.571	78
683.615	127
683.662	-421
683.693	-270
683.709	-195
683.757	-265
683.804	-63
683.814	-157
683.851	-491
683.898	-49
683.936	-246
683.945	-311
683.992	31
684.039	154
684.057	158
684.086	185
684.133	84
684.179	-234
684.180	-251
684.227	-238
684.274	-414
684.300	-81
684.321	212
684.368	-785
684.415	268
684.422	193
684.462	-238
684.509	-226
684.543	499
684.556	733
684.603	-560
684.649	556
684.665	464
684.696	298
684.743	233
684.786	323
684.790	326
684.837	-158
684.883	691
684.908	556
684.930	420
684.977	590
685.023	339
685.029	390
685.070	719
685.117	1160
685.150	154
685.164	-236
685.210	565
685.257	708
685.272	676
685.303	574
685.350	-54
685.393	506
685.396	556
685.443	264
685.490	262
685.514	379
685.536	430
685.583	511
685.629	384
685.636	346
685.675	114
685.722	1016
685.757	672
685.768	556
685.815	497
685.861	489
685.878	461
685.908	450
685.954	434
686.000	983
686.000	989
686.047	1018
686.093	877
686.121	1230
686.139	1467
686.185	561
686.232	830
686.242	841
686.278	825
686.324	828
686.363	916
686.370	926
686.416	767
686.463	855
686.484	988
686.509	1175
686.555	939
686.601	940
686.606	976
686.647	1266
686.693	380
686.727	590
686.739	689
686.785	1206
686.831	802
686.848	944
686.877	1102
686.923	901
686.969	909
686.969	909
687.015	753
687.061	598
687.090	736
687.107	829
687.153	1051
687.199	1229
687.211	1172
687.245	970
687.291	442
687.332	982
687.336	1033
687.382	855
687.428	832
687.453	964
687.474	1080
687.520	883
687.565	680
687.574	673
687.611	727
687.657	508
687.695	736
687.702	774
687.748	643
687.794	1313
687.816	1206
687.839	1073
687.885	1114
687.931	926
687.937	874
687.976	522
688.022	632
688.058	672
688.067	723
688.113	799
688.158	1184
688.179	1080
688.204	840
688.249	985
688.295	1163
688.300	1137
688.340	1058
688.386	1042
688.421	853
688.431	816
688.477	600
688.522	1201
688.542	1150
688.567	1067
688.613	1084
688.658	1056
688.663	1080
688.703	1265
688.749	1474
688.784	1355
688.794	1321
688.839	1158
688.884	1260
688.905	1222
688.930	1161
688.975	1058
689.020	943
689.026	1016
689.065	1579
689.110	1633
689.146	1190
689.155	1075
689.201	722
689.246	1151
689.267	1214
689.291	1273
689.336	1269
689.381	1161
689.388	1153
689.426	1195
689.471	1327
689.509	1088
689.516	1053
689.561	1243
689.606	1377
689.630	1136
689.651	910
689.696	1177
689.741	1524
689.750	1564
689.785	1777
689.830	1722
689.871	1610
689.875	1584
689.920	1372
689.965	1812
689.992	1444
690.010	1247
690.054	1149
690.099	1103
690.112	1222
690.144	1564
690.189	1551
690.233	1656
690.233	1660
690.278	1441
690.323	1454
690.354	1335
690.367	1352
690.412	1326
690.457	1518
690.474	1688
690.501	1931
690.546	1754
690.590	1987
690.595	2002
690.635	1944
690.680	1683
690.716	1535
690.724	1582
690.769	1952
690.813	2392
690.836	2421
690.857	2498
690.902	2740
690.946	3255
690.957	3325
690.991	4187
691.035	5794
691.077	7400
691.080	7501
691.124	8848
691.168	9545
691.198	10329
691.213	9784
691.257	7397
691.301	5773
691.318	5076
691.346	4581
691.390	3766
691.434	2910
691.439	2804
691.478	2528
691.522	2546
691.559	2137
691.567	2099
691.611	2250
691.655	2045
691.680	2139
691.699	2164
691.743	2314
691.787	1746
691.800	1710
691.831	1832
691.875	1927
691.919	1949
691.921	1949
691.964	2078
692.008	2326
692.041	2211
692.052	2181
692.096	2534
692.139	2361
692.162	2313
692.183	2220
692.227	2414
692.271	1758
692.282	1779
692.315	1944
692.359	1848
692.402	2237
692.403	2247
692.447	1995
692.490	2241
692.523	2244
692.534	2308
692.578	2207
692.622	2380
692.643	2548
692.666	2508
692.709	2384
692.753	1707
692.763	1714
692.797	2032
692.840	2107
692.884	2125
692.884	2133
692.928	2276
692.971	2350
693.004	2445
693.015	2414
693.059	2285
693.102	2529
693.124	2359
693.146	2243
693.189	2522
693.233	2191
693.245	2155
693.276	2224
693.320	2551
693.363	2746
693.365	2740
693.407	2921
693.450	3275
693.485	3589
693.493	3627
693.537	3574
693.580	3778
693.605	3821
693.624	4224
693.667	4970
693.710	5890
693.725	6244
693.753	8066
693.797	11072
693.840	14209
693.845	14582
693.883	17784
693.926	20308
693.966	22878
693.970	22481
694.013	17692
694.056	13253
694.086	10087
694.099	9458
694.142	7539
694.185	5747
694.206	4820
694.229	4673
694.272	4110
694.315	4078
694.326	3916
694.358	3563
694.401	3432
694.444	3376
694.446	3348
694.487	3067
694.530	3012
694.566	2939
694.573	2923
694.616	2634
694.659	2550
694.686	2487
694.702	2543
694.745	2384
694.787	2195
694.806	2262
694.830	2350
694.873	2435
694.916	2128
694.926	2155
694.959	2233
695.002	1999
695.044	2190
695.046	2177
695.087	2262
695.130	2335
695.166	2451
695.172	2439
695.215	2355
695.258	2101
695.286	2060
695.301	2163
695.343	2375
695.386	2534
695.406	2653
695.428	2647
695.471	2408
695.514	2299
695.526	2258
695.556	2342
695.599	2477
695.641	2527
695.646	2535
695.684	2479
695.726	2364
695.766	2233
695.769	2249
695.811	2335
695.854	2319
695.886	2466
695.896	2481
695.938	2404
695.981	2335
696.005	2251
696.023	2231
696.065	2261
696.108	2279
696.125	2234
696.150	2228
696.192	2389
696.235	2388
696.245	2371
696.277	2360
696.319	2452
696.361	2413
696.365	2413
696.404	2520
696.446	2531
696.485	2486
696.488	2511
696.530	2815
696.572	3073
696.604	3248
696.614	3231
696.656	3141
696.698	2986
696.724	2944
696.740	2866
696.783	2479
696.825	2306
696.844	2119
696.867	2175
696.909	2370
696.951	2560
696.964	2612
696.992	2570
697.034	2437
697.076	2362
697.083	2340
697.118	2357
697.160	2363
697.202	2287
697.203	2277
697.244	2163
697.286	2095
697.323	1852
697.327	1864
697.369	2047
697.411	2212
697.442	2349
697.453	2392
697.494	2497
697.536	2590
697.562	2645
697.578	2711
697.620	2832
697.661	2946
697.682	2970
697.703	2796
697.744	2546
697.786	2311
697.801	2165
697.828	2244
697.869	2492
697.911	2648
697.921	2674
697.952	2702
697.994	2747
698.035	2855
698.040	2846
698.077	2921
698.118	3065
698.160	3173
698.160	3162
698.201	2972
698.243	2727
698.279	2544
698.284	2577
698.325	2778
698.367	2981
698.399	3115
698.408	3067
698.449	2800
698.491	2532
698.518	2342
698.532	2386
698.573	2503
698.614	2616
698.638	2659
698.656	2700
698.697	2799
698.738	2885
698.757	2903
698.779	2950
698.820	3051
698.862	3138
698.877	3160
698.903	3103
698.944	2996
698.985	2888
698.996	2849
699.026	2965
699.067	3115
699.116	3285
699.235	3288
699.354	2405
699.474	3028
699.593	2481
699.713	3616
699.832	2681
699.951	3589
700.070	2882
700.190	2250
700.309	3023
700.428	3030
700.547	2069
700.667	3814
700.786	2410
700.905	3307
701.024	2338
701.143	2713
701.262	2676
701.381	2015
701.500	1482
701.619	2207
701.738	2355
701.857	2562
701.976	1874
702.095	2569
702.214	2047
702.333	2095
702.452	2403
702.571	2146
702.690	1892
702.809	1781
702.928	2586
703.047	2878
703.165	2337
703.284	2261
703.403	2410
703.522	2554
703.640	2348
703.759	2497
703.878	2643
703.997	2917
704.115	2657
704.234	1803
704.353	2032
704.471	1934
704.590	2277
704.708	2352
704.827	2007
704.946	2349
705.064	2498
705.183	2625
705.301	2285
705.420	3176
705.538	3958
705.656	2852
705.775	2456
705.893	3885
706.012	8188
706.130	4865
706.249	3029
706.367	3125
706.485	2663
706.604	3049
706.722	2952
706.840	2660
706.958	3221
707.077	3271
707.195	2328
707.313	2624
707.431	2913
707.549	3464
707.668	2438
707.786	3614
707.904	2468
708.022	2444
708.140	2059
708.258	2831
708.376	2954
708.494	2977
708.612	3020
708.730	3617
708.848	4270
708.966	3997
709.084	3366
709.202	3204
709.320	3055
709.438	2593
709.556	3500
709.674	4191
709.791	3448
709.909	3125
710.027	2598
710.145	2436
710.263	3346
710.380	2883
710.498	2992
710.616	2946
710.733	3081
710.851	2949
710.969	3692
711.086	2848
711.204	2435
711.322	2861
711.439	2925
711.557	2175
711.674	2609
711.792	2954
711.909	2722
712.027	3443
712.144	2596
712.262	2526
712.379	2343
712.497	3533
712.614	3469
712.732	3730
712.849	3269
712.966	3021
713.084	2644
713.201	3736
713.318	3100
713.436	4167
713.553	3392
713.670	3255
713.787	3566
713.905	3557
714.022	3369
714.139	3200
714.256	2468
714.373	3391
714.490	3671
714.608	5594
714.725	9002
714.842	27370
714.959	6588
715.076	2575
715.193	2765
715.310	2845
715.427	3350
715.544	2918
715.661	2544
715.778	2911
715.895	2927
716.011	2543
716.128	2852
716.245	2895
716.362	2995
716.479	2933
716.596	2158
716.713	2588
716.829	2555
716.946	2284
717.063	2609
717.180	2396
717.296	2763
717.413	2341
717.530	2306
717.646	2429
717.763	1821
717.880	2521
717.996	2073
718.113	2741
718.229	2895
718.346	2305
718.462	1785
718.579	3027
718.695	2239
718.812	4038
718.928	2486
719.045	2715
719.161	1927
719.277	2111
719.394	1648
719.510	2746
719.626	2473
719.743	2071
719.859	2337
719.975	1590
720.092	3810
720.208	9548
720.324	6878
720.440	2225
720.557	2354
720.673	3086
720.789	3658
720.905	7000
721.021	8420
721.137	2568
721.253	2318
721.369	2255
721.486	1941
721.602	3330
721.718	2767
721.834	2067
721.950	1921
722.066	2147
722.181	1264
722.297	2995
722.413	2033
722.529	991
722.645	1785
722.761	1633
722.877	1764
722.993	1523
723.108	1510
723.224	2316
723.340	1737
723.456	2274
723.571	1710
723.687	1864
723.803	1948
723.918	1631
724.034	1557
724.150	1484
724.265	2248
724.381	3254
724.497	5367
724.612	2336
724.728	1261
724.843	1364
724.959	1796
725.074	2689
725.190	4846
725.305	2608
725.421	2345
725.536	812
725.651	2317
725.767	1222
725.882	1536
725.997	1088
726.113	1402
726.228	1523
726.343	634
726.459	1529
726.574	741
726.689	2046
726.804	1623
726.920	2095
727.035	1715
727.150	2368
727.265	809
727.380	1693
727.495	736
727.610	1966
727.725	972
727.841	1842
727.956	2318
728.071	3236
728.186	1163
728.301	1449
728.416	376
728.531	979
728.645	534
728.760	1201
728.875	1550
728.990	1095
729.105	866
729.220	1626
729.335	1450
729.449	998
729.564	1209
729.679	1097
729.794	1688
729.908	750
730.023	994
730.138	519
730.253	889
730.367	1682
730.482	1092
730.596	1266
730.711	1145
730.826	1511
730.940	1490
731.055	1224
731.169	1705
731.284	1067
731.398	969
731.513	1857
731.627	1297
731.742	1442
731.856	1339
731.970	1302
732.085	1607
732.199	1111
732.313	552
732.428	1535
732.542	2765
732.656	4915
732.771	1709
732.885	1326
732.999	1151
733.113	1117
733.227	757
733.342	603
733.456	624
733.570	1379
733.684	976
733.798	913
733.912	1281
734.026	468
734.140	-30
734.254	1595
734.368	1596
734.482	3295
734.596	305
734.710	788
734.824	1518
734.938	856
735.052	596
735.166	937
735.280	652
735.393	793
735.507	142
735.621	412
735.735	1505
735.849	2256
735.962	361
736.076	1236
736.190	969
736.303	1103
736.417	2722
736.531	1080
736.644	365
736.758	900
736.872	554
736.985	11
737.099	1106
737.212	512
737.326	783
737.439	497
737.553	510
737.666	631
737.780	870
737.893	405
738.007	1259
738.120	1004
738.233	718
738.347	564
738.460	933
738.573	905
738.687	27
738.800	958
738.913	92
739.026	533
739.140	1142
739.253	738
739.366	952
739.479	826
739.592	-74
739.705	280
739.818	122
739.932	417
740.045	558
740.158	464
740.271	611
740.384	591
740.497	588
740.610	1166
740.723	955
740.836	883
740.949	439
741.062	703
741.174	1285
741.287	1073
741.400	1037
741.513	788
741.626	-100
741.739	1146
741.851	93
741.964	412
742.077	16
742.189	1386
742.302	2018
742.415	1483
742.527	490
742.640	954
742.753	616
742.865	927
742.978	1218
743.090	189
743.203	710
743.316	693
743.428	113
743.541	1116
743.653	526
743.766	94
743.878	742
743.990	471
744.103	1097
744.215	1905
744.327	815
744.440	1184
744.552	1030
744.664	1101
744.777	656
744.889	831
745.001	574
745.113	930
745.226	575
745.338	1329
745.450	926
745.562	385
745.674	357
745.786	-113
745.898	232
746.010	430
746.122	121
746.234	107
746.347	594
746.459	721
746.570	439
746.682	993
746.794	2282
746.906	1839
747.018	491
747.130	516
747.242	390
747.354	-57
747.466	275
747.577	1060
747.689	280
747.801	-275
747.913	294
748.024	-32
748.136	188
748.248	-241
748.359	203
748.471	923
748.583	-452
748.694	227
748.806	1196
748.918	700
749.029	844
749.141	973
749.252	415
749.364	658
749.475	438
749.587	898
749.698	695
749.809	236
749.921	309
750.032	862
750.144	373
750.255	68
750.366	120
750.478	516
750.589	109
750.700	-223
750.811	845
750.923	159
751.034	407
751.145	1910
751.256	463
751.367	534
751.479	763
751.590	107
751.701	349
751.812	-162
751.923	1015
752.034	945
752.145	503
752.256	456
752.367	471
752.478	353
752.589	319
752.700	435
752.811	686
752.922	331
753.032	-363
753.143	-25
753.254	-717
753.365	-44
753.476	-96
753.586	699
753.697	1072
753.808	1549
753.919	687
754.029	-254
754.140	-3
754.251	509
754.361	392
754.472	1236
754.582	725
754.693	703
754.804	322
754.914	710
755.025	-77
755.135	700
755.246	171
755.356	630
755.466	582
755.577	471
755.687	760
755.798	573
755.908	175
756.018	492
756.129	796
756.239	595
756.349	410
756.460	952
756.570	188
756.680	484
756.790	-320
756.900	245
757.011	320
757.121	747
757.231	-52
757.341	261
757.451	312
757.561	-128
757.671	-167
757.781	877
757.891	412
758.001	972
758.111	504
758.221	311
758.331	788
758.441	518
758.551	373
758.661	1056
758.771	776
758.880	-278
758.990	475
759.100	480
759.210	468
759.320	437
759.429	1372
759.539	267
759.649	649
759.758	1059
759.868	643
759.978	208
760.087	850
760.197	1103
760.307	74
760.416	1101
760.526	523
760.635	359
760.745	370
760.854	674
760.964	806
761.073	1746
761.182	520
761.292	1501
761.401	1083
761.511	1158
761.620	856
761.729	1584
761.839	1062
761.948	2109
762.057	1230
762.166	1937
762.276	596
762.385	1377
762.494	1949
762.603	1316
762.712	986
762.822	1421
762.931	1002
763.040	1989
763.149	1615
763.258	1517
763.367	1587
763.476	1438
763.585	1688
763.694	2439
763.803	1665
763.912	2442
764.021	2013
764.130	2403
764.238	2710
764.347	3555
764.456	2090
764.565	4005
764.674	2617
764.783	3675
764.891	3362
765.000	4500
765.109	4997
765.217	5806
765.326	7758
765.435	8517
765.543	9808
765.652	12293
765.761	15342
765.869	21767
765.978	30505
766.086	45642
766.195	75755
766.303	137278
766.412	262800
766.520	343772
766.629	258290
766.737	117844
766.846	63413
766.954	40053
767.062	28626
767.171	19669
767.279	15997
767.387	12505
767.496	9930
767.604	9100
767.712	8008
767.820	7272
767.928	6610
768.037	5139
768.145	5183
768.253	5007
768.361	3834
768.469	4430
768.577	4070
768.685	4891
768.793	5372
768.901	6027
769.009	6690
769.117	7336
769.225	8941
769.333	12335
769.441	17868
769.549	29554
769.657	56224
769.765	120225
769.873	253067
769.981	258259
770.088	106849
770.196	45398
770.304	25990
770.412	18859
770.519	12705
770.627	9925
770.735	8263
770.842	6619
770.950	4933
771.058	4665
771.165	4398
771.273	3155
771.380	2977
771.488	2420
771.595	3310
771.703	2107
771.810	2872
771.918	2011
772.025	2993
772.133	1765
772.240	1957
772.348	2505
772.455	1134
772.562	1541
772.670	1375
772.777	1564
772.884	1821
772.991	1427
773.099	1630
773.206	1200
773.313	1298
773.420	1770
773.528	1157
773.635	1392
773.742	1324
773.849	1628
773.956	41
774.063	1194
774.170	324
774.277	457
774.384	570
774.491	811
774.598	1222
774.705	884
774.812	1337
774.919	814
775.026	1020
775.133	122
775.239	1270
775.346	458
775.453	264
775.560	307
775.667	789
775.773	710
775.880	835
775.987	820
776.093	710
776.200	901
776.307	625
776.413	818
776.520	736
776.627	800
776.733	44
776.840	687
776.946	315
777.053	1196
777.159	4486
777.266	3916
777.372	4112
777.478	3683
777.585	2098
777.691	840
777.798	64
777.904	657
778.010	661
778.117	454
778.223	174
778.329	-291
778.435	-710
778.542	182
778.648	343
778.754	-172
778.860	551
778.966	311
779.072	474
779.178	133
779.284	1115
779.391	50
779.497	-491
779.603	679
779.708	590
779.815	1617
779.920	5644
780.026	20834
780.132	14015
780.238	517
780.344	525
780.450	286
780.556	283
780.661	432
780.767	-294
780.873	742
780.979	-252
781.085	-444
781.190	-21
781.296	-288
781.402	-196
781.507	-470
781.613	88
781.719	-164
781.824	194
781.930	252
782.035	-38
782.141	-496
782.246	-227
782.352	252
782.457	-436
782.563	675
782.668	-315
782.773	317
782.879	-500
782.984	-73
783.090	416
783.195	61
783.300	722
783.405	620
783.511	-181
783.616	144
783.721	352
783.826	-653
783.932	-766
784.037	-182
784.142	-222
784.247	-412
784.352	-180
784.457	-252
784.562	225
784.667	22
784.772	168
784.877	-140
784.982	93
785.087	275
785.192	-197
785.297	474
785.402	-183
785.507	-7
785.611	-471
785.716	-24
785.821	-582
785.926	104
786.031	-68
786.135	362
786.240	-532
786.345	350
786.450	291
786.554	-98
786.659	198
786.763	-364
786.868	-131
786.973	394
787.077	-478
787.182	-843
787.286	-341
787.391	-429
787.495	-249
787.600	-171
787.704	-756
787.809	-462
787.913	-275
788.017	325
788.122	-19
788.226	13
788.330	-754
788.435	-258
788.539	-772
788.643	-202
788.747	-1135
788.852	34
788.956	-518
789.060	-339
789.164	161
789.268	-404
789.372	-72
789.476	-202
789.580	-191
789.684	-105
789.788	-216
789.892	-550
789.996	-1061
790.100	275
790.204	328
790.308	-209
790.412	-783
790.516	240
790.620	-265
790.724	-587
790.828	-61
790.931	-378
791.035	635
791.139	-426
791.242	-684
791.346	236
791.450	-659
791.554	-330
791.657	-401
791.761	-391
791.864	865
791.968	193
792.072	10
792.175	-65
792.279	-164
792.382	-111
792.486	-204
792.589	-402
792.693	504
792.796	-564
792.899	-374
793.003	140
793.106	-337
793.209	-1035
793.313	-258
793.416	-773
793.519	-480
793.623	-193
793.726	-347
793.829	-270
793.932	-503
794.035	-740
794.138	405
794.242	-234
794.345	-305
794.448	376
794.551	167
794.654	3015
794.757	10133
794.860	7874
794.963	63
795.066	-354
795.169	-302
795.272	-252
795.375	-221
795.477	111
795.580	-710
795.683	-676
795.786	-153
795.889	-469
795.991	476
796.094	446
796.197	-268
796.300	-263
796.402	-1133
796.505	-627
796.608	-417
796.710	-325
796.813	-503
796.915	-764
797.018	-553
797.120	-1013
797.223	-704
797.326	679
797.428	-912
797.530	-337
797.633	-289
797.735	43
797.838	-1090
797.940	169
798.042	-976
798.145	-597
798.247	-410
798.349	-883
798.452	-627
798.554	-301
798.656	-1063
798.758	-345
798.860	-770
798.962	-700
799.065	-952
799.167	-599
799.269	-274
799.371	224
799.473	-526
799.575	-356
799.677	-877
799.779	-105
799.881	-1520
799.983	-529
800.085	-815
800.187	-416
800.289	-825
800.390	-345
800.492	-499
800.594	-337
800.696	162
800.798	-899
800.899	-516
801.001	-342
801.103	-851
801.205	-527
801.306	-1029
801.408	-503
801.509	-22
801.611	-872
801.713	-1049
801.814	-1038
801.916	-451
802.017	-659
802.119	-656
802.220	-346
802.322	-1344
802.423	290
802.525	-526
802.626	-78
802.727	-1239
802.829	-644
802.930	-1199
803.031	-206
803.133	-839
803.234	-214
803.335	-988
803.436	-723
803.538	-299
803.639	-900
803.740	-801
803.841	-1063
803.942	-818
804.043	-398
804.144	-837
804.245	-58
804.346	-796
804.447	-609
804.548	-909
804.649	414
804.750	2
804.851	-1632
804.952	-475
805.053	-444
805.154	-1245
805.255	47
805.355	-639
805.456	-317
805.557	-190
805.658	-630
805.758	-609
805.859	-818
805.960	166
806.061	-900
806.161	-718
806.262	-375
806.362	-1268
806.463	-88
806.564	-626
806.664	-492
806.765	-493
806.865	-580
806.966	-959
807.066	-665
807.166	-721
807.267	-1066
807.367	-721
807.468	-152
807.568	-1267
807.668	-1516
807.769	-1385
807.869	-479
807.969	-528
808.069	-356
808.170	-468
808.270	-147
808.370	-432
808.470	-785
808.570	-946
808.670	-756
808.770	-951
808.870	-34
808.970	-1105
809.070	-454
809.170	-1089
809.271	-620
809.370	-911
809.470	-397
809.570	-146
809.670	-843
809.770	-857
809.870	-373
809.970	-353
810.070	-556
810.169	-266
810.269	-857
810.369	-1287
810.469	-819
810.568	-1320
810.668	-361
810.768	-759
810.867	-286
810.967	-348
811.066	-1452
811.166	-525
811.265	197
811.365	-1061
811.464	-247
811.564	-1039
811.663	-614
811.763	-1058
811.862	336
811.962	-788
812.061	-293
812.160	-452
812.260	-519
812.359	-655
812.458	-484
812.557	-337
812.657	-137
812.756	811
812.855	-336
812.954	-632
813.053	48
813.153	-1499
813.252	-829
813.351	-563
813.450	-535
813.549	-1309
813.648	-158
813.747	-592
813.846	-331
813.945	-865
814.044	-579
814.143	-770
814.242	-35
814.341	-230
814.439	-89
814.538	36
814.637	-416
814.736	-420
814.835	-640
814.933	-413
815.032	-139
815.131	-519
815.229	-295
815.328	-51
815.427	-45
815.525	147
815.624	-248
815.722	-20
815.821	609
815.919	-849
816.018	170
816.116	-177
816.215	149
816.313	281
816.412	260
816.510	-159
816.609	353
816.707	-47
816.805	8
816.904	1083
817.002	354
817.100	969
817.198	2543
817.296	1779
817.395	2040
817.493	2948
817.591	3462
817.689	3874
817.787	6363
817.885	8671
817.983	15770
818.081	28671
818.179	63324
818.277	143626
818.375	241146
818.473	123819
818.571	41219
818.669	21686
818.767	17610
818.865	15431
818.963	16075
819.061	20732
819.158	32575
819.256	56465
819.354	112564
819.452	232187
819.549	312441
819.647	148689
819.745	58331
819.842	30854
819.940	19963
820.038	13203
820.135	10684
820.233	8458
820.330	5871
820.428	4004
820.525	4009
820.623	3391
820.720	2793
820.818	2370
820.915	2419
821.012	2120
821.110	1403
821.207	1694
821.304	972
821.402	1114
821.499	1304
821.596	2366
821.693	1392
821.791	785
821.888	364
821.985	559
822.082	-18
822.179	736
822.276	678
822.373	191
822.470	138
822.567	330
822.664	-55
822.761	-50
822.858	-703
822.955	563
823.052	346
823.149	-443
823.246	81
823.343	-799
823.440	-312
823.536	-195
823.633	-304
823.730	224
823.827	300
823.923	-103
824.020	446
824.117	-267
824.213	107
824.310	1158
824.407	415
824.503	-375
824.600	-68
824.696	-364
824.793	-606
824.889	-1170
824.986	-625
825.082	-860
825.179	-364
825.275	-774
825.371	-318
825.468	-485
825.564	-1247
825.660	-626
825.757	-299
825.853	-1308
825.949	161
826.045	329
826.142	-556
826.238	-501
826.334	-524
826.430	-662
826.526	-666
826.622	-1358
826.718	-510
826.814	-473
826.910	173
827.006	-540
827.102	-133
827.198	-746
827.294	-806
827.390	-117
827.486	-412
827.582	-527
827.678	-899
827.774	136
827.869	-1330
827.965	119
828.061	-1645
828.157	-148
828.252	-706
828.348	-1038
828.444	-121
828.539	-892
828.635	-87
828.731	-530
828.826	-1028
828.922	-403
829.017	-407
829.113	-488
829.208	-722
829.304	-813
829.399	-560
829.495	-704
829.590	-398
829.685	-433
829.781	-452
829.876	-786
829.971	-631
830.066	-482
830.162	-381
830.257	-1014
830.352	-1009
830.447	-939
830.543	-1001
830.638	-2252
830.733	-29
830.828	-1491
830.923	-446
831.018	-904
831.113	-659
831.208	-876
831.303	-1111
831.398	-1140
831.493	-502
831.588	-596
831.683	-405
831.778	-233
831.873	-996
831.967	-836
832.062	-846
832.157	-818
832.252	109
832.346	-1047
832.441	-643
832.536	-482
832.631	265
832.725	-123
832.820	-662
832.914	-438
833.009	-1384
833.104	-351
833.198	-128
833.293	-864
833.387	-1293
833.482	-1145
833.576	-1096
833.670	-263
833.765	-631
833.859	-2053
833.954	-624
834.048	-1191
834.142	-787
834.237	-1554
834.331	-587
834.425	-665
834.519	-975
834.613	-863
834.708	-36
834.802	-1316
834.896	-1046
834.990	-845
835.084	-1115
835.178	-1103
835.272	-590
835.366	26
835.460	-396
835.554	-1755
835.648	-804
835.742	-1630
835.836	-824
835.930	-691
836.024	-541
836.117	208
836.211	-600
836.305	-1144
836.399	-446
836.493	-560
836.586	-515
836.680	-1004
836.774	-1405
836.867	-219
836.961	-907
837.055	-913
837.148	-1229
837.242	-669
837.335	-235
837.429	-1003
837.522	-497
837.616	-795
837.709	-820
837.803	-344
837.896	-615
837.989	-833
838.083	-233
838.176	-26
838.269	-125
838.363	-441
838.456	-770
838.549	-478
838.642	-169
838.735	-132
838.829	-207
838.922	-1022
839.015	-731
839.108	-934
839.201	46
839.294	-1006
839.387	-982
839.480	-1630
839.573	-460
839.666	-394
839.759	-583
839.852	-1103
839.945	-448
840.038	-1109
840.131	-387
840.223	-913
840.316	-450
840.409	-366
840.502	-1516
840.594	-209
840.687	-1354
840.780	-318
840.873	-451
840.965	-277
841.058	-707
841.150	-161
841.243	-250
841.336	-623
841.428	-356
841.521	-422
841.613	-1288
841.706	-512
841.798	-505
841.890	-713
841.983	-596
842.075	-650
842.167	-1368
842.260	-497
842.352	-747
842.444	-697
842.537	-401
842.629	621
842.721	-132
842.813	-458
842.905	-1168
842.997	-507
843.090	-911
843.182	-924
843.274	-167
843.366	870
843.458	2779
843.550	3620
843.642	309
843.734	-516
843.826	-841
843.918	-529
844.009	-672
844.101	-677
844.193	-1419
844.285	-729
844.377	-659
844.469	-647
844.560	408
844.652	-290
844.744	-821
844.835	-781
844.927	-835
845.019	-951
845.110	-1011
845.202	-588
845.293	-538
845.385	-1297
845.476	-929
845.568	-493
845.659	-7
845.751	-487
845.842	-1095
845.934	-778
846.025	-738
846.116	-1330
846.208	-116
846.299	-981
846.390	-176
846.482	-1074
846.573	-957
846.664	317
846.755	-474
846.846	411
846.937	-1251
847.029	-772
847.120	-1176
847.211	-1305
847.302	149
847.393	-1402
847.484	-235
847.575	-993
847.666	-590
847.757	-396
847.847	-382
847.938	-355
848.029	-695
848.120	-1353
848.211	-1140
848.302	-771
848.392	-1158
848.483	-1116
848.574	-1336
848.664	-901
848.755	-918
848.846	-886
848.936	-1702
849.027	-888
849.118	-657
849.208	-1228
849.299	-1417
849.389	-950
849.480	-798
849.570	-866
849.661	-842
849.751	-61
849.841	129
849.932	-1071
850.022	-1219
850.112	-591
850.203	-1047
850.293	-884
850.383	-1009
850.474	-1270
850.564	-683
850.654	-917
850.744	-770
850.834	-780
850.924	-817
851.014	-718
851.104	-1025
851.194	-290
851.284	-641
851.374	-559
851.464	-1178
851.554	-427
851.644	-1254
851.734	-305
851.824	-801
851.914	237
852.004	-542
852.094	1100
852.183	-296
852.273	-729
852.363	-984
852.452	-935
852.542	-787
852.632	-854
852.721	-156
852.811	-1509
852.901	-952
852.990	-796
853.080	-767
853.169	-1259
853.259	-1363
853.348	-914
853.438	-1288
853.527	-948
853.617	-169
853.706	-617
853.795	-568
853.885	181
853.974	805
854.063	2959
854.152	6311
854.242	5943
854.331	368
854.420	-921
854.509	-1018
854.598	-1160
854.687	-1387
854.777	-762
854.866	-1570
854.955	-1064
855.044	-1086
855.133	-899
855.222	-1191
855.311	-1169
855.400	-935
855.488	-513
855.577	-1329
855.666	-73
855.755	-256
855.844	-1010
855.933	-168
856.021	-1017
856.110	-662
856.199	-1852
856.288	-1061
856.376	-1622
856.465	-1347
856.554	-1276
856.642	-1538
856.731	-1482
856.819	-364
856.908	-1741
856.996	-1514
857.085	-1281
857.173	-955
857.262	-1345
857.350	-344
857.438	-1388
857.527	-152
857.615	-930
857.703	-919
857.792	-1803
857.880	-1137
857.968	-1675
858.056	-1030
858.145	-838
858.233	-1024
858.321	-1386
858.409	-465
858.497	-979
858.585	-1622
858.673	-515
858.761	-1610
858.849	-1457
858.937	-1188
859.025	-595
859.113	-410
859.201	-1541
859.289	-363
859.377	-1019
859.465	-1213
859.552	-714
859.640	-613
859.728	-939
859.816	-761
859.903	-600
859.991	-1649
860.079	-541
860.166	-459
860.254	-598
860.342	-1057
860.429	-811
860.517	-882
860.604	-822
860.692	-1055
860.779	-1251
860.867	-1517
860.954	-1533
861.042	-831
861.129	-861
861.216	-804
861.304	-1019
861.391	-660
861.478	-307
861.565	-600
861.653	-510
861.740	-1035
861.827	-657
861.914	-352
862.001	-594
862.089	-335
862.176	-425
862.263	-1250
862.350	-888
862.437	-1010
862.524	-981
862.611	-294
862.698	-1307
862.785	-939
862.871	-768
862.958	-1268
863.045	-1228
863.132	-1199
863.219	-1430
863.306	-1527
863.392	-459
863.479	-1685
863.566	-768
863.652	-284
863.739	-1501
863.826	-776
863.912	-1421
863.999	-1444
864.086	-1209
864.172	-1538
864.259	-1745
864.345	-1317
864.432	-1409
864.518	-1150
864.604	-323
864.691	-1226
864.777	-946
864.863	-457
864.950	-1547
865.036	-1185
865.122	-1282
865.209	-569
865.295	-1144
865.381	-767
865.467	-1451
865.553	149
865.639	-572
865.726	-812
865.812	-1379
865.898	-29
865.984	-3
866.070	1377
866.156	3521
866.242	1252
866.328	-887
866.414	-937
866.499	-1258
866.585	-1041
866.671	-1118
866.757	-1240
866.843	-1067
866.928	-771
867.014	-861
867.100	-496
867.186	-1561
867.271	-201
867.357	-1040
867.442	-471
867.528	-213
867.614	-573
867.699	-1260
867.785	-33
867.870	-853
867.956	-462
868.041	-150
868.127	-1013
868.212	-606
868.297	-528
868.383	-340
868.468	-1148
868.553	-69
868.639	-862
868.724	-412
868.809	99
868.894	-87
868.979	-795
869.065	-356
869.150	-1296
869.235	-1368
869.320	-604
869.405	-1312
869.490	-1071
869.575	-827
869.660	-946
869.745	-914
869.830	-1234
869.915	-1047
870.000	-618
870.085	-924
870.169	-1006
870.254	-593
870.339	-558
870.424	-1217
870.509	-1526
870.593	-838
870.678	-82
870.763	-1155
870.847	-367
870.932	-1183
871.016	-441
871.101	-285
871.186	-1058
871.270	-410
871.355	-883
871.439	-825
871.523	-1020
871.608	-653
871.692	-987
871.777	261
871.861	-60
871.945	-1574
872.030	-345
872.114	-1169
872.198	-1020
872.282	-859
872.367	-701
872.451	-1660
872.535	-973
872.619	-1255
872.703	-1229
872.787	-1225
872.871	-770
872.955	-1450
873.039	-1467
873.123	-879
873.207	-866
873.291	-545
873.375	-862
873.459	-1246
873.543	-1702
873.627	-1017
873.711	-1487
873.794	-913
873.878	-1074
873.962	-1435
874.045	-940
874.129	-992
874.137	-1024
874.213	-1345
874.245	-1230
874.296	-1039
874.352	-1318
874.380	-1460
874.460	-1298
874.464	-1293
874.547	-825
874.568	-862
874.631	-943
874.676	-938
874.714	-939
874.784	-425
874.798	-333
874.881	-271
874.892	-413
874.965	-1356
874.999	-1179
875.048	-959
875.107	-920
875.131	-886
875.215	-443
875.215	-443
875.298	-1632
875.323	-1376
875.381	-758
875.430	-703
875.465	-642
875.538	-1234
875.548	-1324
875.631	-1793
875.646	-1682
875.714	-1085
875.753	-1196
875.798	-1338
875.861	-932
875.881	-803
875.964	-617
875.968	-638
876.047	-930
876.076	-911
876.130	-1001
876.183	-805
876.213	-647
876.291	-579
876.296	-575
876.379	-1059
876.398	-968
876.462	-696
876.506	-1011
876.545	-1330
876.613	-810
876.628	-661
876.711	-975
876.721	-971
876.794	-971
876.828	-691
876.877	-379
876.935	-743
876.960	-847
877.043	-50
877.043	-51
877.125	-129
877.150	74
877.208	283
877.258	-242
877.291	-435
877.365	-711
877.374	-783
877.456	-573
877.472	-552
877.539	-176
877.579	-315
877.622	-530
877.687	-141
877.704	-50
877.787	-506
877.794	-509
877.869	-383
877.901	-706
877.952	-1259
878.008	-319
878.034	79
878.115	-738
878.117	-753
878.199	-594
878.222	-649
878.282	-632
878.329	-421
878.364	-274
878.437	-335
878.447	-356
878.529	-424
878.544	-401
878.611	-403
878.651	-560
878.694	-566
878.758	-271
878.776	-216
878.858	-405
878.865	-366
878.941	-73
878.972	-186
879.023	-167
879.078	-393
879.105	-516
879.185	72
879.187	84
879.269	-112
879.292	-128
879.351	-45
879.399	53
879.433	119
879.506	391
879.516	388
879.598	-636
879.613	-592
879.680	89
879.720	-50
879.762	-439
879.827	-136
879.844	-17
879.926	-36
879.933	-11
880.007	355
880.040	288
880.089	76
880.147	-81
880.171	-117
880.253	-163
880.254	-163
880.335	478
880.360	437
880.417	580
880.467	664
880.499	717
880.574	1605
880.580	1626
880.662	1155
880.680	914
880.744	82
880.787	-17
880.825	19
880.893	-314
880.907	-331
880.989	67
881.000	10
881.070	-420
881.106	-234
881.152	92
881.213	392
881.233	387
881.315	-213
881.319	-229
881.396	-26
881.426	25
881.478	170
881.532	602
881.559	610
881.639	-297
881.641	-303
881.722	212
881.745	107
881.803	-23
881.852	323
881.885	356
881.958	179
881.966	187
882.047	226
882.064	251
882.129	650
882.171	762
882.210	693
882.277	901
882.291	932
882.372	327
882.383	367
882.454	623
882.489	498
882.535	336
882.596	14
882.616	0
882.697	-23
882.702	-7
882.778	247
882.808	313
882.859	402
882.914	542
882.940	632
883.020	233
883.021	235
883.102	488
883.127	485
883.183	373
883.233	345
883.264	541
883.339	943
883.345	924
883.426	436
883.445	348
883.507	506
883.551	528
883.587	454
883.657	551
883.668	584
883.749	499
883.763	467
883.830	272
883.869	282
883.910	365
883.975	371
883.991	278
884.072	204
884.081	115
884.152	332
884.187	567
884.233	649
884.292	751
884.314	672
884.394	413
884.398	382
884.475	93
884.504	115
884.555	498
884.610	629
884.636	574
884.716	724
884.716	731
884.797	501
884.821	552
884.877	749
884.927	578
884.958	339
885.033	159
885.038	159
885.118	-362
885.139	-438
885.199	33
885.244	486
885.279	689
885.350	1077
885.359	1103
885.439	1029
885.456	1046
885.520	931
885.561	647
885.600	564
885.667	893
885.680	950
885.760	924
885.773	944
885.840	1058
885.878	1015
885.920	1220
885.984	1498
886.000	1332
886.080	512
886.089	428
886.160	720
886.195	773
886.240	883
886.300	1132
886.320	1095
886.400	738
886.406	720
886.480	859
886.511	881
886.560	1008
886.616	1221
886.640	1196
886.720	849
886.722	837
886.800	1335
886.827	1470
886.879	1332
886.932	1192
886.959	1187
887.038	1140
887.039	1146
887.119	885
887.143	859
887.198	1034
887.248	1153
887.278	1090
887.354	778
887.358	799
887.437	1191
887.459	1270
887.517	1316
887.564	1433
887.596	1251
887.669	660
887.676	672
887.755	876
887.774	897
887.835	1275
887.880	1537
887.914	1395
887.985	1080
887.994	1109
888.073	1340
888.090	1385
888.153	1556
888.195	1598
888.232	1548
888.300	1568
888.311	1509
888.391	940
888.405	828
888.470	1157
888.510	1355
888.549	1218
888.615	987
888.628	1093
888.708	1660
888.720	1744
888.787	2033
888.825	2178
888.866	1806
888.930	1223
888.945	1283
889.024	1556
889.035	1582
889.103	1583
889.140	1579
889.182	1619
889.245	1684
889.261	1716
889.340	1828
889.349	1833
889.419	1945
889.454	1984
889.498	1770
889.559	1462
889.577	1608
889.656	2223
889.664	2276
889.735	1718
889.768	1440
889.814	1566
889.873	1723
889.978	2032
890.083	1348
890.187	1487
890.292	2015
890.397	1850
890.501	1818
890.606	1908
890.710	2183
890.815	2108
890.919	1665
891.024	1217
891.128	1500
891.233	1658
891.337	1909
891.442	1145
891.546	2345
891.650	1915
891.755	1084
891.859	1975
891.963	1838
892.068	1247
892.172	1382
892.276	1335
892.380	1275
892.484	2149
892.589	1213
892.693	1797
892.797	1749
892.901	1270
893.005	1803
893.109	801
893.213	1699
893.317	755
893.421	1594
893.525	1628
893.629	1798
893.733	1710
893.837	1647
893.941	1665
894.045	925
894.148	1333
894.252	2825
894.356	4312
894.460	2381
894.564	1178
894.667	898
894.771	1582
894.875	1772
894.978	1527
895.082	1322
895.186	1354
895.289	1422
895.393	1103
895.496	2223
895.600	285
895.703	737
895.807	1510
895.910	1327
896.014	1555
896.117	1133
896.221	1302
896.324	905
896.427	1419
896.531	1496
896.634	918
896.737	1392
896.840	848
896.944	1144
897.047	1184
897.150	618
897.253	1260
897.356	1364
897.460	639
897.563	805
897.666	1054
897.769	1133
897.872	1650
897.975	1002
898.078	1200
898.181	1262
898.284	1337
898.387	1253
898.490	1102
898.593	1460
898.695	851
898.798	1326
898.901	2216
899.004	1409
899.107	593
899.209	1852
899.312	1075
899.415	1474
899.518	1065
899.620	794
899.723	1276
899.826	1831
899.928	1439
900.031	770
900.133	1518
900.236	998
900.338	456
900.441	566
900.543	138
900.646	2147
900.748	903
900.851	497
900.953	1319
901.055	1118
901.158	1501
901.260	1180
901.362	1722
901.465	1000
901.567	729
901.669	1127
901.771	1436
901.873	1215
901.976	689
902.078	968
902.180	914
902.282	1208
902.384	1376
902.486	981
902.588	483
902.690	1884
902.792	1521
902.894	1359
902.996	902
903.098	885
903.200	1071
903.302	937
903.404	1327
903.505	1109
903.607	779
903.709	951
903.811	836
903.913	523
904.014	527
904.116	1520
904.218	1799
904.319	1868
904.421	1140
904.523	877
904.624	1249
904.726	1631
904.827	838
904.929	1470
905.030	1205
905.132	1334
905.233	485
905.335	1612
905.436	1259
905.537	627
905.639	1101
905.740	1168
905.841	927
905.943	620
906.044	2042
906.145	1490
906.247	1281
906.348	1056
906.449	1019
906.550	1263
906.651	1377
906.752	990
906.854	520
906.955	937
907.056	388
907.157	221
907.258	805
907.359	1076
907.460	820
907.561	741
907.662	762
907.762	1020
907.863	338
907.964	555
908.065	649
908.166	803
908.267	725
908.367	1471
908.468	884
908.569	622
908.670	890
908.770	1362
908.871	754
908.971	1235
909.072	1508
909.173	730
909.273	-53
909.374	1223
909.474	803
909.575	830
909.675	360
909.776	144
909.876	625
909.977	388
910.077	1010
910.177	907
910.278	696
910.378	315
910.478	685
910.579	916
910.679	1112
910.779	-297
910.879	740
910.980	468
911.080	613
911.180	1045
911.280	953
911.380	874
911.480	1245
911.580	705
911.680	760
911.780	1495
911.880	624
911.980	973
912.080	212
912.180	704
912.280	-183
912.380	1294
912.480	137
912.580	797
912.679	725
912.779	1656
912.879	1358
912.979	548
913.078	607
913.178	776
913.278	809
913.377	249
913.477	1012
913.577	169
913.676	1137
913.776	856
913.875	577
913.975	1374
914.074	1102
914.174	847
914.273	532
914.373	1256
914.472	711
914.572	702
914.671	510
914.770	88
914.870	532
914.969	881
915.068	936
915.167	597
915.267	306
915.366	248
915.465	96
915.564	1306
915.663	783
915.763	956
915.862	1353
915.961	460
916.060	633
916.159	399
916.258	507
916.357	1180
916.456	1025
916.555	1146
916.654	507
916.752	866
916.851	499
916.950	1401
917.049	729
917.148	145
917.247	283
917.345	1185
917.444	738
917.543	46
917.642	354
917.740	674
917.839	684
917.937	740
918.036	756
918.135	915
918.233	488
918.332	734
918.430	372
918.529	853
918.627	223
918.726	923
918.824	532
918.923	493
919.021	614
919.119	670
919.218	-84
919.316	476
919.414	409
919.512	660
919.611	766
919.709	375
919.807	-86
919.905	402
920.003	721
920.102	384
920.200	81
920.298	745
920.396	-503
920.494	-18
920.592	-236
920.690	347
920.788	84
920.886	71
920.984	388
921.082	-28
921.180	870
921.277	504
921.375	392
921.473	814
921.571	258
921.669	476
921.766	509
921.864	102
921.962	1195
922.060	-120
922.157	-35
922.255	564
922.352	912
922.450	1762
922.548	496
922.645	547
922.743	-100
922.840	1260
922.938	1057
923.035	1123
923.133	942
923.230	1426
923.327	1010
923.425	586
923.522	1119
923.619	850
923.717	605
923.814	508
923.911	106
924.008	1738
924.106	880
924.203	1011
924.300	86
924.397	833
924.494	707
924.591	1333
924.688	775
924.786	661
924.883	685
924.979	840
925.077	1007
925.173	1243
925.270	679
925.367	817
925.464	362
925.561	1148
925.658	624
925.755	1030
925.852	824
925.948	1233
926.045	1113
926.142	1377
926.239	1651
926.335	1077
926.432	1865
926.529	1805
926.625	1717
926.722	1611
926.818	1055
926.915	816
927.011	801
927.108	13
927.204	843
927.301	248
927.397	600
927.494	1084
927.590	592
927.687	379
927.783	84
927.879	496
927.976	413
928.072	879
928.168	-444
928.264	353
928.361	689
928.457	1242
928.553	829
928.649	1350
928.745	353
928.841	550
928.937	517
929.033	569
929.129	433
929.225	324
929.321	414
929.417	-9
929.513	834
929.609	557
929.705	-293
929.801	733
929.897	1379
929.993	188
930.089	381
930.184	445
930.280	577
930.376	114
930.471	945
930.567	372
930.663	533
930.758	539
930.854	170
930.950	787
931.045	610
931.141	874
931.236	1560
931.332	957
931.427	882
931.523	536
931.618	921
931.714	-209
931.809	89
931.905	1995
932.000	611
932.095	421
932.191	897
932.286	650
932.381	14
932.476	773
932.572	701
932.667	585
932.762	394
932.857	296
932.952	413
933.047	532
933.142	646
933.237	612
933.332	292
933.427	1631
933.522	543
933.617	566
933.712	795
933.807	983
933.902	452
933.997	922
934.092	643
934.187	50
934.282	1157
934.376	755
934.471	952
934.566	448
934.661	556
934.755	1157
934.850	484
934.945	925
935.039	-457
935.134	1134
935.228	443
935.323	83
935.417	197
935.512	1511
935.606	484
935.701	574
935.795	693
935.890	1002
935.984	1133
936.079	-537
936.173	1301
936.267	164
936.362	312
936.456	812
936.550	561
936.644	777
936.738	1060
936.833	455
936.927	479
937.021	935
937.115	1427
937.209	226
937.303	1671
937.397	1156
937.491	912
937.585	718
937.679	410
937.773	725
937.867	529
937.961	376
938.055	1288
938.149	106
938.243	360
938.337	827
938.430	1546
938.524	497
938.618	1130
938.712	1371
938.805	1533
938.899	848
938.993	157
939.086	423
939.180	1071
939.274	1783
939.367	1775
939.461	1159
939.554	793
939.648	561
939.741	-11
939.835	385
939.928	710
940.022	844
940.115	782
940.208	753
940.302	899
940.395	833
940.488	449
940.582	987
940.675	1322
940.768	865
940.861	455
940.954	1104
941.048	557
941.141	1168
941.234	432
941.327	1248
941.420	2459
941.513	866
941.606	1325
941.699	1674
941.792	415
941.885	868
941.978	982
942.071	1041
942.164	908
942.257	217
942.349	-82
942.442	805
942.535	621
942.628	1088
942.721	1030
942.813	302
942.906	1289
942.999	812
943.091	757
943.184	1079
943.277	435
943.369	1313
943.462	778
943.554	524
943.647	622
943.739	807
943.832	938
943.924	483
944.017	1127
944.109	442
944.201	1339
944.294	657
944.386	1224
944.478	397
944.571	1087
944.663	722
944.755	1096
944.847	1849
944.940	1370
945.032	488
945.124	14
945.216	606
945.308	858
945.400	190
945.492	532
945.584	445
945.676	1276
945.768	1307
945.860	1093
945.952	1215
946.044	449
946.136	1122
946.228	785
946.320	1000
946.412	873
946.503	1176
946.595	47
946.687	858
946.779	1660
946.870	528
946.962	1057
947.054	2114
947.145	1046
947.237	812
947.329	987
947.420	174
947.512	747
947.603	1039
947.695	621
947.786	941
947.878	-101
947.969	595
948.061	-291
948.152	1299
948.243	1345
948.335	571
948.426	864
948.517	593
948.609	1236
948.700	975
948.791	873
948.882	1425
948.973	466
949.065	1248
949.156	891
949.247	571
949.338	268
949.429	790
949.520	1270
949.611	732
949.702	780
949.793	802
949.884	395
949.975	-324
950.066	899
950.157	1178
950.247	773
950.338	1024
950.429	36
950.520	1894
950.611	1118
950.701	1315
950.792	765
950.883	963
950.973	784
951.064	1433
951.155	1013
951.245	1273
951.336	1307
951.427	631
951.517	950
951.608	1564
951.698	777
951.788	818
951.879	276
951.969	944
952.060	928
952.150	253
952.240	1220
952.331	717
952.421	449
952.511	679
952.602	453
952.692	523
952.782	818
952.872	863
952.962	710
953.052	490
953.143	779
953.233	965
953.323	583
953.413	546
953.503	1054
953.593	501
953.683	947
953.773	282
953.863	685
953.953	935
954.042	837
954.132	805
954.222	603
954.312	453
954.402	1215
954.492	1265
954.581	1615
954.671	2940
954.761	846
954.850	1042
954.940	350
955.030	602
955.119	1189
955.209	23
955.298	488
955.388	585
955.477	1254
955.567	538
955.656	1018
955.746	922
955.835	1483
955.925	604
956.014	94
956.103	924
956.193	803
956.282	612
956.371	809
956.461	340
956.550	593
956.639	943
956.728	1018
956.817	1707
956.906	703
956.995	1106
957.085	1224
957.174	789
957.263	283
957.352	1250
957.441	1420
957.530	1092
957.619	926
957.708	1036
957.796	854
957.885	1694
957.974	1069
958.063	919
958.152	846
958.241	1084
958.329	784
958.418	1527
958.507	1262
958.596	1254
958.684	1315
958.773	1688
958.861	1637
958.950	1870
959.039	1772
959.127	1898
959.216	1586
959.304	1900
959.393	1554
959.481	1959
959.570	2027
959.658	1824
959.746	2117
959.835	2078
959.923	2792
960.011	2969
960.100	1503
960.188	1377
960.276	880
960.365	1253
960.453	703
960.541	652
960.629	945
960.717	652
960.805	830
960.893	1147
960.981	851
961.069	1445
961.158	501
961.245	1398
961.333	313
961.421	795
961.509	470
961.597	980
961.685	637
961.773	1147
961.861	971
961.949	1282
962.036	726
962.124	311
962.212	504
962.299	710
962.387	33
962.475	-8
962.562	553
962.650	671
962.738	783
962.825	230
962.913	358
963.000	253
963.088	-481
963.175	363
963.263	821
963.350	672
963.438	1033
963.525	897
963.612	639
963.700	2829
963.787	8312
963.874	10731
963.962	2676
964.049	1128
964.136	469
964.223	-246
964.310	301
964.398	474
964.485	-414
964.572	802
964.659	342
964.746	2035
964.833	1096
964.920	-400
965.007	58
965.094	61
965.181	-439
965.268	475
965.355	277
965.441	130
965.528	-490
965.615	430
965.702	70
965.789	-450
965.875	-246
965.962	312
966.049	65
966.136	912
966.222	-2
966.309	1241
966.395	-685
966.482	-421
966.569	-471
966.655	339
966.742	-69
966.828	-340
966.915	494
967.001	157
967.087	-656
967.174	371
967.260	679
967.347	101
967.433	1632
967.519	5159
967.605	4883
967.692	1222
967.778	43
967.864	262
967.950	244
968.036	-952
968.123	173
968.209	-934
968.295	-1120
968.381	201
968.467	23
968.553	-386
968.639	-83
968.725	541
968.811	502
968.897	598
968.983	141
969.069	-601
969.154	479
969.240	-105
969.326	-902
969.412	-510
969.497	49
969.583	-918
969.669	-541
969.755	-719
969.840	-545
969.926	-591
970.012	-178
970.097	-422
970.183	161
970.268	-14
970.354	214
970.439	234
970.525	2889
970.610	2576
970.696	591
970.781	-653
970.866	-1075
970.952	-145
971.037	-746
971.122	-1114
971.208	82
971.293	-339
971.378	-1467
971.463	-708
971.549	44
971.634	-572
971.719	-728
971.804	-98
971.889	-290
971.974	-185
972.059	-725
972.144	-466
972.229	-767
972.314	-383
972.399	-1156
972.484	-1078
972.569	-380
972.654	-6
972.739	1520
972.824	2274
972.908	1108
972.993	-1017
973.078	-866
973.163	341
973.247	-978
973.332	-1446
973.417	-238
973.501	-91
973.586	-871
973.671	-746
973.755	-659
973.840	-1013
973.924	-368
974.009	-706
974.093	-1191
974.178	38
974.262	291
974.346	1157
974.431	256
974.515	-804
974.600	-767
974.684	22
974.768	-1035
974.852	195
974.937	-857
975.021	-825
975.105	-520
975.189	-864
975.273	-644
975.358	-1193
975.442	-704
975.526	-628
975.610	-1093
975.694	-1206
975.778	-589
975.862	-795
975.946	-901
976.030	-1070
976.114	-886
976.198	-344
976.281	-1251
976.365	-827
976.449	-1251
976.533	-914
976.617	-1098
976.700	-562
976.784	-1334
976.868	-898
976.951	-182
977.035	949
977.119	-1148
977.202	-643
977.286	-787
977.369	-264
977.453	-1193
977.536	-1496
977.620	-1490
977.703	-518
977.787	-1554
977.870	-441
977.953	-554
978.037	-993
978.120	-948
978.203	-201
978.287	154
978.370	617
978.453	-1106
978.536	-319
978.620	-515
978.703	-730
978.786	-619
978.869	-1005
978.952	-1421
979.035	-703
979.118	-1029
979.201	-1522
979.284	-841
979.367	-817
979.450	-771
979.533	-971
979.616	-1843
979.699	-1491
979.782	-1821
979.865	-661
979.948	-1256
980.030	-1607
980.113	-868
980.196	-1271
980.279	-496
980.361	-1511
980.444	-993
980.526	-1390
980.609	-1881
980.692	-1078
980.774	-518
980.857	-836
980.939	-1771
981.022	-1541
981.104	-1505
981.187	-704
981.269	-1434
981.352	-842
981.434	-2039
981.516	-1640
981.599	-515
981.681	-1262
981.763	-1270
981.846	-1452
981.928	-804
982.010	-1735
982.092	-1682
982.174	-755
982.256	-1153
982.339	-1054
982.421	-1523
982.503	-1697
982.585	-1823
982.667	-1023
982.749	-1416
982.831	-935
982.913	-1406
982.995	41
983.077	-828
983.158	-327
983.240	-994
983.322	-1098
983.404	-1646
983.486	-1581
983.568	-1161
983.649	-1693
983.731	-831
983.813	-1897
983.894	-857
983.976	-1027
984.058	-1287
984.139	-516
984.221	-1047
984.302	-1992
984.384	-942
984.465	-1388
984.547	-850
984.628	-1248
984.710	-808
984.791	-1419
984.872	-1846
984.954	-1621
985.035	-1372
985.116	-1362
985.198	-1218
985.279	-409
985.360	-1590
985.441	-1431
985.522	-1015
985.604	-1492
985.685	-2411
985.766	-206
985.847	-961
985.928	-1617
986.009	-1197
986.090	-777
986.171	-907
986.252	-969
986.333	-541
986.414	-608
986.495	-1413
986.576	-1073
986.656	-1367
986.737	-831
986.818	-898
986.899	-1656
986.980	-1870
987.060	-551
987.141	-1959
987.222	-1543
987.302	-1879
987.383	-870
987.464	-1387
987.544	-603
987.625	-2032
987.705	-746
987.786	-1502
987.866	-1028
987.947	-1009
988.027	-1276
988.108	-1321
988.188	-1133
988.268	-1481
988.349	-996
988.429	-1988
988.509	-1056
988.589	-1680
988.670	-2403
988.750	-716
988.830	-815
988.910	-1582
988.990	-1227
989.070	-1233
989.151	-1031
989.231	-1359
989.311	-1082
989.391	-1037
989.471	-1627
989.551	-1084
989.631	-1286
989.711	-1262
989.791	-998
989.870	-1176
989.950	-1818
990.030	-1318
990.110	-1219
990.190	-1858
990.269	-1011
990.349	-2019
990.429	-1637
990.509	-911
990.588	-1473
990.668	-924
990.747	-1961
990.827	-845
990.907	-2025
990.986	-1289
991.066	-759
991.145	-1451
991.225	-1178
991.304	-1393
991.383	-427
991.463	-954
991.542	-812
991.622	-1683
991.701	-1308
991.780	-1127
991.859	-1367
991.939	-1225
992.018	-879
992.097	-1105
992.176	-1063
992.256	-715
992.335	-1332
992.414	-1158
992.493	-924
992.572	-717
992.651	-1135
992.730	-899
992.809	-1386
992.888	-1611
992.967	-977
993.046	-857
993.125	-1888
993.203	-1647
993.282	-1079
993.361	-1381
993.440	-1288
993.519	-1914
993.597	-1724
993.676	-2096
993.755	-626
993.834	-943
993.912	-1644
993.991	-1405
994.069	-1611
994.148	-2090
994.226	-1635
994.305	-2110
994.384	-1793
994.462	-768
994.540	-1763
994.619	-1763
994.697	-538
994.776	-1528
994.854	-1361
994.932	-2411
995.011	-1756
995.089	-1324
995.167	-1277
995.245	-1930
995.324	-1911
995.402	-919
995.480	-1730
995.558	-564
995.636	-1474
995.714	-1854
995.792	-982
995.870	-1211
995.948	-896
996.026	-1492
996.104	-2179
996.182	-998
996.260	-1857
996.338	-1607
996.416	-1568
996.494	-1694
996.572	-1108
996.649	-1590
996.727	-2068
996.805	-1418
996.883	-1426
996.960	-1629
997.038	-1333
997.116	-1095
997.193	-1936
997.271	-1606
997.348	-1947
997.426	-1825
997.504	-1684
997.581	-896
997.658	-1262
997.736	-1189
997.813	-1360
997.891	-729
997.968	-1467
998.046	-1177
998.123	-1504
998.200	-1084
998.277	-2283
998.355	-1283
998.432	-1602
998.509	-1005
998.586	-750
998.663	-1582
998.741	-1817
998.818	-2140
998.895	-1763
998.972	-1634
999.049	-970
999.126	-2448
999.203	-1646
999.280	-1272
999.357	-2123
999.434	-2302
999.511	-1284
999.587	-1676
999.664	-1062
999.741	-1202
999.818	-2061
999.895	-1832
999.971	-1276
1000.048	-1386
1000.125	-1680
1000.202	-1297
1000.278	-1633
1000.355	-1733
1000.431	-1690
1000.508	-1621
1000.584	-1099
1000.661	-822
1000.738	-1772
1000.814	-1204
1000.890	-854
1000.967	-2479
1001.043	-1861
1001.120	-2401
1001.196	-2446
1001.272	-1762
1001.349	-816
1001.425	-1241
1001.501	-2265
1001.577	-2495
1001.654	-1296
1001.730	-1406
1001.806	-1888
1001.882	-1822
1001.958	-1281
1002.034	-1866
1002.110	-1309
1002.186	-1411
1002.262	-1398
1002.338	-1931
1002.414	-1649
1002.490	-1800
1002.566	-1676
1002.642	-2394
1002.718	-979
1002.794	-950
1002.870	-1587
1002.945	-1668
1003.021	-1537
1003.097	-1540
1003.173	-1031
1003.248	-768
1003.324	-2641
1003.400	-598
1003.475	-1655
1003.551	-1315
1003.626	-1877
1003.702	-1861
1003.777	-1769
1003.853	-1613
1003.928	-1292
1004.004	-2101
1004.079	-1328
1004.155	-2257
1004.230	-1631
1004.305	-1520
1004.381	-1933
1004.456	-955
1004.531	-1053
1004.607	-998
1004.682	-2121
1004.757	-1582
1004.832	-2051
1004.907	-2106
1004.982	-1673
1005.057	-2068
1005.133	-1747
1005.208	-1479
1005.283	-1711
1005.358	-1227
1005.433	-2358
1005.508	-1487
1005.583	-2701
1005.657	-2291
1005.732	-1351
1005.807	-1606
1005.882	-1440
1005.957	-1813
1006.032	-1064
1006.106	-1373
1006.181	-1623
1006.256	-1570
1006.331	-1844
1006.405	-2272
1006.480	-1899
1006.554	-1550
1006.629	-841
1006.704	-2304
1006.778	-1927
1006.853	-1623
1006.927	-1091
1007.002	-1731
1007.076	-1627
1007.150	-2011
1007.225	-1944
1007.299	-2052
1007.373	-1420
1007.448	-1678
1007.522	-775
1007.596	-1417
1007.671	-1426
1007.745	-1488
1007.819	-1952
1007.893	-1889
1007.967	-1065
1008.041	-2306
1008.115	-1253
1008.190	-2031
1008.264	-1735
1008.338	-1898
1008.412	-2111
1008.486	-1551
1008.560	-1539
1008.633	-1691
1008.707	-1550
1008.781	-1441
1008.855	-871
1008.929	-1560
1009.003	-933
1009.076	-1889
1009.150	-1105
1009.224	-2168
1009.298	-904
1009.371	-2530
1009.445	-1531
1009.519	-1774
1009.592	-1691
1009.666	-1659
1009.739	-2040
1009.813	-2019
1009.886	-613
1009.960	-2466
1010.033	-1302
1010.107	-791
1010.180	-1747
1010.253	-1795
1010.327	-1059
1010.400	-1731
1010.473	-2104
1010.547	-927
1010.620	-2228
1010.693	-1725
1010.766	-1949
1010.840	-1036
1010.913	-1511
1010.986	-1890
1011.059	-1679
1011.132	-2093
1011.205	-1135
1011.278	-2473
1011.351	-2806
1011.424	-2181
1011.497	-1974
1011.570	-2013
1011.643	-2847
1011.716	-1897
1011.789	-1393
1011.862	-1680
1011.934	-2498
1012.007	-2745
1012.080	-1307
1012.153	-1989
1012.225	-1605
1012.298	-2432
1012.371	-2156
1012.443	-1367
1012.516	-1920
1012.588	-1718
1012.661	-1029
1012.733	-2543
1012.806	-2017
1012.879	-1939
1012.951	-2287
1013.023	-2051
1013.096	-1653
1013.168	-1946
1013.241	-1726
1013.313	-2116
1013.385	-1908
1013.458	-1652
1013.530	-1677
1013.602	-2427
1013.674	-1869
1013.746	-2912
1013.819	-1542
1013.891	-1516
1013.963	-1063
1014.035	-1933
1014.107	-1926
1014.179	-1343
1014.251	-2152
1014.323	-1450
1014.395	-1955
1014.467	-1991
1014.539	-736
1014.611	-1581
1014.683	-1632
1014.754	-1404
1014.826	-1789
1014.898	-1072
1014.970	-2674
1015.042	-2349
1015.113	-1937
1015.185	-2120
1015.257	-2731
1015.328	-1692
1015.400	-2581
1015.471	-1552
1015.543	-1949
1015.615	-2228
1015.686	-1038
1015.757	-1423
1015.829	-1955
1015.901	-1969
1015.972	-2128
1016.043	-1558
1016.115	-1628
1016.186	-2571
1016.257	-2079
1016.328	-2475
1016.400	-1044
1016.471	-2767
1016.542	-1206
1016.613	-2109
1016.685	-1949
1016.756	-1941
1016.827	-1850
1016.898	-1860
1016.969	-1937
1017.040	-1206
1017.111	-1827
1017.182	-2164
1017.253	-2118
1017.324	-1631
1017.395	-1805
1017.466	-1632
1017.537	-2439
1017.608	-2120
1017.678	-1767
1017.749	-1714
1017.820	-2409
1017.891	-2526
1017.961	-2297
1018.032	-1861
1018.103	-1593
1018.173	-1446
1018.244	-1794
1018.315	-1618
1018.385	-1477
1018.456	-2964
1018.526	-2188
1018.597	-2187
1018.667	-1613
1018.738	-1792
1018.808	-1248
1018.878	-2021
1018.949	-1431
1019.019	-1723
1019.089	-1244
1019.160	-1812
1019.230	-2655
1019.300	-2504
1019.371	-2483
1019.441	-874
1019.511	-1403
1019.581	-2003
1019.651	-1495
1019.721	-1974
1019.791	-1455
1019.861	-2526
1019.931	-2641
1020.001	-2329
1020.071	-1834
1020.141	-2317
1020.211	-1775
1020.281	-2045
1020.351	-1823
1020.421	-1903
1020.491	-1603
1020.560	-1898
1020.630	-2461
1020.700	-1984
1020.770	-2308
1020.839	-1967
1020.909	-1897
1020.979	-1778
1021.048	-2597
1021.118	-2985
1021.187	-1783
1021.257	-2464
1021.326	-1510
1021.396	-1776
1021.465	-1429
1021.535	-1587
1021.604	-1960
1021.674	-2731
1021.743	-1820
1021.812	-2008
1021.882	-1744
1021.951	-2185
1022.020	-2090
1022.089	-2014
1022.159	-2130
1022.228	-1332
1022.297	-1774
1022.366	-1673
1022.435	-1711
1022.504	-2405
1022.573	-2894
1022.642	-2269
1022.711	-2225
1022.781	-1578
1022.849	-1651
1022.918	-1778
1022.987	-2501
1023.056	-2086
1023.125	-2426
1023.194	-1935
1023.263	-2019
1023.331	-1841
1023.400	-2057
1023.469	-3056
1023.538	-2190
1023.606	-2543
1023.675	-1967
1023.744	-2427
1023.812	-2400
1023.881	-2590
1023.949	-2477
1024.018	-2648
1024.086	-2331
1024.155	-1841
1024.223	-3074
1024.292	-2341
1024.360	-1828
1024.429	-1652
1024.497	-1901
1024.565	-2284
1024.634	-1608
1024.702	-2659
1024.770	-1643
1024.838	-3022
1024.907	-2192
1024.975	-1800
1025.043	-2285
1025.111	-2689
1025.179	-2183
1025.247	-2346
1025.315	-2569
1025.383	-2322
1025.451	-1732
1025.519	-2761
1025.587	-2781
1025.655	-1947
1025.723	-2142
1025.791	-2559
1025.859	-1311
1025.927	-2105
1025.995	-2612
1026.062	-2047
1026.130	-2260
1026.198	-2309
1026.266	-2185
1026.333	-2753
1026.401	-1267
1026.469	-2620
1026.536	-2347
1026.604	-2730
1026.671	-2237
1026.739	-2168
1026.806	-2360
1026.874	-2484
1026.941	-2062
1027.009	-2745
1027.076	-2407
1027.144	-1728
1027.211	-2063
1027.278	-2303
1027.345	-2482
1027.413	-2642
1027.480	-1781
1027.547	-2057
1027.614	-2887
1027.682	-2130
1027.749	-2234
1027.816	-1988
1027.883	-2354
1027.950	-1676
1028.017	-3808
1028.084	-1784
1028.151	-2159
1028.218	-2074
1028.285	-1908
1028.352	-1720
1028.419	-2520
1028.486	-2472
1028.553	-2551
1028.619	-2239
1028.686	-3058
1028.753	-2067
1028.820	-2264
1028.886	-3058
1028.953	-2584
1029.020	-2080
1029.086	-2073
1029.153	-2892
1029.220	-3463
1029.286	-2464
1029.353	-2490
1029.419	-2171
1029.486	-2990
1029.552	-2999
1029.619	-2485
1029.685	-2369
1029.751	-2288
1029.818	-2076
1029.884	-2994
1029.951	-2479
1030.017	-2963
1030.083	-2406
1030.149	-1480
1030.216	-2915
1030.282	-3015
1030.348	-2589
1030.414	-2539
1030.480	-1903
1030.546	-2621
1030.612	-2777
1030.678	-2507
1030.744	-3190
1030.810	-2700
1030.876	-2635
1030.942	-2568
1031.008	-2380
1031.074	-2676
1031.140	-2806
1031.206	-2547
1031.272	-2450
1031.337	-2775
1031.403	-1780
1031.469	-1999
1031.534	-2955
1031.600	-2039
1031.666	-3513
1031.731	-3045
1031.797	-2812
1031.863	-1994
1031.928	-3021
1031.994	-2542
1032.059	-2583
1032.125	-3032
1032.190	-2670
1032.256	-2475
1032.321	-2435
1032.386	-2348
1032.452	-2345
1032.517	-1829
1032.582	-2997
1032.647	-2745
1032.713	-2195
1032.778	-1571
1032.843	-2842
1032.908	-2635
1032.974	-2805
1033.039	-3071
1033.104	-2259
1033.169	-2496
1033.234	-2524
1033.299	-2467
1033.364	-2659
1033.429	-2840
1033.494	-2918
1033.559	-2953
1033.624	-2135
1033.688	-2358
1033.753	-2582
1033.818	-2366
1033.883	-3307
1033.948	-2084
1034.013	-2306
1034.077	-2812
1034.142	-2027
1034.207	-2660
1034.271	-2318
1034.336	-2126
1034.400	-2387
1034.465	-2809
1034.530	-1937
1034.594	-1507
1034.658	-2330
1034.723	-3222
1034.787	-2426
1034.852	-2250
1034.916	-3596
1034.981	-2808
1035.045	-2024
1035.109	-1918
1035.173	-3276
1035.238	-1827
1035.302	-2878
1035.366	-3008
1035.430	-2621
1035.495	-2875
1035.559	-3016
1035.623	-1950
1035.687	-2017
1035.751	-2843
1035.815	-3108
1035.879	-2893
1035.943	-2776
1036.007	-3122
1036.071	-1896
1036.135	-2977
1036.198	-2586
1036.262	-2728
1036.326	-3095
1036.390	-2776
1036.454	-2263
1036.517	-2066
1036.581	-2779
1036.645	-1949
1036.709	-2819
1036.772	-2986
1036.836	-2667
1036.900	-1961
1036.963	-2925
1037.026	-1853
1037.090	-2463
1037.154	-2217
1037.217	-2405
1037.280	-2480
1037.344	-2352
1037.407	-3138
1037.471	-2380
1037.534	-2425
1037.597	-2805
1037.661	-2790
1037.724	-2277
1037.787	-2320
1037.850	-2680
1037.913	-1821
1037.977	-2766
1038.040	-2334
1038.103	-2748
1038.166	-1967
1038.229	-2643
1038.292	-2370
1038.355	-2050
1038.418	-3486
1038.481	-1841
1038.544	-3434
1038.607	-1889
1038.670	-1961
1038.732	-3292
1038.795	-2025
1038.858	-2693
1038.921	-2171
1038.984	-1746
1039.046	-2268
1039.109	-2117
1039.172	-2917
1039.234	-2547
1039.297	-2066
1039.360	-1621
1039.422	-2310
1039.485	-2498
1039.547	-2689
1039.610	-2564
1039.672	-2612
1039.734	-2778
1039.797	-2363
1039.859	-2732
1039.922	-2932
1039.984	-2626
1040.046	-2890
1040.109	-2205
1040.171	-2182
1040.233	-2135
1040.295	-2251
1040.358	-3128
1040.420	-2185
1040.482	-1977
1040.544	-3129
1040.606	-1962
1040.668	-2651
1040.730	-2957
1040.792	-2085
1040.854	-2603
1040.916	-2302
1040.978	-2807
1041.040	-1988
1041.102	-2348
1041.164	-2205
1041.225	-1821
1041.287	-2536
1041.349	-1542
1041.411	-2486
1041.472	-2472
1041.534	-2048
1041.596	-2312
1041.657	-2024
1041.719	-2445
1041.781	-1982
1041.842	-2559
1041.904	-3227
1041.965	-2522
1042.027	-2242
1042.088	-1581
1042.150	-2581
1042.211	-2645
1042.272	-1733
1042.334	-2719
1042.395	-2031
1042.456	-1733
1042.518	-2176
1042.579	-2186
1042.640	-2030
1042.701	-2414
1042.763	-2935
1042.824	-3015
1042.885	-2272
1042.946	-1557
1043.007	-1966
1043.068	-1810
1043.129	-2598
1043.190	-2400
1043.251	-1720
1043.312	-2937
1043.373	-1805
1043.434	-2707
1043.495	-2377
1043.556	-2144
1043.616	-2306
1043.677	-2493
1043.738	-2248
1043.799	-2955
1043.859	-2285
1043.920	-3006
1043.981	-1421
1044.041	-2599
1044.102	-2295
1044.162	-1898
1044.223	-2924
1044.284	-1709
1044.344	-2449
1044.405	-1907
1044.465	-1997
1044.525	-1827
1044.586	-2762
1044.646	-1426
1044.707	-1779
1044.767	-1648
1044.827	-1802
1044.887	-1658
1044.948	-2353
1045.008	-2391
1045.068	-1534
1045.128	-1822
1045.188	-2322
1045.249	-2081
1045.309	-2644
1045.369	-1405
1045.429	-2257
1045.489	-1496
1045.549	-1673
1045.609	-1275
1045.669	-2139
1045.729	-2150
1045.789	-1702
1045.848	-1933
1045.908	-1227
1045.968	-1112
1046.028	-1588
1046.088	-691
1046.147	-1632
1046.207	-2110
1046.267	-2247
1046.326	-2112
1046.386	-1884
1046.446	-1082
1046.505	-805
1046.565	-1156
1046.624	-1154
1046.684	-1114
1046.743	-396
1046.803	-469
1046.862	-212
1046.922	0
