'Start Wavelength	183.907
'End Wavelength	1046.922
'Gate Delay	5.000
'Gate Width (ms)	1.050
'Laser Output Level	0.000
'X Position	0.000
'Y Position	0.000
'Z Position	0.000
'Grid Point Number	1.000
'Shot Number	100.000
183.907	-73.000
183.977	145.000
184.047	363
184.116	445
184.186	1136
184.256	99
184.325	451
184.395	200
184.465	270
184.534	289
184.604	-133
184.674	289
184.743	419
184.813	-5
184.883	282
184.952	407
185.022	200
185.092	566
185.161	-81
185.231	746
185.301	-69
185.370	-49
185.440	-70
185.509	54
185.579	-217
185.649	20
185.718	-102
185.788	916
185.857	51
185.927	406
185.996	40
186.066	292
186.136	526
186.205	921
186.275	-697
186.344	-138
186.414	560
186.483	-412
186.553	630
186.622	100
186.692	573
186.761	218
186.831	192
186.900	-574
186.970	375
187.039	761
187.109	673
187.178	288
187.248	271
187.317	299
187.387	34
187.456	172
187.526	463
187.595	-207
187.664	293
187.734	953
187.803	590
187.873	-216
187.942	530
188.012	121
188.081	249
188.150	0
188.220	740
188.289	472
188.358	561
188.428	461
188.497	116
188.567	407
188.636	-278
188.705	431
188.775	719
188.844	666
188.913	-163
188.983	581
189.052	581
189.121	231
189.191	-318
189.260	928
189.329	-14
189.399	-107
189.468	64
189.537	337
189.606	-150
189.676	180
189.745	454
189.814	619
189.883	120
189.953	67
190.022	149
190.091	768
190.161	528
190.230	817
190.299	287
190.368	522
190.437	-339
190.507	346
190.576	606
190.645	390
190.714	-192
190.783	813
190.853	-12
190.922	255
190.991	-753
191.060	923
191.129	1126
191.198	244
191.268	-312
191.337	767
191.406	41
191.475	761
191.544	339
191.613	848
191.682	68
191.752	816
191.821	824
191.890	554
191.959	-161
192.028	151
192.097	-79
192.166	389
192.235	-5
192.304	857
192.373	-227
192.442	-31
192.511	-119
192.580	329
192.650	864
192.719	805
192.788	574
192.857	-189
192.926	-4
192.995	319
193.064	691
193.133	745
193.202	890
193.271	197
193.340	837
193.409	636
193.478	1102
193.547	1035
193.615	872
193.684	1206
193.753	627
193.822	708
193.891	-89
193.960	846
194.029	527
194.098	364
194.167	398
194.236	662
194.305	-296
194.374	385
194.443	104
194.512	675
194.580	313
194.649	595
194.718	-178
194.787	584
194.856	-123
194.925	928
194.994	252
195.062	488
195.131	57
195.200	260
195.269	475
195.338	238
195.407	880
195.475	835
195.544	-310
195.613	39
195.682	-151
195.751	513
195.819	719
195.888	207
195.957	607
196.026	1129
196.094	361
196.163	301
196.232	912
196.301	475
196.369	825
196.438	442
196.507	715
196.576	-175
196.644	102
196.713	106
196.782	108
196.850	465
196.919	-157
196.988	-248
197.056	881
197.125	129
197.194	-241
197.262	441
197.331	459
197.400	1008
197.468	83
197.537	752
197.606	401
197.674	1144
197.743	686
197.812	730
197.880	977
197.949	264
198.017	-153
198.086	428
198.155	597
198.223	807
198.292	486
198.360	875
198.429	-276
198.497	380
198.566	723
198.635	584
198.703	308
198.772	420
198.840	1153
198.909	843
198.977	137
199.046	153
199.114	812
199.183	559
199.251	657
199.320	507
199.388	116
199.457	-8
199.525	586
199.594	795
199.662	-210
199.731	200
199.799	233
199.867	896
199.936	1004
200.004	1256
200.073	1019
200.141	862
200.210	23
200.278	-105
200.346	414
200.415	945
200.483	-118
200.552	456
200.620	544
200.688	582
200.757	349
200.825	971
200.893	668
200.962	527
201.030	756
201.098	651
201.167	1285
201.235	532
201.303	127
201.372	1076
201.440	813
201.508	581
201.577	-180
201.645	98
201.713	500
201.781	632
201.850	299
201.918	-32
201.986	142
202.055	1134
202.123	322
202.191	1128
202.259	132
202.327	211
202.396	701
202.464	688
202.532	706
202.600	705
202.669	493
202.737	428
202.805	-271
202.873	943
202.941	640
203.009	130
203.078	-605
203.146	815
203.214	60
203.282	-34
203.350	196
203.418	422
203.487	359
203.555	827
203.623	213
203.691	752
203.759	671
203.827	749
203.895	860
203.963	620
204.031	264
204.099	1166
204.168	304
204.236	916
204.304	1131
204.372	770
204.440	581
204.508	251
204.576	263
204.644	-59
204.712	121
204.780	61
204.848	622
204.916	568
204.984	514
205.052	1037
205.120	848
205.188	421
205.256	403
205.324	748
205.392	495
205.460	639
205.528	552
205.596	636
205.664	343
205.732	242
205.799	1686
205.867	838
205.935	970
206.003	1168
206.071	234
206.139	190
206.207	821
206.275	634
206.343	930
206.411	391
206.478	804
206.546	1473
206.614	675
206.682	883
206.750	767
206.818	656
206.885	1031
206.953	110
207.021	13
207.089	1029
207.157	-23
207.225	1310
207.292	845
207.360	169
207.428	295
207.496	462
207.563	995
207.631	496
207.699	262
207.767	380
207.834	425
207.902	372
207.970	443
208.038	1027
208.105	671
208.173	1173
208.241	605
208.309	1771
208.376	775
208.444	1141
208.512	302
208.579	776
208.647	1062
208.715	815
208.782	215
208.850	946
208.918	1024
208.985	753
209.053	879
209.120	285
209.188	1193
209.256	1027
209.323	420
209.391	1314
209.459	1628
209.526	516
209.594	828
209.661	1034
209.729	677
209.796	1234
209.864	931
209.932	1152
209.999	1238
210.067	1023
210.134	1552
210.202	1247
210.269	916
210.337	1252
210.404	1214
210.472	700
210.539	1002
210.607	1169
210.674	611
210.742	862
210.809	1288
210.877	1045
210.944	1220
211.012	974
211.079	1527
211.146	1218
211.214	710
211.281	1246
211.349	1254
211.416	879
211.484	1519
211.551	334
211.618	843
211.686	867
211.753	636
211.821	1510
211.888	-192
211.955	440
212.023	1189
212.090	1083
212.157	598
212.225	494
212.292	2082
212.359	1964
212.427	4105
212.494	1904
212.561	1295
212.629	1074
212.696	1343
212.763	951
212.831	1351
212.898	1257
212.965	654
213.032	1248
213.100	385
213.167	1782
213.234	755
213.301	1947
213.369	1170
213.436	982
213.503	552
213.570	1557
213.638	1059
213.705	741
213.772	480
213.839	810
213.906	810
213.973	1566
214.041	828
214.108	1343
214.175	1676
214.242	706
214.309	394
214.376	1136
214.444	1792
214.511	1369
214.578	883
214.645	1136
214.712	940
214.779	1844
214.846	751
214.913	1679
214.980	1202
215.048	1657
215.115	1236
215.182	947
215.249	1026
215.316	737
215.383	1454
215.450	1142
215.517	1187
215.584	1467
215.651	635
215.718	1006
215.785	944
215.852	666
215.919	1993
215.986	1905
216.053	1706
216.120	1346
216.187	470
216.254	1325
216.321	896
216.388	927
216.455	541
216.522	1392
216.589	1166
216.656	1445
216.722	1850
216.789	1669
216.856	1476
216.923	1554
216.990	2063
217.057	1531
217.124	1568
217.191	2385
217.258	2438
217.324	2477
217.391	2644
217.458	1803
217.525	1225
217.592	1447
217.659	1004
217.725	1773
217.792	1343
217.859	1335
217.926	891
217.993	1170
218.059	1392
218.126	1066
218.193	741
218.260	917
218.327	750
218.393	726
218.460	1029
218.527	59
218.594	705
218.660	1264
218.727	1566
218.794	445
218.860	580
218.927	1587
218.994	1025
219.061	1531
219.127	938
219.194	1944
219.261	1415
219.327	917
219.394	823
219.461	265
219.527	768
219.594	1283
219.661	1260
219.727	965
219.794	1173
219.860	1077
219.927	1721
219.994	1617
220.060	1492
220.127	1741
220.193	2076
220.260	1626
220.326	2459
220.393	3895
220.460	4779
220.526	2953
220.593	2554
220.659	2433
220.726	2417
220.792	4295
220.859	4134
220.925	6460
220.992	7140
221.058	5722
221.125	4604
221.191	3021
221.258	2057
221.324	1057
221.391	1809
221.457	1652
221.524	1564
221.590	1152
221.657	3744
221.723	2480
221.789	2619
221.856	2149
221.922	1910
221.989	1394
222.055	664
222.121	1278
222.188	1985
222.254	1799
222.321	226
222.387	931
222.453	612
222.520	950
222.586	887
222.652	1291
222.719	1114
222.785	847
222.851	1069
222.918	565
222.984	1080
223.050	1449
223.116	201
223.183	1138
223.249	612
223.315	1125
223.382	1103
223.448	685
223.514	1040
223.580	258
223.647	444
223.713	1485
223.779	227
223.845	528
223.911	836
223.978	694
224.044	557
224.110	547
224.176	667
224.242	204
224.309	1141
224.375	1391
224.441	494
224.507	922
224.573	799
224.639	876
224.705	882
224.772	346
224.838	440
224.904	853
224.970	136
225.036	751
225.102	454
225.168	1209
225.234	570
225.300	814
225.366	978
225.432	903
225.499	728
225.565	1011
225.631	1002
225.697	1739
225.763	1265
225.829	1938
225.895	1869
225.961	2323
226.027	2201
226.093	1346
226.159	2455
226.225	4515
226.291	7731
226.357	9187
226.423	5169
226.489	3317
226.554	1784
226.620	2053
226.686	2454
226.752	4492
226.818	6886
226.884	11989
226.950	9357
227.016	5169
227.082	2816
227.148	2699
227.214	2205
227.279	1852
227.345	933
227.411	1030
227.477	1934
227.543	1025
227.609	2209
227.674	1634
227.740	1758
227.806	1132
227.872	1195
227.938	1322
228.003	2204
228.069	1088
228.135	1588
228.201	1174
228.267	1036
228.332	277
228.398	970
228.464	877
228.530	446
228.595	854
228.661	655
228.727	1120
228.792	669
228.858	769
228.924	-175
228.990	872
229.055	942
229.121	1968
229.187	356
229.252	503
229.318	890
229.384	556
229.449	1015
229.515	-109
229.581	-267
229.646	1672
229.712	751
229.777	1271
229.843	973
229.909	1617
229.974	2560
230.040	1748
230.105	1395
230.171	1808
230.236	2406
230.302	2826
230.368	1868
230.433	1459
230.499	1104
230.564	2481
230.630	611
230.695	875
230.761	1623
230.826	742
230.892	2569
230.957	1413
231.023	1182
231.088	725
231.154	133
231.219	1022
231.284	2320
231.350	1398
231.415	370
231.481	1409
231.546	621
231.612	482
231.677	1159
231.742	973
231.808	1055
231.873	1007
231.939	-345
232.004	1751
232.069	1119
232.135	1931
232.200	945
232.265	603
232.331	561
232.396	1196
232.461	997
232.527	938
232.592	387
232.657	996
232.723	1016
232.788	327
232.853	1317
232.918	-167
232.984	200
233.049	954
233.114	1441
233.179	68
233.245	548
233.310	1106
233.375	-375
233.440	764
233.506	661
233.571	880
233.636	543
233.701	1202
233.766	471
233.832	1143
233.897	83
233.962	191
234.027	800
234.092	209
234.157	745
234.222	662
234.288	416
234.353	2235
234.418	1894
234.483	2295
234.548	1349
234.613	1294
234.678	1683
234.743	1485
234.808	3146
234.873	814
234.938	1046
235.004	1635
235.069	1178
235.134	913
235.199	1610
235.264	1812
235.329	986
235.394	1896
235.459	1148
235.524	838
235.589	919
235.654	1520
235.719	302
235.784	680
235.849	1151
235.913	1665
235.978	1023
236.043	1614
236.108	441
236.173	818
236.238	1209
236.303	921
236.368	1246
236.433	1571
236.498	2011
236.563	3081
236.627	6902
236.692	15812
236.757	10160
236.822	4740
236.887	2269
236.952	3036
237.017	2270
237.081	3004
237.146	4401
237.211	9825
237.276	16800
237.341	18135
237.405	9448
237.470	4477
237.535	2759
237.600	2655
237.664	2038
237.729	1726
237.794	3003
237.859	5030
237.923	2487
237.988	1599
238.053	1410
238.118	1219
238.182	3510
238.247	2448
238.312	1224
238.376	1756
238.441	1431
238.506	1727
238.570	270
238.635	1233
238.700	1483
238.764	1218
238.829	1532
238.893	1813
238.958	1881
239.023	1419
239.087	516
239.152	1355
239.216	377
239.281	1612
239.346	-64
239.410	128
239.475	609
239.539	3208
239.604	226
239.668	998
239.733	642
239.797	1356
239.862	1682
239.926	2067
239.991	365
240.055	1050
240.120	1161
240.184	790
240.249	258
240.313	868
240.378	1158
240.442	813
240.507	1540
240.571	1282
240.635	521
240.700	1084
240.764	396
240.829	1589
240.893	42
240.957	802
241.022	1703
241.086	1735
241.151	-31
241.215	246
241.279	1473
241.344	973
241.408	1386
241.472	1798
241.537	1571
241.601	1965
241.665	913
241.730	1263
241.794	1215
241.858	1243
241.922	1569
241.987	1164
242.051	1479
242.115	1092
242.179	1671
242.244	876
242.308	2051
242.372	1508
242.436	1175
242.501	1481
242.565	1062
242.629	565
242.693	1091
242.757	1336
242.822	771
242.886	959
242.950	837
243.014	1165
243.078	1128
243.142	1036
243.206	949
243.271	1258
243.335	1841
243.399	2109
243.463	9323
243.527	14771
243.591	3672
243.655	1875
243.719	1786
243.783	2377
243.847	3496
243.911	3480
243.975	3127
244.040	562
244.104	1039
244.168	1114
244.232	1925
244.296	2638
244.360	2144
244.424	904
244.488	1372
244.552	345
244.615	129
244.679	496
244.743	786
244.807	614
244.871	866
244.935	618
244.999	428
245.063	628
245.127	1356
245.191	2437
245.255	1564
245.319	2068
245.383	489
245.446	1476
245.510	526
245.574	927
245.638	1028
245.702	669
245.766	2629
245.829	1847
245.893	1025
245.957	975
246.021	1466
246.085	1236
246.149	1500
246.212	3613
246.276	4067
246.340	2824
246.404	1951
246.467	2228
246.531	2059
246.595	2313
246.659	1393
246.722	1242
246.786	1567
246.850	1894
246.913	1835
246.977	642
247.041	1401
247.104	1293
247.168	1735
247.232	4085
247.295	6227
247.359	2740
247.423	2804
247.486	3053
247.550	1388
247.614	2165
247.677	1630
247.741	1748
247.804	853
247.868	1039
247.932	3492
247.995	5496
248.059	1474
248.122	1425
248.186	2085
248.249	3849
248.313	10644
248.376	9459
248.440	5416
248.503	1520
248.567	3740
248.630	4066
248.694	4887
248.757	6751
248.821	11056
248.884	6382
248.948	6467
249.011	8593
249.075	12574
249.138	8680
249.202	4265
249.265	2963
249.328	3141
249.392	2875
249.455	2292
249.519	2625
249.582	1856
249.645	4001
249.709	2506
249.772	2532
249.835	3068
249.899	2346
249.962	2500
250.025	1838
250.089	5072
250.152	5129
250.215	2753
250.279	2137
250.342	2129
250.405	2569
250.468	2113
250.532	2677
250.595	5121
250.658	19743
250.721	20934
250.785	7584
250.848	4476
250.911	3134
250.974	3890
251.038	4037
251.101	6642
251.164	3604
251.227	4482
251.290	4094
251.354	7839
251.417	24990
251.480	17109
251.543	18813
251.606	39176
251.669	22907
251.732	10797
251.795	11454
251.859	13289
251.922	24786
251.985	10805
252.048	5482
252.111	4346
252.174	3695
252.237	7876
252.300	12512
252.363	17387
252.426	27159
252.489	9271
252.552	5496
252.615	3556
252.678	5130
252.741	10978
252.804	16740
252.867	28496
252.930	14910
252.993	8107
253.056	5474
253.119	3459
253.182	3116
253.245	4757
253.308	4313
253.371	2174
253.434	1739
253.497	2553
253.559	6336
253.622	3261
253.685	3938
253.748	3525
253.811	2103
253.874	2804
253.937	1701
254.000	2182
254.062	4115
254.125	5481
254.188	7064
254.251	3695
254.314	2076
254.376	4808
254.439	3488
254.502	2342
254.565	4669
254.628	6366
254.690	3062
254.753	829
254.816	1626
254.878	1185
254.941	4420
255.004	3575
255.067	1583
255.129	2090
255.192	1052
255.255	-147
255.317	1372
255.380	1156
255.443	327
255.505	375
255.568	-144
255.631	849
255.693	1711
255.756	-173
255.819	823
255.881	243
255.944	551
256.006	555
256.069	1002
256.132	787
256.194	1496
256.257	1492
256.319	1053
256.382	1528
256.444	1726
256.507	1969
256.569	1783
256.632	1709
256.694	1992
256.757	12189
256.819	23514
256.882	8194
256.944	3428
257.007	3509
257.069	2862
257.132	2730
257.194	2556
257.257	1423
257.319	1622
257.381	2439
257.444	9893
257.506	31623
257.569	25999
257.631	10095
257.693	5966
257.756	3229
257.818	1902
257.880	1437
257.943	1457
258.005	408
258.067	1649
258.130	755
258.192	1383
258.254	2835
258.317	1477
258.379	1686
258.441	4296
258.503	3653
258.566	2957
258.628	3140
258.690	1070
258.753	1822
258.815	2952
258.877	1728
258.939	2002
259.001	1893
259.064	689
259.126	959
259.188	1531
259.250	1602
259.312	1576
259.375	4009
259.437	1584
259.499	1941
259.561	1813
259.623	1641
259.685	982
259.747	2004
259.809	3847
259.872	4125
259.934	8217
259.996	7531
260.058	2755
260.120	1430
260.182	924
260.244	1625
260.306	1312
260.368	1976
260.430	947
260.492	3850
260.554	4566
260.616	1988
260.678	6027
260.740	3511
260.802	750
260.864	1184
260.926	356
260.988	2448
261.050	1133
261.112	5006
261.174	7402
261.236	3036
261.298	1627
261.359	2255
261.421	2710
261.483	886
261.545	1665
261.607	-65
261.669	404
261.731	1927
261.793	3318
261.854	1451
261.916	1180
261.978	1452
262.040	1531
262.102	640
262.164	614
262.225	712
262.287	1051
262.349	2537
262.411	1465
262.472	927
262.534	1430
262.596	1664
262.658	1553
262.719	598
262.781	1866
262.843	1310
262.904	1014
262.966	1020
263.028	1384
263.090	10405
263.151	18595
263.213	5884
263.275	2835
263.336	793
263.398	1370
263.459	319
263.521	438
263.583	3174
263.644	967
263.706	222
263.767	-15
263.829	1317
263.891	7
263.952	134
264.014	732
264.075	2471
264.137	4826
264.198	1838
264.260	50
264.321	779
264.383	4860
264.444	7956
264.506	1863
264.567	1523
264.629	5350
264.690	6725
264.752	1964
264.813	541
264.875	649
264.936	1825
264.998	868
265.059	673
265.120	477
265.182	2875
265.243	18823
265.305	11248
265.366	2661
265.427	1867
265.489	1844
265.550	205
265.611	1367
265.673	328
265.734	520
265.795	903
265.857	602
265.918	110
265.979	6034
266.040	26759
266.102	14809
266.163	4684
266.224	2976
266.286	562
266.347	1425
266.408	587
266.469	480
266.530	328
266.592	340
266.653	1938
266.714	2068
266.775	389
266.836	86
266.898	-165
266.959	1266
267.020	805
267.081	1305
267.142	317
267.203	348
267.264	-361
267.326	1577
267.387	-448
267.448	-291
267.509	823
267.570	437
267.631	548
267.692	-123
267.753	212
267.814	540
267.875	2840
267.936	3967
267.997	3331
268.058	3206
268.119	928
268.180	532
268.241	-870
268.302	395
268.363	542
268.424	222
268.485	784
268.546	-21
268.607	-257
268.668	194
268.729	-811
268.790	90
268.851	777
268.912	2883
268.972	1758
269.033	744
269.094	32
269.155	342
269.216	776
269.277	67
269.338	86
269.398	962
269.459	104
269.520	1467
269.581	573
269.642	1213
269.702	901
269.763	868
269.824	444
269.885	567
269.945	1608
270.006	604
270.067	63
270.128	-177
270.188	974
270.249	438
270.310	-107
270.370	1085
270.431	736
270.492	56
270.553	261
270.613	1767
270.674	3785
270.734	892
270.795	266
270.856	1715
270.916	-84
270.977	1041
271.038	1317
271.098	1229
271.159	1350
271.219	1204
271.280	761
271.340	1022
271.401	325
271.462	1393
271.522	1377
271.583	545
271.643	589
271.704	959
271.764	561
271.825	3531
271.885	12157
271.946	10663
272.006	3238
272.066	7739
272.127	8480
272.187	1544
272.248	961
272.308	2123
272.369	7123
272.429	2149
272.489	2520
272.550	2209
272.610	3169
272.671	1950
272.731	2202
272.791	1430
272.852	1440
272.912	1956
272.972	495
273.033	724
273.093	651
273.153	1736
273.214	719
273.274	562
273.334	7792
273.394	8518
273.455	2960
273.515	5018
273.575	8097
273.635	3307
273.696	4866
273.756	8122
273.816	2860
273.876	1716
273.936	2623
273.997	3450
274.057	254
274.117	1177
274.177	3577
274.237	13602
274.297	6746
274.358	4682
274.418	7874
274.478	4049
274.538	1762
274.598	911
274.658	3085
274.718	3453
274.778	1733
274.838	622
274.898	2202
274.958	5395
275.018	8633
275.078	4505
275.138	1722
275.198	490
275.258	338
275.318	1338
275.378	1679
275.438	2138
275.498	1566
275.558	3786
275.618	8092
275.678	4555
275.738	4315
275.798	3269
275.858	1177
275.918	399
275.978	1029
276.038	649
276.098	731
276.157	2737
276.217	6932
276.277	1934
276.337	1394
276.397	1173
276.457	1104
276.517	347
276.576	-426
276.636	386
276.696	1580
276.756	3976
276.815	2135
276.875	465
276.935	1051
276.995	451
277.055	970
277.114	1205
277.174	2053
277.234	5332
277.293	523
277.353	574
277.413	259
277.472	214
277.532	702
277.592	1057
277.651	4756
277.711	4761
277.771	1461
277.830	10079
277.890	5378
277.950	6966
278.009	14700
278.069	4260
278.128	6402
278.188	5387
278.248	2742
278.307	7528
278.367	3756
278.426	898
278.486	319
278.545	662
278.605	513
278.664	973
278.724	756
278.783	5819
278.843	9653
278.902	2224
278.962	1271
279.021	1661
279.081	1823
279.140	1467
279.199	1486
279.259	2155
279.318	1672
279.378	3360
279.437	5537
279.496	19405
279.556	39475
279.615	18316
279.675	5708
279.734	4398
279.793	8740
279.853	13428
279.912	4414
279.971	2390
280.031	2063
280.090	7436
280.149	9187
280.208	5632
280.268	29819
280.327	18048
280.386	4286
280.445	5016
280.505	3836
280.564	2382
280.623	1208
280.682	3558
280.742	4255
280.801	1163
280.860	254
280.919	1143
280.978	946
281.037	529
281.097	173
281.156	522
281.215	867
281.274	1966
281.333	8046
281.392	3526
281.451	1260
281.510	679
281.569	382
281.628	237
281.688	681
281.747	461
281.806	409
281.865	242
281.924	409
281.983	-78
282.042	-240
282.101	841
282.160	429
282.219	426
282.278	578
282.337	3657
282.396	1717
282.454	566
282.513	1641
282.572	5955
282.631	2137
282.690	869
282.749	633
282.808	1377
282.867	1053
282.926	927
282.985	425
283.043	-307
283.102	207
283.161	279
283.220	4285
283.279	6065
283.338	893
283.396	470
283.455	258
283.514	1264
283.573	1674
283.631	714
283.690	678
283.749	412
283.808	2409
283.866	1614
283.925	922
283.984	568
284.043	799
284.101	870
284.160	-343
284.219	1598
284.277	1141
284.336	1996
284.395	8147
284.453	5326
284.512	2015
284.570	2686
284.629	1763
284.688	1723
284.746	1538
284.805	1775
284.863	2561
284.922	3014
284.981	3337
285.039	6834
285.098	13674
285.156	37540
285.215	70019
285.273	63411
285.332	31788
285.390	14742
285.449	10010
285.507	5749
285.566	4686
285.624	2807
285.683	2404
285.741	2281
285.799	1982
285.858	321
285.916	1064
285.975	856
286.033	645
286.091	1274
286.150	43
286.208	254
286.267	941
286.325	877
286.383	1637
286.442	741
286.500	722
286.558	-85
286.616	49
286.675	823
286.733	824
286.791	779
286.850	1307
286.908	1819
286.966	2880
287.024	1119
287.083	388
287.141	693
287.199	512
287.257	1346
287.315	605
287.374	1700
287.432	3948
287.490	2031
287.548	1062
287.606	412
287.664	1250
287.723	1744
287.781	2212
287.839	1256
287.897	1507
287.955	1733
288.013	3642
288.071	11214
288.129	50023
288.187	91751
288.245	34812
288.303	11832
288.361	6672
288.419	5189
288.477	3790
288.535	2296
288.593	1259
288.651	1226
288.709	697
288.767	448
288.825	341
288.883	634
288.941	834
288.999	436
289.057	-77
289.115	402
289.173	50
289.231	197
289.289	167
289.346	881
289.404	369
289.462	1381
289.520	335
289.578	563
289.636	2
289.694	169
289.751	-209
289.809	222
289.867	925
289.925	626
289.983	374
290.040	-67
290.098	204
290.156	711
290.214	-177
290.271	85
290.329	424
290.387	322
290.444	-773
290.502	-34
290.560	-174
290.617	619
290.675	573
290.733	500
290.790	223
290.848	114
290.906	252
290.963	198
291.021	-261
291.078	1240
291.136	1031
291.194	5957
291.251	8269
291.309	1902
291.366	169
291.424	905
291.481	337
291.539	391
291.596	624
291.654	183
291.711	255
291.769	682
291.826	1303
291.884	244
291.941	-340
291.999	362
292.056	-73
292.114	355
292.171	417
292.228	-65
292.286	894
292.343	1246
292.401	1726
292.458	420
292.515	286
292.573	571
292.630	1103
292.687	62
292.745	-160
292.802	1348
292.859	5640
292.917	7800
292.974	3075
293.031	914
293.089	187
293.146	301
293.203	-5
293.260	-93
293.318	544
293.375	2087
293.432	696
293.489	108
293.546	-562
293.604	1365
293.661	5488
293.718	12970
293.775	5219
293.832	1977
293.889	1328
293.947	1084
294.004	1406
294.061	2173
294.118	4131
294.175	10360
294.232	12364
294.289	3264
294.346	2074
294.403	2348
294.460	1158
294.517	636
294.574	802
294.631	434
294.688	294
294.745	5746
294.802	20084
294.859	17125
294.916	5819
294.973	3000
295.030	1785
295.087	1329
295.144	1709
295.201	621
295.258	952
295.315	1565
295.372	7110
295.429	10480
295.486	3270
295.542	3141
295.599	11871
295.656	14714
295.713	10383
295.770	9534
295.827	3741
295.883	2452
295.940	1645
295.997	2446
296.054	1807
296.111	923
296.167	816
296.224	156
296.281	1363
296.338	706
296.394	498
296.451	1790
296.508	5850
296.564	9290
296.621	6052
296.678	14288
296.734	16338
296.791	6487
296.848	2598
296.904	3690
296.961	7145
297.018	12795
297.074	7860
297.131	3167
297.187	2392
297.244	4967
297.301	16002
297.357	19740
297.414	6271
297.470	2757
297.527	1695
297.583	1636
297.640	1547
297.696	1279
297.753	1023
297.809	-80
297.866	643
297.922	922
297.979	-277
298.035	1023
298.092	2451
298.148	8036
298.204	5409
298.261	3111
298.317	7913
298.374	15604
298.430	6966
298.486	2615
298.543	1558
298.599	1968
298.656	2785
298.712	6155
298.768	15128
298.824	8683
298.881	1917
298.937	1438
298.993	1354
299.050	1341
299.106	1443
299.162	2053
299.218	1030
299.275	960
299.331	1466
299.387	4833
299.443	13945
299.500	11356
299.556	3706
299.612	1755
299.668	1888
299.724	1842
299.780	1339
299.837	298
299.893	3673
299.949	11613
300.005	10237
300.061	12546
300.117	17777
300.173	6788
300.229	3976
300.285	3812
300.341	3966
300.397	1877
300.453	696
300.510	1121
300.566	1348
300.622	1517
300.678	4528
300.734	9022
300.790	10322
300.845	12234
300.901	6623
300.957	9466
301.013	6191
301.069	2136
301.125	1656
301.181	1592
301.237	932
301.293	713
301.349	713
301.405	765
301.461	845
301.516	1427
301.572	2179
301.628	2195
301.684	2363
301.740	5133
301.796	6384
301.851	5205
301.907	7424
301.963	8348
302.019	18302
302.074	39316
302.130	32098
302.186	14454
302.242	5694
302.297	3705
302.353	4387
302.409	8249
302.464	6027
302.520	6023
302.576	14518
302.631	13635
302.687	6499
302.743	2878
302.798	2331
302.854	2154
302.910	2079
302.965	2570
303.021	4100
303.076	3946
303.132	4704
303.187	4962
303.243	2202
303.299	1192
303.354	1151
303.410	1694
303.465	613
303.521	1353
303.576	1244
303.632	2173
303.687	5359
303.743	12340
303.798	9736
303.853	3386
303.909	1815
303.964	2316
304.020	3469
304.075	4607
304.130	3774
304.186	6389
304.241	6701
304.297	4931
304.352	2935
304.358	2795
304.407	1658
304.449	2076
304.463	2218
304.518	1833
304.539	1589
304.573	1192
304.629	2144
304.630	2189
304.684	4210
304.720	8469
304.739	10670
304.794	13103
304.811	11194
304.850	6393
304.902	2602
304.905	2372
304.960	2434
304.992	2179
305.015	1980
305.071	2241
305.083	2143
305.126	1770
305.173	1428
305.181	1369
305.236	1323
305.264	1441
305.292	1615
305.347	541
305.354	766
305.402	2153
305.445	2453
305.457	2529
305.512	3002
305.535	2957
305.567	2869
305.622	3033
305.626	3202
305.678	6620
305.716	12525
305.733	14847
305.788	14832
305.807	13366
305.843	10417
305.897	12894
305.898	12928
305.953	11909
305.988	8488
306.008	6428
306.063	4091
306.078	3643
306.118	2661
306.168	1977
306.173	1923
306.228	1867
306.259	1420
306.283	1120
306.338	1373
306.349	1403
306.393	1619
306.440	1957
306.448	2005
306.503	2540
306.530	2709
306.558	3298
306.613	6833
306.620	7215
306.668	9813
306.711	12994
306.723	13465
306.778	10226
306.801	8323
306.833	5641
306.888	2614
306.892	2523
306.943	2339
306.982	1977
306.997	1914
307.052	2126
307.072	2297
307.107	2578
307.162	3295
307.163	3297
307.217	3933
307.253	4956
307.272	5381
307.327	5481
307.343	5336
307.381	4620
307.434	3865
307.436	3933
307.491	7554
307.524	10882
307.546	12385
307.600	12657
307.614	11662
307.655	7190
307.704	4030
307.710	3926
307.765	4616
307.795	5667
307.819	7023
307.874	11436
307.885	11420
307.929	9517
307.975	8462
307.984	8740
308.038	12771
308.065	16457
308.093	25114
308.148	51169
308.156	56660
308.202	94608
308.246	113678
308.257	109686
308.312	65956
308.336	48798
308.366	36488
308.421	20810
308.426	19563
308.475	13459
308.517	9351
308.530	8682
308.585	7456
308.607	7044
308.639	6830
308.694	6659
308.697	6723
308.748	9763
308.787	13105
308.803	13670
308.857	11857
308.877	11065
308.912	9732
308.967	9315
308.967	9308
309.021	12169
309.058	15413
309.076	18957
309.130	32333
309.148	38593
309.185	65906
309.238	113097
309.239	113736
309.293	134354
309.328	133135
309.348	116297
309.402	64644
309.418	51548
309.457	36280
309.508	20603
309.511	20184
309.566	15682
309.598	13300
309.620	13105
309.674	13252
309.688	13356
309.729	12958
309.778	11823
309.783	11623
309.837	9421
309.868	8355
309.892	9302
309.946	12618
309.959	13749
310.001	19836
310.049	25110
310.055	24352
310.109	15339
310.139	10468
310.163	8498
310.218	5444
310.229	4828
310.272	3971
310.319	3434
310.326	3433
310.381	3426
310.409	3364
310.435	3108
310.489	2650
310.499	2592
310.543	3055
310.589	3386
310.598	3386
310.652	3337
310.679	3385
310.706	3343
310.760	3090
310.769	3063
310.814	3032
310.859	2831
310.868	2762
310.923	2575
310.948	2378
310.977	2351
311.031	2440
311.038	2462
311.085	2699
311.128	2703
311.139	2774
311.193	3059
311.218	3310
311.247	3187
311.301	2792
311.308	2733
311.356	3040
311.398	3293
311.410	3321
311.464	3473
311.488	3506
311.518	3141
311.572	2499
311.578	2416
311.626	3380
311.668	4236
311.680	4209
311.734	4025
311.758	3925
311.788	4239
311.842	4814
311.847	4861
311.896	4976
311.937	5083
311.950	5251
312.004	5914
312.027	6183
312.058	5248
312.112	3573
312.117	3399
312.165	3309
312.207	3223
312.297	5056
312.386	5529
312.476	3479
312.566	6366
312.656	3750
312.745	3600
312.835	3479
312.925	4520
313.015	3742
313.104	4444
313.194	3656
313.284	3362
313.374	3557
313.463	4927
313.553	3108
313.643	3010
313.732	3386
313.822	2821
313.912	3085
314.001	3728
314.091	4367
314.180	6277
314.270	4895
314.360	4714
314.449	4269
314.539	2750
314.628	3240
314.718	4491
314.808	4414
314.897	3652
314.987	3481
315.076	3347
315.166	4459
315.255	4280
315.345	3912
315.434	4631
315.524	3375
315.613	4351
315.703	4150
315.792	4531
315.881	4316
315.971	4390
316.060	5801
316.150	7238
316.239	7632
316.328	5679
316.418	3019
316.507	3457
316.597	3387
316.686	3890
316.775	4147
316.865	7940
316.954	4539
317.043	3417
317.133	2616
317.222	3559
317.311	3174
317.400	2482
317.490	4012
317.579	4453
317.668	3646
317.757	3590
317.847	3570
317.936	5696
318.025	6365
318.114	4620
318.203	4247
318.293	6672
318.382	13484
318.471	11287
318.560	14873
318.649	33485
318.738	11735
318.828	4511
318.917	5200
319.006	5964
319.095	10255
319.184	34694
319.273	24650
319.362	9874
319.451	4394
319.540	3449
319.629	5379
319.718	9330
319.807	6448
319.896	10598
319.985	42032
320.074	22812
320.163	5360
320.252	6563
320.341	6903
320.430	7866
320.519	6162
320.608	4799
320.697	4001
320.786	3884
320.875	4126
320.964	4453
321.053	6319
321.142	6932
321.230	9653
321.319	6739
321.408	14315
321.497	10189
321.586	7268
321.675	7596
321.764	9566
321.852	6537
321.941	9767
322.030	7820
322.119	6985
322.207	14343
322.296	12506
322.385	8666
322.474	7490
322.562	15718
322.651	12934
322.740	6740
322.829	11312
322.917	10178
323.006	6958
323.095	6076
323.183	5013
323.272	6854
323.361	9900
323.449	27070
323.538	13846
323.626	18413
323.715	17262
323.804	6131
323.892	16280
323.981	13316
324.069	5225
324.158	9206
324.246	12461
324.335	5617
324.424	7588
324.512	4250
324.601	4889
324.689	7746
324.778	15817
324.866	8846
324.954	5167
325.043	4112
325.131	5418
325.220	8718
325.308	10443
325.397	7357
325.485	6393
325.574	3159
325.662	4181
325.750	4101
325.839	4260
325.927	3924
326.015	4307
326.104	3812
326.192	6312
326.280	4128
326.369	3565
326.457	4255
326.545	5789
326.634	5082
326.722	3178
326.810	3083
326.898	4120
326.987	3851
327.075	4971
327.163	5881
327.251	4722
327.340	6251
327.428	10876
327.516	3570
327.604	3879
327.692	4054
327.781	3692
327.869	4783
327.957	3869
328.045	4298
328.133	3083
328.221	3745
328.309	3658
328.397	3737
328.485	3994
328.574	5217
328.662	9388
328.750	8280
328.838	4395
328.926	4091
329.014	3949
329.102	4889
329.190	10198
329.278	8760
329.366	3412
329.454	4598
329.542	4363
329.630	4426
329.718	4915
329.806	5624
329.893	6710
329.981	9190
330.069	15917
330.157	46996
330.245	125439
330.333	97966
330.421	24614
330.509	10571
330.597	13740
330.684	12594
330.772	7041
330.860	8131
330.948	10700
331.036	7112
331.123	3368
331.211	4619
331.299	4908
331.387	6768
331.475	15318
331.562	6442
331.650	4064
331.738	3649
331.825	4261
331.913	4053
332.001	3466
332.089	4208
332.176	7050
332.264	9055
332.352	10895
332.439	4584
332.527	3803
332.614	3566
332.702	4611
332.790	4037
332.877	5373
332.965	10077
333.052	5228
333.140	3923
333.228	7167
333.315	4374
333.403	4364
333.490	5870
333.578	7563
333.665	6363
333.753	5548
333.840	3743
333.928	4502
334.015	7219
334.103	10886
334.190	42885
334.278	18656
334.365	6230
334.452	4163
334.540	4163
334.627	4054
334.715	4766
334.802	6134
334.889	24138
334.977	39270
335.064	7648
335.151	4435
335.239	4670
335.326	6858
335.413	18201
335.501	41604
335.588	7391
335.675	5123
335.762	5390
335.850	9704
335.937	6293
336.024	8480
336.111	35387
336.199	23308
336.286	6664
336.373	4801
336.460	3573
336.547	3577
336.635	4167
336.722	4442
336.809	4514
336.896	5099
336.983	12142
337.070	34494
337.157	52234
337.245	26743
337.332	20840
337.419	4921
337.506	4627
337.593	5407
337.680	10346
337.767	41636
337.854	14280
337.941	12517
338.028	10057
338.115	5978
338.202	5830
338.289	7503
338.376	21945
338.463	11820
338.550	17718
338.637	31466
338.724	6811
338.811	9103
338.898	4228
338.984	3995
339.071	5181
339.158	5044
339.245	7606
339.332	7248
339.419	5814
339.506	7292
339.593	3303
339.679	3422
339.766	3813
339.853	4094
339.940	5817
340.027	4381
340.113	4749
340.200	4525
340.287	4059
340.374	4087
340.460	6179
340.547	4620
340.634	4709
340.720	10318
340.807	10556
340.894	3395
340.980	3856
341.067	3349
341.154	3911
341.240	3700
341.327	7196
341.414	4335
341.500	5367
341.587	4037
341.674	4105
341.760	5418
341.847	5427
341.933	4175
342.020	3111
342.106	2991
342.193	3570
342.279	5621
342.366	3938
342.452	5570
342.539	4628
342.625	5708
342.712	12310
342.798	7819
342.885	5018
342.971	3092
343.058	2832
343.144	3243
343.230	3121
343.317	3771
343.403	3605
343.490	3886
343.576	3274
343.662	3588
343.749	4100
343.835	4331
343.921	6497
344.008	19053
344.094	61863
344.180	21755
344.267	7177
344.353	14853
344.439	22105
344.525	9623
344.612	8924
344.698	9962
344.784	6976
344.870	3663
344.957	4033
345.043	4692
345.129	4043
345.215	6012
345.301	4740
345.387	4342
345.474	3307
345.560	2618
345.646	3196
345.732	4230
345.818	4259
345.904	3900
345.990	4382
346.076	3343
346.162	5502
346.249	4663
346.335	3422
346.421	4125
346.507	6909
346.593	25264
346.679	10927
346.765	4384
346.851	3703
346.937	3591
347.023	3512
347.108	3472
347.194	3214
347.280	3304
347.366	3581
347.452	6699
347.538	26666
347.624	23322
347.710	21713
347.796	6499
347.882	4058
347.967	4065
348.053	6020
348.139	4694
348.225	3425
348.311	3696
348.397	3730
348.482	3705
348.568	5132
348.654	3092
348.740	3621
348.825	3263
348.911	5180
348.997	10716
349.083	29997
349.168	8337
349.254	4143
349.340	4248
349.425	4376
349.511	3462
349.597	4962
349.682	5504
349.768	16372
349.854	13853
349.939	4963
350.025	3545
350.110	3958
350.196	4529
350.282	4290
350.367	3447
350.453	3630
350.538	4353
350.624	3780
350.709	4674
350.795	3190
350.880	3022
350.966	3986
351.051	4504
351.137	3933
351.222	3678
351.308	5275
351.393	16050
351.479	7534
351.564	3917
351.649	3460
351.735	3158
351.820	3521
351.906	3920
351.991	4333
352.076	7711
352.162	17769
352.247	5614
352.332	4019
352.418	5042
352.503	7071
352.588	17591
352.673	19961
352.759	5539
352.844	4262
352.929	4623
353.014	5423
353.100	3787
353.185	5425
353.270	5574
353.355	6718
353.441	4845
353.526	4318
353.611	4617
353.696	7258
353.781	4803
353.866	3535
353.952	3259
354.037	4991
354.122	8688
354.207	8714
354.292	6322
354.377	3921
354.462	4015
354.547	4047
354.632	3987
354.717	5219
354.802	6837
354.887	5232
354.972	3688
355.057	3784
355.142	3612
355.227	4201
355.312	4073
355.397	6604
355.482	12644
355.567	9483
355.652	6518
355.737	7472
355.822	16198
355.907	21870
355.991	5958
356.076	3839
356.161	3580
356.246	4121
356.331	4006
356.416	6315
356.501	23599
356.585	38994
356.670	8323
356.755	5755
356.840	5652
356.924	14799
357.009	63029
357.094	37035
357.179	8382
357.263	6206
357.348	5492
357.433	6494
357.517	6015
357.602	4974
357.687	4462
357.771	5582
357.856	19591
357.941	17413
358.025	11831
358.110	59661
358.195	44888
358.279	8501
358.364	6165
358.448	10274
358.533	30677
358.617	28254
358.702	26091
358.787	13892
358.871	6743
358.956	7045
359.040	4522
359.125	4449
359.209	3982
359.294	8798
359.378	20396
359.462	8000
359.547	5069
359.631	3573
359.716	3800
359.800	4451
359.885	5768
359.969	4712
360.053	4112
360.138	4474
360.222	5087
360.306	5222
360.391	6213
360.475	8433
360.559	22124
360.644	13189
360.728	11624
360.812	11656
360.896	45245
360.981	24770
361.065	14404
361.149	5758
361.233	5192
361.318	4302
361.402	4610
361.486	5397
361.570	3933
361.654	4672
361.739	6540
361.823	20650
361.907	51138
361.991	13890
362.075	5472
362.159	8544
362.243	8374
362.327	6646
362.411	7313
362.495	5396
362.580	4864
362.664	4152
362.748	4187
362.832	3940
362.916	4579
363.000	7863
363.084	21711
363.168	54984
363.252	19747
363.336	7057
363.420	7586
363.503	25928
363.587	50736
363.671	11347
363.755	5459
363.839	7926
363.923	5431
364.007	6868
364.091	8079
364.175	9256
364.258	47996
364.342	38742
364.426	15823
364.510	11653
364.594	9178
364.677	10578
364.761	32898
364.845	38592
364.929	10802
365.013	8345
365.096	7111
365.180	8708
365.264	10239
365.347	52637
365.431	34754
365.515	10563
365.598	4916
365.682	4514
365.766	7693
365.849	11547
365.933	5650
366.017	6231
366.100	7925
366.184	4413
366.267	4572
366.351	4461
366.435	3787
366.518	4025
366.602	3606
366.685	3998
366.769	3885
366.852	6613
366.936	9982
367.019	6582
367.103	5363
367.186	12456
367.270	5841
367.353	3584
367.436	4672
367.520	4138
367.603	4553
367.687	4909
367.770	6565
367.853	5828
367.937	11075
368.020	26703
368.104	8800
368.187	5288
368.270	8095
368.353	8327
368.437	7402
368.520	14415
368.603	12927
368.687	12367
368.770	30297
368.853	10939
368.936	7477
369.020	10954
369.103	5560
369.186	4171
369.269	4143
369.352	4871
369.436	7632
369.519	6993
369.602	3952
369.685	4605
369.768	4493
369.851	5420
369.934	4199
370.018	4579
370.101	5535
370.184	7071
370.267	5795
370.350	6814
370.433	10351
370.516	19351
370.599	31829
370.682	9140
370.765	13909
370.848	17523
370.931	33232
371.014	21082
371.097	6194
371.180	5277
371.263	4578
371.346	4204
371.429	4352
371.511	4403
371.594	5707
371.677	7856
371.760	12749
371.843	8136
371.926	18626
372.009	66208
372.091	30643
372.174	12657
372.257	33639
372.340	20084
372.423	11420
372.505	17567
372.588	9541
372.671	9446
372.754	29049
372.836	23619
372.919	13442
373.002	38743
373.085	15485
373.167	8216
373.250	12832
373.332	31801
373.415	34756
373.498	78304
373.580	39617
373.663	27341
373.746	58523
373.828	18323
373.911	8072
373.993	8199
374.076	25810
374.159	39761
374.241	11252
374.324	23674
374.406	23046
374.489	17076
374.571	65693
374.654	41894
374.736	12697
374.819	37102
374.901	51753
374.983	68242
375.066	18582
375.148	7190
375.231	18253
375.313	55564
375.395	26371
375.478	7543
375.560	4390
375.643	5094
375.725	9258
375.807	42754
375.890	47164
375.972	17951
376.054	9360
376.136	13028
376.219	9400
376.301	11538
376.383	43518
376.465	25900
376.548	10024
376.630	11241
376.712	33776
376.794	26565
376.877	5391
376.959	4465
377.041	4026
377.123	7376
377.205	12916
377.287	4526
377.369	4049
377.452	4181
377.534	4114
377.616	4246
377.698	3933
377.780	3403
377.862	4003
377.944	4250
378.026	3908
378.108	3594
378.190	3885
378.272	4000
378.354	3605
378.436	3417
378.518	4581
378.600	14137
378.682	12677
378.764	16973
378.846	20546
378.928	7319
379.010	8356
379.091	6090
379.173	4412
379.255	4295
379.337	4739
379.419	7487
379.501	27395
379.583	17813
379.664	5368
379.746	6911
379.828	16054
379.910	26055
379.991	28070
380.073	7708
380.155	5198
380.237	4792
380.318	3998
380.400	4702
380.482	4755
380.564	7056
380.645	7060
380.727	8052
380.809	5784
380.890	5048
380.972	4096
381.053	4015
381.135	4916
381.217	6449
381.298	19301
381.380	14332
381.461	7054
381.543	26096
381.624	51098
381.706	13935
381.787	6804
381.869	7384
381.951	9912
382.032	51822
382.113	49677
382.195	12086
382.276	7976
382.358	10828
382.439	32859
382.521	34615
382.602	58813
382.684	30456
382.765	36201
382.846	43879
382.928	37557
383.009	26707
383.090	13973
383.172	40718
383.253	87170
383.334	38515
383.416	46739
383.497	34691
383.578	10471
383.659	13886
383.741	35004
383.822	115212
383.903	84644
383.984	26118
384.066	56521
384.147	47381
384.228	11854
384.309	6507
384.390	5940
384.471	5151
384.553	5235
384.634	6680
384.715	7114
384.796	5132
384.877	5283
384.958	14219
385.039	24708
385.120	11032
385.201	6046
385.282	6825
385.363	7543
385.444	6263
385.525	6818
385.606	23819
385.687	32103
385.768	9358
385.849	8440
385.930	20833
386.011	57433
386.092	23326
386.173	6100
386.254	4897
386.335	5179
386.416	5736
386.496	9786
386.577	22321
386.658	11372
386.739	6345
386.820	6405
386.901	5723
386.981	5796
387.062	3929
387.143	4548
387.224	14587
387.304	22484
387.385	8908
387.466	5273
387.547	8332
387.627	5522
387.708	5906
387.789	24962
387.869	46878
387.950	18834
388.031	4548
388.111	3564
388.192	9062
388.273	13622
388.353	9994
388.434	5061
388.514	6077
388.595	24515
388.676	46489
388.756	24228
388.837	15746
388.917	13438
388.998	3903
389.078	4578
389.159	3274
389.239	3101
389.320	5690
389.400	4303
389.480	7587
389.561	21031
389.641	17978
389.722	4981
389.802	6046
389.883	7819
389.963	24208
390.043	21759
390.124	8156
390.204	7054
390.284	18333
390.365	16312
390.445	15954
390.525	42136
390.605	42777
390.686	17670
390.766	7385
390.846	4295
390.927	2920
391.007	3491
391.087	4138
391.167	4840
391.247	3430
391.328	4956
391.408	7465
391.488	8287
391.568	3009
391.648	3986
391.728	5309
391.808	4742
391.888	4923
391.969	8905
392.049	21502
392.129	12917
392.209	8292
392.289	24232
392.369	18833
392.449	15651
392.529	11957
392.609	6443
392.689	6270
392.769	19525
392.849	25659
392.929	11757
393.009	31777
393.089	29661
393.169	9583
393.248	14550
393.328	88785
393.408	163742
393.488	42524
393.568	9372
393.648	7003
393.728	5611
393.807	5688
393.887	5409
393.967	5997
394.047	7543
394.127	9060
394.206	13592
394.286	35427
394.366	157383
394.446	254685
394.525	92997
394.605	23710
394.685	13724
394.764	20194
394.844	35181
394.924	33622
395.003	10060
395.083	7170
395.163	5956
395.242	5680
395.322	6014
395.402	4621
395.481	6712
395.561	9940
395.640	37031
395.720	28710
395.799	37974
395.879	46539
395.958	25210
396.038	56422
396.117	208528
396.197	320065
396.276	142733
396.356	45765
396.435	26978
396.515	17171
396.594	10388
396.673	11634
396.753	20461
396.832	100423
396.912	116621
396.991	33038
397.070	9261
397.150	5003
397.229	4675
397.308	4250
397.388	6597
397.467	5004
397.546	4079
397.625	1980
397.705	4585
397.784	4416
397.863	3094
397.942	2709
398.022	3246
398.101	7539
398.180	36580
398.259	28106
398.338	7444
398.417	3262
398.497	3181
398.576	3965
398.655	2386
398.734	2979
398.813	2721
398.892	7308
398.971	36284
399.050	30309
399.129	3413
399.208	3059
399.287	3510
399.366	2141
399.445	2174
399.524	2821
399.603	1713
399.682	3356
399.761	6611
399.840	33359
399.919	45128
399.998	8542
400.077	2362
400.156	1426
400.235	4178
400.313	2791
400.392	2267
400.471	7474
400.550	16193
400.629	6524
400.708	2808
400.786	3448
400.865	7502
400.944	12669
401.023	6546
401.102	1766
401.180	1276
401.259	1735
401.338	2513
401.416	2678
401.495	2471
401.574	2902
401.652	2417
401.731	3069
401.810	2620
401.888	1350
401.967	1641
402.046	2543
402.124	2740
402.203	3344
402.281	3455
402.360	3391
402.438	10997
402.517	11707
402.596	3837
402.674	3679
402.753	1859
402.831	2248
402.910	2606
402.988	5373
403.066	28804
403.145	28032
403.223	8647
403.302	26489
403.380	24200
403.459	21876
403.537	12041
403.615	4329
403.694	1293
403.772	2709
403.850	1879
403.929	1139
404.007	1745
404.085	3815
404.164	4524
404.242	3420
404.320	7943
404.398	34202
404.477	44917
404.555	41935
404.633	54486
404.711	30900
404.789	26303
404.868	6602
404.946	2697
405.024	2331
405.102	1737
405.180	1599
405.258	1573
405.336	2391
405.415	974
405.493	4164
405.571	3831
405.649	1218
405.727	1011
405.805	2790
405.883	2326
405.961	2453
406.039	4215
406.117	1280
406.195	2508
406.273	4314
406.351	31861
406.429	32983
406.507	6991
406.585	2952
406.663	1386
406.740	2016
406.818	1822
406.896	1236
406.974	2099
407.052	1938
407.130	14056
407.208	35985
407.285	10105
407.363	2226
407.441	1454
407.519	1523
407.596	2071
407.674	2986
407.752	7612
407.830	13220
407.907	8420
407.985	2079
408.063	1868
408.141	1065
408.218	2518
408.296	3571
408.373	2550
408.451	1941
408.529	1603
408.606	1046
408.684	1426
408.762	1132
408.839	761
408.917	1278
408.994	672
409.072	1192
409.149	960
409.227	1870
409.304	1630
409.382	1228
409.459	892
409.537	1701
409.614	1991
409.692	1417
409.769	253
409.846	1249
409.924	2618
410.001	2035
410.079	2456
410.156	1975
410.233	1873
410.311	2460
410.388	1186
410.465	2203
410.543	1912
410.620	1850
410.697	-63
410.775	1889
410.852	367
410.929	1646
411.006	2053
411.083	1350
411.161	2709
411.238	4207
411.315	4180
411.392	1457
411.469	1909
411.547	2528
411.624	508
411.701	1490
411.778	830
411.855	2557
411.932	2239
412.009	808
412.086	1450
412.163	1958
412.240	1639
412.317	2730
412.394	1981
412.471	2143
412.548	678
412.625	469
412.702	1431
412.779	3191
412.856	3112
412.933	1682
413.010	1027
413.087	858
413.164	5047
413.241	13338
413.318	3256
413.395	2493
413.471	2055
413.548	1557
413.625	1410
413.702	678
413.779	1754
413.855	899
413.932	752
414.009	-128
414.086	710
414.162	564
414.239	1399
414.316	5264
414.393	17091
414.469	10141
414.546	902
414.623	1341
414.699	737
414.776	834
414.853	510
414.929	971
415.006	1305
415.082	1014
415.159	2048
415.236	1381
415.312	1404
415.389	1155
415.465	1602
415.542	1611
415.618	721
415.695	1446
415.771	1442
415.848	1078
415.924	1512
416.000	624
416.077	930
416.153	298
416.230	-157
416.306	744
416.383	937
416.459	846
416.535	810
416.612	-208
416.688	1076
416.764	954
416.841	816
416.917	624
416.993	1153
417.069	757
417.146	1802
417.222	4289
417.298	1913
417.374	1090
417.451	1626
417.527	647
417.603	797
417.679	1202
417.755	1137
417.831	428
417.908	832
417.984	1218
418.060	80
418.136	1181
418.212	1733
418.288	1303
418.364	1097
418.440	-8
418.516	1359
418.592	2676
418.668	3314
418.744	3969
418.820	4211
418.896	1812
418.972	541
419.048	-104
419.124	2154
419.200	1928
419.276	860
419.352	238
419.428	737
419.504	301
419.579	395
419.655	711
419.731	183
419.807	2043
419.883	3384
419.959	4009
420.034	1329
420.110	1627
420.186	8719
420.262	12049
420.337	2809
420.413	1128
420.489	932
420.565	832
420.640	-153
420.716	709
420.792	-513
420.867	573
420.943	747
421.019	1170
421.094	554
421.170	743
421.245	52
421.321	756
421.397	483
421.472	1634
421.548	3002
421.623	5274
421.699	2777
421.774	2015
421.850	501
421.925	2086
422.001	1381
422.076	1811
422.152	1206
422.227	2693
422.302	3856
422.378	4051
422.453	5930
422.529	14090
422.604	53795
422.679	165297
422.755	135196
422.830	35208
422.905	10325
422.981	4508
423.056	2701
423.131	2936
423.207	1639
423.282	1083
423.357	3078
423.432	2795
423.508	2166
423.583	3375
423.658	3957
423.733	1542
423.808	1645
423.883	1366
423.959	1104
424.034	1247
424.109	1164
424.184	378
424.259	505
424.334	411
424.409	133
424.484	515
424.559	581
424.634	18
424.709	994
424.784	971
424.859	786
424.934	822
425.009	4317
425.084	11752
425.159	7138
425.234	791
425.309	573
425.384	3198
425.459	10829
425.534	4385
425.609	547
425.683	920
425.758	495
425.833	614
425.908	1205
425.983	1577
426.058	9848
426.132	7142
426.207	1283
426.282	2723
426.357	3768
426.431	1160
426.506	1305
426.581	1022
426.655	1107
426.730	228
426.805	71
426.879	854
426.954	416
427.029	834
427.103	6531
427.178	28516
427.253	23104
427.327	2969
427.402	1425
427.476	10235
427.551	8766
427.625	1900
427.700	1501
427.774	-27
427.849	653
427.923	-337
427.998	-123
428.072	229
428.147	1779
428.221	3512
428.296	17274
428.370	14373
428.444	1978
428.519	2817
428.593	6439
428.667	8215
428.742	7968
428.816	6720
428.890	11083
428.965	28636
429.039	14266
429.113	10545
429.188	5728
429.262	1083
429.336	625
429.410	4037
429.485	4772
429.559	5988
429.633	7783
429.707	1964
429.781	1603
429.855	12549
429.930	29802
430.004	19084
430.078	33017
430.152	37735
430.226	24723
430.300	39815
430.374	8858
430.448	2477
430.522	5355
430.596	31404
430.670	28403
430.744	16706
430.818	46097
430.892	18373
430.966	2057
431.040	859
431.114	920
431.188	681
431.262	239
431.336	-230
431.410	2114
431.484	7154
431.557	7777
431.631	1529
431.705	221
431.779	521
431.853	10764
431.927	15492
432.000	2412
432.074	172
432.148	945
432.222	1354
432.295	39
432.369	457
432.443	892
432.516	5912
432.590	30876
432.664	22530
432.737	2194
432.811	-134
432.885	519
432.958	-16
433.032	-372
433.106	61
433.179	-248
433.253	-85
433.326	442
433.400	-266
433.473	8
433.547	-89
433.620	-548
433.694	174
433.767	1534
433.841	-768
433.914	-188
433.988	314
434.061	-325
434.134	315
434.208	-328
434.281	-292
434.355	-1203
434.428	-122
434.501	-356
434.575	106
434.648	-47
434.721	-168
434.795	-311
434.868	347
434.941	-396
435.014	-374
435.088	-394
435.161	115
435.234	495
435.307	1148
435.381	118
435.454	-406
435.527	-291
435.600	-540
435.673	-14
435.746	107
435.819	-29
435.892	-201
435.966	83
436.039	-330
436.112	311
436.185	-495
436.258	-66
436.331	-698
436.404	-468
436.477	-746
436.550	-821
436.623	-499
436.696	-454
436.769	-425
436.842	-106
436.915	456
436.987	384
437.060	147
437.133	-564
437.206	-510
437.279	653
437.352	-730
437.425	-500
437.498	-231
437.570	1497
437.643	2621
437.716	443
437.789	-652
437.861	681
437.934	3673
438.007	3714
438.080	240
438.152	-90
438.225	683
438.298	6719
438.370	43720
438.443	35816
438.516	7754
438.588	2018
438.661	251
438.734	419
438.806	4
438.879	1001
438.951	1132
439.024	1309
439.096	1370
439.169	-42
439.241	173
439.314	-579
439.386	565
439.459	2373
439.531	2880
439.604	1451
439.676	-159
439.749	98
439.821	-535
439.893	606
439.966	386
440.038	274
440.110	1053
440.183	1013
440.255	19
440.327	370
440.400	2626
440.472	22475
440.544	32673
440.617	5926
440.689	1899
440.761	1565
440.833	3388
440.905	3546
440.978	803
441.050	-919
441.122	327
441.194	-195
441.266	74
441.338	751
441.411	1036
441.483	4280
441.555	14104
441.627	6118
441.699	1879
441.771	1470
441.843	151
441.915	-1124
441.987	115
442.059	-403
442.131	-127
442.203	1081
442.275	702
442.347	1807
442.419	1120
442.491	1934
442.563	13240
442.635	12234
442.706	7789
442.778	11363
442.850	2473
442.922	-337
442.994	71
443.066	1011
443.137	1381
443.209	971
443.281	773
443.353	1507
443.425	5609
443.496	21948
443.568	33311
443.640	14825
443.711	2931
443.783	559
443.855	679
443.926	333
443.998	-115
444.070	533
444.141	1065
444.213	957
444.285	1551
444.356	830
444.428	1601
444.499	855
444.571	50
444.642	-257
444.714	134
444.785	677
444.857	1718
444.928	5723
445.000	6150
445.071	3856
445.143	6108
445.214	3101
445.285	2441
445.357	9115
445.428	18054
445.500	49235
445.571	48530
445.642	22233
445.714	8444
445.785	14485
445.856	6618
445.928	2194
445.999	2024
446.070	1445
446.141	1520
446.213	2333
446.284	2251
446.355	1088
446.426	1425
446.497	114
446.569	737
446.640	2903
446.711	2223
446.782	428
446.853	241
446.924	744
446.995	1035
447.066	813
447.138	2933
447.209	2518
447.280	235
447.351	264
447.422	-115
447.493	113
447.564	1661
447.635	974
447.706	1384
447.777	408
447.847	268
447.918	477
447.989	1616
448.060	1620
448.131	4157
448.202	5703
448.273	3315
448.344	1406
448.414	1242
448.485	654
448.556	371
448.627	-45
448.698	297
448.768	212
448.839	538
448.910	2588
448.981	3317
449.051	1379
449.122	657
449.193	148
449.263	607
449.334	1186
449.405	1152
449.475	2710
449.546	3378
449.616	2947
449.687	4720
449.758	2148
449.828	2057
449.899	1670
449.969	969
450.040	756
450.110	1877
450.181	1366
450.251	2033
450.322	914
450.392	1829
450.463	1006
450.533	1289
450.604	2110
450.674	1001
450.744	1274
450.815	1118
450.885	1276
450.955	532
451.026	1052
451.096	1134
451.166	1534
451.237	2586
451.307	9061
451.377	7778
451.447	1327
451.518	1429
451.588	1230
451.658	1059
451.728	2200
451.799	7433
451.869	15164
451.939	6181
452.009	1254
452.079	1107
452.149	1248
452.219	1539
452.289	8936
452.360	14062
452.430	5000
452.500	1858
452.570	2109
452.640	2078
452.710	4041
452.780	12252
452.850	8474
452.920	5784
452.990	4050
453.060	1880
453.129	2623
453.199	2852
453.269	6412
453.339	33448
453.409	60530
453.479	37945
453.549	60962
453.619	73557
453.688	50258
453.758	10841
453.828	2852
453.898	2920
453.968	2030
454.037	1736
454.087	1566
454.107	1492
454.168	1934
454.177	1995
454.247	1472
454.249	1482
454.316	1589
454.330	1739
454.386	2313
454.411	2820
454.456	3470
454.492	7104
454.525	10312
454.574	8230
454.595	7367
454.655	3016
454.665	2319
454.734	1194
454.736	1252
454.804	3101
454.817	4066
454.873	7488
454.898	10139
454.943	14793
454.979	11199
455.013	8044
455.060	4677
455.082	3281
455.141	2997
455.152	2962
455.221	6069
455.222	6231
455.291	16216
455.303	16181
455.360	15726
455.384	18716
455.430	22168
455.465	22181
455.499	22514
455.546	15530
455.569	12206
455.627	10736
455.638	10586
455.707	3924
455.708	3916
455.777	2042
455.789	2070
455.846	2069
455.869	2107
455.916	2220
455.950	2195
455.985	2120
456.031	1707
456.054	1583
456.112	2032
456.124	2075
456.193	1576
456.193	1569
456.262	2011
456.274	2124
456.332	2576
456.355	2339
456.401	1596
456.436	1656
456.470	1808
456.516	1834
456.540	1821
456.597	1409
456.609	1348
456.678	2178
456.678	2175
456.747	733
456.759	818
456.817	1253
456.840	1305
456.886	1292
456.920	1185
456.955	1250
457.001	1322
457.024	1273
457.082	1276
457.093	1301
457.162	2199
457.163	2208
457.232	2495
457.243	2547
457.301	1872
457.324	1358
457.370	1149
457.405	1405
457.439	1442
457.485	1571
457.508	1697
457.566	1396
457.577	1321
457.646	1764
457.647	1773
457.715	2159
457.727	2224
457.784	2703
457.808	2680
457.853	2521
457.889	3128
457.922	3560
457.969	3298
457.991	3302
458.050	3664
458.060	3738
458.129	3644
458.130	3688
458.198	4514
458.211	4322
458.267	3409
458.292	2885
458.336	2386
458.372	2262
458.405	2366
458.453	2452
458.474	2545
458.533	3494
458.543	3643
458.611	5901
458.614	5994
458.680	5618
458.694	4998
458.749	3920
458.775	3285
458.818	2275
458.855	2018
458.887	1936
458.936	2060
458.955	1906
459.016	1831
459.024	1949
459.093	2375
459.097	2383
459.162	2130
459.177	2260
459.230	2401
459.257	2323
459.299	2338
459.338	2581
459.368	2910
459.418	3080
459.437	2866
459.499	2496
459.505	2519
459.574	2566
459.579	2545
459.643	2270
459.659	2378
459.711	2622
459.740	2668
459.780	2926
459.820	2931
459.849	2678
459.900	2335
459.917	2363
459.981	3186
459.986	3200
460.054	2687
460.061	2651
460.123	2957
460.141	2958
460.191	2820
460.222	3123
460.260	3432
460.302	3439
460.328	3303
460.382	3208
460.397	3269
460.462	3178
460.465	3193
460.534	3674
460.543	3720
460.602	7738
460.623	9470
460.671	16542
460.703	22910
460.739	22013
460.783	23293
460.808	22779
460.864	9109
460.876	7741
460.944	3749
460.945	3698
461.013	2785
461.024	2733
461.081	2796
461.104	2783
461.150	2531
461.184	2535
461.218	2826
461.264	2757
461.286	2654
461.345	2773
461.355	2787
461.423	2984
461.425	2981
461.491	2906
461.505	2917
461.559	4053
461.585	4650
461.628	7549
461.665	10327
461.696	11749
461.745	16126
461.764	14817
461.825	8046
461.832	8065
461.901	4243
461.905	4146
461.969	3085
461.985	3127
462.037	3191
462.065	2983
462.105	3004
462.145	3251
462.173	4294
462.225	6166
462.241	6764
462.305	9865
462.310	9670
462.378	7681
462.385	7153
462.446	4956
462.465	4093
462.514	2948
462.545	2876
462.582	2756
462.625	2979
462.650	3255
462.705	3140
462.718	3127
462.785	3447
462.786	3460
462.854	4388
462.865	4481
462.922	5112
462.945	5722
462.990	5157
463.025	4059
463.058	3627
463.104	3049
463.126	2969
463.184	2639
463.194	2593
463.262	2785
463.264	2788
463.330	3850
463.344	4094
463.398	3824
463.424	3632
463.466	3720
463.504	3963
463.533	3912
463.583	3475
463.601	3409
463.663	3144
463.669	3212
463.737	4475
463.743	4579
463.805	6348
463.823	6848
463.873	10843
463.903	13370
463.940	14201
463.982	15743
464.008	13487
464.062	7995
464.076	7677
464.142	4127
464.144	4080
464.211	3351
464.221	3336
464.279	3182
464.301	3216
464.347	3843
464.381	4085
464.414	4074
464.461	4280
464.482	4522
464.540	5167
464.550	5125
464.617	4855
464.620	4833
464.685	5260
464.699	5346
464.753	6353
464.779	6950
464.820	7911
464.859	8950
464.888	8755
464.938	8164
464.956	8201
465.018	8088
465.023	8009
465.091	7139
465.098	7027
465.158	6951
465.177	6949
465.226	6485
465.257	6172
465.293	6171
465.336	6186
465.361	6558
465.416	7302
465.428	7597
465.495	9244
465.496	9288
465.563	14800
465.575	15729
465.631	20172
465.654	22388
465.698	15800
465.734	9739
465.765	9017
465.813	7392
465.833	7087
465.893	6767
465.900	6784
465.968	7089
465.972	7099
466.035	6814
466.052	6763
466.102	6958
466.131	7001
466.170	7277
466.210	7597
466.237	7746
466.290	7969
466.304	8030
466.369	8315
466.372	8346
466.439	9057
466.449	9147
466.506	9527
466.528	9629
466.573	11350
466.607	12663
466.641	16842
466.687	22639
466.708	25478
466.766	33350
466.775	31249
466.842	15289
466.845	14508
466.909	12128
466.925	11550
466.977	11256
467.004	11211
467.044	10557
467.083	9893
467.111	11034
467.163	13158
467.178	13458
467.242	14634
467.245	14578
467.312	13076
467.321	12866
467.379	12559
467.400	12418
467.446	12325
467.480	12232
467.559	11404
467.638	10305
467.717	9838
467.796	10236
467.875	9619
467.955	10178
468.034	11788
468.113	25364
468.192	37845
468.271	14343
468.350	8655
468.429	9052
468.508	8218
468.588	7730
468.667	7878
468.746	9675
468.825	8378
468.904	7745
468.983	7985
469.062	11319
469.141	12945
469.220	8227
469.299	7356
469.378	9120
469.456	11113
469.535	10822
469.614	9347
469.693	8436
469.772	10355
469.851	13071
469.930	11042
470.009	9203
470.088	8658
470.166	8491
470.245	9396
470.324	9783
470.403	8481
470.482	7737
470.560	7403
470.639	7597
470.718	8615
470.797	7127
470.875	8701
470.954	10902
471.033	11978
471.111	7369
471.190	7117
471.269	6710
471.347	7582
471.426	7705
471.505	8456
471.583	9684
471.662	8979
471.740	7820
471.819	8080
471.898	6993
471.976	8678
472.055	7365
472.133	7859
472.212	9601
472.290	10225
472.369	7682
472.447	7861
472.526	6462
472.604	7495
472.683	7797
472.761	7690
472.839	7128
472.918	7028
472.996	6994
473.075	7492
473.153	7326
473.231	6959
473.310	7730
473.388	7227
473.466	7214
473.545	7953
473.623	9522
473.701	8895
473.780	7523
473.858	6605
473.936	7687
474.014	7215
474.093	7747
474.171	9551
474.249	12681
474.327	9700
474.405	6526
474.484	6277
474.562	6231
474.640	6014
474.718	7114
474.796	8327
474.874	7616
474.952	5938
475.030	7012
475.108	7524
475.187	9589
475.265	9406
475.343	9725
475.421	11288
475.499	7602
475.577	7014
475.655	8074
475.733	13263
475.811	21524
475.889	20969
475.966	15882
476.044	7258
476.122	7347
476.200	8661
476.278	7815
476.356	6317
476.434	7289
476.512	7979
476.590	9414
476.667	8063
476.745	5729
476.823	6799
476.901	6535
476.979	6579
477.056	6691
477.134	6910
477.212	7180
477.290	6706
477.367	6950
477.445	4610
477.523	4948
477.601	6108
477.678	5855
477.756	7031
477.834	7168
477.911	6574
477.989	6437
478.066	5975
478.144	6748
478.222	7565
478.299	9651
478.377	9539
478.454	6204
478.532	4882
478.609	5404
478.687	5381
478.764	5640
478.842	6116
478.919	5327
478.997	6030
479.074	4248
479.152	6169
479.229	7070
479.307	5783
479.384	4377
479.461	5946
479.539	5386
479.616	7258
479.694	4850
479.771	5386
479.848	5756
479.926	7351
480.003	8284
480.080	5290
480.157	5685
480.235	4674
480.312	5097
480.389	6144
480.467	8382
480.544	9735
480.621	6674
480.698	5771
480.775	6260
480.853	6961
480.930	5216
481.007	5228
481.084	6040
481.161	6885
481.238	6593
481.315	5250
481.392	4970
481.470	4971
481.547	6204
481.624	4912
481.701	6136
481.778	5099
481.855	6020
481.932	8007
482.009	12563
482.086	10702
482.163	5604
482.240	6815
482.317	11640
482.393	9596
482.470	5299
482.547	5556
482.624	4799
482.701	5391
482.778	4739
482.855	4056
482.932	5281
483.009	4529
483.085	5165
483.162	5375
483.239	5714
483.316	4475
483.393	5327
483.469	4750
483.546	5100
483.623	6360
483.699	5192
483.776	5417
483.853	5829
483.930	8351
484.006	18120
484.083	33717
484.160	23280
484.236	36591
484.313	30683
484.389	21509
484.466	19437
484.543	17726
484.619	16140
484.696	17521
484.772	18103
484.849	19037
484.925	17195
485.002	17657
485.078	17088
485.155	17063
485.231	16117
485.308	15298
485.384	15756
485.461	18270
485.537	22661
485.614	29474
485.690	15929
485.766	15293
485.843	14739
485.919	17062
485.995	17464
486.072	14288
486.148	13826
486.224	13956
486.301	14029
486.377	14657
486.453	14817
486.530	15770
486.606	20846
486.682	24907
486.758	24553
486.835	25895
486.911	20904
486.987	28175
487.063	27681
487.139	26342
487.215	23303
487.292	16715
487.368	15543
487.444	14935
487.520	17389
487.596	16402
487.672	16459
487.748	20746
487.824	27426
487.900	19139
487.976	15645
488.052	15086
488.128	16725
488.204	15986
488.280	13895
488.356	15585
488.432	23597
488.508	37700
488.584	17807
488.660	13015
488.736	12796
488.812	13773
488.888	15932
488.964	16749
489.039	22469
489.115	33849
489.191	25318
489.267	13482
489.343	13456
489.418	11716
489.494	11654
489.570	11745
489.646	12225
489.722	11749
489.797	12664
489.873	14940
489.949	26161
490.024	25633
490.100	11305
490.176	10742
490.251	11788
490.327	13739
490.403	10192
490.478	11267
490.554	9349
490.629	9160
490.705	10302
490.781	10234
490.856	9433
490.932	11384
491.007	10493
491.083	10959
491.158	10014
491.234	12242
491.309	20135
491.385	23402
491.460	10687
491.536	10256
491.611	10080
491.686	9090
491.762	10811
491.837	14024
491.913	24231
491.988	29157
492.063	37138
492.139	16594
492.214	12736
492.289	8653
492.365	7799
492.440	9766
492.515	9047
492.590	10081
492.666	9237
492.741	9639
492.816	14418
492.891	9100
492.967	8042
493.042	7103
493.117	9011
493.192	9744
493.267	14340
493.342	42040
493.418	72445
493.493	16055
493.568	7435
493.643	7535
493.718	8332
493.793	10542
493.868	11599
493.943	8146
494.018	8649
494.093	7201
494.168	7314
494.243	6961
494.318	6451
494.393	6687
494.468	6779
494.543	6512
494.618	7341
494.693	7166
494.768	6549
494.842	6949
494.917	5943
494.992	6594
495.067	6645
495.142	5456
495.217	6421
495.292	6097
495.366	7489
495.441	8700
495.516	9528
495.591	11243
495.665	21925
495.740	55765
495.815	28490
495.890	9499
495.964	7852
496.039	8864
496.114	8582
496.188	9052
496.263	9106
496.338	8242
496.412	9661
496.487	11513
496.561	9559
496.636	10196
496.710	9400
496.785	9508
496.860	11551
496.934	10363
497.009	9705
497.083	10652
497.158	11209
497.232	11429
497.307	13449
497.381	13854
497.455	14107
497.530	17721
497.604	15639
497.679	15659
497.753	22569
497.827	31015
497.902	32256
497.976	34765
498.050	51941
498.125	169122
498.199	223553
498.273	48320
498.348	37621
498.422	32584
498.496	27199
498.570	23596
498.645	19639
498.719	18802
498.793	19184
498.867	22581
498.941	28189
499.016	58204
499.090	197080
499.164	90957
499.238	13613
499.312	10225
499.386	10936
499.460	11317
499.534	10601
499.609	10867
499.683	16812
499.757	17619
499.831	25744
499.905	109978
499.979	137315
500.053	21406
500.127	17369
500.201	11782
500.275	8989
500.349	9818
500.422	10972
500.496	13197
500.570	20253
500.644	51305
500.718	132747
500.792	38751
500.866	9753
500.940	10602
501.013	10731
501.087	9495
501.161	13600
501.235	17190
501.309	32877
501.382	94599
501.456	109059
501.530	21641
501.603	34104
501.677	19045
501.751	7771
501.825	9172
501.898	12971
501.972	38486
502.046	32700
502.119	9707
502.193	16529
502.266	44374
502.340	27160
502.413	17731
502.487	39626
502.561	25582
502.634	9320
502.708	7425
502.781	6358
502.855	6182
502.928	5576
503.002	5184
503.075	5325
503.149	5739
503.222	5725
503.295	7075
503.369	8072
503.442	10299
503.516	23602
503.589	73500
503.662	55822
503.736	16801
503.809	32227
503.882	31059
503.956	37353
504.029	43731
504.102	13864
504.175	14273
504.249	8071
504.322	7222
504.395	8342
504.468	5825
504.542	6057
504.615	5301
504.688	5671
504.761	4056
504.834	6665
504.907	6751
504.980	8589
505.053	5357
505.127	6071
505.200	9307
505.273	8665
505.346	6586
505.419	4855
505.492	5778
505.565	4724
505.638	5183
505.711	4385
505.784	5081
505.857	4824
505.930	5585
506.003	5073
506.076	6359
506.149	6649
506.221	8110
506.294	7788
506.367	14752
506.440	53976
506.513	39663
506.586	8685
506.659	6183
506.731	5134
506.804	5645
506.877	7228
506.950	6220
507.022	5676
507.095	5462
507.168	7996
507.241	5185
507.313	4749
507.386	4696
507.459	5289
507.531	5459
507.604	4586
507.677	5518
507.749	4190
507.822	5964
507.894	10135
507.967	15310
508.040	11158
508.112	8662
508.185	8347
508.257	7774
508.330	9151
508.402	8317
508.475	8379
508.547	8867
508.620	7805
508.692	10053
508.765	9102
508.837	7044
508.909	6525
508.982	6839
509.054	6860
509.127	7131
509.199	5894
509.271	6478
509.344	5857
509.416	6315
509.488	6287
509.560	6497
509.633	6086
509.705	6534
509.777	6941
509.849	8501
509.922	6915
509.994	6913
510.066	7341
510.138	7657
510.210	15314
510.283	15113
510.355	11081
510.427	10536
510.499	9492
510.571	8656
510.643	9070
510.715	9949
510.787	8963
510.859	8737
510.931	9284
511.003	10498
511.076	10521
511.148	8633
511.219	8973
511.291	10894
511.363	13350
511.435	8196
511.507	7925
511.579	8175
511.651	8348
511.723	7429
511.795	8249
511.867	7711
511.939	8102
512.010	12289
512.082	12079
512.154	7958
512.226	8140
512.298	11174
512.369	15301
512.441	13480
512.513	11087
512.585	9708
512.656	9988
512.728	9836
512.800	8789
512.871	8584
512.943	8923
513.015	8522
513.086	8821
513.158	8818
513.230	7830
513.301	8975
513.373	10716
513.444	8384
513.516	7681
513.588	8311
513.659	7494
513.731	8811
513.802	8107
513.874	10704
513.945	15299
514.016	9195
514.088	7783
514.159	8930
514.231	9754
514.302	13568
514.374	11793
514.445	10809
514.516	15159
514.588	14216
514.659	9951
514.730	13522
514.802	13126
514.873	12725
514.944	15600
515.016	11229
515.087	10720
515.158	11536
515.229	17192
515.301	13597
515.372	19956
515.443	14095
515.514	10516
515.585	7843
515.656	8643
515.728	7224
515.799	6825
515.870	7594
515.941	7631
516.012	7812
516.083	10705
516.154	10912
516.225	10934
516.296	10138
516.367	9212
516.438	9175
516.509	9982
516.580	11870
516.651	21557
516.722	70949
516.793	48245
516.864	13776
516.935	14614
517.006	14482
517.077	16899
517.148	27676
517.219	68460
517.289	142127
517.360	67048
517.431	33828
517.502	10321
517.573	9250
517.643	8747
517.714	11240
517.785	11132
517.856	10282
517.926	11454
517.997	11298
518.068	12460
518.138	15827
518.209	20516
518.280	44848
518.350	190607
518.421	100612
518.492	15265
518.562	10924
518.633	9837
518.703	9523
518.774	10042
518.845	13697
518.915	16000
518.986	10723
519.056	11452
519.127	15407
519.197	21173
519.268	51154
519.338	51578
519.408	13106
519.479	11702
519.549	9597
519.620	8578
519.690	7504
519.760	7268
519.831	7131
519.901	7824
519.971	7521
520.042	6879
520.112	7596
520.182	8483
520.253	8937
520.323	7738
520.393	9041
520.463	13541
520.534	8328
520.604	18733
520.674	11398
520.744	8868
520.814	17119
520.885	19887
520.955	17974
521.025	67498
521.095	40536
521.165	9046
521.235	7649
521.305	6321
521.375	6864
521.445	6724
521.515	7820
521.585	8086
521.655	6819
521.725	7202
521.795	7571
521.865	5914
521.935	8611
522.005	8414
522.075	5919
522.145	6678
522.215	6510
522.285	8786
522.355	10479
522.424	17389
522.494	17429
522.564	9091
522.634	10354
522.704	26192
522.774	15402
522.843	6945
522.913	6127
522.983	6989
523.053	6022
523.122	6576
523.192	6280
523.262	12282
523.331	15416
523.401	7003
523.471	4992
523.540	5977
523.610	4750
523.680	4955
523.749	5049
523.819	5595
523.888	6596
523.958	4851
524.027	4688
524.097	5990
524.166	4886
524.236	5111
524.305	5916
524.375	4413
524.444	4686
524.514	6587
524.583	4918
524.653	5315
524.722	6406
524.791	5386
524.861	5261
524.930	5237
524.999	5009
525.069	6681
525.138	5758
525.207	6577
525.277	5863
525.346	4605
525.415	5416
525.484	4786
525.554	5726
525.623	4540
525.692	4480
525.761	4753
525.830	5281
525.900	4509
525.969	6146
526.038	6941
526.107	7176
526.176	17991
526.245	17518
526.314	9592
526.383	13103
526.452	15405
526.522	21476
526.591	31346
526.660	16798
526.729	10066
526.797	11419
526.867	16215
526.935	66372
527.004	84023
527.073	48042
527.142	8106
527.211	5667
527.280	5189
527.349	5066
527.418	4565
527.487	4672
527.555	4090
527.624	3926
527.693	3413
527.762	4184
527.831	3468
527.899	3591
527.968	3561
528.037	3381
528.106	4103
528.174	6304
528.243	5874
528.312	7564
528.380	8889
528.449	4575
528.518	5496
528.586	3284
528.655	3472
528.723	3263
528.792	2993
528.861	3087
528.929	3164
528.998	5018
529.066	2592
529.135	3836
529.203	3321
529.272	2847
529.340	4168
529.409	4555
529.477	4057
529.545	3584
529.614	5928
529.682	5240
529.751	6149
529.819	6964
529.887	5053
529.956	3894
530.024	3766
530.092	3294
530.161	4535
530.229	4052
530.297	3897
530.365	4114
530.434	3387
530.502	2928
530.570	3237
530.638	2329
530.707	3679
530.775	4774
530.843	3544
530.911	3443
530.979	3658
531.047	3111
531.115	3695
531.183	3354
531.252	3631
531.320	3175
531.388	2865
531.456	3284
531.524	1850
531.592	3750
531.660	4311
531.728	3159
531.796	2951
531.864	3018
531.932	3115
532.000	3634
532.067	3451
532.135	3929
532.203	4299
532.271	4752
532.339	5779
532.407	11185
532.475	8572
532.542	6068
532.610	6370
532.678	6777
532.746	16162
532.814	54817
532.881	19157
532.949	4740
533.017	3503
533.084	3658
533.152	3281
533.220	3520
533.287	4141
533.355	4056
533.423	4152
533.490	2526
533.558	3999
533.625	3701
533.693	4555
533.761	4520
533.828	4942
533.896	3487
533.963	6318
534.031	8056
534.098	9119
534.166	6218
534.233	3656
534.300	4580
534.368	4888
534.435	4163
534.503	4542
534.570	4244
534.637	3059
534.705	3468
534.772	4121
534.840	3930
534.907	8346
534.974	13516
535.041	5515
535.109	4486
535.176	3291
535.243	3370
535.310	3669
535.378	3115
535.445	3406
535.512	3653
535.579	3758
535.646	2857
535.714	3096
535.781	5630
535.848	5572
535.915	5572
535.982	5552
536.049	4835
536.116	5748
536.183	4393
536.250	3807
536.317	4500
536.384	4166
536.451	5306
536.518	5483
536.585	4049
536.652	6097
536.719	6864
536.786	4955
536.853	4145
536.920	6026
536.987	8497
537.053	7161
537.120	22226
537.187	29099
537.254	5263
537.321	3625
537.388	5295
537.454	2976
537.521	3266
537.588	3570
537.654	4702
537.721	5438
537.788	5693
537.855	4703
537.921	3860
537.988	4523
538.055	4478
538.121	4817
538.188	3914
538.254	4770
538.321	7589
538.388	6480
538.454	3941
538.521	3946
538.587	3803
538.654	4450
538.720	4169
538.787	3511
538.853	4577
538.920	5241
538.986	4054
539.053	4193
539.119	4319
539.185	4100
539.252	4212
539.318	6181
539.385	5519
539.451	6410
539.517	6240
539.583	6281
539.650	8600
539.716	20434
539.782	9377
539.849	4362
539.915	4968
539.981	4017
540.047	5100
540.114	4419
540.180	5734
540.246	3886
540.312	5134
540.378	7390
540.444	9360
540.510	6944
540.576	21499
540.643	12146
540.709	4204
540.775	4168
540.841	4424
540.907	5962
540.973	9090
541.039	6660
541.105	7295
541.171	5166
541.237	4163
541.303	5142
541.369	6325
541.435	5758
541.500	6385
541.566	5815
541.632	3990
541.698	3564
541.764	3682
541.830	4514
541.896	3493
541.961	3842
542.027	4300
542.093	3956
542.159	3783
542.224	4993
542.290	6107
542.356	7030
542.421	9841
542.487	5238
542.553	4412
542.618	5412
542.684	4824
542.750	4287
542.815	4998
542.881	5649
542.947	16696
543.012	19274
543.078	4597
543.143	4035
543.209	4614
543.274	3928
543.340	5598
543.405	6852
543.471	12335
543.536	5931
543.602	4600
543.667	3263
543.732	4336
543.798	3427
543.863	4875
543.928	4213
543.994	3403
544.059	3701
544.124	4673
544.190	3551
544.255	4113
544.320	4599
544.386	4252
544.451	5454
544.516	5213
544.581	5181
544.646	10415
544.712	22945
544.777	7722
544.842	6164
544.907	6196
544.972	5251
545.037	5043
545.102	5728
545.168	5350
545.233	7013
545.298	6143
545.363	6693
545.428	7475
545.493	9472
545.558	14711
545.623	10264
545.688	5743
545.753	5676
545.818	5616
545.883	5163
545.947	5291
546.012	5591
546.077	5796
546.142	5828
546.207	4800
546.272	6469
546.337	6072
546.401	6053
546.466	6138
546.531	5730
546.596	6522
546.661	5600
546.725	6272
546.790	4723
546.855	5691
546.919	5069
546.984	6439
547.049	5729
547.113	7066
547.178	5483
547.243	6425
547.307	7654
547.372	7278
547.436	7439
547.501	6148
547.565	7135
547.630	7868
547.695	6473
547.759	8157
547.823	6973
547.888	7002
547.952	5942
548.017	6236
548.081	7358
548.146	8781
548.210	8733
548.274	6710
548.339	5871
548.403	6495
548.468	5814
548.532	5796
548.596	5600
548.660	6653
548.725	6224
548.789	8056
548.853	9412
548.917	6863
548.982	8147
549.046	10074
549.110	6487
549.174	6361
549.238	5761
549.303	5520
549.367	6285
549.431	6454
549.495	5664
549.559	5906
549.623	6871
549.687	7511
549.751	9322
549.815	7639
549.879	8078
549.943	6776
550.007	8273
550.071	8192
550.135	8990
550.199	7407
550.263	7541
550.327	8900
550.391	8545
550.455	7677
550.519	8378
550.582	8363
550.646	7815
550.710	10156
550.774	9008
550.838	8534
550.901	8512
550.965	9398
551.029	9093
551.093	10834
551.156	13042
551.220	17945
551.284	22877
551.347	13583
551.411	18374
551.475	26577
551.538	11510
551.602	9689
551.666	7923
551.729	6601
551.793	8548
551.856	8119
551.920	8054
551.983	7473
552.047	7504
552.110	7399
552.174	6785
552.237	7994
552.301	7512
552.364	6759
552.428	7223
552.491	7109
552.554	7414
552.618	6999
552.681	7413
552.745	7192
552.808	9187
552.871	11321
552.934	9331
552.998	7500
553.061	7724
553.124	8474
553.187	8613
553.251	9095
553.314	9469
553.377	11052
553.440	13817
553.503	29912
553.567	76084
553.630	22759
553.693	9031
553.756	7635
553.819	7027
553.882	7094
553.945	6911
554.008	6281
554.071	6200
554.134	7455
554.197	6016
554.260	6407
554.323	7935
554.386	7348
554.449	6469
554.512	7972
554.575	6641
554.638	6510
554.701	6703
554.764	6930
554.827	7364
554.889	5944
554.952	6056
555.015	5587
555.078	5931
555.141	6334
555.203	6206
555.266	5752
555.329	6090
555.391	5653
555.454	6130
555.517	5717
555.580	5633
555.642	5276
555.705	5894
555.768	5561
555.830	5508
555.893	5304
555.955	5803
556.018	4562
556.080	5017
556.143	5618
556.206	5422
556.268	5180
556.330	5778
556.393	5314
556.455	6229
556.518	7349
556.580	7529
556.643	5968
556.705	4784
556.767	3550
556.830	5602
556.892	5428
556.955	5834
557.017	6391
557.079	5407
557.142	4715
557.204	5098
557.266	7479
557.328	7538
557.391	4333
557.453	4031
557.515	4036
557.577	4918
557.639	5358
557.701	4158
557.764	3865
557.826	3999
557.888	5714
557.950	4497
558.012	4892
558.074	5235
558.136	6966
558.198	14386
558.260	10071
558.322	5000
558.384	5152
558.446	6981
558.508	6174
558.570	7639
558.632	10203
558.694	14543
558.756	13742
558.818	24022
558.880	74601
558.942	37317
559.003	15716
559.065	11870
559.127	6732
559.189	6155
559.251	6743
559.312	8080
559.374	12030
559.436	38455
559.498	33502
559.559	6828
559.621	6571
559.683	7266
559.744	9401
559.806	18382
559.868	35249
559.929	12931
559.991	7679
560.052	7585
560.114	13574
560.176	13933
560.237	9879
560.299	15029
560.360	7987
560.422	5605
560.483	5342
560.545	5497
560.606	5232
560.667	5018
560.729	5028
560.790	4670
560.852	4653
560.913	5054
560.974	4803
561.036	3872
561.097	4364
561.158	5399
561.220	5064
561.281	4796
561.342	4952
561.403	6178
561.465	5494
561.526	8636
561.587	14141
561.648	6293
561.709	5137
561.771	5436
561.832	5086
561.893	4594
561.954	5172
562.015	5370
562.076	5780
562.137	5126
562.198	5910
562.259	5328
562.320	4752
562.381	5417
562.442	5983
562.503	6670
562.564	5235
562.625	4990
562.686	4832
562.747	5126
562.808	5171
562.869	4980
562.930	7070
562.991	6141
563.051	6734
563.112	5557
563.173	5164
563.234	4733
563.294	5349
563.355	4898
563.416	5365
563.477	4714
563.537	5635
563.598	6284
563.659	5963
563.720	5179
563.780	5398
563.841	5462
563.901	6323
563.962	6123
564.023	5367
564.083	6447
564.144	5546
564.204	5990
564.265	6171
564.325	6984
564.386	10775
564.446	12057
564.507	5868
564.567	5853
564.628	5741
564.688	5868
564.749	5417
564.809	6099
564.869	6552
564.930	6137
564.990	6674
565.050	5660
565.111	6033
565.171	5939
565.231	5657
565.292	6139
565.352	5750
565.412	5796
565.472	6192
565.532	5905
565.593	7035
565.653	6498
565.713	6168
565.773	7648
565.833	6745
565.893	8570
565.953	6819
566.013	7668
566.074	7329
566.134	8838
566.194	12409
566.254	13140
566.314	11202
566.374	9342
566.434	8625
566.494	9135
566.554	9240
566.614	9864
566.673	10832
566.733	11681
566.793	11534
566.853	12989
566.913	12554
566.973	13594
567.033	13030
567.092	12345
567.152	12298
567.212	13892
567.272	14086
567.331	15117
567.391	14878
567.451	16647
567.511	18062
567.570	19229
567.630	15171
567.690	14777
567.749	14590
567.809	15957
567.868	17815
567.928	20703
567.988	24422
568.047	29331
568.107	36335
568.166	47849
568.226	72116
568.285	109356
568.345	105102
568.404	82869
568.464	69335
568.523	63564
568.582	64864
568.642	69443
568.701	84645
568.761	113151
568.820	175906
568.879	204769
568.939	155061
568.998	113345
569.057	85898
569.116	68506
569.176	56109
569.235	44747
569.294	38794
569.353	33212
569.413	29519
569.472	26697
569.531	23702
569.590	20299
569.649	19510
569.708	17301
569.767	16474
569.827	16060
569.886	14930
569.945	12474
570.004	12678
570.063	11745
570.122	12032
570.181	11986
570.240	11107
570.299	12445
570.358	12102
570.417	9579
570.475	9171
570.534	10081
570.593	9789
570.652	8679
570.711	8671
570.770	8541
570.829	9315
570.887	7320
570.946	7060
571.005	7531
571.064	8144
571.122	7108
571.181	7672
571.240	7994
571.299	6933
571.357	7771
571.416	8707
571.475	8352
571.533	8227
571.592	7561
571.650	7773
571.709	7380
571.768	6579
571.826	6139
571.885	7135
571.943	6834
572.002	6091
572.060	6792
572.119	6195
572.177	6325
572.236	5740
572.294	5248
572.352	5469
572.411	5968
572.469	5358
572.528	5760
572.586	6000
572.644	5623
572.703	8196
572.761	5809
572.819	6267
572.877	5832
572.936	6772
572.994	5441
573.052	5719
573.110	5714
573.169	7114
573.227	4965
573.285	5791
573.343	5991
573.401	5862
573.459	5638
573.517	5265
573.576	6203
573.634	4823
573.692	5856
573.750	5253
573.808	6025
573.866	6443
573.924	6907
573.982	8111
574.040	6675
574.098	5365
574.155	5580
574.213	4700
574.271	5708
574.329	4932
574.387	5240
574.445	4806
574.503	5276
574.560	5186
574.618	4853
574.676	4882
574.734	5677
574.792	5543
574.849	5909
574.907	5476
574.965	5211
575.022	4869
575.080	5460
575.138	6466
575.195	5434
575.253	6185
575.311	5680
575.368	6081
575.426	4773
575.483	6472
575.541	5335
575.598	5529
575.656	5834
575.713	5009
575.771	5314
575.828	5765
575.886	5971
575.943	6785
576.001	6129
576.058	5993
576.115	6859
576.173	6682
576.230	7778
576.287	7509
576.345	6724
576.402	6168
576.459	5909
576.517	5962
576.574	7526
576.631	7168
576.688	6378
576.746	7319
576.803	6260
576.860	6593
576.917	6548
576.974	6493
577.031	6147
577.089	5990
577.146	6500
577.203	7324
577.260	6876
577.317	7283
577.374	8024
577.431	7654
577.488	6799
577.545	6155
577.602	6698
577.659	6573
577.716	6598
577.773	8049
577.830	6948
577.886	7392
577.943	6762
578.000	6690
578.057	7454
578.114	7254
578.171	8137
578.227	9224
578.284	10098
578.341	8107
578.398	8237
578.454	7992
578.511	7714
578.568	8816
578.625	7962
578.681	7259
578.738	7086
578.794	7542
578.851	7548
578.908	7197
578.964	7493
579.021	8072
579.077	6753
579.134	7883
579.190	7235
579.247	7645
579.303	6208
579.360	8187
579.416	7197
579.473	7499
579.529	6926
579.586	7621
579.642	7231
579.698	7755
579.755	8655
579.811	8500
579.867	8018
579.924	8028
579.980	8442
580.036	9549
580.093	9813
580.149	12582
580.205	14677
580.261	12689
580.317	11064
580.374	10547
580.430	10569
580.486	10177
580.542	10019
580.598	9083
580.619	9179
580.654	9343
580.692	9065
580.710	8921
580.765	9008
580.767	9008
580.823	8251
580.838	8579
580.879	9435
580.911	8997
580.935	8670
580.984	8430
580.991	8389
581.047	9184
581.057	9094
581.103	8691
581.130	9450
581.159	10264
581.203	10896
581.215	11024
581.270	11134
581.276	11099
581.326	10712
581.349	10405
581.382	9923
581.422	9878
581.438	9858
581.494	10870
581.494	10872
581.550	10351
581.567	10345
581.606	10240
581.640	10550
581.661	10731
581.713	10416
581.717	10392
581.773	10021
581.786	10347
581.829	11273
581.859	11094
581.885	10990
581.932	11238
581.940	11262
581.996	11302
582.004	11436
582.052	12095
582.077	11750
582.107	11315
582.150	11854
582.163	12021
582.219	12109
582.223	12092
582.274	11821
582.296	12047
582.330	12451
582.368	12874
582.386	13007
582.441	12506
582.441	12498
582.497	13569
582.514	13514
582.552	13535
582.587	13785
582.608	13855
582.659	13989
582.663	13986
582.719	14224
582.732	14170
582.774	13983
582.805	14253
582.830	14541
582.877	15024
582.885	15095
582.941	14802
582.950	14946
582.996	15727
583.023	16477
583.052	17353
583.095	17740
583.107	17900
583.162	18953
583.168	19124
583.218	20553
583.240	20397
583.273	19591
583.313	19376
583.328	19388
583.384	18891
583.385	18883
583.439	18449
583.458	18489
583.494	18808
583.531	18741
583.549	18790
583.603	19166
583.605	19175
583.660	20345
583.676	20216
583.715	20058
583.748	20274
583.770	20412
583.820	21296
583.825	21385
583.881	21075
583.893	21251
583.936	21901
583.965	22246
583.991	22543
584.038	22348
584.046	22353
584.101	23158
584.110	23300
584.156	24097
584.183	24210
584.211	24279
584.255	24911
584.266	25141
584.321	25440
584.328	25532
584.376	26453
584.400	26550
584.431	26699
584.472	27361
584.486	27595
584.541	27763
584.545	27768
584.596	28356
584.617	28787
584.651	29839
584.689	30413
584.706	30700
584.761	30918
584.762	30897
584.816	32675
584.834	33186
584.871	34116
584.906	34135
584.926	34304
584.978	34970
584.980	35053
585.035	36704
585.051	37122
585.090	38135
585.123	38932
585.145	39758
585.195	40147
585.200	40230
585.254	41705
585.267	42026
585.309	43884
585.340	45519
585.364	46947
585.412	48132
585.419	48148
585.473	48404
585.484	48360
585.528	49934
585.556	50739
585.583	52356
585.628	56361
585.637	57831
585.692	67592
585.700	69633
585.747	84557
585.772	87603
585.801	80785
585.845	67792
585.856	65880
585.910	60376
585.917	59895
585.965	61236
585.989	61495
586.019	62800
586.061	64052
586.074	64507
586.128	66734
586.133	66753
586.183	68992
586.205	69654
586.237	70912
586.277	72855
586.292	74001
586.346	76538
586.349	76541
586.401	79385
586.421	80175
586.455	82269
586.493	84502
586.509	86556
586.564	93298
586.565	93287
586.618	105324
586.637	108610
586.672	110245
586.709	107440
586.727	105601
586.781	103027
586.781	103298
586.835	107901
586.853	109106
586.889	111501
586.925	113158
586.944	115437
586.996	121764
586.998	122260
587.052	127742
587.068	129319
587.106	134439
587.140	138160
587.161	141457
587.212	148434
587.215	149223
587.269	157296
587.284	159227
587.323	166445
587.356	171360
587.377	175908
587.427	185510
587.431	186714
587.485	196478
587.499	198540
587.539	209012
587.571	216868
587.593	224035
587.643	237023
587.648	239054
587.702	255390
587.715	258627
587.755	274633
587.786	285950
587.810	296887
587.858	316819
587.864	320500
587.917	349664
587.930	355158
587.971	382083
588.001	400705
588.025	418652
588.073	451421
588.079	458105
588.133	507338
588.145	516903
588.187	561157
588.217	590422
588.241	622670
588.288	682049
588.295	693705
588.348	776868
588.360	792754
588.402	879674
588.431	936746
588.456	998457
588.503	1112403
588.510	1135499
588.564	1299386
588.575	1330373
588.617	1495337
588.646	1604342
588.671	1709464
588.718	1900204
588.725	1927767
588.778	2102470
588.789	2131822
588.832	2103879
588.861	2065826
588.886	1889998
588.932	1500312
588.939	1457365
588.993	1060101
589.004	1002781
589.047	1371441
589.075	1623279
589.100	1875442
589.147	2278373
589.154	2292040
589.207	2335670
589.218	2339320
589.261	2260932
589.290	2202647
589.314	2198731
589.361	2183389
589.368	2195835
589.421	2257779
589.433	2264824
589.475	2169988
589.504	2085101
589.528	1870027
589.576	1379816
589.582	1390207
589.635	1513057
589.647	1541959
589.689	1966753
589.718	2229146
589.742	2199521
589.790	2112308
589.795	2089324
589.849	1810317
589.861	1740914
589.902	1557587
589.932	1413761
589.955	1336220
590.004	1159658
590.009	1150649
590.062	1009178
590.075	971169
590.115	895303
590.146	830631
590.168	798774
590.218	719051
590.222	716890
590.275	653235
590.289	634529
590.328	598432
590.360	564736
590.381	550452
590.431	509859
590.435	509627
590.488	471856
590.503	459564
590.541	439534
590.574	419103
590.594	411521
590.645	386409
590.647	387123
590.700	365242
590.716	357199
590.753	345063
590.787	330978
590.806	326360
590.859	309501
590.859	310521
590.912	295533
590.930	289495
590.965	282443
591.001	273209
591.018	270587
591.071	259220
591.072	258034
591.124	249616
591.143	245272
591.177	240160
591.214	232529
591.230	230718
591.283	221411
591.285	220112
591.336	215442
591.356	212458
591.389	208651
591.427	201970
591.442	201404
591.495	196236
591.498	195028
591.547	189891
591.569	186508
591.600	184243
591.640	179108
591.653	178822
591.706	174599
591.711	173418
591.759	172000
591.782	170089
591.811	169653
591.853	167310
591.864	166974
591.917	161685
591.924	160211
591.969	156937
591.995	154010
592.022	153262
592.066	150305
592.075	150578
592.127	148271
592.137	147207
592.180	148466
592.208	148248
592.233	146573
592.279	141434
592.285	141462
592.338	136612
592.350	134912
592.390	133487
592.421	131402
592.443	130767
592.491	127569
592.495	128008
592.548	126394
592.562	125399
592.600	123718
592.633	121261
592.653	121403
592.704	119714
592.705	120346
592.775	117113
592.846	116588
592.916	112253
592.987	111394
593.058	106664
593.128	105448
593.199	102753
593.270	102550
593.341	98672
593.411	97204
593.482	95355
593.553	93684
593.623	91260
593.694	90278
593.764	92175
593.835	88678
593.906	86042
593.976	84615
594.047	83482
594.117	86748
594.188	86316
594.258	80218
594.329	78777
594.399	77018
594.470	76296
594.540	73331
594.611	73048
594.681	73341
594.751	71439
594.822	71926
594.892	71400
594.963	72759
595.033	70809
595.103	70354
595.174	69146
595.244	74105
595.314	84493
595.384	70882
595.455	66038
595.525	66756
595.595	66194
595.665	66450
595.736	64421
595.806	63530
595.876	63287
595.946	63190
596.016	62670
596.087	62574
596.157	61990
596.227	62487
596.297	60888
596.367	61348
596.437	63101
596.507	66394
596.577	73903
596.647	65192
596.717	61069
596.787	59620
596.857	59803
596.927	60194
596.997	58133
597.067	59059
597.137	61502
597.207	62894
597.277	59671
597.347	58420
597.417	57147
597.487	56731
597.557	57154
597.626	56491
597.696	57442
597.766	60653
597.836	66052
597.906	61024
597.975	53700
598.045	53022
598.115	52361
598.185	52923
598.254	54181
598.324	55947
598.394	56111
598.464	54085
598.533	54501
598.603	52648
598.672	52988
598.742	53283
598.812	53292
598.881	52784
598.951	52367
599.020	51844
599.090	51072
599.159	51756
599.229	52363
599.299	49423
599.368	51125
599.437	50138
599.507	49685
599.576	51442
599.646	50491
599.715	52169
599.785	48321
599.854	48792
599.924	50326
599.993	50176
600.062	48498
600.132	48145
600.201	47775
600.270	50226
600.340	52036
600.409	50004
600.478	50332
600.547	50518
600.617	50442
600.686	49155
600.755	46303
600.824	45839
600.894	45859
600.963	45553
601.032	44602
601.101	44351
601.170	44547
601.239	43880
601.308	44367
601.378	45009
601.447	44411
601.516	44811
601.585	44702
601.654	45217
601.723	46157
601.792	45078
601.861	46675
601.930	48685
601.999	50552
602.068	46628
602.137	47504
602.206	48009
602.275	46693
602.343	47505
602.412	47594
602.481	45758
602.550	45053
602.619	45196
602.688	45382
602.756	45038
602.825	46510
602.894	45960
602.963	46769
603.032	46490
603.100	46255
603.169	46110
603.238	46142
603.307	45706
603.375	44618
603.444	45744
603.513	43988
603.581	44115
603.650	46181
603.719	45151
603.787	41903
603.856	43017
603.924	43211
603.993	44501
604.061	43412
604.130	44792
604.198	46360
604.267	44749
604.335	44986
604.404	46430
604.472	46391
604.541	45920
604.609	46759
604.678	45985
604.746	46650
604.815	48313
604.883	47172
604.951	47694
605.020	46504
605.088	47683
605.156	46249
605.225	45645
605.293	45156
605.361	46574
605.429	45718
605.498	46196
605.566	46541
605.634	46611
605.702	47963
605.771	47899
605.839	49266
605.907	47428
605.975	46504
606.043	48246
606.111	45925
606.180	48096
606.248	49128
606.316	53978
606.384	48017
606.452	48998
606.520	44975
606.588	43869
606.656	41855
606.724	41673
606.792	40131
606.860	38003
606.928	36563
606.996	35480
607.064	34137
607.132	35037
607.200	35315
607.267	36876
607.335	37767
607.403	37097
607.471	36341
607.539	36338
607.607	36573
607.674	34452
607.742	33698
607.810	33965
607.878	34079
607.946	33586
608.013	33747
608.081	35804
608.149	36293
608.216	35230
608.284	35886
608.352	36608
608.419	36468
608.487	40331
608.555	40834
608.622	34182
608.690	34993
608.757	36803
608.825	38378
608.893	37800
608.960	38377
609.028	41323
609.095	42606
609.163	39565
609.230	35934
609.298	34386
609.365	32431
609.432	34116
609.500	35366
609.567	37859
609.635	41161
609.702	42987
609.769	43436
609.837	39731
609.904	36682
609.971	34681
610.039	37832
610.106	43196
610.173	60358
610.241	113327
610.308	161216
610.375	114199
610.442	54510
610.509	39453
610.577	35828
610.644	35044
610.711	35039
610.778	35308
610.845	36624
610.912	37888
610.980	40002
611.047	47696
611.114	48341
611.181	38041
611.248	34787
611.315	35908
611.382	36033
611.449	36801
611.516	38357
611.583	38208
611.650	38333
611.717	37891
611.784	37376
611.851	39127
611.918	42377
611.984	44445
612.051	53695
612.118	82148
612.185	179352
612.252	241314
612.319	75784
612.386	47975
612.452	43492
612.519	42748
612.586	47067
612.653	47067
612.719	41919
612.786	40759
612.853	38936
612.919	36430
612.986	37519
613.053	36803
613.120	35718
613.186	35032
613.253	37160
613.319	35502
613.386	35010
613.453	35021
613.519	35876
613.586	37137
613.652	42031
613.719	39689
613.785	39920
613.852	36817
613.918	35122
613.985	36330
614.051	39586
614.118	52277
614.184	67469
614.250	41866
614.317	36661
614.383	34227
614.449	35150
614.516	34875
614.582	35408
614.648	35731
614.715	34105
614.781	35496
614.847	36894
614.914	36783
614.980	37202
615.046	36487
615.112	37458
615.179	40361
615.245	47239
615.311	60448
615.377	99939
615.443	159366
615.509	111359
615.575	66991
615.642	51445
615.708	47760
615.774	48796
615.840	56192
615.906	69652
615.972	104726
616.038	199571
616.104	335341
616.170	350854
616.236	429014
616.302	145967
616.368	72116
616.434	57458
616.500	51005
616.565	48535
616.631	50307
616.697	49680
616.763	46824
616.829	49878
616.895	66271
616.961	81819
617.026	60774
617.092	43275
617.158	40025
617.224	38519
617.289	38365
617.355	37060
617.421	38762
617.487	38511
617.552	35961
617.618	34180
617.684	34393
617.749	36178
617.815	34082
617.880	32570
617.946	33030
618.012	33569
618.077	34727
618.143	33707
618.208	34065
618.274	35325
618.339	37321
618.405	35423
618.470	33856
618.536	34954
618.601	35590
618.667	35887
618.732	34248
618.798	32963
618.863	32413
618.928	32998
618.994	32965
619.059	34504
619.124	37006
619.190	36959
619.255	33226
619.320	32211
619.386	32706
619.451	31053
619.516	31483
619.581	31147
619.647	33694
619.712	33848
619.777	32644
619.842	31204
619.907	32103
619.972	32247
620.038	33159
620.103	32169
620.168	30496
620.233	31335
620.298	30954
620.363	31172
620.428	30344
620.493	31789
620.558	31416
620.623	31668
620.688	32196
620.753	30771
620.818	31145
620.883	31451
620.948	31426
621.013	32087
621.078	32717
621.143	31395
621.207	35303
621.272	33578
621.337	34059
621.402	34663
621.467	39725
621.532	43892
621.596	39277
621.661	36340
621.726	34357
621.791	34316
621.855	35429
621.920	35981
621.985	36880
622.049	38542
622.114	39627
622.179	38185
622.243	39097
622.308	39973
622.373	40037
622.437	40534
622.502	37350
622.566	37743
622.631	37652
622.695	38035
622.760	37472
622.824	36700
622.889	36473
622.953	38817
623.018	40670
623.082	46117
623.147	38603
623.211	36765
623.276	36681
623.340	37254
623.404	34614
623.469	35099
623.533	35144
623.597	35387
623.662	35545
623.726	35146
623.790	33250
623.854	33081
623.919	34193
623.983	32616
624.047	34340
624.111	33279
624.176	34093
624.240	34452
624.304	37070
624.368	34691
624.432	33484
624.496	33242
624.560	34018
624.625	34327
624.689	34228
624.753	33121
624.817	33121
624.881	32750
624.945	33514
625.009	31053
625.073	33134
625.137	33146
625.201	34441
625.265	35508
625.329	33723
625.393	31280
625.456	32901
625.520	32438
625.584	35013
625.648	36892
625.712	45459
625.776	75648
625.839	107238
625.903	74074
625.967	35519
626.031	40075
626.095	64076
626.158	46679
626.222	30482
626.286	28374
626.349	27279
626.413	27602
626.477	26912
626.540	26704
626.604	27102
626.668	26926
626.731	25705
626.795	26563
626.858	28581
626.922	27147
626.986	26629
627.049	25629
627.113	25781
627.176	25075
627.240	24160
627.303	25395
627.366	24771
627.430	24639
627.493	26504
627.557	25946
627.620	26777
627.684	25612
627.747	26502
627.810	24706
627.874	24464
627.937	24291
628.000	24768
628.064	25472
628.127	24227
628.190	22621
628.253	23453
628.317	23476
628.380	22540
628.443	21354
628.506	23036
628.569	22264
628.632	20977
628.696	20832
628.759	21862
628.822	19511
628.885	20695
628.948	20669
629.011	21064
629.074	20806
629.137	20242
629.200	20603
629.263	21860
629.326	19967
629.389	20190
629.452	20478
629.515	21612
629.578	20057
629.641	19995
629.704	20877
629.767	21289
629.830	20399
629.892	19712
629.955	19256
630.018	20703
630.081	19812
630.144	20950
630.207	20270
630.269	21251
630.332	20795
630.395	21347
630.458	18113
630.520	18055
630.583	18995
630.646	17914
630.708	17993
630.771	18457
630.834	17814
630.896	17759
630.959	17465
631.021	18001
631.084	17905
631.146	18738
631.209	19894
631.272	19177
631.334	17291
631.397	17184
631.459	17198
631.522	17026
631.584	18031
631.646	18277
631.709	18331
631.771	18831
631.834	18722
631.896	18514
631.958	16848
632.021	17193
632.083	15928
632.145	18402
632.208	17814
632.270	18102
632.332	15692
632.395	15739
632.457	17316
632.519	17007
632.581	16777
632.643	15682
632.706	16621
632.768	15696
632.830	15399
632.892	15885
632.954	15433
633.016	17113
633.078	16327
633.141	15920
633.203	15277
633.265	15787
633.327	15649
633.389	14787
633.451	15676
633.513	17972
633.575	17043
633.637	17130
633.698	16044
633.760	16359
633.822	15358
633.884	15361
633.946	14988
634.008	17012
634.070	15406
634.132	17987
634.193	18499
634.255	15028
634.317	14433
634.379	15030
634.441	14302
634.502	15589
634.564	14552
634.626	13572
634.687	15535
634.749	15208
634.811	14309
634.873	13235
634.934	14918
634.996	14028
635.057	15040
635.119	14680
635.181	14072
635.242	14279
635.304	13767
635.365	14714
635.427	13655
635.488	13589
635.550	13733
635.611	14462
635.673	13164
635.734	16161
635.796	14536
635.857	14812
635.918	14458
635.980	14958
636.041	14264
636.102	14348
636.164	14307
636.225	14306
636.286	14002
636.348	13853
636.409	13647
636.470	13188
636.531	13518
636.593	13879
636.654	15379
636.715	12716
636.776	12572
636.838	12020
636.899	13361
636.960	13469
637.021	12261
637.082	13322
637.143	12608
637.204	12270
637.265	11399
637.326	12514
637.387	12208
637.448	11940
637.509	12899
637.570	12860
637.631	11774
637.692	11210
637.753	12403
637.814	11322
637.875	11117
637.936	12148
637.997	11815
638.058	11672
638.119	12913
638.179	11777
638.240	11435
638.301	11495
638.362	11813
638.423	11161
638.483	11927
638.544	10739
638.605	11559
638.666	11338
638.726	11530
638.787	11149
638.848	11479
638.908	10970
638.969	11386
639.030	11267
639.090	10759
639.151	10416
639.211	11385
639.272	11749
639.332	14335
639.393	13729
639.453	10631
639.514	11478
639.574	11111
639.635	10450
639.695	11230
639.756	11210
639.816	10786
639.877	10480
639.937	12104
639.997	14315
640.058	11789
640.118	9834
640.178	10003
640.239	9360
640.299	9695
640.359	9766
640.420	9155
640.480	10834
640.540	9296
640.600	10266
640.661	9787
640.721	10374
640.781	11582
640.841	11153
640.901	10392
640.961	9915
641.021	10378
641.082	10787
641.142	10698
641.202	11054
641.262	8810
641.322	9909
641.382	9261
641.442	9450
641.502	9830
641.562	10193
641.622	9255
641.682	10135
641.742	9503
641.802	10035
641.861	9968
641.921	10113
641.981	9329
642.041	10350
642.101	11124
642.161	10304
642.221	9268
642.280	9689
642.340	9083
642.400	9271
642.460	9251
642.519	8816
642.579	8543
642.639	10111
642.698	7949
642.758	9764
642.818	9615
642.877	9102
642.937	9095
642.997	9949
643.056	11722
643.116	9948
643.175	9969
643.235	9370
643.294	9458
643.354	9304
643.414	9125
643.473	9759
643.532	11236
643.592	11831
643.651	14179
643.711	19673
643.770	31558
643.830	59727
643.889	171096
643.948	121580
644.008	18855
644.067	11699
644.126	9700
644.186	10073
644.245	8997
644.304	7898
644.363	9270
644.423	9383
644.482	8570
644.541	8696
644.600	7220
644.659	9385
644.719	8863
644.778	10665
644.837	11780
644.896	16398
644.955	32026
645.014	31527
645.073	13919
645.132	10814
645.191	9757
645.250	8582
645.309	9076
645.368	8815
645.427	9044
645.486	9176
645.545	12778
645.604	10480
645.663	8423
645.722	8418
645.781	7866
645.840	8410
645.898	8743
645.957	11227
646.016	12185
646.075	16985
646.134	26247
646.192	53191
646.251	138269
646.310	58611
646.369	11941
646.427	10714
646.486	8586
646.545	7923
646.603	8240
646.662	7732
646.721	8366
646.779	7632
646.838	6231
646.896	7870
646.955	8351
647.014	9602
647.072	11478
647.131	19335
647.189	23635
647.248	8937
647.306	8181
647.365	8198
647.423	5920
647.481	8750
647.540	6568
647.598	7632
647.657	6898
647.715	7013
647.773	6565
647.832	7464
647.890	7078
647.948	7588
648.007	6891
648.065	7382
648.123	6603
648.181	8266
648.240	8189
648.298	9945
648.356	7774
648.414	7734
648.472	7677
648.531	7591
648.589	6788
648.647	6629
648.705	6923
648.763	6389
648.821	7036
648.879	6974
648.937	6688
648.995	8289
649.053	7311
649.111	7872
649.169	9669
649.227	13585
649.285	20041
649.343	48500
649.401	65451
649.459	18161
649.516	16481
649.574	10874
649.632	15178
649.690	23659
649.748	14784
649.806	13491
649.863	23214
649.921	20180
649.979	21530
650.037	8549
650.094	6823
650.152	6575
650.210	6191
650.268	7277
650.325	7053
650.383	7102
650.440	5138
650.498	6930
650.556	6263
650.613	6225
650.671	6336
650.728	6190
650.786	7205
650.843	5989
650.901	5957
650.958	6064
651.016	6056
651.073	5621
651.131	5709
651.188	5082
651.246	6047
651.303	5871
651.360	6765
651.418	6099
651.475	6686
651.532	5138
651.590	6252
651.647	5985
651.704	5975
651.762	5925
651.819	6761
651.876	5039
651.933	5618
651.990	5117
652.048	4878
652.105	5167
652.162	5483
652.219	5777
652.276	5149
652.333	6046
652.390	4755
652.448	5556
652.505	5948
652.562	6930
652.619	6557
652.676	8340
652.733	12919
652.790	7389
652.847	4931
652.904	5325
652.961	4681
653.017	5737
653.074	5646
653.131	5542
653.188	4465
653.245	4898
653.302	5293
653.359	5051
653.415	5088
653.472	5151
653.529	5660
653.586	4851
653.642	5224
653.699	5297
653.756	4232
653.813	4321
653.869	5715
653.926	4866
653.983	3615
654.039	5152
654.096	5081
654.152	5900
654.209	4028
654.266	5348
654.322	4141
654.379	6139
654.435	5154
654.492	5330
654.548	5805
654.605	8404
654.661	7862
654.717	5422
654.774	5985
654.830	5612
654.887	5277
654.943	5083
655.000	5775
655.056	5883
655.112	5950
655.168	4902
655.225	5464
655.281	6077
655.337	5621
655.394	8377
655.450	8782
655.506	6957
655.562	8025
655.618	11339
655.675	4866
655.731	5063
655.787	4674
655.843	4350
655.899	4164
655.955	5511
656.011	4797
656.067	4337
656.123	4881
656.179	5728
656.235	4932
656.291	4924
656.347	5875
656.403	5807
656.459	5559
656.515	6055
656.571	5019
656.627	6085
656.683	4831
656.739	5960
656.795	4484
656.850	4929
656.906	5205
656.962	5884
657.018	4649
657.074	4224
657.129	5425
657.185	4997
657.241	5153
657.297	5923
657.352	5138
657.408	4605
657.464	5569
657.519	5353
657.575	3993
657.630	4203
657.686	4555
657.742	3702
657.797	5484
657.853	4824
657.908	6356
657.964	4403
658.019	4399
658.075	4604
658.130	5433
658.186	4540
658.241	3842
658.297	4631
658.352	4353
658.407	5160
658.463	4099
658.518	4432
658.573	5119
658.629	3960
658.684	4212
658.739	4229
658.795	3944
658.850	4490
658.905	3986
658.960	5441
659.016	4029
659.071	4549
659.126	4824
659.181	4255
659.236	6067
659.291	6466
659.346	5766
659.401	5927
659.457	6438
659.512	8684
659.567	8203
659.622	4598
659.677	5064
659.732	4343
659.787	4163
659.842	4015
659.897	5360
659.952	6230
660.007	3440
660.061	4504
660.116	4295
660.171	4309
660.226	4199
660.281	5141
660.336	4251
660.391	4380
660.445	4178
660.500	4498
660.555	4619
660.610	3946
660.664	4848
660.719	4250
660.774	4686
660.828	4974
660.883	4442
660.938	4846
660.992	3667
661.047	4941
661.101	3725
661.156	4675
661.211	3659
661.265	3848
661.320	3409
661.374	4371
661.429	3643
661.483	4588
661.538	4836
661.592	4819
661.647	4045
661.701	5611
661.755	5109
661.810	4714
661.864	3492
661.919	3765
661.973	4890
662.027	5014
662.081	4218
662.136	3962
662.190	4627
662.244	4925
662.299	4693
662.353	5034
662.407	3666
662.461	4583
662.515	4574
662.569	4018
662.624	4747
662.678	4341
662.732	4811
662.786	4352
662.840	4611
662.894	5145
662.948	4098
663.002	4521
663.056	4093
663.110	3228
663.164	4960
663.218	4802
663.272	3771
663.326	4420
663.380	4087
663.434	4591
663.488	3675
663.542	4937
663.595	5003
663.649	4162
663.703	4362
663.757	4804
663.811	4338
663.864	4425
663.918	4315
663.972	3981
664.026	4384
664.079	4302
664.133	4752
664.187	4082
664.240	3910
664.294	4406
664.348	4995
664.401	4699
664.455	4933
664.508	3678
664.562	4475
664.615	4398
664.669	3895
664.722	4038
664.776	3888
664.829	3573
664.883	4031
664.936	4505
664.990	4454
665.043	4437
665.097	4665
665.150	4757
665.203	4241
665.257	5087
665.310	4313
665.363	4504
665.417	4676
665.470	5136
665.523	4791
665.576	5103
665.630	4203
665.683	4353
665.736	4642
665.789	4709
665.842	4015
665.895	4433
665.949	4566
666.002	3726
666.055	4151
666.108	4933
666.161	4875
666.214	4222
666.267	4648
666.320	4809
666.373	5582
666.426	4130
666.479	4624
666.532	5369
666.585	4397
666.638	5567
666.691	5627
666.744	5263
666.796	4761
666.849	5360
666.902	5185
666.955	4928
667.008	4056
667.060	3571
667.113	3909
667.166	4095
667.219	4280
667.271	4629
667.324	4011
667.377	4409
667.430	4589
667.482	4416
667.535	5862
667.587	4892
667.640	5117
667.693	4379
667.745	5537
667.798	7081
667.850	5294
667.903	4452
667.955	4460
668.008	5093
668.060	5622
668.113	5067
668.165	6106
668.218	5084
668.270	4911
668.322	5593
668.375	4561
668.427	4904
668.479	4524
668.532	4803
668.584	4926
668.636	4837
668.689	5129
668.741	4185
668.793	5227
668.845	4855
668.898	5947
668.950	5154
669.002	5515
669.054	4405
669.106	4325
669.158	5961
669.211	4972
669.263	4299
669.315	5907
669.367	6840
669.419	5280
669.471	6127
669.523	5513
669.575	6139
669.627	6041
669.679	5786
669.731	5132
669.783	5375
669.835	5740
669.886	5163
669.938	5570
669.990	6120
670.042	5762
670.094	5699
670.146	5206
670.197	6126
670.249	7645
670.301	8234
670.353	9343
670.404	13702
670.456	19620
670.508	30098
670.560	48135
670.611	82566
670.663	145163
670.715	270725
670.766	613106
670.818	464139
670.869	90393
670.921	29676
670.972	19686
671.024	14571
671.075	11701
671.127	9500
671.178	7181
671.230	7275
671.281	7214
671.333	6136
671.384	5724
671.436	6564
671.487	7609
671.538	6631
671.590	6338
671.641	7229
671.692	7845
671.744	9646
671.795	12457
671.846	8250
671.897	6518
671.949	7232
672.000	6096
672.051	5536
672.102	5357
672.153	4528
672.204	6257
672.256	5296
672.307	5554
672.358	4426
672.409	5622
672.460	5465
672.511	4363
672.562	4686
672.613	4705
672.664	5187
672.715	5076
672.766	4796
672.817	3810
672.868	3402
672.919	4696
672.970	4761
673.021	4340
673.071	4189
673.122	3624
673.173	3884
673.224	4397
673.275	4510
673.326	3665
673.376	3965
673.427	3814
673.478	4497
673.528	4160
673.579	4383
673.630	3839
673.680	4492
673.731	3782
673.782	4122
673.832	4756
673.883	4247
673.934	4435
673.984	3716
674.035	3904
674.085	4423
674.136	4762
674.186	4341
674.237	4717
674.287	5072
674.338	5692
674.388	3706
674.438	3277
674.489	4230
674.539	3912
674.589	4404
674.640	4869
674.690	4845
674.740	4518
674.791	4592
674.841	5101
674.891	4615
674.942	3486
674.992	3739
675.042	3567
675.092	3290
675.142	4233
675.193	4478
675.243	3708
675.293	3225
675.343	4154
675.393	3648
675.443	3905
675.493	4087
675.543	2903
675.593	4134
675.643	3124
675.693	4145
675.743	3851
675.793	4965
675.843	3366
675.893	4371
675.943	4024
675.993	4521
676.043	3278
676.093	4474
676.142	2674
676.192	4052
676.242	3500
676.292	3583
676.341	2912
676.391	4052
676.441	3088
676.491	3216
676.540	3492
676.590	3389
676.640	3165
676.689	4139
676.739	2537
676.789	2612
676.838	3037
676.888	4151
676.937	2189
676.987	2782
677.037	2931
677.086	2197
677.136	3169
677.185	3370
677.235	2813
677.284	2442
677.333	3226
677.383	2661
677.432	2976
677.482	2642
677.531	2937
677.580	2610
677.630	2536
677.679	2459
677.728	3403
677.778	2645
677.827	2616
677.876	2525
677.925	3038
677.975	2194
678.024	3221
678.073	2047
678.122	2852
678.171	3416
678.220	3269
678.269	3405
678.319	4340
678.368	3585
678.417	3296
678.466	3826
678.515	3624
678.564	3252
678.613	4128
678.662	2944
678.711	2406
678.760	3716
678.809	2977
678.857	3371
678.906	3049
678.955	3130
679.004	2869
679.053	3130
679.102	3538
679.151	2995
679.199	2154
679.248	2681
679.297	2206
679.346	2745
679.394	3154
679.443	3134
679.492	2737
679.540	2992
679.589	3291
679.638	3110
679.686	3080
679.735	3398
679.784	2450
679.832	2876
679.881	2453
679.929	2257
679.978	2015
680.026	1657
680.075	2758
680.123	2805
680.172	1784
680.220	2296
680.268	2398
680.317	1979
680.365	2795
680.414	2291
680.462	2645
680.510	2318
680.559	2162
680.607	1768
680.655	2247
680.703	2433
680.752	2544
680.800	2797
680.848	2094
680.896	2504
680.945	1787
680.993	2243
681.041	2405
681.089	2570
681.137	1897
681.185	1158
681.233	2291
681.258	2444
681.281	2550
681.329	2305
681.377	2300
681.380	2341
681.425	2281
681.473	2428
681.502	2488
681.521	2464
681.569	3478
681.617	2754
681.624	2875
681.665	3317
681.713	3279
681.745	2863
681.761	2606
681.809	2653
681.857	3565
681.867	3506
681.904	3140
681.952	4000
681.989	3217
682.000	2934
682.048	3242
682.096	3460
682.111	3254
682.143	2669
682.191	3001
682.233	3099
682.239	3075
682.286	3848
682.334	3587
682.354	4089
682.382	4680
682.430	4122
682.476	4298
682.477	4265
682.525	3740
682.572	4447
682.598	4266
682.620	4061
682.667	4110
682.715	4567
682.720	4587
682.763	4424
682.810	5003
682.841	4733
682.857	4535
682.905	5013
682.952	4991
682.963	4957
683.000	4655
683.047	5375
683.085	5511
683.095	5518
683.142	4760
683.190	5078
683.206	5139
683.237	5153
683.284	5565
683.328	4911
683.332	4825
683.379	5932
683.426	5309
683.449	5614
683.473	5889
683.521	5697
683.568	6212
683.571	6204
683.615	5649
683.662	5666
683.693	5929
683.709	6047
683.757	6390
683.804	6418
683.814	6442
683.851	6404
683.898	7058
683.936	6507
683.945	6342
683.992	5920
684.039	7077
684.057	7056
684.086	6984
684.133	6872
684.179	6804
684.180	6777
684.227	6526
684.274	7406
684.300	7376
684.321	7269
684.368	6160
684.415	7331
684.422	7279
684.462	6924
684.509	6828
684.543	7530
684.556	7728
684.603	7082
684.649	7737
684.665	7460
684.696	6899
684.743	7394
684.786	8251
684.790	8304
684.837	7575
684.883	8620
684.908	7952
684.930	7369
684.977	8682
685.023	9270
685.029	9237
685.070	8614
685.117	8526
685.150	9157
685.164	9401
685.210	9470
685.257	9678
685.272	9780
685.303	9941
685.350	8942
685.393	9826
685.396	9871
685.443	9625
685.490	9779
685.514	9766
685.536	9793
685.583	10046
685.629	9638
685.636	9716
685.675	9914
685.722	10318
685.757	9830
685.768	9731
685.815	10037
685.861	10476
685.878	10363
685.908	10042
685.954	10289
686.000	10431
686.000	10427
686.047	10825
686.093	11642
686.121	12090
686.139	12337
686.185	12461
686.232	12101
686.242	12321
686.278	12368
686.324	11688
686.363	10777
686.370	10697
686.416	9935
686.463	11255
686.484	11002
686.509	10775
686.555	10726
686.601	11222
686.606	11257
686.647	11480
686.693	11424
686.727	11504
686.739	11513
686.785	11455
686.831	11216
686.848	11164
686.877	11057
686.923	11100
686.969	11580
686.969	11580
687.015	11268
687.061	11821
687.090	11656
687.107	11599
687.153	11650
687.199	11390
687.211	11422
687.245	11336
687.291	11245
687.332	11591
687.336	11673
687.382	12044
687.428	12250
687.453	12525
687.474	12393
687.520	12109
687.565	11774
687.574	11668
687.611	11668
687.657	12277
687.695	12512
687.702	12560
687.748	12648
687.794	12353
687.816	12602
687.839	12923
687.885	13017
687.931	13397
687.937	13365
687.976	12620
688.022	12149
688.058	11763
688.067	11796
688.113	12358
688.158	12795
688.179	12862
688.204	12823
688.249	12226
688.295	12420
688.300	12453
688.340	13090
688.386	13215
688.421	13298
688.431	13264
688.477	13124
688.522	12892
688.542	13155
688.567	13446
688.613	13223
688.658	13105
688.663	13087
688.703	13142
688.749	12794
688.784	13195
688.794	13407
688.839	13896
688.884	14096
688.905	14190
688.930	13818
688.975	13244
689.020	13475
689.026	13338
689.065	13309
689.110	13408
689.146	14037
689.155	14098
689.201	13572
689.246	13435
689.267	13635
689.291	14027
689.336	14070
689.381	14233
689.388	14182
689.426	13868
689.471	13973
689.509	14106
689.516	14141
689.561	14006
689.606	14010
689.630	13908
689.651	13927
689.696	14452
689.741	14130
689.750	14204
689.785	14606
689.830	14538
689.871	14489
689.875	14466
689.920	14281
689.965	14274
689.992	14148
690.010	14237
690.054	13803
690.099	14056
690.112	14091
690.144	14327
690.189	14757
690.233	14698
690.233	14717
690.278	14832
690.323	14933
690.354	15061
690.367	15190
690.412	15125
690.457	15442
690.474	15314
690.501	15291
690.546	16020
690.590	16196
690.595	16216
690.635	16749
690.680	17260
690.716	17822
690.724	18142
690.769	19421
690.813	21211
690.836	21855
690.857	23065
690.902	25787
690.946	29027
690.957	29741
690.991	36619
691.035	46328
691.077	57588
691.080	58531
691.124	71970
691.168	82031
691.198	89666
691.213	85805
691.257	74717
691.301	63537
691.318	59272
691.346	53468
691.390	43835
691.434	34645
691.439	33543
691.478	30551
691.522	26936
691.559	23762
691.567	23567
691.611	22558
691.655	21178
691.680	20450
691.699	20229
691.743	19815
691.787	19515
691.800	19211
691.831	18974
691.875	18913
691.919	19057
691.921	19012
691.964	18734
692.008	18591
692.041	18908
692.052	19071
692.096	18870
692.139	19183
692.162	19146
692.183	18963
692.227	18495
692.271	18131
692.282	18020
692.315	18085
692.359	18048
692.402	18273
692.403	18309
692.447	17929
692.490	18012
692.523	17965
692.534	18168
692.578	18337
692.622	18842
692.643	18952
692.666	18963
692.709	19138
692.753	19063
692.763	19090
692.797	19117
692.840	18887
692.884	18905
692.884	18947
692.928	19045
692.971	19668
693.004	19832
693.015	19831
693.059	19708
693.102	19698
693.124	19654
693.146	19922
693.189	20383
693.233	20649
693.245	20784
693.276	21613
693.320	22468
693.363	23235
693.365	23212
693.407	24391
693.450	26152
693.485	27017
693.493	27528
693.537	30249
693.580	33090
693.605	34750
693.624	37826
693.667	44777
693.710	52026
693.725	54650
693.753	68413
693.797	89883
693.840	113537
693.845	116019
693.883	143258
693.926	169769
693.966	194678
693.970	192407
694.013	165661
694.056	139211
694.086	120804
694.099	114139
694.142	92649
694.185	70757
694.206	60248
694.229	56209
694.272	48274
694.315	40463
694.326	38332
694.358	35998
694.401	32688
694.444	29471
694.446	29236
694.487	27979
694.530	26775
694.566	25693
694.573	25604
694.616	24697
694.659	23580
694.686	22896
694.702	22528
694.745	21524
694.787	20370
694.806	19778
694.830	19903
694.873	20149
694.916	20375
694.926	20378
694.959	20101
695.002	19634
695.044	19136
695.046	19080
695.087	19170
695.130	19002
695.166	18815
695.172	18895
695.215	19296
695.258	19537
695.286	19655
695.301	19686
695.343	19721
695.386	19681
695.406	19530
695.428	19404
695.471	19286
695.514	19123
695.526	19065
695.556	19151
695.599	19240
695.641	19050
695.646	19015
695.684	19122
695.726	18935
695.766	18860
695.769	18929
695.811	19106
695.854	19515
695.886	19585
695.896	19540
695.938	19278
695.981	18947
696.005	18694
696.023	18677
696.065	18784
696.108	18557
696.125	18541
696.150	19047
696.192	19627
696.235	20125
696.245	20250
696.277	20244
696.319	20008
696.361	20007
696.365	19926
696.404	20119
696.446	20547
696.485	20809
696.488	20847
696.530	20711
696.572	20504
696.604	20329
696.614	20397
696.656	20486
696.698	20450
696.724	20398
696.740	20236
696.783	19681
696.825	19180
696.844	18914
696.867	19011
696.909	18903
696.951	18981
696.964	18942
696.992	19122
697.034	19254
697.076	19523
697.083	19498
697.118	19482
697.160	19454
697.202	19347
697.203	19295
697.244	19397
697.286	19374
697.323	19286
697.327	19295
697.369	18994
697.411	18587
697.442	18284
697.453	18412
697.494	18705
697.536	19022
697.562	19215
697.578	19314
697.620	19320
697.661	19309
697.682	19274
697.703	19239
697.744	19066
697.786	18985
697.801	18851
697.828	19173
697.869	19652
697.911	20126
697.921	20195
697.952	19854
697.994	19343
698.035	18827
698.040	18706
698.077	18719
698.118	18699
698.160	18708
698.160	18655
698.201	18734
698.243	18762
698.279	18774
698.284	18822
698.325	18749
698.367	18677
698.399	18546
698.408	18610
698.449	18715
698.491	18792
698.518	18783
698.532	18868
698.573	18980
698.614	19094
698.638	19110
698.656	19201
698.697	19293
698.738	19363
698.757	19349
698.779	19411
698.820	19422
698.862	19442
698.877	19393
698.903	19716
698.944	20152
698.985	20585
698.996	20650
699.026	20687
699.067	20660
699.116	20572
699.235	18945
699.354	19007
699.474	19307
699.593	19584
699.713	21477
699.832	18511
699.951	20172
700.070	18187
700.190	17947
700.309	19255
700.428	18817
700.547	19869
700.667	18516
700.786	18710
700.905	18868
701.024	17921
701.143	19235
701.262	16809
701.381	17092
701.500	17962
701.619	19187
701.738	17702
701.857	17386
701.976	16091
702.095	16999
702.214	16432
702.333	17776
702.452	18079
702.571	16830
702.690	16681
702.809	17506
702.928	15970
703.047	16246
703.165	15631
703.284	16271
703.403	16494
703.522	15169
703.640	16950
703.759	16575
703.878	21284
703.997	20405
704.115	15986
704.234	15902
704.353	15287
704.471	15114
704.590	15173
704.708	15115
704.827	15649
704.946	15137
705.064	16217
705.183	16516
705.301	16810
705.420	22961
705.538	26767
705.656	22543
705.775	21828
705.893	28343
706.012	55521
706.130	31032
706.249	21760
706.367	21231
706.485	21564
706.604	21323
706.722	21256
706.840	21678
706.958	23673
707.077	22486
707.195	20126
707.313	20762
707.431	19688
707.549	19512
707.668	19011
707.786	19201
707.904	19012
708.022	19406
708.140	19152
708.258	18063
708.376	18672
708.494	18992
708.612	19739
708.730	23502
708.848	30120
708.966	24846
709.084	24359
709.202	22573
709.320	22998
709.438	23116
709.556	23853
709.674	23240
709.791	23279
709.909	22633
710.027	21731
710.145	22334
710.263	22504
710.380	22557
710.498	22883
710.616	22703
710.733	21236
710.851	22345
710.969	22223
711.086	21560
711.204	21011
711.322	19858
711.439	21683
711.557	21981
711.674	20828
711.792	20829
711.909	21807
712.027	24309
712.144	21451
712.262	20636
712.379	20878
712.497	26142
712.614	33866
712.732	28883
712.849	25302
712.966	24408
713.084	26126
713.201	26953
713.318	26282
713.436	25606
713.553	25813
713.670	25048
713.787	25727
713.905	27833
714.022	25566
714.139	24000
714.256	24733
714.373	25408
714.490	27171
714.608	31575
714.725	58123
714.842	152895
714.959	47348
715.076	24379
715.193	21925
715.310	22529
715.427	21277
715.544	21114
715.661	20960
715.778	21057
715.895	23583
716.011	23894
716.128	23123
716.245	20870
716.362	21494
716.479	21994
716.596	22609
716.713	21251
716.829	20433
716.946	20710
717.063	19746
717.180	20508
717.296	20020
717.413	20054
717.530	19248
717.646	19610
717.763	19199
717.880	18937
717.996	19489
718.113	18441
718.229	17846
718.346	18488
718.462	17336
718.579	17772
718.695	21145
718.812	22537
718.928	21741
719.045	22345
719.161	16946
719.277	18137
719.394	17856
719.510	18023
719.626	18006
719.743	19489
719.859	20475
719.975	19982
720.092	24571
720.208	55332
720.324	41298
720.440	19383
720.557	18076
720.673	20376
720.789	24094
720.905	39873
721.021	49420
721.137	18364
721.253	16494
721.369	17425
721.486	18262
721.602	21482
721.718	19970
721.834	15182
721.950	15266
722.066	14979
722.181	15402
722.297	15045
722.413	15837
722.529	14434
722.645	15401
722.761	14409
722.877	15345
722.993	14652
723.108	15427
723.224	15614
723.340	14806
723.456	14179
723.571	14477
723.687	14424
723.803	13796
723.918	14545
724.034	13939
724.150	14564
724.265	14688
724.381	17924
724.497	33519
724.612	18677
724.728	14133
724.843	13007
724.959	13705
725.074	17420
725.190	30777
725.305	17790
725.421	14026
725.536	14039
725.651	12995
725.767	12383
725.882	12713
725.997	12112
726.113	12046
726.228	11958
726.343	12210
726.459	11504
726.574	11200
726.689	13484
726.804	11842
726.920	12601
727.035	12244
727.150	12597
727.265	11650
727.380	12692
727.495	12691
727.610	11731
727.725	12045
727.841	12855
727.956	17227
728.071	27212
728.186	14560
728.301	11469
728.416	10665
728.531	11013
728.645	10834
728.760	10867
728.875	11373
728.990	10844
729.105	10489
729.220	10504
729.335	10365
729.449	10483
729.564	10149
729.679	10379
729.794	10108
729.908	11256
730.023	12143
730.138	10113
730.253	9354
730.367	10542
730.482	9671
730.596	9731
730.711	10462
730.826	10444
730.940	10376
731.055	9799
731.169	10550
731.284	10370
731.398	10169
731.513	10042
731.627	11261
731.742	10171
731.856	11714
731.970	9628
732.085	9266
732.199	10686
732.313	10860
732.428	12565
732.542	19945
732.656	28075
732.771	13141
732.885	9987
732.999	8767
733.113	10269
733.227	10459
733.342	9615
733.456	8496
733.570	9439
733.684	8447
733.798	8946
733.912	9755
734.026	8454
734.140	8776
734.254	9504
734.368	10921
734.482	18163
734.596	11180
734.710	8534
734.824	9309
734.938	8259
735.052	9404
735.166	8989
735.280	9879
735.393	7676
735.507	7943
735.621	9242
735.735	13265
735.849	14252
735.962	8668
736.076	9634
736.190	8533
736.303	9082
736.417	13421
736.531	10027
736.644	8521
736.758	8005
736.872	8514
736.985	8065
737.099	7519
737.212	6925
737.326	8325
737.439	7833
737.553	7879
737.666	7646
737.780	7721
737.893	7832
738.007	7813
738.120	6763
738.233	7784
738.347	7675
738.460	7473
738.573	7673
738.687	7920
738.800	7474
738.913	7340
739.026	7624
739.140	8648
739.253	8278
739.366	7824
739.479	7220
739.592	7871
739.705	6967
739.818	7449
739.932	7614
740.045	7213
740.158	7193
740.271	8127
740.384	7243
740.497	7182
740.610	7980
740.723	7895
740.836	8168
740.949	7629
741.062	8001
741.174	7742
741.287	7535
741.400	7542
741.513	7386
741.626	7453
741.739	8094
741.851	7053
741.964	7190
742.077	6840
742.189	7751
742.302	7224
742.415	6817
742.527	7279
742.640	7266
742.753	7154
742.865	7174
742.978	6962
743.090	6929
743.203	7121
743.316	7080
743.428	7392
743.541	6640
743.653	6669
743.766	6928
743.878	6138
743.990	6708
744.103	9461
744.215	7296
744.327	6716
744.440	8177
744.552	7685
744.664	8498
744.777	6367
744.889	6909
745.001	6211
745.113	6650
745.226	7200
745.338	7021
745.450	6853
745.562	6841
745.674	6576
745.786	6386
745.898	6122
746.010	6879
746.122	6566
746.234	7756
746.347	6747
746.459	7553
746.570	6160
746.682	6852
746.794	6749
746.906	6586
747.018	6768
747.130	6678
747.242	5733
747.354	6848
747.466	6962
747.577	6867
747.689	7682
747.801	6428
747.913	5728
748.024	6353
748.136	6236
748.248	7161
748.359	6632
748.471	6557
748.583	6799
748.694	6138
748.806	8243
748.918	7925
749.029	8023
749.141	6817
749.252	6449
749.364	7050
749.475	7307
749.587	9115
749.698	7908
749.809	7380
749.921	7873
750.032	6384
750.144	7201
750.255	6646
750.366	6212
750.478	7023
750.589	6515
750.700	6793
750.811	7302
750.923	7199
751.034	7581
751.145	10384
751.256	7275
751.367	7426
751.479	6304
751.590	7130
751.701	7465
751.812	6877
751.923	7003
752.034	6924
752.145	6537
752.256	7037
752.367	6151
752.478	5620
752.589	6866
752.700	7017
752.811	7039
752.922	7322
753.032	6366
753.143	7411
753.254	6362
753.365	6644
753.476	6497
753.586	6646
753.697	6925
753.808	6559
753.919	6853
754.029	6165
754.140	6592
754.251	6787
754.361	6670
754.472	6379
754.582	6705
754.693	7238
754.804	6716
754.914	6507
755.025	6968
755.135	6634
755.246	6572
755.356	7018
755.466	6164
755.577	6914
755.687	6833
755.798	6602
755.908	6913
756.018	6714
756.129	6590
756.239	7194
756.349	6864
756.460	7450
756.570	6618
756.680	7232
756.790	7246
756.900	7931
757.011	7005
757.121	7766
757.231	7392
757.341	7728
757.451	7779
757.561	6962
757.671	7234
757.781	7852
757.891	7799
758.001	8196
758.111	8420
758.221	8846
758.331	8058
758.441	7743
758.551	7913
758.661	9775
758.771	8727
758.880	8336
758.990	8773
759.100	8436
759.210	8555
759.320	9529
759.429	8598
759.539	9842
759.649	9434
759.758	8827
759.868	9594
759.978	9654
760.087	9793
760.197	10465
760.307	10734
760.416	10626
760.526	11849
760.635	10591
760.745	10999
760.854	11273
760.964	11598
761.073	12067
761.182	12285
761.292	12375
761.401	12731
761.511	13793
761.620	13424
761.729	13630
761.839	14365
761.948	15183
762.057	15262
762.166	15133
762.276	15037
762.385	15848
762.494	15997
762.603	16239
762.712	17721
762.822	17633
762.931	19143
763.040	19321
763.149	19778
763.258	20828
763.367	20782
763.476	22168
763.585	23763
763.694	25645
763.803	25943
763.912	27716
764.021	28692
764.130	29835
764.238	31875
764.347	34215
764.456	37945
764.565	39546
764.674	42825
764.783	47628
764.891	51865
765.000	57862
765.109	65262
765.217	73942
765.326	84723
765.435	100100
765.543	121554
765.652	147463
765.761	184636
765.869	239520
765.978	323830
766.086	458271
766.195	667078
766.303	974591
766.412	1114276
766.520	812386
766.629	990360
766.737	885885
766.846	624375
766.954	438227
767.062	321067
767.171	242299
767.279	189982
767.387	147281
767.496	122023
767.604	103975
767.712	88556
767.820	77512
767.928	70479
768.037	64380
768.145	61523
768.253	57168
768.361	55182
768.469	55749
768.577	54669
768.685	56551
768.793	59838
768.901	64140
769.009	72102
769.117	84937
769.225	104270
769.333	135963
769.441	193949
769.549	298336
769.657	493474
769.765	834632
769.873	960063
769.981	836301
770.088	758366
770.196	473137
770.304	301629
770.412	210266
770.519	152904
770.627	119671
770.735	96201
770.842	80732
770.950	68864
771.058	59871
771.165	52200
771.273	47063
771.380	41902
771.488	38313
771.595	35607
771.703	33089
771.810	31047
771.918	28490
772.025	25026
772.133	25073
772.240	24182
772.348	22595
772.455	20767
772.562	20578
772.670	19923
772.777	18762
772.884	18254
772.991	17140
773.099	17544
773.206	16474
773.313	16142
773.420	15358
773.528	14671
773.635	13853
773.742	13818
773.849	13461
773.956	12885
774.063	12525
774.170	12775
774.277	12285
774.384	12458
774.491	11192
774.598	11437
774.705	11887
774.812	11489
774.919	11936
775.026	11583
775.133	11539
775.239	10721
775.346	10907
775.453	10241
775.560	10080
775.667	9899
775.773	9832
775.880	9836
775.987	9541
776.093	9211
776.200	9208
776.307	8739
776.413	9433
776.520	9011
776.627	8984
776.733	8690
776.840	8709
776.946	8335
777.053	7629
777.159	8380
777.266	7575
777.372	8777
777.478	7210
777.585	7788
777.691	7910
777.798	7609
777.904	7833
778.010	8997
778.117	9599
778.223	8891
778.329	7526
778.435	7084
778.542	7160
778.648	6625
778.754	7376
778.860	6756
778.966	7207
779.072	7556
779.178	7532
779.284	7586
779.391	7537
779.497	6652
779.603	9722
779.708	12327
779.815	21604
779.920	56420
780.026	193007
780.132	120070
780.238	17329
780.344	9328
780.450	8036
780.556	7617
780.661	6531
780.767	7218
780.873	5713
780.979	6556
781.085	6566
781.190	5391
781.296	6252
781.402	5385
781.507	5394
781.613	5396
781.719	5203
781.824	5881
781.930	5626
782.035	5441
782.141	4578
782.246	5497
782.352	5064
782.457	5605
782.563	4793
782.668	5424
782.773	4774
782.879	4839
782.984	5307
783.090	6167
783.195	5492
783.300	6720
783.405	5136
783.511	4795
783.616	5634
783.721	5262
783.826	5323
783.932	4255
784.037	4828
784.142	4092
784.247	5184
784.352	4819
784.457	5049
784.562	3992
784.667	4787
784.772	5056
784.877	4856
784.982	4647
785.087	4655
785.192	4857
785.297	4603
785.402	4512
785.507	4433
785.611	4118
785.716	4075
785.821	4110
785.926	4390
786.031	3721
786.135	4610
786.240	4338
786.345	3610
786.450	3918
786.554	4047
786.659	4838
786.763	3835
786.868	4795
786.973	4510
787.077	4416
787.182	3920
787.286	4415
787.391	3189
787.495	3998
787.600	4998
787.704	4068
787.809	4162
787.913	3808
788.017	3785
788.122	3720
788.226	4298
788.330	4103
788.435	3018
788.539	3817
788.643	2615
788.747	4149
788.852	4011
788.956	3861
789.060	4315
789.164	3763
789.268	3472
789.372	3920
789.476	3465
789.580	3888
789.684	4007
789.788	3599
789.892	3497
789.996	3194
790.100	3396
790.204	3995
790.308	4035
790.412	3767
790.516	3886
790.620	4173
790.724	3880
790.828	4414
790.931	3898
791.035	5022
791.139	3952
791.242	4075
791.346	3956
791.450	4169
791.554	2893
791.657	3308
791.761	2984
791.864	4029
791.968	3053
792.072	3699
792.175	3789
792.279	2752
792.382	3091
792.486	3619
792.589	3407
792.693	3826
792.796	3341
792.899	3531
793.003	3081
793.106	3611
793.209	2627
793.313	3761
793.416	2554
793.519	2974
793.623	2960
793.726	4070
793.829	3940
793.932	2383
794.035	2481
794.138	3681
794.242	4675
794.345	4514
794.448	6910
794.551	10560
794.654	31540
794.757	100677
794.860	75417
794.963	9958
795.066	4258
795.169	5125
795.272	3801
795.375	3759
795.477	3604
795.580	3079
795.683	1813
795.786	2732
795.889	2663
795.991	4299
796.094	2762
796.197	2962
796.300	3203
796.402	3116
796.505	2940
796.608	2098
796.710	2469
796.813	3104
796.915	2750
797.018	3040
797.120	3283
797.223	1891
797.326	2503
797.428	2241
797.530	2631
797.633	2688
797.735	3127
797.838	3343
797.940	5434
798.042	3605
798.145	2810
798.247	3621
798.349	2402
798.452	1934
798.554	2710
798.656	1863
798.758	3204
798.860	2018
798.962	2819
799.065	2547
799.167	1906
799.269	2650
799.371	2603
799.473	2708
799.575	2197
799.677	2675
799.779	3682
799.881	2870
799.983	3340
800.085	1641
800.187	2882
800.289	2459
800.390	2829
800.492	2176
800.594	2821
800.696	1971
800.798	2467
800.899	2420
801.001	2022
801.103	2221
801.205	2430
801.306	2036
801.408	2368
801.509	1762
801.611	1842
801.713	2299
801.814	1985
801.916	2545
802.017	2042
802.119	1438
802.220	2693
802.322	1414
802.423	2792
802.525	3332
802.626	2428
802.727	2263
802.829	1816
802.930	927
803.031	3341
803.133	1518
803.234	1393
803.335	1975
803.436	1584
803.538	1649
803.639	1423
803.740	1503
803.841	2194
803.942	2384
804.043	1781
804.144	1830
804.245	1921
804.346	1258
804.447	1740
804.548	2065
804.649	2444
804.750	2566
804.851	1838
804.952	2252
805.053	2142
805.154	1376
805.255	2458
805.355	1927
805.456	2266
805.557	1601
805.658	1678
805.758	2355
805.859	2168
805.960	1812
806.061	1953
806.161	1718
806.262	1410
806.362	1461
806.463	2283
806.564	2406
806.664	1816
806.765	2213
806.865	3018
806.966	2169
807.066	2141
807.166	1955
807.267	2124
807.367	1435
807.468	2210
807.568	1940
807.668	1902
807.769	2506
807.869	1673
807.969	1450
808.069	1891
808.170	1617
808.270	2240
808.370	2201
808.470	2254
808.570	2065
808.670	1863
808.770	2047
808.870	2035
808.970	1829
809.070	1446
809.170	2346
809.271	1516
809.370	1108
809.470	1575
809.570	2475
809.670	2041
809.770	1199
809.870	2333
809.970	2421
810.070	1505
810.169	2349
810.269	2187
810.369	2163
810.469	1492
810.568	1607
810.668	2207
810.768	1956
810.867	2096
810.967	1980
811.066	2364
811.166	2121
811.265	2719
811.365	2046
811.464	1683
811.564	1995
811.663	1561
811.763	1898
811.862	2257
811.962	2365
812.061	1920
812.160	1301
812.260	2006
812.359	2627
812.458	3078
812.557	3809
812.657	6707
812.756	6699
812.855	3008
812.954	2015
813.053	2727
813.153	2026
813.252	2842
813.351	1950
813.450	2463
813.549	2247
813.648	2754
813.747	3267
813.846	1971
813.945	2802
814.044	2358
814.143	2945
814.242	2934
814.341	2255
814.439	3229
814.538	3490
814.637	3695
814.736	3232
814.835	3888
814.933	3082
815.032	4119
815.131	4229
815.229	4136
815.328	4431
815.427	4201
815.525	3986
815.624	4707
815.722	5256
815.821	5132
815.919	5293
816.018	5706
816.116	6359
816.215	6277
816.313	6539
816.412	6470
816.510	7450
816.609	8314
816.707	8765
816.805	9608
816.904	9910
817.002	10118
817.100	12036
817.198	13475
817.296	15884
817.395	17466
817.493	22057
817.591	25666
817.689	32787
817.787	42758
817.885	58844
817.983	88376
818.081	143491
818.179	251654
818.277	451370
818.375	595696
818.473	462538
818.571	276831
818.669	169300
818.767	124821
818.865	106896
818.963	107858
819.061	126001
819.158	167471
819.256	249099
819.354	393487
819.452	602823
819.549	614536
819.647	503615
819.745	346822
819.842	223316
819.940	150807
820.038	107003
820.135	79817
820.233	62282
820.330	50044
820.428	42367
820.525	34671
820.623	29111
820.720	25113
820.818	22577
820.915	20443
821.012	17906
821.110	15768
821.207	13951
821.304	13143
821.402	11706
821.499	11190
821.596	11197
821.693	9825
821.791	9127
821.888	8369
821.985	8871
822.082	8886
822.179	7806
822.276	7345
822.373	6438
822.470	5915
822.567	5683
822.664	5019
822.761	5080
822.858	4964
822.955	5191
823.052	4728
823.149	3218
823.246	4705
823.343	4571
823.440	3951
823.536	3497
823.633	3667
823.730	3067
823.827	3805
823.923	3462
824.020	4534
824.117	3495
824.213	3009
824.310	3324
824.407	2752
824.503	2267
824.600	3009
824.696	2439
824.793	3309
824.889	3024
824.986	2003
825.082	2269
825.179	2704
825.275	2315
825.371	1692
825.468	2138
825.564	1911
825.660	1139
825.757	2340
825.853	2237
825.949	2342
826.045	1718
826.142	2127
826.238	2095
826.334	1889
826.430	1087
826.526	1841
826.622	1249
826.718	2125
826.814	1298
826.910	2014
827.006	1564
827.102	1332
827.198	1263
827.294	1868
827.390	1635
827.486	1229
827.582	1467
827.678	664
827.774	1652
827.869	1220
827.965	2195
828.061	1429
828.157	1125
828.252	1544
828.348	1126
828.444	1463
828.539	1839
828.635	1158
828.731	1511
828.826	918
828.922	874
829.017	1129
829.113	866
829.208	710
829.304	728
829.399	1402
829.495	1068
829.590	992
829.685	692
829.781	1123
829.876	818
829.971	865
830.066	1516
830.162	501
830.257	954
830.352	1083
830.447	2192
830.543	1554
830.638	764
830.733	1734
830.828	1123
830.923	1429
831.018	1599
831.113	858
831.208	957
831.303	1250
831.398	1122
831.493	544
831.588	855
831.683	552
831.778	903
831.873	1003
831.967	909
832.062	825
832.157	518
832.252	1725
832.346	-242
832.441	763
832.536	1476
832.631	2082
832.725	3516
832.820	1450
832.914	-218
833.009	1277
833.104	462
833.198	2157
833.293	757
833.387	945
833.482	1077
833.576	401
833.670	1652
833.765	812
833.859	696
833.954	1188
834.048	830
834.142	1556
834.237	-134
834.331	-444
834.425	894
834.519	735
834.613	1144
834.708	668
834.802	1144
834.896	672
834.990	1039
835.084	895
835.178	-153
835.272	433
835.366	675
835.460	1685
835.554	449
835.648	756
835.742	568
835.836	871
835.930	86
836.024	546
836.117	407
836.211	820
836.305	1215
836.399	2000
836.493	1225
836.586	851
836.680	-19
836.774	364
836.867	606
836.961	-276
837.055	-62
837.148	565
837.242	1260
837.335	970
837.429	51
837.522	204
837.616	125
837.709	1871
837.803	3056
837.896	708
837.989	1015
838.083	1144
838.176	2373
838.269	4178
838.363	2908
838.456	823
838.549	276
838.642	818
838.735	2436
838.829	2329
838.922	978
839.015	609
839.108	289
839.201	691
839.294	487
839.387	1056
839.480	711
839.573	1018
839.666	1622
839.759	1996
839.852	441
839.945	467
840.038	1041
840.131	1158
840.223	138
840.316	705
840.409	615
840.502	164
840.594	899
840.687	-584
840.780	752
840.873	351
840.965	1113
841.058	1159
841.150	1885
841.243	3231
841.336	1691
841.428	755
841.521	-225
841.613	615
841.706	903
841.798	593
841.890	-42
841.983	61
842.075	286
842.167	163
842.260	574
842.352	1286
842.444	512
842.537	2090
842.629	5359
842.721	4175
842.813	685
842.905	220
842.997	892
843.090	819
843.182	613
843.274	2344
843.366	4993
843.458	10836
843.550	16335
843.642	5824
843.734	895
843.826	824
843.918	1170
844.009	1332
844.101	684
844.193	1461
844.285	232
844.377	710
844.469	674
844.560	388
844.652	442
844.744	597
844.835	330
844.927	193
845.019	1000
845.110	694
845.202	760
845.293	740
845.385	591
845.476	525
845.568	584
845.659	1041
845.751	1108
845.842	895
845.934	-487
846.025	-59
846.116	291
846.208	-189
846.299	381
846.390	208
846.482	716
846.573	742
846.664	761
846.755	633
846.846	1957
846.937	355
847.029	734
847.120	-364
847.211	-288
847.302	1288
847.393	508
847.484	495
847.575	391
847.666	-294
847.757	402
847.847	31
847.938	1381
848.029	867
848.120	-243
848.211	-324
848.302	647
848.392	265
848.483	614
848.574	125
848.664	-2
848.755	387
848.846	314
848.936	-2
849.027	746
849.118	373
849.208	606
849.299	728
849.389	533
849.480	831
849.570	866
849.661	838
849.751	1860
849.841	2102
849.932	52
850.022	653
850.112	463
850.203	-59
850.293	87
850.383	-480
850.474	-69
850.564	320
850.654	-82
850.744	181
850.834	-466
850.924	380
851.014	402
851.104	19
851.194	-189
851.284	474
851.374	773
851.464	381
851.554	-51
851.644	1057
851.734	600
851.824	1394
851.914	1925
852.004	2625
852.094	4150
852.183	3235
852.273	1409
852.363	243
852.452	321
852.542	831
852.632	-569
852.721	860
852.811	321
852.901	-334
852.990	418
853.080	919
853.169	-178
853.259	-16
853.348	-191
853.438	382
853.527	300
853.617	200
853.706	220
853.795	57
853.885	1733
853.974	3503
854.063	5975
854.152	11114
854.242	12481
854.331	2637
854.420	529
854.509	516
854.598	195
854.687	37
854.777	1143
854.866	87
854.955	683
855.044	-158
855.133	-133
855.222	-620
855.311	47
855.400	-96
855.488	-247
855.577	339
855.666	457
855.755	705
855.844	492
855.933	1155
856.021	1095
856.110	259
856.199	-213
856.288	-244
856.376	-70
856.465	-209
856.554	-227
856.642	-624
856.731	740
856.819	744
856.908	509
856.996	341
857.085	249
857.173	-667
857.262	-56
857.350	45
857.438	-410
857.527	132
857.615	332
857.703	196
857.792	220
857.880	-250
857.968	-95
858.056	-893
858.145	-591
858.233	23
858.321	68
858.409	-12
858.497	138
858.585	628
858.673	578
858.761	-1017
858.849	-300
858.937	295
859.025	508
859.113	400
859.201	-282
859.289	322
859.377	-264
859.465	-252
859.552	338
859.640	580
859.728	895
859.816	256
859.903	-442
859.991	-647
860.079	1004
860.166	396
860.254	-510
860.342	295
860.429	-220
860.517	-736
860.604	705
860.692	-217
860.779	-663
860.867	-37
860.954	-320
861.042	-332
861.129	716
861.216	-360
861.304	227
861.391	310
861.478	-291
861.565	8
861.653	758
861.740	-310
861.827	-535
861.914	8
862.001	-197
862.089	-56
862.176	-192
862.263	-27
862.350	273
862.437	602
862.524	-385
862.611	-101
862.698	164
862.785	40
862.871	146
862.958	-543
863.045	-68
863.132	144
863.219	282
863.306	-772
863.392	24
863.479	-49
863.566	219
863.652	503
863.739	464
863.826	218
863.912	-746
863.999	-603
864.086	1083
864.172	-476
864.259	-262
864.345	-380
864.432	51
864.518	-158
864.604	-31
864.691	277
864.777	296
864.863	-461
864.950	215
865.036	-158
865.122	32
865.209	624
865.295	103
865.381	-525
865.467	-426
865.553	-177
865.639	-758
865.726	-385
865.812	760
865.898	843
865.984	2736
866.070	3654
866.156	8060
866.242	4411
866.328	458
866.414	-470
866.499	-314
866.585	726
866.671	-405
866.757	202
866.843	-733
866.928	-1050
867.014	16
867.100	441
867.186	-586
867.271	-7
867.357	433
867.442	640
867.528	1312
867.614	323
867.699	-218
867.785	77
867.870	-440
867.956	-388
868.041	546
868.127	113
868.212	189
868.297	374
868.383	-310
868.468	8
868.553	628
868.639	586
868.724	1008
868.809	3235
868.894	1437
868.979	-18
869.065	637
869.150	-689
869.235	-201
869.320	-116
869.405	-166
869.490	-158
869.575	-443
869.660	289
869.745	-594
869.830	-680
869.915	114
870.000	-457
870.085	-358
870.169	444
870.254	-316
870.339	-817
870.424	-801
870.509	-746
870.593	-609
870.678	311
870.763	-572
870.847	-130
870.932	-691
871.016	-282
871.101	-388
871.186	-491
871.270	-598
871.355	-845
871.439	-132
871.523	201
871.608	87
871.692	-957
871.777	-360
871.861	-287
871.945	-455
872.030	696
872.114	-574
872.198	-979
872.282	-672
872.367	-480
872.451	-349
872.535	-234
872.619	-499
872.703	-593
872.787	-535
872.871	550
872.955	-451
873.039	-194
873.123	-549
873.207	-749
873.291	24
873.375	-315
873.459	287
873.543	-635
873.627	-398
873.711	626
873.794	-331
873.878	-1104
873.962	-702
874.045	30
874.129	-473
874.137	-460
874.213	-327
874.245	-186
874.296	43
874.352	-240
874.380	-381
874.460	-393
874.464	-394
874.547	-887
874.568	-831
874.631	-669
874.676	-726
874.714	-771
874.784	-395
874.798	-326
874.881	19
874.892	-61
874.965	-566
874.999	-467
875.048	-373
875.107	-769
875.131	-911
875.215	-273
875.215	-273
875.298	-1374
875.323	-1283
875.381	-999
875.430	-85
875.465	535
875.538	265
875.548	227
875.631	-684
875.646	-646
875.714	-469
875.753	-820
875.798	-1196
875.861	-540
875.881	-350
875.964	-250
875.968	-246
876.047	-131
876.076	-346
876.130	-764
876.183	-106
876.213	258
876.291	-57
876.296	-74
876.379	-84
876.398	-23
876.462	178
876.506	-144
876.545	-464
876.613	24
876.628	139
876.711	-240
876.721	-137
876.794	616
876.828	312
876.877	-154
876.935	-444
876.960	-530
877.043	-302
877.043	-301
877.125	-101
877.150	-96
877.208	-37
877.258	-143
877.291	-274
877.365	-73
877.374	-22
877.456	-377
877.472	-245
877.539	58
877.579	-174
877.622	-373
877.687	-346
877.704	-314
877.787	219
877.794	165
877.869	-418
877.901	-438
877.952	-512
878.008	-639
878.034	-646
878.115	-125
878.117	-117
878.199	-506
878.222	-353
878.282	-2
878.329	-4
878.364	41
878.437	62
878.447	79
878.529	-98
878.544	-146
878.611	-582
878.651	-505
878.694	-375
878.758	-17
878.776	164
878.858	678
878.865	708
878.941	564
878.972	257
879.023	-213
879.078	-595
879.105	-627
879.185	30
879.187	38
879.269	-184
879.292	-271
879.351	-405
879.399	-188
879.433	-73
879.506	204
879.516	232
879.598	-415
879.613	-479
879.680	-688
879.720	-861
879.762	-848
879.827	-462
879.844	-465
879.926	-273
879.933	-300
880.007	-344
880.040	-338
880.089	-399
880.147	-221
880.171	-81
880.253	-139
880.254	-137
880.335	259
880.360	278
880.417	252
880.467	437
880.499	691
880.574	1039
880.580	1052
880.662	1119
880.680	911
880.744	86
880.787	13
880.825	-267
880.893	-801
880.907	-775
880.989	-250
881.000	-247
881.070	-307
881.106	-280
881.152	-450
881.213	-560
881.233	-475
881.315	-218
881.319	-187
881.396	199
881.426	208
881.478	65
881.532	-25
881.559	92
881.639	328
881.641	323
881.722	-35
881.745	-186
881.803	-358
881.852	-94
881.885	71
881.958	-83
881.966	-76
882.047	231
882.064	235
882.129	-144
882.171	-92
882.210	92
882.277	266
882.291	313
882.372	437
882.383	401
882.454	251
882.489	110
882.535	-297
882.596	-328
882.616	-248
882.697	-94
882.702	-90
882.778	17
882.808	-50
882.859	-78
882.914	176
882.940	324
883.020	507
883.021	506
883.102	309
883.127	147
883.183	265
883.233	96
883.264	-156
883.339	-455
883.345	-439
883.426	51
883.445	76
883.507	179
883.551	422
883.587	216
883.657	-482
883.668	-417
883.749	281
883.763	358
883.830	-56
883.869	-206
883.910	90
883.975	477
883.991	321
884.072	-196
884.081	-289
884.152	-344
884.187	-314
884.233	-62
884.292	272
884.314	223
884.394	62
884.398	34
884.475	-300
884.504	-290
884.555	-149
884.610	36
884.636	90
884.716	-167
884.716	-165
884.797	76
884.821	132
884.877	-172
884.927	-575
884.958	-424
885.033	246
885.038	242
885.118	-178
885.139	-238
885.199	-125
885.244	73
885.279	102
885.350	-282
885.359	-281
885.439	-219
885.456	-176
885.520	-150
885.561	-50
885.600	56
885.667	198
885.680	207
885.760	22
885.773	28
885.840	415
885.878	494
885.920	402
885.984	325
886.000	253
886.080	79
886.089	42
886.160	-212
886.195	-335
886.240	-299
886.300	-183
886.320	-40
886.400	424
886.406	439
886.480	198
886.511	247
886.560	281
886.616	244
886.640	345
886.720	398
886.722	401
886.800	-250
886.827	-487
886.879	-295
886.932	-80
886.959	-63
887.038	-117
887.039	-116
887.119	-57
887.143	-103
887.198	-239
887.248	-139
887.278	-9
887.354	85
887.358	77
887.437	-126
887.459	-166
887.517	448
887.564	939
887.596	806
887.669	525
887.676	531
887.755	415
887.774	415
887.835	551
887.880	652
887.914	701
887.985	732
887.994	676
888.073	52
888.090	-47
888.153	357
888.195	579
888.232	518
888.300	522
888.311	552
888.391	551
888.405	565
888.470	482
888.510	395
888.549	378
888.615	365
888.628	450
888.708	973
888.720	1056
888.787	341
888.825	-120
888.866	-99
888.930	-64
888.945	-95
889.024	-183
889.035	-200
889.103	182
889.140	396
889.182	449
889.245	494
889.261	487
889.340	482
889.349	480
889.419	581
889.454	635
889.498	511
889.559	324
889.577	350
889.656	479
889.664	492
889.735	568
889.768	607
889.814	825
889.873	1108
889.978	632
890.083	1018
890.187	862
890.292	801
890.397	251
890.501	623
890.606	125
890.710	237
890.815	733
890.919	644
891.024	918
891.128	854
891.233	1022
891.337	449
891.442	-70
891.546	510
891.650	902
891.755	1362
891.859	1228
891.963	-40
892.068	255
892.172	953
892.276	52
892.380	-207
892.484	-58
892.589	-24
892.693	1027
892.797	570
892.901	198
893.005	403
893.109	184
893.213	320
893.317	265
893.421	438
893.525	1200
893.629	596
893.733	-18
893.837	-27
893.941	-121
894.045	779
894.148	250
894.252	977
894.356	679
894.460	694
894.564	404
894.667	235
894.771	-89
894.875	533
894.978	-420
895.082	553
895.186	172
895.289	213
895.393	874
895.496	1299
895.600	274
895.703	279
895.807	-176
895.910	1048
896.014	-408
896.117	-44
896.221	335
896.324	516
896.427	151
896.531	-53
896.634	570
896.737	563
896.840	-77
896.944	-223
897.047	-257
897.150	770
897.253	-23
897.356	-165
897.460	-11
897.563	556
897.666	-11
897.769	-202
897.872	209
897.975	-76
898.078	191
898.181	-163
898.284	-393
898.387	599
898.490	-41
898.593	43
898.695	23
898.798	265
898.901	284
899.004	397
899.107	208
899.209	850
899.312	322
899.415	-166
899.518	-328
899.620	353
899.723	145
899.826	610
899.928	912
900.031	-508
900.133	199
900.236	132
900.338	-611
900.441	467
900.543	639
900.646	-579
900.748	38
900.851	181
900.953	96
901.055	449
901.158	-237
901.260	187
901.362	-329
901.465	-107
901.567	-45
901.669	165
901.771	-308
901.873	340
901.976	683
902.078	-15
902.180	-7
902.282	184
902.384	-437
902.486	751
902.588	-127
902.690	323
902.792	381
902.894	223
902.996	281
903.098	7
903.200	87
903.302	266
903.404	-194
903.505	616
903.607	752
903.709	215
903.811	548
903.913	-461
904.014	-565
904.116	526
904.218	-116
904.319	408
904.421	123
904.523	24
904.624	-188
904.726	-273
904.827	79
904.929	-289
905.030	636
905.132	-321
905.233	472
905.335	121
905.436	538
905.537	-370
905.639	527
905.740	-220
905.841	-180
905.943	620
906.044	-702
906.145	196
906.247	-214
906.348	109
906.449	1
906.550	716
906.651	-273
906.752	73
906.854	66
906.955	-17
907.056	169
907.157	142
907.258	-149
907.359	23
907.460	29
907.561	-254
907.662	187
907.762	-187
907.863	154
907.964	53
908.065	508
908.166	80
908.267	68
908.367	-165
908.468	-324
908.569	542
908.670	-231
908.770	191
908.871	-214
908.971	637
909.072	-344
909.173	49
909.273	6
909.374	55
909.474	-330
909.575	-61
909.675	-759
909.776	-82
909.876	-580
909.977	105
910.077	254
910.177	-503
910.278	-247
910.378	851
910.478	735
910.579	398
910.679	994
910.779	-313
910.879	96
910.980	264
911.080	-622
911.180	145
911.280	-493
911.380	-454
911.480	-87
911.580	-166
911.680	-519
911.780	-246
911.880	174
911.980	217
912.080	-159
912.180	5
912.280	244
912.380	4
912.480	-530
912.580	782
912.679	106
912.779	216
912.879	785
912.979	-823
913.078	478
913.178	561
913.278	115
913.377	-10
913.477	131
913.577	273
913.676	-492
913.776	-278
913.875	-9
913.975	-286
914.074	-72
914.174	305
914.273	-249
914.373	794
914.472	-345
914.572	-526
914.671	15
914.770	117
914.870	-24
914.969	557
915.068	441
915.167	160
915.267	554
915.366	707
915.465	-196
915.564	121
915.663	-26
915.763	-509
915.862	82
915.961	-152
916.060	-6
916.159	-489
916.258	430
916.357	43
916.456	981
916.555	-27
916.654	-380
916.752	-300
916.851	-769
916.950	389
917.049	-212
917.148	-481
917.247	138
917.345	-887
917.444	-99
917.543	-71
917.642	564
917.740	-292
917.839	-175
917.937	894
918.036	-855
918.135	-139
918.233	-197
918.332	510
918.430	-84
918.529	-404
918.627	174
918.726	70
918.824	-49
918.923	328
919.021	474
919.119	-578
919.218	286
919.316	-321
919.414	131
919.512	-116
919.611	-22
919.709	184
919.807	-183
919.905	206
920.003	372
920.102	145
920.200	-573
920.298	-161
920.396	211
920.494	-534
920.592	-1335
920.690	84
920.788	10
920.886	-123
920.984	193
921.082	-5
921.180	726
921.277	-846
921.375	-32
921.473	-140
921.571	229
921.669	-7
921.766	375
921.864	-320
921.962	605
922.060	-355
922.157	274
922.255	-275
922.352	415
922.450	340
922.548	-120
922.645	-676
922.743	-818
922.840	54
922.938	-456
923.035	93
923.133	-303
923.230	740
923.327	-105
923.425	138
923.522	555
923.619	133
923.717	287
923.814	96
923.911	-369
924.008	472
924.106	-586
924.203	567
924.300	-506
924.397	233
924.494	-436
924.591	-187
924.688	-77
924.786	366
924.883	-186
924.979	-57
925.077	-1024
925.173	46
925.270	237
925.367	141
925.464	46
925.561	252
925.658	-153
925.755	-825
925.852	143
925.948	536
926.045	418
926.142	64
926.239	128
926.335	141
926.432	-204
926.529	-52
926.625	-135
926.722	244
926.818	-436
926.915	627
927.011	-765
927.108	67
927.204	194
927.301	327
927.397	-640
927.494	298
927.590	-490
927.687	-262
927.783	46
927.879	-396
927.976	201
928.072	512
928.168	325
928.264	-224
928.361	-300
928.457	498
928.553	-68
928.649	-233
928.745	16
928.841	485
928.937	238
929.033	695
929.129	419
929.225	-226
929.321	-191
929.417	27
929.513	-25
929.609	-531
929.705	271
929.801	363
929.897	-494
929.993	-697
930.089	-33
930.184	317
930.280	101
930.376	-732
930.471	-366
930.567	336
930.663	136
930.758	124
930.854	-340
930.950	-126
931.045	81
931.141	70
931.236	-634
931.332	-755
931.427	-754
931.523	-979
931.618	639
931.714	-735
931.809	-624
931.905	361
932.000	-555
932.095	-957
932.191	-416
932.286	-196
932.381	-478
932.476	-304
932.572	-1049
932.667	170
932.762	-186
932.857	-421
932.952	-972
933.047	-277
933.142	279
933.237	-1085
933.332	-1052
933.427	-645
933.522	-592
933.617	-220
933.712	-662
933.807	-580
933.902	-283
933.997	-535
934.092	-562
934.187	-420
934.282	-327
934.376	-1058
934.471	-717
934.566	91
934.661	-1041
934.755	-251
934.850	-630
934.945	291
935.039	-854
935.134	-190
935.228	-774
935.323	-1182
935.417	-145
935.512	-555
935.606	-223
935.701	-415
935.795	-321
935.890	-389
935.984	-551
936.079	290
936.173	-378
936.267	286
936.362	-494
936.456	-433
936.550	-143
936.644	-537
936.738	-437
936.833	-389
936.927	-355
937.021	-679
937.115	-317
937.209	-511
937.303	-117
937.397	-43
937.491	-695
937.585	-308
937.679	-561
937.773	-263
937.867	-58
937.961	-41
938.055	-796
938.149	272
938.243	583
938.337	-214
938.430	-698
938.524	378
938.618	-763
938.712	-246
938.805	-690
938.899	-335
938.993	-622
939.086	-403
939.180	-952
939.274	-95
939.367	-630
939.461	59
939.554	442
939.648	-682
939.741	-136
939.835	-709
939.928	-440
940.022	-427
940.115	-133
940.208	-489
940.302	-698
940.395	-727
940.488	-930
940.582	-160
940.675	9
940.768	-369
940.861	94
940.954	-731
941.048	-1154
941.141	-104
941.234	-331
941.327	-182
941.420	-211
941.513	402
941.606	-795
941.699	-445
941.792	-451
941.885	-396
941.978	-804
942.071	-888
942.164	-898
942.257	-330
942.349	-651
942.442	69
942.535	-773
942.628	-949
942.721	340
942.813	-1326
942.906	-606
942.999	-1127
943.091	-539
943.184	-807
943.277	-492
943.369	-249
943.462	-727
943.554	-72
943.647	-589
943.739	-609
943.832	-273
943.924	-604
944.017	-983
944.109	-1232
944.201	-258
944.294	-567
944.386	-263
944.478	-312
944.571	-413
944.663	-207
944.755	-637
944.847	-476
944.940	-711
945.032	-6
945.124	-159
945.216	-6
945.308	-197
945.400	-657
945.492	190
945.584	-533
945.676	-730
945.768	-569
945.860	-975
945.952	-1072
946.044	-840
946.136	-992
946.228	-1060
946.320	-91
946.412	-407
946.503	-923
946.595	76
946.687	-967
946.779	-285
946.870	-418
946.962	-1048
947.054	-726
947.145	27
947.237	-548
947.329	-709
947.420	-659
947.512	-716
947.603	-763
947.695	-655
947.786	-468
947.878	-782
947.969	-559
948.061	-1133
948.152	-384
948.243	-376
948.335	-542
948.426	-389
948.517	-1126
948.609	-489
948.700	-229
948.791	-1272
948.882	-1299
948.973	-249
949.065	-1018
949.156	-655
949.247	-633
949.338	-255
949.429	-753
949.520	-232
949.611	-419
949.702	-904
949.793	-447
949.884	-383
949.975	-901
950.066	-987
950.157	-473
950.247	-819
950.338	-262
950.429	-375
950.520	-589
950.611	-993
950.701	-327
950.792	-434
950.883	-381
950.973	-148
951.064	-99
951.155	-854
951.245	-169
951.336	-639
951.427	-19
951.517	-645
951.608	-573
951.698	-1163
951.788	-644
951.879	-582
951.969	-1360
952.060	228
952.150	-333
952.240	-230
952.331	-1320
952.421	-286
952.511	-1087
952.602	107
952.692	-189
952.782	-839
952.872	-741
952.962	-889
953.052	110
953.143	-1081
953.233	-646
953.323	-776
953.413	-984
953.503	10
953.593	-231
953.683	-848
953.773	-1146
953.863	-1283
953.953	-810
954.042	-688
954.132	-640
954.222	-1368
954.312	445
954.402	-413
954.492	-812
954.581	33
954.671	-1090
954.761	-1090
954.850	-29
954.940	-486
955.030	-160
955.119	-1178
955.209	-572
955.298	-784
955.388	-380
955.477	94
955.567	-22
955.656	-476
955.746	-1077
955.835	-802
955.925	-979
956.014	-1410
956.103	-738
956.193	-614
956.282	-1124
956.371	-791
956.461	-735
956.550	-300
956.639	-180
956.728	-668
956.817	-737
956.906	-1300
956.995	-1323
957.085	-527
957.174	-665
957.263	-952
957.352	-499
957.441	-748
957.530	-47
957.619	70
957.708	-848
957.796	-234
957.885	-246
957.974	-853
958.063	-321
958.152	-1077
958.241	-687
958.329	-83
958.418	-144
958.507	-136
958.596	-464
958.684	-677
958.773	-512
958.861	-1480
958.950	30
959.039	-38
959.127	-436
959.216	-529
959.304	-537
959.393	-1345
959.481	-1222
959.570	-495
959.658	-357
959.746	-925
959.835	-433
959.923	-203
960.011	-70
960.100	-697
960.188	-359
960.276	-132
960.365	-366
960.453	203
960.541	-586
960.629	-519
960.717	-109
960.805	-214
960.893	-926
960.981	-218
961.069	-9
961.158	-751
961.245	-266
961.333	-585
961.421	72
961.509	-808
961.597	-523
961.685	-325
961.773	-667
961.861	-1068
961.949	-266
962.036	-906
962.124	-415
962.212	-658
962.299	-496
962.387	-308
962.475	-507
962.562	-499
962.650	-635
962.738	-318
962.825	-756
962.913	-1015
963.000	-960
963.088	-515
963.175	-471
963.263	-798
963.350	-650
963.438	-996
963.525	-321
963.612	-741
963.700	230
963.787	803
963.874	1632
963.962	-239
964.049	-782
964.136	-164
964.223	-1635
964.310	-1035
964.398	-738
964.485	-171
964.572	-816
964.659	-141
964.746	-154
964.833	-632
964.920	-799
965.007	-623
965.094	-199
965.181	-484
965.268	-560
965.355	-807
965.441	-226
965.528	-1027
965.615	-729
965.702	-700
965.789	-506
965.875	-975
965.962	172
966.049	-1322
966.136	-647
966.222	-1059
966.309	-521
966.395	-682
966.482	-680
966.569	-407
966.655	-1130
966.742	-1068
966.828	-697
966.915	-969
967.001	-532
967.087	-875
967.174	-760
967.260	-328
967.347	-475
967.433	-271
967.519	909
967.605	-96
967.692	-870
967.778	-856
967.864	-1039
967.950	-1202
968.036	-1335
968.123	357
968.209	-946
968.295	-741
968.381	-234
968.467	-302
968.553	-1099
968.639	-910
968.725	-471
968.811	-565
968.897	-69
968.983	-1656
969.069	-1128
969.154	-656
969.240	-461
969.326	-1339
969.412	-808
969.497	-987
969.583	-426
969.669	-245
969.755	-936
969.840	-860
969.926	-712
970.012	-204
970.097	-659
970.183	-1010
970.268	-492
970.354	-474
970.439	-747
970.525	778
970.610	-454
970.696	52
970.781	-1072
970.866	-331
970.952	-142
971.037	-571
971.122	-264
971.208	233
971.293	-63
971.378	-966
971.463	12
971.549	-1649
971.634	-1380
971.719	-882
971.804	-468
971.889	-222
971.974	-1150
972.059	-834
972.144	-583
972.229	-973
972.314	-488
972.399	-966
972.484	-901
972.569	-1113
972.654	-881
972.739	-1175
972.824	-1025
972.908	-313
972.993	-1488
973.078	-515
973.163	-837
973.247	-1336
973.332	-1042
973.417	46
973.501	-1247
973.586	-1218
973.671	-826
973.755	-1316
973.840	-745
973.924	-1470
974.009	-1146
974.093	-753
974.178	-225
974.262	-837
974.346	-33
974.431	-1087
974.515	-1108
974.600	-1274
974.684	-261
974.768	-1582
974.852	-498
974.937	-1240
975.021	73
975.105	-618
975.189	-1234
975.273	-1239
975.358	-868
975.442	-968
975.526	-887
975.610	-1017
975.694	-832
975.778	-374
975.862	-1623
975.946	-1236
976.030	-44
976.114	-1371
976.198	-1139
976.281	-1350
976.365	-292
976.449	-867
976.533	-829
976.617	-1272
976.700	-491
976.784	-695
976.868	-1550
976.951	-1498
977.035	-703
977.119	-1004
977.202	-823
977.286	-732
977.369	-41
977.453	-419
977.536	-1057
977.620	-939
977.703	-843
977.787	-1846
977.870	-315
977.953	-424
978.037	-1692
978.120	-730
978.203	-1302
978.287	224
978.370	-720
978.453	-1182
978.536	-565
978.620	-968
978.703	-365
978.786	125
978.869	-1359
978.952	-986
979.035	-554
979.118	-221
979.201	-342
979.284	-738
979.367	-198
979.450	-838
979.533	-567
979.616	-1561
979.699	-935
979.782	-611
979.865	-959
979.948	-743
980.030	-1185
980.113	-1130
980.196	-1503
980.279	-980
980.361	-948
980.444	-1030
980.526	-116
980.609	-740
980.692	-1348
980.774	-1509
980.857	-1272
980.939	-356
981.022	-1133
981.104	-1186
981.187	-1526
981.269	-1214
981.352	-1458
981.434	-1711
981.516	-1124
981.599	-610
981.681	-1289
981.763	-1160
981.846	-1347
981.928	-433
982.010	-1237
982.092	-1275
982.174	-825
982.256	-1667
982.339	-1857
982.421	-1148
982.503	-757
982.585	-1569
982.667	-759
982.749	-524
982.831	-1239
982.913	-1716
982.995	-935
983.077	-1745
983.158	-733
983.240	-1409
983.322	-427
983.404	-1416
983.486	-1599
983.568	-1104
983.649	-988
983.731	-1054
983.813	-1544
983.894	-1172
983.976	-1443
984.058	-1124
984.139	-851
984.221	-1185
984.302	-1203
984.384	-900
984.465	-996
984.547	-1381
984.628	-1073
984.710	-1153
984.791	-1524
984.872	-1368
984.954	-1488
985.035	-1118
985.116	-1779
985.198	-713
985.279	-1025
985.360	-1297
985.441	-1911
985.522	-1391
985.604	-1281
985.685	-2582
985.766	-404
985.847	-814
985.928	-1066
986.009	-1330
986.090	-1988
986.171	-1033
986.252	-400
986.333	-1524
986.414	-1430
986.495	-1241
986.576	-598
986.656	-1469
986.737	-796
986.818	-1396
986.899	-1208
986.980	-1873
987.060	-1002
987.141	-1182
987.222	-899
987.302	-1238
987.383	-1003
987.464	-1931
987.544	-1160
987.625	-645
987.705	-649
987.786	-1308
987.866	-1265
987.947	-483
988.027	-1047
988.108	-1580
988.188	-1124
988.268	-671
988.349	-589
988.429	-707
988.509	-1072
988.589	-2032
988.670	-2256
988.750	-1345
988.830	-1823
988.910	-1398
988.990	-1519
989.070	-1806
989.151	-732
989.231	-856
989.311	-777
989.391	-1268
989.471	-431
989.551	-1366
989.631	-1155
989.711	-1246
989.791	-1100
989.870	-1049
989.950	-632
990.030	-944
990.110	-736
990.190	-1645
990.269	-1274
990.349	-2007
990.429	-1020
990.509	-1331
990.588	-872
990.668	-1468
990.747	-793
990.827	-1883
990.907	-975
990.986	-1147
991.066	-1042
991.145	-1096
991.225	-950
991.304	-1495
991.383	-706
991.463	-761
991.542	-1269
991.622	-1184
991.701	-1257
991.780	-1548
991.859	-898
991.939	-1271
992.018	-775
992.097	-1095
992.176	-794
992.256	-897
992.335	-1130
992.414	-764
992.493	-891
992.572	-917
992.651	-1658
992.730	-1172
992.809	-752
992.888	-999
992.967	-938
993.046	-423
993.125	-1245
993.203	-777
993.282	-367
993.361	-1144
993.440	-985
993.519	-1931
993.597	-1101
993.676	-550
993.755	-1258
993.834	-769
993.912	-1032
993.991	-1474
994.069	-980
994.148	-1390
994.226	-1021
994.305	-619
994.384	-1307
994.462	-951
994.540	-1114
994.619	-1547
994.697	-1527
994.776	-1957
994.854	-1281
994.932	-1159
995.011	-1347
995.089	-999
995.167	-235
995.245	-1618
995.324	-1558
995.402	-1355
995.480	-756
995.558	-862
995.636	-1505
995.714	-874
995.792	-1086
995.870	-1414
995.948	-1138
996.026	-1019
996.104	-1428
996.182	-1130
996.260	-750
996.338	-1592
996.416	-1011
996.494	-753
996.572	-361
996.649	-414
996.727	-985
996.805	-1056
996.883	-593
996.960	-1153
997.038	-974
997.116	-396
997.193	-1129
997.271	-748
997.348	-1315
997.426	-898
997.504	-1043
997.581	-1039
997.658	-1219
997.736	-1009
997.813	-663
997.891	-1296
997.968	-1406
998.046	-1088
998.123	-1354
998.200	-1531
998.277	-1174
998.355	-1225
998.432	-1899
998.509	-1061
998.586	-1214
998.663	-566
998.741	-105
998.818	-931
998.895	-1201
998.972	-854
999.049	-1672
999.126	-1249
999.203	-410
999.280	-894
999.357	-1024
999.434	-1824
999.511	-399
999.587	-1441
999.664	-1132
999.741	-797
999.818	-1017
999.895	-799
999.971	-1297
1000.048	-913
1000.125	-879
1000.202	-1455
1000.278	-584
1000.355	-1033
1000.431	-1165
1000.508	-1573
1000.584	-1298
1000.661	-1159
1000.738	-1818
1000.814	-1240
1000.890	-467
1000.967	-1576
1001.043	-1012
1001.120	-1298
1001.196	-1070
1001.272	-1299
1001.349	-1121
1001.425	-936
1001.501	-587
1001.577	-879
1001.654	-845
1001.730	-1334
1001.806	-963
1001.882	-1406
1001.958	-1260
1002.034	-1702
1002.110	-1049
1002.186	-991
1002.262	-910
1002.338	-1782
1002.414	-526
1002.490	-370
1002.566	-1089
1002.642	-1518
1002.718	-875
1002.794	-1223
1002.870	-875
1002.945	-1641
1003.021	-1384
1003.097	-1066
1003.173	-949
1003.248	-1624
1003.324	-1230
1003.400	-1423
1003.475	-1339
1003.551	-1027
1003.626	-549
1003.702	-1151
1003.777	-1506
1003.853	-1045
1003.928	-1313
1004.004	-1463
1004.079	96
1004.155	-1142
1004.230	-2388
1004.305	-862
1004.381	-1562
1004.456	-990
1004.531	-1216
1004.607	-1246
1004.682	-1210
1004.757	-1697
1004.832	-1193
1004.907	-1592
1004.982	-1189
1005.057	-1528
1005.133	-1564
1005.208	-1319
1005.283	-1121
1005.358	-1152
1005.433	-924
1005.508	-1648
1005.583	-1753
1005.657	-521
1005.732	-1040
1005.807	-1975
1005.882	-908
1005.957	-1206
1006.032	-1467
1006.106	-588
1006.181	-579
1006.256	-1714
1006.331	-1067
1006.405	-1181
1006.480	-974
1006.554	-1310
1006.629	-357
1006.704	-979
1006.778	-1423
1006.853	-1240
1006.927	-1078
1007.002	-300
1007.076	-1398
1007.150	-1761
1007.225	-1460
1007.299	-1049
1007.373	-1333
1007.448	-1662
1007.522	-398
1007.596	-816
1007.671	-1943
1007.745	-704
1007.819	-1744
1007.893	-1197
1007.967	-1882
1008.041	-1534
1008.115	-489
1008.190	-1625
1008.264	-879
1008.338	-1447
1008.412	-1774
1008.486	-1557
1008.560	-1000
1008.633	-1373
1008.707	-795
1008.781	-879
1008.855	-1065
1008.929	-1559
1009.003	-1145
1009.076	-1392
1009.150	-938
1009.224	-797
1009.298	-1634
1009.371	-1296
1009.445	-1217
1009.519	-1484
1009.592	-1189
1009.666	-1072
1009.739	-1201
1009.813	-2223
1009.886	-626
1009.960	-1124
1010.033	-1430
1010.107	-1506
1010.180	-654
1010.253	-2229
1010.327	-1509
1010.400	-1437
1010.473	-1401
1010.547	-986
1010.620	-1469
1010.693	-665
1010.766	-1888
1010.840	-1654
1010.913	-1605
1010.986	-796
1011.059	-1689
1011.132	-1794
1011.205	-1796
1011.278	-1049
1011.351	-1454
1011.424	-780
1011.497	-561
1011.570	-1617
1011.643	-824
1011.716	-2040
1011.789	-1977
1011.862	-1565
1011.934	-782
1012.007	-1901
1012.080	-961
1012.153	-1103
1012.225	-739
1012.298	-728
1012.371	-1665
1012.443	-805
1012.516	-1237
1012.588	-984
1012.661	-1538
1012.733	-1027
1012.806	-881
1012.879	-1504
1012.951	-1793
1013.023	-1668
1013.096	-1353
1013.168	-1511
1013.241	-1569
1013.313	-1595
1013.385	-1737
1013.458	-1753
1013.530	-1421
1013.602	-1588
1013.674	-1253
1013.746	-1647
1013.819	-1715
1013.891	-1355
1013.963	-1711
1014.035	-1414
1014.107	-1610
1014.179	-973
1014.251	-1358
1014.323	-762
1014.395	-782
1014.467	-974
1014.539	-1339
1014.611	-2093
1014.683	-1134
1014.754	-1460
1014.826	-1842
1014.898	-1632
1014.970	-1987
1015.042	-490
1015.113	-635
1015.185	-1303
1015.257	-1955
1015.328	-2130
1015.400	-1182
1015.471	-1588
1015.543	-1271
1015.615	-1569
1015.686	-2130
1015.757	-1742
1015.829	-1091
1015.901	-958
1015.972	-1220
1016.043	-1684
1016.115	-1362
1016.186	-1731
1016.257	-1433
1016.328	-1279
1016.400	-880
1016.471	-1484
1016.542	-1894
1016.613	-1238
1016.685	-1618
1016.756	-1276
1016.827	-894
1016.898	-1987
1016.969	-640
1017.040	-1599
1017.111	-1396
1017.182	-1245
1017.253	-1479
1017.324	-1321
1017.395	-1963
1017.466	-1476
1017.537	-1791
1017.608	-1573
1017.678	-1179
1017.749	-2607
1017.820	-1704
1017.891	-1857
1017.961	-1748
1018.032	-1353
1018.103	-1940
1018.173	-2278
1018.244	-1137
1018.315	-1104
1018.385	-1677
1018.456	-1571
1018.526	-1387
1018.597	-1293
1018.667	-1618
1018.738	-2217
1018.808	-1375
1018.878	-2071
1018.949	-2273
1019.019	-1803
1019.089	-1405
1019.160	-1896
1019.230	-2156
1019.300	-696
1019.371	-1598
1019.441	-1096
1019.511	-778
1019.581	-1421
1019.651	-1162
1019.721	-1550
1019.791	-1381
1019.861	-1768
1019.931	-1584
1020.001	-1930
1020.071	-926
1020.141	-1932
1020.211	-1996
1020.281	-2256
1020.351	-1719
1020.421	-1385
1020.491	-1457
1020.560	-1344
1020.630	-1521
1020.700	-1813
1020.770	-1256
1020.839	-2065
1020.909	-1357
1020.979	-2660
1021.048	-1881
1021.118	-1327
1021.187	-1657
1021.257	-1976
1021.326	-1405
1021.396	-1828
1021.465	-267
1021.535	-1479
1021.604	-1757
1021.674	-1646
1021.743	-1253
1021.812	-2020
1021.882	-2462
1021.951	-2153
1022.020	-1846
1022.089	-2147
1022.159	-2129
1022.228	-1238
1022.297	-1835
1022.366	-1412
1022.435	-1937
1022.504	-908
1022.573	-1849
1022.642	-1316
1022.711	-2034
1022.781	-1541
1022.849	-1599
1022.918	-1941
1022.987	-838
1023.056	-2422
1023.125	-2482
1023.194	-1031
1023.263	-1817
1023.331	-1023
1023.400	-1881
1023.469	-2146
1023.538	-1043
1023.606	-1787
1023.675	-1999
1023.744	-1830
1023.812	-1269
1023.881	-1733
1023.949	-1012
1024.018	-1877
1024.086	-1050
1024.155	-1251
1024.223	-2031
1024.292	-1430
1024.360	-1760
1024.429	-1563
1024.497	-1922
1024.565	-979
1024.634	-1528
1024.702	-1323
1024.770	-1422
1024.838	-1263
1024.907	-1515
1024.975	-1593
1025.043	-1821
1025.111	-1556
1025.179	-896
1025.247	-1917
1025.315	-1561
1025.383	-1130
1025.451	-1855
1025.519	-1976
1025.587	-1676
1025.655	-1859
1025.723	-1869
1025.791	-1154
1025.859	-1612
1025.927	-1204
1025.995	-1931
1026.062	-1839
1026.130	-1296
1026.198	-2091
1026.266	-1404
1026.333	-1645
1026.401	-1557
1026.469	-2309
1026.536	-1221
1026.604	-1877
1026.671	-2414
1026.739	-1492
1026.806	-1862
1026.874	-1564
1026.941	-2177
1027.009	-1647
1027.076	-2181
1027.144	-1520
1027.211	-1554
1027.278	-2290
1027.345	-1516
1027.413	-1517
1027.480	-824
1027.547	-2055
1027.614	-1589
1027.682	-1636
1027.749	-1960
1027.816	-1693
1027.883	-1671
1027.950	-2003
1028.017	-2757
1028.084	-2052
1028.151	-2198
1028.218	-2251
1028.285	-1390
1028.352	-2970
1028.419	-1492
1028.486	-1909
1028.553	-1844
1028.619	-2023
1028.686	-1586
1028.753	-1613
1028.820	-1823
1028.886	-1239
1028.953	-2197
1029.020	-1401
1029.086	-1683
1029.153	-1364
1029.220	-1190
1029.286	-1976
1029.353	-1318
1029.419	-2433
1029.486	-1731
1029.552	-1497
1029.619	-1524
1029.685	-1216
1029.751	-1253
1029.818	-854
1029.884	-2130
1029.951	-1185
1030.017	-1647
1030.083	-1871
1030.149	-1516
1030.216	-1817
1030.282	-1403
1030.348	-1505
1030.414	-2307
1030.480	-2070
1030.546	-1843
1030.612	-1391
1030.678	-1392
1030.744	-1309
1030.810	-1997
1030.876	-1801
1030.942	-2134
1031.008	-1355
1031.074	-1726
1031.140	-1739
1031.206	-1529
1031.272	-1978
1031.337	-1763
1031.403	-1292
1031.469	-1644
1031.534	-2309
1031.600	-2270
1031.666	-1702
1031.731	-2725
1031.797	-865
1031.863	-2397
1031.928	-1857
1031.994	-1693
1032.059	-1986
1032.125	-1229
1032.190	-1834
1032.256	-891
1032.321	-1775
1032.386	-1178
1032.452	-1376
1032.517	-2682
1032.582	-1403
1032.647	-1891
1032.713	-2042
1032.778	-857
1032.843	-1435
1032.908	-2443
1032.974	-1902
1033.039	-1549
1033.104	-1508
1033.169	-1853
1033.234	-1895
1033.299	-1622
1033.364	-1820
1033.429	-2009
1033.494	-2011
1033.559	-2123
1033.624	-1269
1033.688	-1880
1033.753	-2782
1033.818	-1615
1033.883	-2105
1033.948	-2124
1034.013	-1181
1034.077	-1542
1034.142	-1796
1034.207	-2209
1034.271	-1496
1034.336	-1488
1034.400	-1425
1034.465	-2095
1034.530	-1795
1034.594	-1514
1034.658	-1360
1034.723	-2327
1034.787	-1383
1034.852	-1943
1034.916	-1831
1034.981	-1316
1035.045	-1706
1035.109	-1982
1035.173	-1097
1035.238	-1555
1035.302	-1613
1035.366	-1717
1035.430	-1846
1035.495	-1778
1035.559	-1982
1035.623	-1205
1035.687	-1868
1035.751	-2087
1035.815	-1240
1035.879	-1048
1035.943	-2013
1036.007	-1390
1036.071	-1915
1036.135	-2139
1036.198	-2353
1036.262	-1770
1036.326	-1970
1036.390	-1762
1036.454	-1833
1036.517	-1428
1036.581	-1431
1036.645	-2580
1036.709	-909
1036.772	-1997
1036.836	-1963
1036.900	-2448
1036.963	-1993
1037.026	-672
1037.090	-2266
1037.154	-1492
1037.217	-1525
1037.280	-2625
1037.344	-2494
1037.407	-1755
1037.471	-1279
1037.534	-1863
1037.597	-2361
1037.661	-1750
1037.724	-1559
1037.787	-2746
1037.850	-1895
1037.913	-2205
1037.977	-1241
1038.040	-2376
1038.103	-1447
1038.166	-1991
1038.229	-1679
1038.292	-1886
1038.355	-1926
1038.418	-1150
1038.481	-2046
1038.544	-1966
1038.607	-2941
1038.670	-2156
1038.732	-1638
1038.795	-2137
1038.858	-2220
1038.921	-2238
1038.984	-1684
1039.046	-1488
1039.109	-2022
1039.172	-1302
1039.234	-1385
1039.297	-1087
1039.360	-1307
1039.422	-2764
1039.485	-1768
1039.547	-1831
1039.610	-1319
1039.672	-2018
1039.734	-1793
1039.797	-1720
1039.859	-2068
1039.922	-2523
1039.984	-1943
1040.046	-1529
1040.109	-2000
1040.171	-1969
1040.233	-1714
1040.295	-2173
1040.358	-2489
1040.420	-1019
1040.482	-1920
1040.544	-1759
1040.606	-1967
1040.668	-2022
1040.730	-823
1040.792	-1546
1040.854	-1313
1040.916	-2303
1040.978	-2853
1041.040	-1127
1041.102	-1862
1041.164	-2052
1041.225	-2362
1041.287	-1761
1041.349	-2217
1041.411	-1678
1041.472	-2379
1041.534	-2203
1041.596	-2041
1041.657	-1228
1041.719	-1426
1041.781	-2326
1041.842	-2479
1041.904	-1499
1041.965	-1784
1042.027	-1205
1042.088	-1926
1042.150	-1062
1042.211	-1421
1042.272	-1619
1042.334	-1709
1042.395	-1605
1042.456	-2511
1042.518	-1894
1042.579	-1201
1042.640	-1508
1042.701	-2697
1042.763	-1823
1042.824	-1802
1042.885	-2223
1042.946	-1979
1043.007	-2058
1043.068	-1865
1043.129	-2008
1043.190	-1825
1043.251	-1118
1043.312	-2534
1043.373	-2003
1043.434	-1771
1043.495	-1841
1043.556	-1832
1043.616	-1262
1043.677	-2105
1043.738	-2005
1043.799	-2302
1043.859	-2004
1043.920	-2618
1043.981	-1868
1044.041	-1799
1044.102	-2203
1044.162	-1428
1044.223	-1873
1044.284	-1552
1044.344	-2409
1044.405	-1768
1044.465	-2022
1044.525	-2017
1044.586	-1938
1044.646	-1806
1044.707	-1597
1044.767	-1971
1044.827	-1772
1044.887	-2079
1044.948	-1886
1045.008	-1506
1045.068	-2162
1045.128	-2454
1045.188	-1726
1045.249	-1695
1045.309	-2039
1045.369	-933
1045.429	-1614
1045.489	-2072
1045.549	-1783
1045.609	-1613
1045.669	-1544
1045.729	-2595
1045.789	-1661
1045.848	-1228
1045.908	-1877
1045.968	-1796
1046.028	-1849
1046.088	-1251
1046.147	-1683
1046.207	-1486
1046.267	-1814
1046.326	-1724
1046.386	-1940
1046.446	-1360
1046.505	-1429
1046.565	-797
1046.624	-1198
1046.684	-1327
1046.743	-1424
1046.803	-539
1046.862	-1089
1046.922	0
